num,mod,duration,shape,ll_cond,colors,.thisRepN,.thisTrialN,.thisN,.thisIndex,thisRow.t,notes,raw_global_time,t_start,t_stop,pos,fonts,size,button,answer,RT,participant,session,starting_run,left button (match/odd),right button (non-match/even),samples_per_block,psychopy version,expName,offset,audio,number_runs,radius,
1,digit,0.3,['dot'],['big_1'],white,0,0,0,0,,,2.400218963623047,2.110893964767456,2.4106528759002686,"[[0.09840783840817471, -0.09450440726431181]]",['DejaVu Sans'],[0.9],,,,N011,digit,5,"['6', '7', '8', '9']","['1', '2', '3', '4']",1,2023.2.3,harveydigits,2.1,[],8,0.75,
0,pause,0.4,None,None,None,0,1,1,1,,,,,,,,,,,,N011,digit,5,"['6', '7', '8', '9']","['1', '2', '3', '4']",1,2023.2.3,harveydigits,2.1,[],8,0.75,
1,digit,0.3,['dot'],['big_1'],white,0,2,2,2,,,3.100252866744995,2.8106558322906494,3.1114728450775146,"[[-0.09420283885388234, -0.0642968249271862]]",['DejaVu Sans'],[0.9],left,odd,2.8696138858795166,N011,digit,5,"['6', '7', '8', '9']","['1', '2', '3', '4']",1,2023.2.3,harveydigits,2.1,[],8,0.75,
0,pause,0.4,None,None,None,0,3,3,3,,,,,,,,,,,,N011,digit,5,"['6', '7', '8', '9']","['1', '2', '3', '4']",1,2023.2.3,harveydigits,2.1,[],8,0.75,
1,digit,0.3,['dot'],['big_1'],white,0,4,4,4,,,3.800205945968628,3.5111780166625977,3.811436891555786,"[[-0.13243984184484026, 0.06168981082892458]]",['DejaVu Sans'],[0.9],,,,N011,digit,5,"['6', '7', '8', '9']","['1', '2', '3', '4']",1,2023.2.3,harveydigits,2.1,[],8,0.75,
0,pause,0.4,None,None,None,0,5,5,5,,,,,,,,,,,,N011,digit,5,"['6', '7', '8', '9']","['1', '2', '3', '4']",1,2023.2.3,harveydigits,2.1,[],8,0.75,
1,digit,0.3,['dot'],['big_1'],white,0,6,6,6,,,4.500205993652344,4.211477041244507,4.511117935180664,"[[0.1491146490796831, -0.07584006082285763]]",['DejaVu Sans'],[0.9],,,,N011,digit,5,"['6', '7', '8', '9']","['1', '2', '3', '4']",1,2023.2.3,harveydigits,2.1,[],8,0.75,
0,pause,0.4,None,None,None,0,7,7,7,,,,,,,,,,,,N011,digit,5,"['6', '7', '8', '9']","['1', '2', '3', '4']",1,2023.2.3,harveydigits,2.1,[],8,0.75,
1,digit,0.3,['dot'],['big_1'],white,0,8,8,8,,,5.200218915939331,4.911131858825684,5.211094856262207,"[[0.05649662473851905, 0.18700610775351442]]",['DejaVu Sans'],[0.9],,,,N011,digit,5,"['6', '7', '8', '9']","['1', '2', '3', '4']",1,2023.2.3,harveydigits,2.1,[],8,0.75,
0,pause,0.4,None,None,None,0,9,9,9,,,,,,,,,,,,N011,digit,5,"['6', '7', '8', '9']","['1', '2', '3', '4']",1,2023.2.3,harveydigits,2.1,[],8,0.75,
1,digit,0.3,['dot'],['big_1'],white,0,10,10,10,,,5.900200843811035,5.612846851348877,5.912813901901245,"[[-0.00655904460417106, 0.01973125184544125]]",['DejaVu Sans'],[0.9],,,,N011,digit,5,"['6', '7', '8', '9']","['1', '2', '3', '4']",1,2023.2.3,harveydigits,2.1,[],8,0.75,
0,pause,0.4,None,None,None,0,11,11,11,,,,,,,,,,,,N011,digit,5,"['6', '7', '8', '9']","['1', '2', '3', '4']",1,2023.2.3,harveydigits,2.1,[],8,0.75,
2,digit,0.3,['dot'],['big_1'],black,0,12,12,12,,,6.600210905075073,6.312810897827148,6.612818002700806,"[[-0.12537211422153927, -0.08570452828383014]]",['DejaVu Sans'],[0.9],,,,N011,digit,5,"['6', '7', '8', '9']","['1', '2', '3', '4']",1,2023.2.3,harveydigits,2.1,[],8,0.75,
0,pause,0.4,None,None,None,0,13,13,13,,,,,,,,,,,,N011,digit,5,"['6', '7', '8', '9']","['1', '2', '3', '4']",1,2023.2.3,harveydigits,2.1,[],8,0.75,
2,digit,0.3,['dot'],['big_1'],black,0,14,14,14,,,7.300214052200317,7.0128278732299805,7.312798976898193,"[[-0.10756771143914942, -0.04271755205394201]]",['DejaVu Sans'],[0.9],,,,N011,digit,5,"['6', '7', '8', '9']","['1', '2', '3', '4']",1,2023.2.3,harveydigits,2.1,[],8,0.75,
0,pause,0.4,None,None,None,0,15,15,15,,,,,,,,,,,,N011,digit,5,"['6', '7', '8', '9']","['1', '2', '3', '4']",1,2023.2.3,harveydigits,2.1,[],8,0.75,
2,digit,0.3,['dot'],['big_1'],black,0,16,16,16,,,8.000221014022827,7.712798833847046,8.012781858444214,"[[0.14199594773633065, 0.018486375043518383]]",['DejaVu Sans'],[0.9],,,,N011,digit,5,"['6', '7', '8', '9']","['1', '2', '3', '4']",1,2023.2.3,harveydigits,2.1,[],8,0.75,
0,pause,0.4,None,None,None,0,17,17,17,,,,,,,,,,,,N011,digit,5,"['6', '7', '8', '9']","['1', '2', '3', '4']",1,2023.2.3,harveydigits,2.1,[],8,0.75,
2,digit,0.3,['dot'],['big_1'],black,0,18,18,18,,,8.70022702217102,8.412799835205078,8.712784051895142,"[[-0.030183387039049825, 0.173039417415275]]",['DejaVu Sans'],[0.9],,,,N011,digit,5,"['6', '7', '8', '9']","['1', '2', '3', '4']",1,2023.2.3,harveydigits,2.1,[],8,0.75,
0,pause,0.4,None,None,None,0,19,19,19,,,,,,,,,,,,N011,digit,5,"['6', '7', '8', '9']","['1', '2', '3', '4']",1,2023.2.3,harveydigits,2.1,[],8,0.75,
2,digit,0.3,['dot'],['big_1'],black,0,20,20,20,,,9.400203943252563,9.1127610206604,9.412729024887085,"[[-0.13233479320125274, -0.11984165399337521]]",['DejaVu Sans'],[0.9],,,,N011,digit,5,"['6', '7', '8', '9']","['1', '2', '3', '4']",1,2023.2.3,harveydigits,2.1,[],8,0.75,
0,pause,0.4,None,None,None,0,21,21,21,,,,,,,,,,,,N011,digit,5,"['6', '7', '8', '9']","['1', '2', '3', '4']",1,2023.2.3,harveydigits,2.1,[],8,0.75,
2,digit,0.3,['dot'],['big_1'],black,0,22,22,22,,,10.100204944610596,9.812741994857788,10.1127188205719,"[[0.15668379149582815, 0.1142877392249403]]",['DejaVu Sans'],[0.9],,,,N011,digit,5,"['6', '7', '8', '9']","['1', '2', '3', '4']",1,2023.2.3,harveydigits,2.1,[],8,0.75,
0,pause,0.4,None,None,None,0,23,23,23,,,,,,,,,,,,N011,digit,5,"['6', '7', '8', '9']","['1', '2', '3', '4']",1,2023.2.3,harveydigits,2.1,[],8,0.75,
3,digit,0.3,['dot'],['big_1'],white,0,24,24,24,,,10.800217866897583,10.512722969055176,10.812692880630493,"[[-0.17953832767470565, 0.02414419293429987]]",['DejaVu Sans'],[0.9],,,,N011,digit,5,"['6', '7', '8', '9']","['1', '2', '3', '4']",1,2023.2.3,harveydigits,2.1,[],8,0.75,
0,pause,0.4,None,None,None,0,25,25,25,,,,,,,,,,,,N011,digit,5,"['6', '7', '8', '9']","['1', '2', '3', '4']",1,2023.2.3,harveydigits,2.1,[],8,0.75,
3,digit,0.3,['dot'],['big_1'],white,0,26,26,26,,,11.500224828720093,11.212707042694092,11.512682914733887,"[[0.0015848931882861128, -0.10649154970517252]]",['DejaVu Sans'],[0.9],left,odd,11.104599952697754,N011,digit,5,"['6', '7', '8', '9']","['1', '2', '3', '4']",1,2023.2.3,harveydigits,2.1,[],8,0.75,
0,pause,0.4,None,None,None,0,27,27,27,,,,,,,,,,,,N011,digit,5,"['6', '7', '8', '9']","['1', '2', '3', '4']",1,2023.2.3,harveydigits,2.1,[],8,0.75,
3,digit,0.3,['dot'],['big_1'],white,0,28,28,28,,,12.200220823287964,11.912819862365723,12.212805986404419,"[[0.0582085274977798, 0.14826124435267746]]",['DejaVu Sans'],[0.9],,,,N011,digit,5,"['6', '7', '8', '9']","['1', '2', '3', '4']",1,2023.2.3,harveydigits,2.1,[],8,0.75,
0,pause,0.4,None,None,None,0,29,29,29,,,,,,,,,,,,N011,digit,5,"['6', '7', '8', '9']","['1', '2', '3', '4']",1,2023.2.3,harveydigits,2.1,[],8,0.75,
3,digit,0.3,['dot'],['big_1'],white,0,30,30,30,,,12.90021300315857,12.612804889678955,12.912780046463013,"[[-0.07241231142187946, -0.10563207935794837]]",['DejaVu Sans'],[0.9],,,,N011,digit,5,"['6', '7', '8', '9']","['1', '2', '3', '4']",1,2023.2.3,harveydigits,2.1,[],8,0.75,
0,pause,0.4,None,None,None,0,31,31,31,,,,,,,,,,,,N011,digit,5,"['6', '7', '8', '9']","['1', '2', '3', '4']",1,2023.2.3,harveydigits,2.1,[],8,0.75,
3,digit,0.3,['dot'],['big_1'],white,0,32,32,32,,,13.600214004516602,13.31278395652771,13.612750053405762,"[[0.12715581616347685, -0.07142898211414381]]",['DejaVu Sans'],[0.9],,,,N011,digit,5,"['6', '7', '8', '9']","['1', '2', '3', '4']",1,2023.2.3,harveydigits,2.1,[],8,0.75,
0,pause,0.4,None,None,None,0,33,33,33,,,,,,,,,,,,N011,digit,5,"['6', '7', '8', '9']","['1', '2', '3', '4']",1,2023.2.3,harveydigits,2.1,[],8,0.75,
3,digit,0.3,['dot'],['big_1'],white,0,34,34,34,,,14.300215005874634,14.01277494430542,14.312744855880737,"[[-0.05775966847828709, 0.1340300980349515]]",['DejaVu Sans'],[0.9],,,,N011,digit,5,"['6', '7', '8', '9']","['1', '2', '3', '4']",1,2023.2.3,harveydigits,2.1,[],8,0.75,
0,pause,0.4,None,None,None,0,35,35,35,,,,,,,,,,,,N011,digit,5,"['6', '7', '8', '9']","['1', '2', '3', '4']",1,2023.2.3,harveydigits,2.1,[],8,0.75,
4,digit,0.3,['dot'],['big_1'],black,0,36,36,36,,,15.000205039978027,14.712589025497437,15.012645959854126,"[[-0.13584735192055927, 0.06656286058732314]]",['DejaVu Sans'],[0.9],,,,N011,digit,5,"['6', '7', '8', '9']","['1', '2', '3', '4']",1,2023.2.3,harveydigits,2.1,[],8,0.75,
0,pause,0.4,None,None,None,0,37,37,37,,,,,,,,,,,,N011,digit,5,"['6', '7', '8', '9']","['1', '2', '3', '4']",1,2023.2.3,harveydigits,2.1,[],8,0.75,
4,digit,0.3,['dot'],['big_1'],black,0,38,38,38,,,15.700217008590698,15.412649869918823,15.712599992752075,"[[0.10290548852110268, -0.09477622976682512]]",['DejaVu Sans'],[0.9],,,,N011,digit,5,"['6', '7', '8', '9']","['1', '2', '3', '4']",1,2023.2.3,harveydigits,2.1,[],8,0.75,
0,pause,0.4,None,None,None,0,39,39,39,,,,,,,,,,,,N011,digit,5,"['6', '7', '8', '9']","['1', '2', '3', '4']",1,2023.2.3,harveydigits,2.1,[],8,0.75,
4,digit,0.3,['dot'],['big_1'],black,0,40,40,40,,,16.400205850601196,16.11254382133484,16.41251492500305,"[[-0.008726767054091089, -0.08588035982275385]]",['DejaVu Sans'],[0.9],,,,N011,digit,5,"['6', '7', '8', '9']","['1', '2', '3', '4']",1,2023.2.3,harveydigits,2.1,[],8,0.75,
0,pause,0.4,None,None,None,0,41,41,41,,,,,,,,,,,,N011,digit,5,"['6', '7', '8', '9']","['1', '2', '3', '4']",1,2023.2.3,harveydigits,2.1,[],8,0.75,
4,digit,0.3,['dot'],['big_1'],black,0,42,42,42,,,17.100203037261963,16.812525033950806,17.112504959106445,"[[-0.08530357031642537, -0.007535240825906786]]",['DejaVu Sans'],[0.9],,,,N011,digit,5,"['6', '7', '8', '9']","['1', '2', '3', '4']",1,2023.2.3,harveydigits,2.1,[],8,0.75,
0,pause,0.4,None,None,None,0,43,43,43,,,,,,,,,,,,N011,digit,5,"['6', '7', '8', '9']","['1', '2', '3', '4']",1,2023.2.3,harveydigits,2.1,[],8,0.75,
4,digit,0.3,['dot'],['big_1'],black,0,44,44,44,,,17.800212860107422,17.512513875961304,17.812501907348633,"[[-0.16057496167748797, -0.0968084056205964]]",['DejaVu Sans'],[0.9],,,,N011,digit,5,"['6', '7', '8', '9']","['1', '2', '3', '4']",1,2023.2.3,harveydigits,2.1,[],8,0.75,
0,pause,0.4,None,None,None,0,45,45,45,,,,,,,,,,,,N011,digit,5,"['6', '7', '8', '9']","['1', '2', '3', '4']",1,2023.2.3,harveydigits,2.1,[],8,0.75,
4,digit,0.3,['dot'],['big_1'],black,0,46,46,46,,,18.500229835510254,18.212496995925903,18.512478828430176,"[[-0.03571698988277813, -0.14602165260963929]]",['DejaVu Sans'],[0.9],,,,N011,digit,5,"['6', '7', '8', '9']","['1', '2', '3', '4']",1,2023.2.3,harveydigits,2.1,[],8,0.75,
0,pause,0.4,None,None,None,0,47,47,47,,,,,,,,,,,,N011,digit,5,"['6', '7', '8', '9']","['1', '2', '3', '4']",1,2023.2.3,harveydigits,2.1,[],8,0.75,
5,digit,0.3,['dot'],['big_1'],black,0,48,48,48,,,19.2002170085907,18.91249394416809,19.212520837783813,"[[-0.06637806173901825, 0.09015272196446808]]",['DejaVu Sans'],[0.9],,,,N011,digit,5,"['6', '7', '8', '9']","['1', '2', '3', '4']",1,2023.2.3,harveydigits,2.1,[],8,0.75,
0,pause,0.4,None,None,None,0,49,49,49,,,,,,,,,,,,N011,digit,5,"['6', '7', '8', '9']","['1', '2', '3', '4']",1,2023.2.3,harveydigits,2.1,[],8,0.75,
5,digit,0.3,['dot'],['big_1'],black,0,50,50,50,,,19.900218963623047,19.612478017807007,19.912508964538574,"[[-0.015488106491755749, -0.08981671526121733]]",['DejaVu Sans'],[0.9],,,,N011,digit,5,"['6', '7', '8', '9']","['1', '2', '3', '4']",1,2023.2.3,harveydigits,2.1,[],8,0.75,
0,pause,0.4,None,None,None,0,51,51,51,,,,,,,,,,,,N011,digit,5,"['6', '7', '8', '9']","['1', '2', '3', '4']",1,2023.2.3,harveydigits,2.1,[],8,0.75,
5,digit,0.3,['dot'],['big_1'],black,0,52,52,52,,,20.600220918655396,20.312469959259033,20.612431049346924,"[[0.10023644569890752, -0.16526743347739514]]",['DejaVu Sans'],[0.9],,,,N011,digit,5,"['6', '7', '8', '9']","['1', '2', '3', '4']",1,2023.2.3,harveydigits,2.1,[],8,0.75,
0,pause,0.4,None,None,None,0,53,53,53,,,,,,,,,,,,N011,digit,5,"['6', '7', '8', '9']","['1', '2', '3', '4']",1,2023.2.3,harveydigits,2.1,[],8,0.75,
5,digit,0.3,['dot'],['big_1'],black,0,54,54,54,,,21.30021595954895,21.01248002052307,21.312458038330078,"[[-0.06048466933845589, 0.15772404827606476]]",['DejaVu Sans'],[0.9],,,,N011,digit,5,"['6', '7', '8', '9']","['1', '2', '3', '4']",1,2023.2.3,harveydigits,2.1,[],8,0.75,
0,pause,0.4,None,None,None,0,55,55,55,,,,,,,,,,,,N011,digit,5,"['6', '7', '8', '9']","['1', '2', '3', '4']",1,2023.2.3,harveydigits,2.1,[],8,0.75,
5,digit,0.3,['dot'],['big_1'],black,0,56,56,56,,,22.00021505355835,21.712435007095337,22.01240587234497,"[[0.16140149651017724, 0.09307463275563053]]",['DejaVu Sans'],[0.9],,,,N011,digit,5,"['6', '7', '8', '9']","['1', '2', '3', '4']",1,2023.2.3,harveydigits,2.1,[],8,0.75,
0,pause,0.4,None,None,None,0,57,57,57,,,,,,,,,,,,N011,digit,5,"['6', '7', '8', '9']","['1', '2', '3', '4']",1,2023.2.3,harveydigits,2.1,[],8,0.75,
5,digit,0.3,['dot'],['big_1'],black,0,58,58,58,,,22.70023202896118,22.41237497329712,22.712362051010132,"[[0.18003366083417474, 0.036207537877022675]]",['DejaVu Sans'],[0.9],,,,N011,digit,5,"['6', '7', '8', '9']","['1', '2', '3', '4']",1,2023.2.3,harveydigits,2.1,[],8,0.75,
0,pause,0.4,None,None,None,0,59,59,59,,,,,,,,,,,,N011,digit,5,"['6', '7', '8', '9']","['1', '2', '3', '4']",1,2023.2.3,harveydigits,2.1,[],8,0.75,
6,digit,0.3,['dot'],['big_1'],black,0,60,60,60,,,23.400219917297363,23.112361907958984,23.41233491897583,"[[-0.11065818191045879, 0.10832950554985357]]",['DejaVu Sans'],[0.9],,,,N011,digit,5,"['6', '7', '8', '9']","['1', '2', '3', '4']",1,2023.2.3,harveydigits,2.1,[],8,0.75,
0,pause,0.4,None,None,None,0,61,61,61,,,,,,,,,,,,N011,digit,5,"['6', '7', '8', '9']","['1', '2', '3', '4']",1,2023.2.3,harveydigits,2.1,[],8,0.75,
6,digit,0.3,['dot'],['big_1'],black,0,62,62,62,,,24.100214958190918,23.812346935272217,24.112316846847534,"[[-0.17216624011843476, 0.07943524419400537]]",['DejaVu Sans'],[0.9],,,,N011,digit,5,"['6', '7', '8', '9']","['1', '2', '3', '4']",1,2023.2.3,harveydigits,2.1,[],8,0.75,
0,pause,0.4,None,None,None,0,63,63,63,,,,,,,,,,,,N011,digit,5,"['6', '7', '8', '9']","['1', '2', '3', '4']",1,2023.2.3,harveydigits,2.1,[],8,0.75,
6,digit,0.3,['dot'],['big_1'],black,0,64,64,64,,,24.800214052200317,24.512331008911133,24.812304973602295,"[[-0.15710752486347634, 0.1076212054447632]]",['DejaVu Sans'],[0.9],,,,N011,digit,5,"['6', '7', '8', '9']","['1', '2', '3', '4']",1,2023.2.3,harveydigits,2.1,[],8,0.75,
0,pause,0.4,None,None,None,0,65,65,65,,,,,,,,,,,,N011,digit,5,"['6', '7', '8', '9']","['1', '2', '3', '4']",1,2023.2.3,harveydigits,2.1,[],8,0.75,
6,digit,0.3,['dot'],['big_1'],black,0,66,66,66,,,25.50022602081299,25.212333917617798,25.512313842773438,"[[0.16013050474860172, 0.05547686270135957]]",['DejaVu Sans'],[0.9],,,,N011,digit,5,"['6', '7', '8', '9']","['1', '2', '3', '4']",1,2023.2.3,harveydigits,2.1,[],8,0.75,
0,pause,0.4,None,None,None,0,67,67,67,,,,,,,,,,,,N011,digit,5,"['6', '7', '8', '9']","['1', '2', '3', '4']",1,2023.2.3,harveydigits,2.1,[],8,0.75,
6,digit,0.3,['dot'],['big_1'],black,0,68,68,68,,,26.20022988319397,25.912276029586792,26.212260961532593,"[[-0.16816092965498186, 0.04586303513828473]]",['DejaVu Sans'],[0.9],,,,N011,digit,5,"['6', '7', '8', '9']","['1', '2', '3', '4']",1,2023.2.3,harveydigits,2.1,[],8,0.75,
0,pause,0.4,None,None,None,0,69,69,69,,,,,,,,,,,,N011,digit,5,"['6', '7', '8', '9']","['1', '2', '3', '4']",1,2023.2.3,harveydigits,2.1,[],8,0.75,
6,digit,0.3,['dot'],['big_1'],black,0,70,70,70,,,26.900216817855835,26.61227297782898,26.912253856658936,"[[-0.1346066442954066, -0.12480482697814652]]",['DejaVu Sans'],[0.9],,,,N011,digit,5,"['6', '7', '8', '9']","['1', '2', '3', '4']",1,2023.2.3,harveydigits,2.1,[],8,0.75,
0,pause,0.4,None,None,None,0,71,71,71,,,,,,,,,,,,N011,digit,5,"['6', '7', '8', '9']","['1', '2', '3', '4']",1,2023.2.3,harveydigits,2.1,[],8,0.75,
7,digit,0.3,['dot'],['big_1'],black,0,72,72,72,,,27.600220918655396,27.312245845794678,27.612226009368896,"[[0.19592333709100354, 0.03382590917152547]]",['DejaVu Sans'],[0.9],,,,N011,digit,5,"['6', '7', '8', '9']","['1', '2', '3', '4']",1,2023.2.3,harveydigits,2.1,[],8,0.75,
0,pause,0.4,None,None,None,0,73,73,73,,,,,,,,,,,,N011,digit,5,"['6', '7', '8', '9']","['1', '2', '3', '4']",1,2023.2.3,harveydigits,2.1,[],8,0.75,
7,digit,0.3,['dot'],['big_1'],black,0,74,74,74,,,28.30022692680359,28.01222801208496,28.312204837799072,"[[-0.057539755783425545, 0.10417999439819794]]",['DejaVu Sans'],[0.9],,,,N011,digit,5,"['6', '7', '8', '9']","['1', '2', '3', '4']",1,2023.2.3,harveydigits,2.1,[],8,0.75,
0,pause,0.4,None,None,None,0,75,75,75,,,,,,,,,,,,N011,digit,5,"['6', '7', '8', '9']","['1', '2', '3', '4']",1,2023.2.3,harveydigits,2.1,[],8,0.75,
7,digit,0.3,['dot'],['big_1'],black,0,76,76,76,,,29.000213861465454,28.71221089363098,29.012197971343994,"[[-0.004683448462666107, -0.18790215924279222]]",['DejaVu Sans'],[0.9],,,,N011,digit,5,"['6', '7', '8', '9']","['1', '2', '3', '4']",1,2023.2.3,harveydigits,2.1,[],8,0.75,
0,pause,0.4,None,None,None,0,77,77,77,,,,,,,,,,,,N011,digit,5,"['6', '7', '8', '9']","['1', '2', '3', '4']",1,2023.2.3,harveydigits,2.1,[],8,0.75,
7,digit,0.3,['dot'],['big_1'],black,0,78,78,78,,,29.700209856033325,29.412190914154053,29.712174892425537,"[[0.1357159191828132, 0.09165867614731268]]",['DejaVu Sans'],[0.9],,,,N011,digit,5,"['6', '7', '8', '9']","['1', '2', '3', '4']",1,2023.2.3,harveydigits,2.1,[],8,0.75,
0,pause,0.4,None,None,None,0,79,79,79,,,,,,,,,,,,N011,digit,5,"['6', '7', '8', '9']","['1', '2', '3', '4']",1,2023.2.3,harveydigits,2.1,[],8,0.75,
7,digit,0.3,['dot'],['big_1'],black,0,80,80,80,,,30.400213956832886,30.112179040908813,30.412155866622925,"[[-0.07687533962343535, 0.14814843465318386]]",['DejaVu Sans'],[0.9],,,,N011,digit,5,"['6', '7', '8', '9']","['1', '2', '3', '4']",1,2023.2.3,harveydigits,2.1,[],8,0.75,
0,pause,0.4,None,None,None,0,81,81,81,,,,,,,,,,,,N011,digit,5,"['6', '7', '8', '9']","['1', '2', '3', '4']",1,2023.2.3,harveydigits,2.1,[],8,0.75,
7,digit,0.3,['dot'],['big_1'],black,0,82,82,82,,,31.100208044052124,30.812153816223145,31.1121768951416,"[[0.10126198825763535, 0.09330692262956206]]",['DejaVu Sans'],[0.9],,,,N011,digit,5,"['6', '7', '8', '9']","['1', '2', '3', '4']",1,2023.2.3,harveydigits,2.1,[],8,0.75,
0,pause,0.4,None,None,None,0,83,83,83,,,,,,,,,,,,N011,digit,5,"['6', '7', '8', '9']","['1', '2', '3', '4']",1,2023.2.3,harveydigits,2.1,[],8,0.75,
8,digit,0.3,['dot'],['big_1'],black,0,84,84,84,,,31.80022382736206,31.51221489906311,31.812139987945557,"[[0.035091156903414106, -0.19255304839258652]]",['DejaVu Sans'],[0.9],,,,N011,digit,5,"['6', '7', '8', '9']","['1', '2', '3', '4']",1,2023.2.3,harveydigits,2.1,[],8,0.75,
0,pause,0.4,None,None,None,0,85,85,85,,,,,,,,,,,,N011,digit,5,"['6', '7', '8', '9']","['1', '2', '3', '4']",1,2023.2.3,harveydigits,2.1,[],8,0.75,
8,digit,0.3,['dot'],['big_1'],black,0,86,86,86,,,32.5002179145813,32.2121479511261,32.512136936187744,"[[0.1259051625962526, 0.0350706528232505]]",['DejaVu Sans'],[0.9],,,,N011,digit,5,"['6', '7', '8', '9']","['1', '2', '3', '4']",1,2023.2.3,harveydigits,2.1,[],8,0.75,
0,pause,0.4,None,None,None,0,87,87,87,,,,,,,,,,,,N011,digit,5,"['6', '7', '8', '9']","['1', '2', '3', '4']",1,2023.2.3,harveydigits,2.1,[],8,0.75,
8,digit,0.3,['dot'],['big_1'],black,0,88,88,88,,,33.200225830078125,32.91211295127869,33.212218046188354,"[[-0.1736913289157185, 0.08423433073171475]]",['DejaVu Sans'],[0.9],,,,N011,digit,5,"['6', '7', '8', '9']","['1', '2', '3', '4']",1,2023.2.3,harveydigits,2.1,[],8,0.75,
0,pause,0.4,None,None,None,0,89,89,89,,,,,,,,,,,,N011,digit,5,"['6', '7', '8', '9']","['1', '2', '3', '4']",1,2023.2.3,harveydigits,2.1,[],8,0.75,
8,digit,0.3,['dot'],['big_1'],black,0,90,90,90,,,33.90021586418152,33.61216998100281,33.91208481788635,"[[0.034996207496818726, -0.07207238531686241]]",['DejaVu Sans'],[0.9],,,,N011,digit,5,"['6', '7', '8', '9']","['1', '2', '3', '4']",1,2023.2.3,harveydigits,2.1,[],8,0.75,
0,pause,0.4,None,None,None,0,91,91,91,,,,,,,,,,,,N011,digit,5,"['6', '7', '8', '9']","['1', '2', '3', '4']",1,2023.2.3,harveydigits,2.1,[],8,0.75,
8,digit,0.3,['dot'],['big_1'],black,0,92,92,92,,,34.60021495819092,34.31209182739258,34.61206889152527,"[[-0.018971907847025404, -0.13785615832200993]]",['DejaVu Sans'],[0.9],,,,N011,digit,5,"['6', '7', '8', '9']","['1', '2', '3', '4']",1,2023.2.3,harveydigits,2.1,[],8,0.75,
0,pause,0.4,None,None,None,0,93,93,93,,,,,,,,,,,,N011,digit,5,"['6', '7', '8', '9']","['1', '2', '3', '4']",1,2023.2.3,harveydigits,2.1,[],8,0.75,
8,digit,0.3,['dot'],['big_1'],black,0,94,94,94,,,35.30021405220032,35.012075901031494,35.31204891204834,"[[0.11688765778432567, -0.012313678064242994]]",['DejaVu Sans'],[0.9],,,,N011,digit,5,"['6', '7', '8', '9']","['1', '2', '3', '4']",1,2023.2.3,harveydigits,2.1,[],8,0.75,
0,pause,0.4,None,None,None,0,95,95,95,,,,,,,,,,,,N011,digit,5,"['6', '7', '8', '9']","['1', '2', '3', '4']",1,2023.2.3,harveydigits,2.1,[],8,0.75,
9,digit,0.3,['dot'],['big_1'],white,0,96,96,96,,,36.00020790100098,35.71207904815674,36.01205396652222,"[[-0.09817372752530774, 0.1143641269523605]]",['DejaVu Sans'],[0.9],,,,N011,digit,5,"['6', '7', '8', '9']","['1', '2', '3', '4']",1,2023.2.3,harveydigits,2.1,[],8,0.75,
0,pause,0.4,None,None,None,0,97,97,97,,,,,,,,,,,,N011,digit,5,"['6', '7', '8', '9']","['1', '2', '3', '4']",1,2023.2.3,harveydigits,2.1,[],8,0.75,
9,digit,0.3,['dot'],['big_1'],white,0,98,98,98,,,36.70025682449341,36.41200494766235,36.71208095550537,"[[-0.04891694336615093, 0.188340931106803]]",['DejaVu Sans'],[0.9],left,odd,36.23086190223694,N011,digit,5,"['6', '7', '8', '9']","['1', '2', '3', '4']",1,2023.2.3,harveydigits,2.1,[],8,0.75,
0,pause,0.4,None,None,None,0,99,99,99,,,,,,,,,,,,N011,digit,5,"['6', '7', '8', '9']","['1', '2', '3', '4']",1,2023.2.3,harveydigits,2.1,[],8,0.75,
9,digit,0.3,['dot'],['big_1'],white,0,100,100,100,,,37.40023398399353,37.112056016922,37.412078857421875,"[[-0.025950378788033746, 0.14488154210369425]]",['DejaVu Sans'],[0.9],,,,N011,digit,5,"['6', '7', '8', '9']","['1', '2', '3', '4']",1,2023.2.3,harveydigits,2.1,[],8,0.75,
0,pause,0.4,None,None,None,0,101,101,101,,,,,,,,,,,,N011,digit,5,"['6', '7', '8', '9']","['1', '2', '3', '4']",1,2023.2.3,harveydigits,2.1,[],8,0.75,
9,digit,0.3,['dot'],['big_1'],white,0,102,102,102,,,38.10023093223572,37.81198596954346,38.11196494102478,"[[-0.14227725268091962, 0.10221875972064545]]",['DejaVu Sans'],[0.9],,,,N011,digit,5,"['6', '7', '8', '9']","['1', '2', '3', '4']",1,2023.2.3,harveydigits,2.1,[],8,0.75,
0,pause,0.4,None,None,None,0,103,103,103,,,,,,,,,,,,N011,digit,5,"['6', '7', '8', '9']","['1', '2', '3', '4']",1,2023.2.3,harveydigits,2.1,[],8,0.75,
9,digit,0.3,['dot'],['big_1'],white,0,104,104,104,,,38.80021786689758,38.511958837509155,38.81193494796753,"[[-0.06789358536730442, -0.04934806099848399]]",['DejaVu Sans'],[0.9],,,,N011,digit,5,"['6', '7', '8', '9']","['1', '2', '3', '4']",1,2023.2.3,harveydigits,2.1,[],8,0.75,
0,pause,0.4,None,None,None,0,105,105,105,,,,,,,,,,,,N011,digit,5,"['6', '7', '8', '9']","['1', '2', '3', '4']",1,2023.2.3,harveydigits,2.1,[],8,0.75,
9,digit,0.3,['dot'],['big_1'],white,0,106,106,106,,,39.500229835510254,39.21193194389343,39.511929988861084,"[[0.028895700473157815, -0.17377229487991344]]",['DejaVu Sans'],[0.9],,,,N011,digit,5,"['6', '7', '8', '9']","['1', '2', '3', '4']",1,2023.2.3,harveydigits,2.1,[],8,0.75,
0,pause,0.4,None,None,None,0,107,107,107,,,,,,,,,,,,N011,digit,5,"['6', '7', '8', '9']","['1', '2', '3', '4']",1,2023.2.3,harveydigits,2.1,[],8,0.75,
20,digit,0.3,['dot'],['big_1'],black,0,108,108,108,,,40.20021891593933,39.91193103790283,40.211912870407104,"[[0.07582727462855168, 0.07883532831121734]]",['DejaVu Sans'],[0.9],,,,N011,digit,5,"['6', '7', '8', '9']","['1', '2', '3', '4']",1,2023.2.3,harveydigits,2.1,[],8,0.75,
0,pause,0.4,None,None,None,0,109,109,109,,,,,,,,,,,,N011,digit,5,"['6', '7', '8', '9']","['1', '2', '3', '4']",1,2023.2.3,harveydigits,2.1,[],8,0.75,
20,digit,0.3,['dot'],['big_1'],black,0,110,110,110,,,40.90021800994873,40.6119339466095,40.91191601753235,"[[0.15085959393676604, -0.020752679579079517]]",['DejaVu Sans'],[0.9],,,,N011,digit,5,"['6', '7', '8', '9']","['1', '2', '3', '4']",1,2023.2.3,harveydigits,2.1,[],8,0.75,
0,pause,0.4,None,None,None,0,111,111,111,,,,,,,,,,,,N011,digit,5,"['6', '7', '8', '9']","['1', '2', '3', '4']",1,2023.2.3,harveydigits,2.1,[],8,0.75,
20,digit,0.3,['dot'],['big_1'],black,0,112,112,112,,,41.600229024887085,41.31187987327576,41.61187291145325,"[[0.06722577339995364, 0.18183239519307215]]",['DejaVu Sans'],[0.9],,,,N011,digit,5,"['6', '7', '8', '9']","['1', '2', '3', '4']",1,2023.2.3,harveydigits,2.1,[],8,0.75,
0,pause,0.4,None,None,None,0,113,113,113,,,,,,,,,,,,N011,digit,5,"['6', '7', '8', '9']","['1', '2', '3', '4']",1,2023.2.3,harveydigits,2.1,[],8,0.75,
20,digit,0.3,['dot'],['big_1'],black,0,114,114,114,,,42.30023503303528,42.01186490058899,42.31185483932495,"[[-0.004220028407172505, -0.12703175580279769]]",['DejaVu Sans'],[0.9],,,,N011,digit,5,"['6', '7', '8', '9']","['1', '2', '3', '4']",1,2023.2.3,harveydigits,2.1,[],8,0.75,
0,pause,0.4,None,None,None,0,115,115,115,,,,,,,,,,,,N011,digit,5,"['6', '7', '8', '9']","['1', '2', '3', '4']",1,2023.2.3,harveydigits,2.1,[],8,0.75,
20,digit,0.3,['dot'],['big_1'],black,0,116,116,116,,,43.000234842300415,42.71186804771423,43.014256954193115,"[[0.11873594331596407, -0.0067057183206514215]]",['DejaVu Sans'],[0.9],,,,N011,digit,5,"['6', '7', '8', '9']","['1', '2', '3', '4']",1,2023.2.3,harveydigits,2.1,[],8,0.75,
0,pause,0.4,None,None,None,0,117,117,117,,,,,,,,,,,,N011,digit,5,"['6', '7', '8', '9']","['1', '2', '3', '4']",1,2023.2.3,harveydigits,2.1,[],8,0.75,
20,digit,0.3,['dot'],['big_1'],black,0,118,118,118,,,43.700214862823486,43.41203284263611,43.71187090873718,"[[-0.0338010132020484, 0.09705108334966678]]",['DejaVu Sans'],[0.9],,,,N011,digit,5,"['6', '7', '8', '9']","['1', '2', '3', '4']",1,2023.2.3,harveydigits,2.1,[],8,0.75,
0,pause,0.4,None,None,None,0,119,119,119,,,,,,,,,,,,N011,digit,5,"['6', '7', '8', '9']","['1', '2', '3', '4']",1,2023.2.3,harveydigits,2.1,[],8,0.75,
20,digit,0.3,['dot'],['big_1'],black,0,120,120,120,,,44.40022587776184,44.111838817596436,44.41195893287659,"[[-0.08348942188467831, 0.011043075305374211]]",['DejaVu Sans'],[0.9],,,,N011,digit,5,"['6', '7', '8', '9']","['1', '2', '3', '4']",1,2023.2.3,harveydigits,2.1,[],8,0.75,
0,pause,0.4,None,None,None,0,121,121,121,,,,,,,,,,,,N011,digit,5,"['6', '7', '8', '9']","['1', '2', '3', '4']",1,2023.2.3,harveydigits,2.1,[],8,0.75,
20,digit,0.3,['dot'],['big_1'],black,0,122,122,122,,,45.10020899772644,44.81196403503418,45.11194896697998,"[[0.034410092524261665, 0.1268690263038087]]",['DejaVu Sans'],[0.9],,,,N011,digit,5,"['6', '7', '8', '9']","['1', '2', '3', '4']",1,2023.2.3,harveydigits,2.1,[],8,0.75,
0,pause,0.4,None,None,None,0,123,123,123,,,,,,,,,,,,N011,digit,5,"['6', '7', '8', '9']","['1', '2', '3', '4']",1,2023.2.3,harveydigits,2.1,[],8,0.75,
20,digit,0.3,['dot'],['big_1'],black,0,124,124,124,,,45.80021786689758,45.51194500923157,45.8119330406189,"[[0.19101184816947916, -0.016735357402622372]]",['DejaVu Sans'],[0.9],,,,N011,digit,5,"['6', '7', '8', '9']","['1', '2', '3', '4']",1,2023.2.3,harveydigits,2.1,[],8,0.75,
0,pause,0.4,None,None,None,0,125,125,125,,,,,,,,,,,,N011,digit,5,"['6', '7', '8', '9']","['1', '2', '3', '4']",1,2023.2.3,harveydigits,2.1,[],8,0.75,
20,digit,0.3,['dot'],['big_1'],black,0,126,126,126,,,46.50022888183594,46.211920976638794,46.51193404197693,"[[0.14892973473657542, 0.015622982856800222]]",['DejaVu Sans'],[0.9],,,,N011,digit,5,"['6', '7', '8', '9']","['1', '2', '3', '4']",1,2023.2.3,harveydigits,2.1,[],8,0.75,
0,pause,0.4,None,None,None,0,127,127,127,,,,,,,,,,,,N011,digit,5,"['6', '7', '8', '9']","['1', '2', '3', '4']",1,2023.2.3,harveydigits,2.1,[],8,0.75,
20,digit,0.3,['dot'],['big_1'],black,0,128,128,128,,,47.20021986961365,46.91180992126465,47.2117760181427,"[[0.1517884844675805, -0.0011186827326662707]]",['DejaVu Sans'],[0.9],,,,N011,digit,5,"['6', '7', '8', '9']","['1', '2', '3', '4']",1,2023.2.3,harveydigits,2.1,[],8,0.75,
0,pause,0.4,None,None,None,0,129,129,129,,,,,,,,,,,,N011,digit,5,"['6', '7', '8', '9']","['1', '2', '3', '4']",1,2023.2.3,harveydigits,2.1,[],8,0.75,
20,digit,0.3,['dot'],['big_1'],black,0,130,130,130,,,47.90021204948425,47.61188793182373,47.91186285018921,"[[0.13263763811282983, -0.07556824103708923]]",['DejaVu Sans'],[0.9],,,,N011,digit,5,"['6', '7', '8', '9']","['1', '2', '3', '4']",1,2023.2.3,harveydigits,2.1,[],8,0.75,
0,pause,0.4,None,None,None,0,131,131,131,,,,,,,,,,,,N011,digit,5,"['6', '7', '8', '9']","['1', '2', '3', '4']",1,2023.2.3,harveydigits,2.1,[],8,0.75,
20,digit,0.3,['dot'],['big_1'],black,0,132,132,132,,,48.60022282600403,48.31190490722656,48.61186194419861,"[[0.01671849012808363, 0.17453720291356795]]",['DejaVu Sans'],[0.9],,,,N011,digit,5,"['6', '7', '8', '9']","['1', '2', '3', '4']",1,2023.2.3,harveydigits,2.1,[],8,0.75,
0,pause,0.4,None,None,None,0,133,133,133,,,,,,,,,,,,N011,digit,5,"['6', '7', '8', '9']","['1', '2', '3', '4']",1,2023.2.3,harveydigits,2.1,[],8,0.75,
20,digit,0.3,['dot'],['big_1'],black,0,134,134,134,,,49.30021095275879,49.011719942092896,49.3116729259491,"[[0.10657873869340359, -0.041834586430841564]]",['DejaVu Sans'],[0.9],,,,N011,digit,5,"['6', '7', '8', '9']","['1', '2', '3', '4']",1,2023.2.3,harveydigits,2.1,[],8,0.75,
0,pause,0.4,None,None,None,0,135,135,135,,,,,,,,,,,,N011,digit,5,"['6', '7', '8', '9']","['1', '2', '3', '4']",1,2023.2.3,harveydigits,2.1,[],8,0.75,
20,digit,0.3,['dot'],['big_1'],black,0,136,136,136,,,50.00022888183594,49.711670875549316,50.011646032333374,"[[-0.1260337441247266, -0.02644032706671212]]",['DejaVu Sans'],[0.9],,,,N011,digit,5,"['6', '7', '8', '9']","['1', '2', '3', '4']",1,2023.2.3,harveydigits,2.1,[],8,0.75,
0,pause,0.4,None,None,None,0,137,137,137,,,,,,,,,,,,N011,digit,5,"['6', '7', '8', '9']","['1', '2', '3', '4']",1,2023.2.3,harveydigits,2.1,[],8,0.75,
20,digit,0.3,['dot'],['big_1'],black,0,138,138,138,,,50.70022201538086,50.41173005104065,50.71171283721924,"[[0.06606963270043412, -0.13937095954486844]]",['DejaVu Sans'],[0.9],,,,N011,digit,5,"['6', '7', '8', '9']","['1', '2', '3', '4']",1,2023.2.3,harveydigits,2.1,[],8,0.75,
0,pause,0.4,None,None,None,0,139,139,139,,,,,,,,,,,,N011,digit,5,"['6', '7', '8', '9']","['1', '2', '3', '4']",1,2023.2.3,harveydigits,2.1,[],8,0.75,
20,digit,0.3,['dot'],['big_1'],black,0,140,140,140,,,51.400221824645996,51.11171889305115,51.41169500350952,"[[0.05321857419511203, -0.16567314380709777]]",['DejaVu Sans'],[0.9],,,,N011,digit,5,"['6', '7', '8', '9']","['1', '2', '3', '4']",1,2023.2.3,harveydigits,2.1,[],8,0.75,
0,pause,0.4,None,None,None,0,141,141,141,,,,,,,,,,,,N011,digit,5,"['6', '7', '8', '9']","['1', '2', '3', '4']",1,2023.2.3,harveydigits,2.1,[],8,0.75,
20,digit,0.3,['dot'],['big_1'],black,0,142,142,142,,,52.100239992141724,51.81161403656006,52.11161494255066,"[[-0.15574367653897467, -0.0554017717706983]]",['DejaVu Sans'],[0.9],,,,N011,digit,5,"['6', '7', '8', '9']","['1', '2', '3', '4']",1,2023.2.3,harveydigits,2.1,[],8,0.75,
0,pause,0.4,None,None,None,0,143,143,143,,,,,,,,,,,,N011,digit,5,"['6', '7', '8', '9']","['1', '2', '3', '4']",1,2023.2.3,harveydigits,2.1,[],8,0.75,
20,digit,0.3,['dot'],['big_1'],black,0,144,144,144,,,52.80021595954895,52.51159882545471,52.8115758895874,"[[0.15604078285341064, 0.09389292063897253]]",['DejaVu Sans'],[0.9],,,,N011,digit,5,"['6', '7', '8', '9']","['1', '2', '3', '4']",1,2023.2.3,harveydigits,2.1,[],8,0.75,
0,pause,0.4,None,None,None,0,145,145,145,,,,,,,,,,,,N011,digit,5,"['6', '7', '8', '9']","['1', '2', '3', '4']",1,2023.2.3,harveydigits,2.1,[],8,0.75,
20,digit,0.3,['dot'],['big_1'],black,0,146,146,146,,,53.500211000442505,53.211585998535156,53.51155996322632,"[[0.06970710777721309, 0.08063135182862288]]",['DejaVu Sans'],[0.9],,,,N011,digit,5,"['6', '7', '8', '9']","['1', '2', '3', '4']",1,2023.2.3,harveydigits,2.1,[],8,0.75,
0,pause,0.4,None,None,None,0,147,147,147,,,,,,,,,,,,N011,digit,5,"['6', '7', '8', '9']","['1', '2', '3', '4']",1,2023.2.3,harveydigits,2.1,[],8,0.75,
20,digit,0.3,['dot'],['big_1'],black,0,148,148,148,,,54.20022487640381,53.911561012268066,54.21154499053955,"[[0.04438191930314028, -0.1381583477132694]]",['DejaVu Sans'],[0.9],,,,N011,digit,5,"['6', '7', '8', '9']","['1', '2', '3', '4']",1,2023.2.3,harveydigits,2.1,[],8,0.75,
0,pause,0.4,None,None,None,0,149,149,149,,,,,,,,,,,,N011,digit,5,"['6', '7', '8', '9']","['1', '2', '3', '4']",1,2023.2.3,harveydigits,2.1,[],8,0.75,
20,digit,0.3,['dot'],['big_1'],black,0,150,150,150,,,54.900230884552,54.611567974090576,54.91157102584839,"[[-0.1268826860868529, -0.04023889871083168]]",['DejaVu Sans'],[0.9],,,,N011,digit,5,"['6', '7', '8', '9']","['1', '2', '3', '4']",1,2023.2.3,harveydigits,2.1,[],8,0.75,
0,pause,0.4,None,None,None,0,151,151,151,,,,,,,,,,,,N011,digit,5,"['6', '7', '8', '9']","['1', '2', '3', '4']",1,2023.2.3,harveydigits,2.1,[],8,0.75,
20,digit,0.3,['dot'],['big_1'],black,0,152,152,152,,,55.60021996498108,55.31153583526611,55.61157202720642,"[[0.19489094544075827, -0.01254200425916948]]",['DejaVu Sans'],[0.9],,,,N011,digit,5,"['6', '7', '8', '9']","['1', '2', '3', '4']",1,2023.2.3,harveydigits,2.1,[],8,0.75,
0,pause,0.4,None,None,None,0,153,153,153,,,,,,,,,,,,N011,digit,5,"['6', '7', '8', '9']","['1', '2', '3', '4']",1,2023.2.3,harveydigits,2.1,[],8,0.75,
20,digit,0.3,['dot'],['big_1'],black,0,154,154,154,,,56.300238847732544,56.011581897735596,56.311594009399414,"[[-0.1995893147161518, 0.011323021934669924]]",['DejaVu Sans'],[0.9],,,,N011,digit,5,"['6', '7', '8', '9']","['1', '2', '3', '4']",1,2023.2.3,harveydigits,2.1,[],8,0.75,
0,pause,0.4,None,None,None,0,155,155,155,,,,,,,,,,,,N011,digit,5,"['6', '7', '8', '9']","['1', '2', '3', '4']",1,2023.2.3,harveydigits,2.1,[],8,0.75,
9,digit,0.3,['dot'],['big_1'],black,0,156,156,156,,,57.0002179145813,56.71149301528931,57.011483907699585,"[[0.11166692000645875, 0.11568700919915245]]",['DejaVu Sans'],[0.9],,,,N011,digit,5,"['6', '7', '8', '9']","['1', '2', '3', '4']",1,2023.2.3,harveydigits,2.1,[],8,0.75,
0,pause,0.4,None,None,None,0,157,157,157,,,,,,,,,,,,N011,digit,5,"['6', '7', '8', '9']","['1', '2', '3', '4']",1,2023.2.3,harveydigits,2.1,[],8,0.75,
9,digit,0.3,['dot'],['big_1'],black,0,158,158,158,,,57.70022201538086,57.41149592399597,57.711472034454346,"[[0.14556433180522718, 0.08193974650620803]]",['DejaVu Sans'],[0.9],,,,N011,digit,5,"['6', '7', '8', '9']","['1', '2', '3', '4']",1,2023.2.3,harveydigits,2.1,[],8,0.75,
0,pause,0.4,None,None,None,0,159,159,159,,,,,,,,,,,,N011,digit,5,"['6', '7', '8', '9']","['1', '2', '3', '4']",1,2023.2.3,harveydigits,2.1,[],8,0.75,
9,digit,0.3,['dot'],['big_1'],black,0,160,160,160,,,58.400233030319214,58.1114718914032,58.41143488883972,"[[-0.1740424831122911, 0.07689584001390397]]",['DejaVu Sans'],[0.9],,,,N011,digit,5,"['6', '7', '8', '9']","['1', '2', '3', '4']",1,2023.2.3,harveydigits,2.1,[],8,0.75,
0,pause,0.4,None,None,None,0,161,161,161,,,,,,,,,,,,N011,digit,5,"['6', '7', '8', '9']","['1', '2', '3', '4']",1,2023.2.3,harveydigits,2.1,[],8,0.75,
9,digit,0.3,['dot'],['big_1'],black,0,162,162,162,,,59.100236892700195,58.81143593788147,59.111428022384644,"[[0.16596018625984701, -0.06817688325979804]]",['DejaVu Sans'],[0.9],,,,N011,digit,5,"['6', '7', '8', '9']","['1', '2', '3', '4']",1,2023.2.3,harveydigits,2.1,[],8,0.75,
0,pause,0.4,None,None,None,0,163,163,163,,,,,,,,,,,,N011,digit,5,"['6', '7', '8', '9']","['1', '2', '3', '4']",1,2023.2.3,harveydigits,2.1,[],8,0.75,
9,digit,0.3,['dot'],['big_1'],black,0,164,164,164,,,59.800230979919434,59.51148700714111,59.81148600578308,"[[-0.027034574935013322, 0.008919327792539816]]",['DejaVu Sans'],[0.9],,,,N011,digit,5,"['6', '7', '8', '9']","['1', '2', '3', '4']",1,2023.2.3,harveydigits,2.1,[],8,0.75,
0,pause,0.4,None,None,None,0,165,165,165,,,,,,,,,,,,N011,digit,5,"['6', '7', '8', '9']","['1', '2', '3', '4']",1,2023.2.3,harveydigits,2.1,[],8,0.75,
9,digit,0.3,['dot'],['big_1'],black,0,166,166,166,,,60.50022888183594,60.211446046829224,60.51139283180237,"[[-0.029792627636872876, 0.0646745287829758]]",['DejaVu Sans'],[0.9],,,,N011,digit,5,"['6', '7', '8', '9']","['1', '2', '3', '4']",1,2023.2.3,harveydigits,2.1,[],8,0.75,
0,pause,0.4,None,None,None,0,167,167,167,,,,,,,,,,,,N011,digit,5,"['6', '7', '8', '9']","['1', '2', '3', '4']",1,2023.2.3,harveydigits,2.1,[],8,0.75,
8,digit,0.3,['dot'],['big_1'],white,0,168,168,168,,,61.20021986961365,60.911375999450684,61.21135497093201,"[[-0.027533023615502333, -0.16022849466366176]]",['DejaVu Sans'],[0.9],,,,N011,digit,5,"['6', '7', '8', '9']","['1', '2', '3', '4']",1,2023.2.3,harveydigits,2.1,[],8,0.75,
0,pause,0.4,None,None,None,0,169,169,169,,,,,,,,,,,,N011,digit,5,"['6', '7', '8', '9']","['1', '2', '3', '4']",1,2023.2.3,harveydigits,2.1,[],8,0.75,
8,digit,0.3,['dot'],['big_1'],white,0,170,170,170,,,61.9002468585968,61.61136198043823,61.91134691238403,"[[-0.010328911109033612, 0.0942013175218791]]",['DejaVu Sans'],[0.9],1,,61.694823026657104,N011,digit,5,"['6', '7', '8', '9']","['1', '2', '3', '4']",1,2023.2.3,harveydigits,2.1,[],8,0.75,
0,pause,0.4,None,None,None,0,171,171,171,,,,,,,,,,,,N011,digit,5,"['6', '7', '8', '9']","['1', '2', '3', '4']",1,2023.2.3,harveydigits,2.1,[],8,0.75,
8,digit,0.3,['dot'],['big_1'],white,0,172,172,172,,,62.60021996498108,62.311349868774414,62.611335039138794,"[[-0.001964381073155025, 0.19767304063896626]]",['DejaVu Sans'],[0.9],,,,N011,digit,5,"['6', '7', '8', '9']","['1', '2', '3', '4']",1,2023.2.3,harveydigits,2.1,[],8,0.75,
0,pause,0.4,None,None,None,0,173,173,173,,,,,,,,,,,,N011,digit,5,"['6', '7', '8', '9']","['1', '2', '3', '4']",1,2023.2.3,harveydigits,2.1,[],8,0.75,
8,digit,0.3,['dot'],['big_1'],white,0,174,174,174,,,63.300227880477905,63.01132392883301,63.31130886077881,"[[0.040700956840452246, -0.14774166207149136]]",['DejaVu Sans'],[0.9],,,,N011,digit,5,"['6', '7', '8', '9']","['1', '2', '3', '4']",1,2023.2.3,harveydigits,2.1,[],8,0.75,
0,pause,0.4,None,None,None,0,175,175,175,,,,,,,,,,,,N011,digit,5,"['6', '7', '8', '9']","['1', '2', '3', '4']",1,2023.2.3,harveydigits,2.1,[],8,0.75,
8,digit,0.3,['dot'],['big_1'],white,0,176,176,176,,,64.00021696090698,63.71130394935608,64.01128602027893,"[[-0.05691662268226988, 0.03845988684601531]]",['DejaVu Sans'],[0.9],,,,N011,digit,5,"['6', '7', '8', '9']","['1', '2', '3', '4']",1,2023.2.3,harveydigits,2.1,[],8,0.75,
0,pause,0.4,None,None,None,0,177,177,177,,,,,,,,,,,,N011,digit,5,"['6', '7', '8', '9']","['1', '2', '3', '4']",1,2023.2.3,harveydigits,2.1,[],8,0.75,
8,digit,0.3,['dot'],['big_1'],white,0,178,178,178,,,64.70023488998413,64.41129684448242,64.71127700805664,"[[-0.06575375328043598, -0.14852495564053647]]",['DejaVu Sans'],[0.9],,,,N011,digit,5,"['6', '7', '8', '9']","['1', '2', '3', '4']",1,2023.2.3,harveydigits,2.1,[],8,0.75,
0,pause,0.4,None,None,None,0,179,179,179,,,,,,,,,,,,N011,digit,5,"['6', '7', '8', '9']","['1', '2', '3', '4']",1,2023.2.3,harveydigits,2.1,[],8,0.75,
7,digit,0.3,['dot'],['big_1'],black,0,180,180,180,,,65.40022802352905,65.11127090454102,65.41125583648682,"[[-0.0020188032388803734, -0.1604305984273582]]",['DejaVu Sans'],[0.9],,,,N011,digit,5,"['6', '7', '8', '9']","['1', '2', '3', '4']",1,2023.2.3,harveydigits,2.1,[],8,0.75,
0,pause,0.4,None,None,None,0,181,181,181,,,,,,,,,,,,N011,digit,5,"['6', '7', '8', '9']","['1', '2', '3', '4']",1,2023.2.3,harveydigits,2.1,[],8,0.75,
7,digit,0.3,['dot'],['big_1'],black,0,182,182,182,,,66.10023403167725,65.81129097938538,66.11128401756287,"[[-0.12506419096025895, -0.06125523775476782]]",['DejaVu Sans'],[0.9],,,,N011,digit,5,"['6', '7', '8', '9']","['1', '2', '3', '4']",1,2023.2.3,harveydigits,2.1,[],8,0.75,
0,pause,0.4,None,None,None,0,183,183,183,,,,,,,,,,,,N011,digit,5,"['6', '7', '8', '9']","['1', '2', '3', '4']",1,2023.2.3,harveydigits,2.1,[],8,0.75,
7,digit,0.3,['dot'],['big_1'],black,0,184,184,184,,,66.80021500587463,66.51123690605164,66.8112690448761,"[[0.14286733520709058, -0.06513732220977009]]",['DejaVu Sans'],[0.9],,,,N011,digit,5,"['6', '7', '8', '9']","['1', '2', '3', '4']",1,2023.2.3,harveydigits,2.1,[],8,0.75,
0,pause,0.4,None,None,None,0,185,185,185,,,,,,,,,,,,N011,digit,5,"['6', '7', '8', '9']","['1', '2', '3', '4']",1,2023.2.3,harveydigits,2.1,[],8,0.75,
7,digit,0.3,['dot'],['big_1'],black,0,186,186,186,,,67.50021386146545,67.21132493019104,67.51126289367676,"[[-0.09836442353892902, -0.1568188894802792]]",['DejaVu Sans'],[0.9],,,,N011,digit,5,"['6', '7', '8', '9']","['1', '2', '3', '4']",1,2023.2.3,harveydigits,2.1,[],8,0.75,
0,pause,0.4,None,None,None,0,187,187,187,,,,,,,,,,,,N011,digit,5,"['6', '7', '8', '9']","['1', '2', '3', '4']",1,2023.2.3,harveydigits,2.1,[],8,0.75,
7,digit,0.3,['dot'],['big_1'],black,0,188,188,188,,,68.20023798942566,67.91122484207153,68.2111918926239,"[[-0.19759904688647006, 0.029217338734818347]]",['DejaVu Sans'],[0.9],,,,N011,digit,5,"['6', '7', '8', '9']","['1', '2', '3', '4']",1,2023.2.3,harveydigits,2.1,[],8,0.75,
0,pause,0.4,None,None,None,0,189,189,189,,,,,,,,,,,,N011,digit,5,"['6', '7', '8', '9']","['1', '2', '3', '4']",1,2023.2.3,harveydigits,2.1,[],8,0.75,
7,digit,0.3,['dot'],['big_1'],black,0,190,190,190,,,68.90021681785583,68.61119794845581,68.91118001937866,"[[-0.1989481786077773, 4.065993312577301e-05]]",['DejaVu Sans'],[0.9],,,,N011,digit,5,"['6', '7', '8', '9']","['1', '2', '3', '4']",1,2023.2.3,harveydigits,2.1,[],8,0.75,
0,pause,0.4,None,None,None,0,191,191,191,,,,,,,,,,,,N011,digit,5,"['6', '7', '8', '9']","['1', '2', '3', '4']",1,2023.2.3,harveydigits,2.1,[],8,0.75,
6,digit,0.3,['dot'],['big_1'],black,0,192,192,192,,,69.60022902488708,69.31117582321167,69.61120700836182,"[[0.018291289880674494, 0.1962705286250737]]",['DejaVu Sans'],[0.9],,,,N011,digit,5,"['6', '7', '8', '9']","['1', '2', '3', '4']",1,2023.2.3,harveydigits,2.1,[],8,0.75,
0,pause,0.4,None,None,None,0,193,193,193,,,,,,,,,,,,N011,digit,5,"['6', '7', '8', '9']","['1', '2', '3', '4']",1,2023.2.3,harveydigits,2.1,[],8,0.75,
6,digit,0.3,['dot'],['big_1'],black,0,194,194,194,,,70.30023694038391,70.0111358165741,70.31128692626953,"[[0.04402124915861444, -0.11965098987741302]]",['DejaVu Sans'],[0.9],,,,N011,digit,5,"['6', '7', '8', '9']","['1', '2', '3', '4']",1,2023.2.3,harveydigits,2.1,[],8,0.75,
0,pause,0.4,None,None,None,0,195,195,195,,,,,,,,,,,,N011,digit,5,"['6', '7', '8', '9']","['1', '2', '3', '4']",1,2023.2.3,harveydigits,2.1,[],8,0.75,
6,digit,0.3,['dot'],['big_1'],black,0,196,196,196,,,71.00022888183594,70.71132683753967,71.01127696037292,"[[-0.03727409303669463, 0.033960889001738076]]",['DejaVu Sans'],[0.9],,,,N011,digit,5,"['6', '7', '8', '9']","['1', '2', '3', '4']",1,2023.2.3,harveydigits,2.1,[],8,0.75,
0,pause,0.4,None,None,None,0,197,197,197,,,,,,,,,,,,N011,digit,5,"['6', '7', '8', '9']","['1', '2', '3', '4']",1,2023.2.3,harveydigits,2.1,[],8,0.75,
6,digit,0.3,['dot'],['big_1'],black,0,198,198,198,,,71.7002158164978,71.41127586364746,71.71125388145447,"[[-0.1346542435658306, -0.12098057735618033]]",['DejaVu Sans'],[0.9],,,,N011,digit,5,"['6', '7', '8', '9']","['1', '2', '3', '4']",1,2023.2.3,harveydigits,2.1,[],8,0.75,
0,pause,0.4,None,None,None,0,199,199,199,,,,,,,,,,,,N011,digit,5,"['6', '7', '8', '9']","['1', '2', '3', '4']",1,2023.2.3,harveydigits,2.1,[],8,0.75,
6,digit,0.3,['dot'],['big_1'],black,0,200,200,200,,,72.400221824646,72.11112189292908,72.41108298301697,"[[-0.027923796517493438, 0.027375292154069475]]",['DejaVu Sans'],[0.9],,,,N011,digit,5,"['6', '7', '8', '9']","['1', '2', '3', '4']",1,2023.2.3,harveydigits,2.1,[],8,0.75,
0,pause,0.4,None,None,None,0,201,201,201,,,,,,,,,,,,N011,digit,5,"['6', '7', '8', '9']","['1', '2', '3', '4']",1,2023.2.3,harveydigits,2.1,[],8,0.75,
6,digit,0.3,['dot'],['big_1'],black,0,202,202,202,,,73.10021495819092,72.81107592582703,73.11106586456299,"[[-0.12177472557689753, 0.05625956058685108]]",['DejaVu Sans'],[0.9],,,,N011,digit,5,"['6', '7', '8', '9']","['1', '2', '3', '4']",1,2023.2.3,harveydigits,2.1,[],8,0.75,
0,pause,0.4,None,None,None,0,203,203,203,,,,,,,,,,,,N011,digit,5,"['6', '7', '8', '9']","['1', '2', '3', '4']",1,2023.2.3,harveydigits,2.1,[],8,0.75,
5,digit,0.3,['dot'],['big_1'],black,0,204,204,204,,,73.80022382736206,73.5111129283905,73.81109595298767,"[[-0.12084806245720608, -0.063171323905131]]",['DejaVu Sans'],[0.9],,,,N011,digit,5,"['6', '7', '8', '9']","['1', '2', '3', '4']",1,2023.2.3,harveydigits,2.1,[],8,0.75,
0,pause,0.4,None,None,None,0,205,205,205,,,,,,,,,,,,N011,digit,5,"['6', '7', '8', '9']","['1', '2', '3', '4']",1,2023.2.3,harveydigits,2.1,[],8,0.75,
5,digit,0.3,['dot'],['big_1'],black,0,206,206,206,,,74.50022888183594,74.21103501319885,74.51102185249329,"[[-0.12421614157011826, 0.046922042681177556]]",['DejaVu Sans'],[0.9],,,,N011,digit,5,"['6', '7', '8', '9']","['1', '2', '3', '4']",1,2023.2.3,harveydigits,2.1,[],8,0.75,
0,pause,0.4,None,None,None,0,207,207,207,,,,,,,,,,,,N011,digit,5,"['6', '7', '8', '9']","['1', '2', '3', '4']",1,2023.2.3,harveydigits,2.1,[],8,0.75,
5,digit,0.3,['dot'],['big_1'],black,0,208,208,208,,,75.2002420425415,74.91106796264648,75.21100282669067,"[[0.15590437057015358, -0.06413850901166271]]",['DejaVu Sans'],[0.9],,,,N011,digit,5,"['6', '7', '8', '9']","['1', '2', '3', '4']",1,2023.2.3,harveydigits,2.1,[],8,0.75,
0,pause,0.4,None,None,None,0,209,209,209,,,,,,,,,,,,N011,digit,5,"['6', '7', '8', '9']","['1', '2', '3', '4']",1,2023.2.3,harveydigits,2.1,[],8,0.75,
5,digit,0.3,['dot'],['big_1'],black,0,210,210,210,,,75.90022492408752,75.61100196838379,75.91098999977112,"[[-0.10097656048013057, 0.08225724165590981]]",['DejaVu Sans'],[0.9],,,,N011,digit,5,"['6', '7', '8', '9']","['1', '2', '3', '4']",1,2023.2.3,harveydigits,2.1,[],8,0.75,
0,pause,0.4,None,None,None,0,211,211,211,,,,,,,,,,,,N011,digit,5,"['6', '7', '8', '9']","['1', '2', '3', '4']",1,2023.2.3,harveydigits,2.1,[],8,0.75,
5,digit,0.3,['dot'],['big_1'],black,0,212,212,212,,,76.6002299785614,76.31105303764343,76.61098384857178,"[[0.12577023005931146, -0.07339130423368595]]",['DejaVu Sans'],[0.9],,,,N011,digit,5,"['6', '7', '8', '9']","['1', '2', '3', '4']",1,2023.2.3,harveydigits,2.1,[],8,0.75,
0,pause,0.4,None,None,None,0,213,213,213,,,,,,,,,,,,N011,digit,5,"['6', '7', '8', '9']","['1', '2', '3', '4']",1,2023.2.3,harveydigits,2.1,[],8,0.75,
5,digit,0.3,['dot'],['big_1'],black,0,214,214,214,,,77.30024099349976,77.01098203659058,77.31101083755493,"[[0.18361164595201393, 0.017588112504846]]",['DejaVu Sans'],[0.9],,,,N011,digit,5,"['6', '7', '8', '9']","['1', '2', '3', '4']",1,2023.2.3,harveydigits,2.1,[],8,0.75,
0,pause,0.4,None,None,None,0,215,215,215,,,,,,,,,,,,N011,digit,5,"['6', '7', '8', '9']","['1', '2', '3', '4']",1,2023.2.3,harveydigits,2.1,[],8,0.75,
4,digit,0.3,['dot'],['big_1'],black,0,216,216,216,,,78.00023198127747,77.7109808921814,78.01095485687256,"[[-0.14699056344432626, -0.019891874081573252]]",['DejaVu Sans'],[0.9],,,,N011,digit,5,"['6', '7', '8', '9']","['1', '2', '3', '4']",1,2023.2.3,harveydigits,2.1,[],8,0.75,
0,pause,0.4,None,None,None,0,217,217,217,,,,,,,,,,,,N011,digit,5,"['6', '7', '8', '9']","['1', '2', '3', '4']",1,2023.2.3,harveydigits,2.1,[],8,0.75,
4,digit,0.3,['dot'],['big_1'],black,0,218,218,218,,,78.70022702217102,78.41095685958862,78.71092700958252,"[[-0.0906347371892358, -0.13325842720413084]]",['DejaVu Sans'],[0.9],,,,N011,digit,5,"['6', '7', '8', '9']","['1', '2', '3', '4']",1,2023.2.3,harveydigits,2.1,[],8,0.75,
0,pause,0.4,None,None,None,0,219,219,219,,,,,,,,,,,,N011,digit,5,"['6', '7', '8', '9']","['1', '2', '3', '4']",1,2023.2.3,harveydigits,2.1,[],8,0.75,
4,digit,0.3,['dot'],['big_1'],black,0,220,220,220,,,79.40021586418152,79.11092782020569,79.41091585159302,"[[-0.06640987771404133, 0.0923057631649182]]",['DejaVu Sans'],[0.9],,,,N011,digit,5,"['6', '7', '8', '9']","['1', '2', '3', '4']",1,2023.2.3,harveydigits,2.1,[],8,0.75,
0,pause,0.4,None,None,None,0,221,221,221,,,,,,,,,,,,N011,digit,5,"['6', '7', '8', '9']","['1', '2', '3', '4']",1,2023.2.3,harveydigits,2.1,[],8,0.75,
4,digit,0.3,['dot'],['big_1'],black,0,222,222,222,,,80.10023403167725,79.81094598770142,80.11093091964722,"[[0.1060230461025555, 0.06988834639940586]]",['DejaVu Sans'],[0.9],,,,N011,digit,5,"['6', '7', '8', '9']","['1', '2', '3', '4']",1,2023.2.3,harveydigits,2.1,[],8,0.75,
0,pause,0.4,None,None,None,0,223,223,223,,,,,,,,,,,,N011,digit,5,"['6', '7', '8', '9']","['1', '2', '3', '4']",1,2023.2.3,harveydigits,2.1,[],8,0.75,
4,digit,0.3,['dot'],['big_1'],black,0,224,224,224,,,80.8002450466156,80.51089882850647,80.8108639717102,"[[0.1948773422773112, 0.01776863772660102]]",['DejaVu Sans'],[0.9],,,,N011,digit,5,"['6', '7', '8', '9']","['1', '2', '3', '4']",1,2023.2.3,harveydigits,2.1,[],8,0.75,
0,pause,0.4,None,None,None,0,225,225,225,,,,,,,,,,,,N011,digit,5,"['6', '7', '8', '9']","['1', '2', '3', '4']",1,2023.2.3,harveydigits,2.1,[],8,0.75,
4,digit,0.3,['dot'],['big_1'],black,0,226,226,226,,,81.5002338886261,81.21092581748962,81.510901927948,"[[-0.1287967633673173, 0.12156835517955969]]",['DejaVu Sans'],[0.9],,,,N011,digit,5,"['6', '7', '8', '9']","['1', '2', '3', '4']",1,2023.2.3,harveydigits,2.1,[],8,0.75,
0,pause,0.4,None,None,None,0,227,227,227,,,,,,,,,,,,N011,digit,5,"['6', '7', '8', '9']","['1', '2', '3', '4']",1,2023.2.3,harveydigits,2.1,[],8,0.75,
3,digit,0.3,['dot'],['big_1'],black,0,228,228,228,,,82.20024394989014,81.91095185279846,82.21082901954651,"[[-0.18026238006559495, 0.04492235968054677]]",['DejaVu Sans'],[0.9],,,,N011,digit,5,"['6', '7', '8', '9']","['1', '2', '3', '4']",1,2023.2.3,harveydigits,2.1,[],8,0.75,
0,pause,0.4,None,None,None,0,229,229,229,,,,,,,,,,,,N011,digit,5,"['6', '7', '8', '9']","['1', '2', '3', '4']",1,2023.2.3,harveydigits,2.1,[],8,0.75,
3,digit,0.3,['dot'],['big_1'],black,0,230,230,230,,,82.90024399757385,82.61087203025818,82.91087102890015,"[[0.013597530831676863, -0.16871687463548746]]",['DejaVu Sans'],[0.9],,,,N011,digit,5,"['6', '7', '8', '9']","['1', '2', '3', '4']",1,2023.2.3,harveydigits,2.1,[],8,0.75,
0,pause,0.4,None,None,None,0,231,231,231,,,,,,,,,,,,N011,digit,5,"['6', '7', '8', '9']","['1', '2', '3', '4']",1,2023.2.3,harveydigits,2.1,[],8,0.75,
3,digit,0.3,['dot'],['big_1'],black,0,232,232,232,,,83.60023498535156,83.31085586547852,83.61084294319153,"[[0.056172669188425256, -0.0023468557867740436]]",['DejaVu Sans'],[0.9],,,,N011,digit,5,"['6', '7', '8', '9']","['1', '2', '3', '4']",1,2023.2.3,harveydigits,2.1,[],8,0.75,
0,pause,0.4,None,None,None,0,233,233,233,,,,,,,,,,,,N011,digit,5,"['6', '7', '8', '9']","['1', '2', '3', '4']",1,2023.2.3,harveydigits,2.1,[],8,0.75,
3,digit,0.3,['dot'],['big_1'],black,0,234,234,234,,,84.30023884773254,84.01076984405518,84.31075501441956,"[[0.032016457017555844, -0.16745826070747044]]",['DejaVu Sans'],[0.9],,,,N011,digit,5,"['6', '7', '8', '9']","['1', '2', '3', '4']",1,2023.2.3,harveydigits,2.1,[],8,0.75,
0,pause,0.4,None,None,None,0,235,235,235,,,,,,,,,,,,N011,digit,5,"['6', '7', '8', '9']","['1', '2', '3', '4']",1,2023.2.3,harveydigits,2.1,[],8,0.75,
3,digit,0.3,['dot'],['big_1'],black,0,236,236,236,,,85.00023889541626,84.71076583862305,85.0107409954071,"[[-0.0920859437963568, -0.08442211516177536]]",['DejaVu Sans'],[0.9],,,,N011,digit,5,"['6', '7', '8', '9']","['1', '2', '3', '4']",1,2023.2.3,harveydigits,2.1,[],8,0.75,
0,pause,0.4,None,None,None,0,237,237,237,,,,,,,,,,,,N011,digit,5,"['6', '7', '8', '9']","['1', '2', '3', '4']",1,2023.2.3,harveydigits,2.1,[],8,0.75,
3,digit,0.3,['dot'],['big_1'],black,0,238,238,238,,,85.7002158164978,85.4107449054718,85.71073293685913,"[[0.0019034298873313593, 0.15597648356228855]]",['DejaVu Sans'],[0.9],,,,N011,digit,5,"['6', '7', '8', '9']","['1', '2', '3', '4']",1,2023.2.3,harveydigits,2.1,[],8,0.75,
0,pause,0.4,None,None,None,0,239,239,239,,,,,,,,,,,,N011,digit,5,"['6', '7', '8', '9']","['1', '2', '3', '4']",1,2023.2.3,harveydigits,2.1,[],8,0.75,
2,digit,0.3,['dot'],['big_1'],black,0,240,240,240,,,86.40022492408752,86.11072587966919,86.4107129573822,"[[0.1084760472430579, -0.14375147573985855]]",['DejaVu Sans'],[0.9],,,,N011,digit,5,"['6', '7', '8', '9']","['1', '2', '3', '4']",1,2023.2.3,harveydigits,2.1,[],8,0.75,
0,pause,0.4,None,None,None,0,241,241,241,,,,,,,,,,,,N011,digit,5,"['6', '7', '8', '9']","['1', '2', '3', '4']",1,2023.2.3,harveydigits,2.1,[],8,0.75,
2,digit,0.3,['dot'],['big_1'],black,0,242,242,242,,,87.10024499893188,86.81070804595947,87.11071681976318,"[[0.1038815403071526, 0.05081412616665676]]",['DejaVu Sans'],[0.9],,,,N011,digit,5,"['6', '7', '8', '9']","['1', '2', '3', '4']",1,2023.2.3,harveydigits,2.1,[],8,0.75,
0,pause,0.4,None,None,None,0,243,243,243,,,,,,,,,,,,N011,digit,5,"['6', '7', '8', '9']","['1', '2', '3', '4']",1,2023.2.3,harveydigits,2.1,[],8,0.75,
2,digit,0.3,['dot'],['big_1'],black,0,244,244,244,,,87.8002188205719,87.51071882247925,87.81164598464966,"[[0.13760095607555548, -0.1295552360930316]]",['DejaVu Sans'],[0.9],,,,N011,digit,5,"['6', '7', '8', '9']","['1', '2', '3', '4']",1,2023.2.3,harveydigits,2.1,[],8,0.75,
0,pause,0.4,None,None,None,0,245,245,245,,,,,,,,,,,,N011,digit,5,"['6', '7', '8', '9']","['1', '2', '3', '4']",1,2023.2.3,harveydigits,2.1,[],8,0.75,
2,digit,0.3,['dot'],['big_1'],black,0,246,246,246,,,88.50023484230042,88.21087598800659,88.51071190834045,"[[0.06534217405524032, 0.025250424969787716]]",['DejaVu Sans'],[0.9],,,,N011,digit,5,"['6', '7', '8', '9']","['1', '2', '3', '4']",1,2023.2.3,harveydigits,2.1,[],8,0.75,
0,pause,0.4,None,None,None,0,247,247,247,,,,,,,,,,,,N011,digit,5,"['6', '7', '8', '9']","['1', '2', '3', '4']",1,2023.2.3,harveydigits,2.1,[],8,0.75,
2,digit,0.3,['dot'],['big_1'],black,0,248,248,248,,,89.20024299621582,88.91071200370789,89.21079993247986,"[[0.06281620192603901, 0.1700675649611044]]",['DejaVu Sans'],[0.9],,,,N011,digit,5,"['6', '7', '8', '9']","['1', '2', '3', '4']",1,2023.2.3,harveydigits,2.1,[],8,0.75,
0,pause,0.4,None,None,None,0,249,249,249,,,,,,,,,,,,N011,digit,5,"['6', '7', '8', '9']","['1', '2', '3', '4']",1,2023.2.3,harveydigits,2.1,[],8,0.75,
2,digit,0.3,['dot'],['big_1'],black,0,250,250,250,,,89.9002149105072,89.61080193519592,89.91066288948059,"[[0.019259046801441138, 0.022169333488493537]]",['DejaVu Sans'],[0.9],,,,N011,digit,5,"['6', '7', '8', '9']","['1', '2', '3', '4']",1,2023.2.3,harveydigits,2.1,[],8,0.75,
0,pause,0.4,None,None,None,0,251,251,251,,,,,,,,,,,,N011,digit,5,"['6', '7', '8', '9']","['1', '2', '3', '4']",1,2023.2.3,harveydigits,2.1,[],8,0.75,
1,digit,0.3,['dot'],['big_1'],black,0,252,252,252,,,90.6002368927002,90.3106939792633,90.6106379032135,"[[0.09722154389766022, 0.1439117517387689]]",['DejaVu Sans'],[0.9],,,,N011,digit,5,"['6', '7', '8', '9']","['1', '2', '3', '4']",1,2023.2.3,harveydigits,2.1,[],8,0.75,
0,pause,0.4,None,None,None,0,253,253,253,,,,,,,,,,,,N011,digit,5,"['6', '7', '8', '9']","['1', '2', '3', '4']",1,2023.2.3,harveydigits,2.1,[],8,0.75,
1,digit,0.3,['dot'],['big_1'],black,0,254,254,254,,,91.30024194717407,91.01065993309021,91.31077194213867,"[[0.19614016466100634, -0.027597665696278455]]",['DejaVu Sans'],[0.9],,,,N011,digit,5,"['6', '7', '8', '9']","['1', '2', '3', '4']",1,2023.2.3,harveydigits,2.1,[],8,0.75,
0,pause,0.4,None,None,None,0,255,255,255,,,,,,,,,,,,N011,digit,5,"['6', '7', '8', '9']","['1', '2', '3', '4']",1,2023.2.3,harveydigits,2.1,[],8,0.75,
1,digit,0.3,['dot'],['big_1'],black,0,256,256,256,,,92.00023889541626,91.71063184738159,92.01063394546509,"[[-0.10523679768593287, 0.09792487975393757]]",['DejaVu Sans'],[0.9],,,,N011,digit,5,"['6', '7', '8', '9']","['1', '2', '3', '4']",1,2023.2.3,harveydigits,2.1,[],8,0.75,
0,pause,0.4,None,None,None,0,257,257,257,,,,,,,,,,,,N011,digit,5,"['6', '7', '8', '9']","['1', '2', '3', '4']",1,2023.2.3,harveydigits,2.1,[],8,0.75,
1,digit,0.3,['dot'],['big_1'],black,0,258,258,258,,,92.70024585723877,92.41072487831116,92.71058082580566,"[[0.07575193602222466, -0.0585709965167866]]",['DejaVu Sans'],[0.9],,,,N011,digit,5,"['6', '7', '8', '9']","['1', '2', '3', '4']",1,2023.2.3,harveydigits,2.1,[],8,0.75,
0,pause,0.4,None,None,None,0,259,259,259,,,,,,,,,,,,N011,digit,5,"['6', '7', '8', '9']","['1', '2', '3', '4']",1,2023.2.3,harveydigits,2.1,[],8,0.75,
1,digit,0.3,['dot'],['big_1'],black,0,260,260,260,,,93.40023303031921,93.11058402061462,93.41070485115051,"[[0.05809637959082439, 0.04286954001842955]]",['DejaVu Sans'],[0.9],,,,N011,digit,5,"['6', '7', '8', '9']","['1', '2', '3', '4']",1,2023.2.3,harveydigits,2.1,[],8,0.75,
0,pause,0.4,None,None,None,0,261,261,261,,,,,,,,,,,,N011,digit,5,"['6', '7', '8', '9']","['1', '2', '3', '4']",1,2023.2.3,harveydigits,2.1,[],8,0.75,
1,digit,0.3,['dot'],['big_1'],black,0,262,262,262,,,94.10022902488708,93.81056094169617,94.11050581932068,"[[0.09463884037597345, -0.051505932640906804]]",['DejaVu Sans'],[0.9],,,,N011,digit,5,"['6', '7', '8', '9']","['1', '2', '3', '4']",1,2023.2.3,harveydigits,2.1,[],8,0.75,
0,pause,0.4,None,None,None,0,263,263,263,,,,,,,,,,,,N011,digit,5,"['6', '7', '8', '9']","['1', '2', '3', '4']",1,2023.2.3,harveydigits,2.1,[],8,0.75,
20,digit,0.3,['dot'],['big_1'],black,0,264,264,264,,,94.8002450466156,94.51051902770996,94.81049394607544,"[[0.016055621035655193, 0.08356599423155955]]",['DejaVu Sans'],[0.9],,,,N011,digit,5,"['6', '7', '8', '9']","['1', '2', '3', '4']",1,2023.2.3,harveydigits,2.1,[],8,0.75,
0,pause,0.4,None,None,None,0,265,265,265,,,,,,,,,,,,N011,digit,5,"['6', '7', '8', '9']","['1', '2', '3', '4']",1,2023.2.3,harveydigits,2.1,[],8,0.75,
20,digit,0.3,['dot'],['big_1'],black,0,266,266,266,,,95.5002429485321,95.21053194999695,95.51052689552307,"[[0.06396685709858732, 0.07368569375983755]]",['DejaVu Sans'],[0.9],,,,N011,digit,5,"['6', '7', '8', '9']","['1', '2', '3', '4']",1,2023.2.3,harveydigits,2.1,[],8,0.75,
0,pause,0.4,None,None,None,0,267,267,267,,,,,,,,,,,,N011,digit,5,"['6', '7', '8', '9']","['1', '2', '3', '4']",1,2023.2.3,harveydigits,2.1,[],8,0.75,
20,digit,0.3,['dot'],['big_1'],black,0,268,268,268,,,96.2002329826355,95.9105429649353,96.21048498153687,"[[0.16612545725769393, 0.10048984023637014]]",['DejaVu Sans'],[0.9],,,,N011,digit,5,"['6', '7', '8', '9']","['1', '2', '3', '4']",1,2023.2.3,harveydigits,2.1,[],8,0.75,
0,pause,0.4,None,None,None,0,269,269,269,,,,,,,,,,,,N011,digit,5,"['6', '7', '8', '9']","['1', '2', '3', '4']",1,2023.2.3,harveydigits,2.1,[],8,0.75,
20,digit,0.3,['dot'],['big_1'],black,0,270,270,270,,,96.90022802352905,96.61053395271301,96.91052484512329,"[[-0.09346843116708467, 0.0014963173476751357]]",['DejaVu Sans'],[0.9],,,,N011,digit,5,"['6', '7', '8', '9']","['1', '2', '3', '4']",1,2023.2.3,harveydigits,2.1,[],8,0.75,
0,pause,0.4,None,None,None,0,271,271,271,,,,,,,,,,,,N011,digit,5,"['6', '7', '8', '9']","['1', '2', '3', '4']",1,2023.2.3,harveydigits,2.1,[],8,0.75,
20,digit,0.3,['dot'],['big_1'],black,0,272,272,272,,,97.60024499893188,97.31043887138367,97.61042284965515,"[[0.10724543735765321, -0.03394870589354118]]",['DejaVu Sans'],[0.9],,,,N011,digit,5,"['6', '7', '8', '9']","['1', '2', '3', '4']",1,2023.2.3,harveydigits,2.1,[],8,0.75,
0,pause,0.4,None,None,None,0,273,273,273,,,,,,,,,,,,N011,digit,5,"['6', '7', '8', '9']","['1', '2', '3', '4']",1,2023.2.3,harveydigits,2.1,[],8,0.75,
20,digit,0.3,['dot'],['big_1'],black,0,274,274,274,,,98.30024695396423,98.01042294502258,98.31042385101318,"[[0.10625615001514702, -0.05512033037263683]]",['DejaVu Sans'],[0.9],,,,N011,digit,5,"['6', '7', '8', '9']","['1', '2', '3', '4']",1,2023.2.3,harveydigits,2.1,[],8,0.75,
0,pause,0.4,None,None,None,0,275,275,275,,,,,,,,,,,,N011,digit,5,"['6', '7', '8', '9']","['1', '2', '3', '4']",1,2023.2.3,harveydigits,2.1,[],8,0.75,
20,digit,0.3,['dot'],['big_1'],black,0,276,276,276,,,99.00023293495178,98.71042585372925,99.01047587394714,"[[0.10241735986929476, -0.08325576494941733]]",['DejaVu Sans'],[0.9],,,,N011,digit,5,"['6', '7', '8', '9']","['1', '2', '3', '4']",1,2023.2.3,harveydigits,2.1,[],8,0.75,
0,pause,0.4,None,None,None,0,277,277,277,,,,,,,,,,,,N011,digit,5,"['6', '7', '8', '9']","['1', '2', '3', '4']",1,2023.2.3,harveydigits,2.1,[],8,0.75,
20,digit,0.3,['dot'],['big_1'],black,0,278,278,278,,,99.70022201538086,99.41042685508728,99.71039986610413,"[[-0.05474178032554508, 0.17961273879134187]]",['DejaVu Sans'],[0.9],,,,N011,digit,5,"['6', '7', '8', '9']","['1', '2', '3', '4']",1,2023.2.3,harveydigits,2.1,[],8,0.75,
0,pause,0.4,None,None,None,0,279,279,279,,,,,,,,,,,,N011,digit,5,"['6', '7', '8', '9']","['1', '2', '3', '4']",1,2023.2.3,harveydigits,2.1,[],8,0.75,
20,digit,0.3,['dot'],['big_1'],black,0,280,280,280,,,100.40024089813232,100.11044692993164,100.4103889465332,"[[0.07552819597595564, -0.04833811923963688]]",['DejaVu Sans'],[0.9],,,,N011,digit,5,"['6', '7', '8', '9']","['1', '2', '3', '4']",1,2023.2.3,harveydigits,2.1,[],8,0.75,
0,pause,0.4,None,None,None,0,281,281,281,,,,,,,,,,,,N011,digit,5,"['6', '7', '8', '9']","['1', '2', '3', '4']",1,2023.2.3,harveydigits,2.1,[],8,0.75,
20,digit,0.3,['dot'],['big_1'],black,0,282,282,282,,,101.10024785995483,100.81040692329407,101.11036992073059,"[[-0.1801664176373526, -0.07251781622542539]]",['DejaVu Sans'],[0.9],,,,N011,digit,5,"['6', '7', '8', '9']","['1', '2', '3', '4']",1,2023.2.3,harveydigits,2.1,[],8,0.75,
0,pause,0.4,None,None,None,0,283,283,283,,,,,,,,,,,,N011,digit,5,"['6', '7', '8', '9']","['1', '2', '3', '4']",1,2023.2.3,harveydigits,2.1,[],8,0.75,
20,digit,0.3,['dot'],['big_1'],black,0,284,284,284,,,101.80024886131287,101.51039290428162,101.81048202514648,"[[0.0666330120722656, -0.10946583397632459]]",['DejaVu Sans'],[0.9],,,,N011,digit,5,"['6', '7', '8', '9']","['1', '2', '3', '4']",1,2023.2.3,harveydigits,2.1,[],8,0.75,
0,pause,0.4,None,None,None,0,285,285,285,,,,,,,,,,,,N011,digit,5,"['6', '7', '8', '9']","['1', '2', '3', '4']",1,2023.2.3,harveydigits,2.1,[],8,0.75,
20,digit,0.3,['dot'],['big_1'],black,0,286,286,286,,,102.50022196769714,102.21035695075989,102.51046299934387,"[[0.1495477953710627, -0.08140477224241491]]",['DejaVu Sans'],[0.9],,,,N011,digit,5,"['6', '7', '8', '9']","['1', '2', '3', '4']",1,2023.2.3,harveydigits,2.1,[],8,0.75,
0,pause,0.4,None,None,None,0,287,287,287,,,,,,,,,,,,N011,digit,5,"['6', '7', '8', '9']","['1', '2', '3', '4']",1,2023.2.3,harveydigits,2.1,[],8,0.75,
20,digit,0.3,['dot'],['big_1'],black,0,288,288,288,,,103.20025181770325,102.91031885147095,103.21044492721558,"[[-0.013000835917372722, -0.1832244382251676]]",['DejaVu Sans'],[0.9],,,,N011,digit,5,"['6', '7', '8', '9']","['1', '2', '3', '4']",1,2023.2.3,harveydigits,2.1,[],8,0.75,
0,pause,0.4,None,None,None,0,289,289,289,,,,,,,,,,,,N011,digit,5,"['6', '7', '8', '9']","['1', '2', '3', '4']",1,2023.2.3,harveydigits,2.1,[],8,0.75,
20,digit,0.3,['dot'],['big_1'],black,0,290,290,290,,,103.90023803710938,103.61033391952515,103.91031384468079,"[[-0.08593802866216817, -0.08820445418668249]]",['DejaVu Sans'],[0.9],,,,N011,digit,5,"['6', '7', '8', '9']","['1', '2', '3', '4']",1,2023.2.3,harveydigits,2.1,[],8,0.75,
0,pause,0.4,None,None,None,0,291,291,291,,,,,,,,,,,,N011,digit,5,"['6', '7', '8', '9']","['1', '2', '3', '4']",1,2023.2.3,harveydigits,2.1,[],8,0.75,
20,digit,0.3,['dot'],['big_1'],black,0,292,292,292,,,104.60023093223572,104.31026887893677,104.61025500297546,"[[-0.05821011553729333, -0.0671867381222886]]",['DejaVu Sans'],[0.9],,,,N011,digit,5,"['6', '7', '8', '9']","['1', '2', '3', '4']",1,2023.2.3,harveydigits,2.1,[],8,0.75,
0,pause,0.4,None,None,None,0,293,293,293,,,,,,,,,,,,N011,digit,5,"['6', '7', '8', '9']","['1', '2', '3', '4']",1,2023.2.3,harveydigits,2.1,[],8,0.75,
20,digit,0.3,['dot'],['big_1'],black,0,294,294,294,,,105.30023384094238,105.01030397415161,105.31025886535645,"[[-0.19412768346368384, -0.016575267449670535]]",['DejaVu Sans'],[0.9],,,,N011,digit,5,"['6', '7', '8', '9']","['1', '2', '3', '4']",1,2023.2.3,harveydigits,2.1,[],8,0.75,
0,pause,0.4,None,None,None,0,295,295,295,,,,,,,,,,,,N011,digit,5,"['6', '7', '8', '9']","['1', '2', '3', '4']",1,2023.2.3,harveydigits,2.1,[],8,0.75,
20,digit,0.3,['dot'],['big_1'],black,0,296,296,296,,,106.00022292137146,105.71033883094788,106.01023292541504,"[[0.15457361638439573, -0.026740654547659518]]",['DejaVu Sans'],[0.9],,,,N011,digit,5,"['6', '7', '8', '9']","['1', '2', '3', '4']",1,2023.2.3,harveydigits,2.1,[],8,0.75,
0,pause,0.4,None,None,None,0,297,297,297,,,,,,,,,,,,N011,digit,5,"['6', '7', '8', '9']","['1', '2', '3', '4']",1,2023.2.3,harveydigits,2.1,[],8,0.75,
20,digit,0.3,['dot'],['big_1'],black,0,298,298,298,,,106.70022082328796,106.41021490097046,106.71021103858948,"[[0.09457552331841504, -0.09351903561097985]]",['DejaVu Sans'],[0.9],,,,N011,digit,5,"['6', '7', '8', '9']","['1', '2', '3', '4']",1,2023.2.3,harveydigits,2.1,[],8,0.75,
0,pause,0.4,None,None,None,0,299,299,299,,,,,,,,,,,,N011,digit,5,"['6', '7', '8', '9']","['1', '2', '3', '4']",1,2023.2.3,harveydigits,2.1,[],8,0.75,
20,digit,0.3,['dot'],['big_1'],black,0,300,300,300,,,107.40023803710938,107.11021900177002,107.41022300720215,"[[0.10755123618830567, 0.041451841097494946]]",['DejaVu Sans'],[0.9],,,,N011,digit,5,"['6', '7', '8', '9']","['1', '2', '3', '4']",1,2023.2.3,harveydigits,2.1,[],8,0.75,
0,pause,0.4,None,None,None,0,301,301,301,,,,,,,,,,,,N011,digit,5,"['6', '7', '8', '9']","['1', '2', '3', '4']",1,2023.2.3,harveydigits,2.1,[],8,0.75,
20,digit,0.3,['dot'],['big_1'],black,0,302,302,302,,,108.10023593902588,107.81023383140564,108.11020398139954,"[[0.06760445141913793, -0.1467958831020152]]",['DejaVu Sans'],[0.9],,,,N011,digit,5,"['6', '7', '8', '9']","['1', '2', '3', '4']",1,2023.2.3,harveydigits,2.1,[],8,0.75,
0,pause,0.4,None,None,None,0,303,303,303,,,,,,,,,,,,N011,digit,5,"['6', '7', '8', '9']","['1', '2', '3', '4']",1,2023.2.3,harveydigits,2.1,[],8,0.75,
20,digit,0.3,['dot'],['big_1'],black,0,304,304,304,,,108.80024099349976,108.51020789146423,108.81014800071716,"[[-0.1438158261008482, -0.1328237580429836]]",['DejaVu Sans'],[0.9],,,,N011,digit,5,"['6', '7', '8', '9']","['1', '2', '3', '4']",1,2023.2.3,harveydigits,2.1,[],8,0.75,
0,pause,0.4,None,None,None,0,305,305,305,,,,,,,,,,,,N011,digit,5,"['6', '7', '8', '9']","['1', '2', '3', '4']",1,2023.2.3,harveydigits,2.1,[],8,0.75,
20,digit,0.3,['dot'],['big_1'],black,0,306,306,306,,,109.50024700164795,109.21012997627258,109.51014399528503,"[[0.18527960741370367, 0.021471033390053434]]",['DejaVu Sans'],[0.9],,,,N011,digit,5,"['6', '7', '8', '9']","['1', '2', '3', '4']",1,2023.2.3,harveydigits,2.1,[],8,0.75,
0,pause,0.4,None,None,None,0,307,307,307,,,,,,,,,,,,N011,digit,5,"['6', '7', '8', '9']","['1', '2', '3', '4']",1,2023.2.3,harveydigits,2.1,[],8,0.75,
20,digit,0.3,['dot'],['big_1'],black,0,308,308,308,,,110.20024394989014,109.9101710319519,110.21012902259827,"[[-0.0964169874136742, 0.10995016239706482]]",['DejaVu Sans'],[0.9],,,,N011,digit,5,"['6', '7', '8', '9']","['1', '2', '3', '4']",1,2023.2.3,harveydigits,2.1,[],8,0.75,
0,pause,0.4,None,None,None,0,309,309,309,,,,,,,,,,,,N011,digit,5,"['6', '7', '8', '9']","['1', '2', '3', '4']",1,2023.2.3,harveydigits,2.1,[],8,0.75,
20,digit,0.3,['dot'],['big_1'],black,0,310,310,310,,,110.90023994445801,110.61012983322144,110.91121888160706,"[[-0.13244263467031436, 0.06802612324429053]]",['DejaVu Sans'],[0.9],,,,N011,digit,5,"['6', '7', '8', '9']","['1', '2', '3', '4']",1,2023.2.3,harveydigits,2.1,[],8,0.75,
0,pause,0.4,None,None,None,0,311,311,311,,,,,,,,,,,,N011,digit,5,"['6', '7', '8', '9']","['1', '2', '3', '4']",1,2023.2.3,harveydigits,2.1,[],8,0.75,
1,digit,0.3,['dot'],['small_1'],black,0,312,312,312,,,111.60024094581604,111.31032705307007,111.61029195785522,"[[0.12199641084679935, 0.31923538237496873]]",['DejaVu Sans'],[0.6],,,,N011,digit,5,"['6', '7', '8', '9']","['1', '2', '3', '4']",1,2023.2.3,harveydigits,2.1,[],8,0.75,
0,pause,0.4,None,None,None,0,313,313,313,,,,,,,,,,,,N011,digit,5,"['6', '7', '8', '9']","['1', '2', '3', '4']",1,2023.2.3,harveydigits,2.1,[],8,0.75,
1,digit,0.3,['dot'],['small_1'],black,0,314,314,314,,,112.30023789405823,112.01029205322266,112.31029796600342,"[[0.0019120072049988446, 0.32028607940979653]]",['DejaVu Sans'],[0.6],,,,N011,digit,5,"['6', '7', '8', '9']","['1', '2', '3', '4']",1,2023.2.3,harveydigits,2.1,[],8,0.75,
0,pause,0.4,None,None,None,0,315,315,315,,,,,,,,,,,,N011,digit,5,"['6', '7', '8', '9']","['1', '2', '3', '4']",1,2023.2.3,harveydigits,2.1,[],8,0.75,
1,digit,0.3,['dot'],['small_1'],black,0,316,316,316,,,113.00024390220642,112.71021103858948,113.01019287109375,"[[-0.34011468023149216, -0.03511229140719249]]",['DejaVu Sans'],[0.6],,,,N011,digit,5,"['6', '7', '8', '9']","['1', '2', '3', '4']",1,2023.2.3,harveydigits,2.1,[],8,0.75,
0,pause,0.4,None,None,None,0,317,317,317,,,,,,,,,,,,N011,digit,5,"['6', '7', '8', '9']","['1', '2', '3', '4']",1,2023.2.3,harveydigits,2.1,[],8,0.75,
1,digit,0.3,['dot'],['small_1'],black,0,318,318,318,,,113.70023703575134,113.41004681587219,113.71017384529114,"[[0.3403825952853292, -0.06927792155936616]]",['DejaVu Sans'],[0.6],,,,N011,digit,5,"['6', '7', '8', '9']","['1', '2', '3', '4']",1,2023.2.3,harveydigits,2.1,[],8,0.75,
0,pause,0.4,None,None,None,0,319,319,319,,,,,,,,,,,,N011,digit,5,"['6', '7', '8', '9']","['1', '2', '3', '4']",1,2023.2.3,harveydigits,2.1,[],8,0.75,
1,digit,0.3,['dot'],['small_1'],black,0,320,320,320,,,114.40024304389954,114.11006093025208,114.41001987457275,"[[0.18752996032247493, 0.16879706930419175]]",['DejaVu Sans'],[0.6],,,,N011,digit,5,"['6', '7', '8', '9']","['1', '2', '3', '4']",1,2023.2.3,harveydigits,2.1,[],8,0.75,
0,pause,0.4,None,None,None,0,321,321,321,,,,,,,,,,,,N011,digit,5,"['6', '7', '8', '9']","['1', '2', '3', '4']",1,2023.2.3,harveydigits,2.1,[],8,0.75,
1,digit,0.3,['dot'],['small_1'],black,0,322,322,322,,,115.1002368927002,114.8100528717041,115.11001300811768,"[[-0.3297285688326181, -0.10559482051419805]]",['DejaVu Sans'],[0.6],,,,N011,digit,5,"['6', '7', '8', '9']","['1', '2', '3', '4']",1,2023.2.3,harveydigits,2.1,[],8,0.75,
0,pause,0.4,None,None,None,0,323,323,323,,,,,,,,,,,,N011,digit,5,"['6', '7', '8', '9']","['1', '2', '3', '4']",1,2023.2.3,harveydigits,2.1,[],8,0.75,
2,digit,0.3,['dot'],['small_1'],black,0,324,324,324,,,115.80022501945496,115.50999903678894,115.81001496315002,"[[-0.1512491887618856, -0.005491539601192141]]",['DejaVu Sans'],[0.6],,,,N011,digit,5,"['6', '7', '8', '9']","['1', '2', '3', '4']",1,2023.2.3,harveydigits,2.1,[],8,0.75,
0,pause,0.4,None,None,None,0,325,325,325,,,,,,,,,,,,N011,digit,5,"['6', '7', '8', '9']","['1', '2', '3', '4']",1,2023.2.3,harveydigits,2.1,[],8,0.75,
2,digit,0.3,['dot'],['small_1'],black,0,326,326,326,,,116.50022792816162,116.2099769115448,116.51010799407959,"[[-0.26327033996164495, 0.19468147288423696]]",['DejaVu Sans'],[0.6],,,,N011,digit,5,"['6', '7', '8', '9']","['1', '2', '3', '4']",1,2023.2.3,harveydigits,2.1,[],8,0.75,
0,pause,0.4,None,None,None,0,327,327,327,,,,,,,,,,,,N011,digit,5,"['6', '7', '8', '9']","['1', '2', '3', '4']",1,2023.2.3,harveydigits,2.1,[],8,0.75,
2,digit,0.3,['dot'],['small_1'],black,0,328,328,328,,,117.20024299621582,116.91010594367981,117.2100989818573,"[[0.0393257827959948, -0.25478569888541686]]",['DejaVu Sans'],[0.6],,,,N011,digit,5,"['6', '7', '8', '9']","['1', '2', '3', '4']",1,2023.2.3,harveydigits,2.1,[],8,0.75,
0,pause,0.4,None,None,None,0,329,329,329,,,,,,,,,,,,N011,digit,5,"['6', '7', '8', '9']","['1', '2', '3', '4']",1,2023.2.3,harveydigits,2.1,[],8,0.75,
2,digit,0.3,['dot'],['small_1'],black,0,330,330,330,,,117.90022301673889,117.60995101928711,117.90994501113892,"[[-0.11146238800216324, 0.21524940326958353]]",['DejaVu Sans'],[0.6],,,,N011,digit,5,"['6', '7', '8', '9']","['1', '2', '3', '4']",1,2023.2.3,harveydigits,2.1,[],8,0.75,
0,pause,0.4,None,None,None,0,331,331,331,,,,,,,,,,,,N011,digit,5,"['6', '7', '8', '9']","['1', '2', '3', '4']",1,2023.2.3,harveydigits,2.1,[],8,0.75,
2,digit,0.3,['dot'],['small_1'],black,0,332,332,332,,,118.60022401809692,118.30992197990417,118.6099169254303,"[[-0.28990696931731197, -0.03256896838076806]]",['DejaVu Sans'],[0.6],,,,N011,digit,5,"['6', '7', '8', '9']","['1', '2', '3', '4']",1,2023.2.3,harveydigits,2.1,[],8,0.75,
0,pause,0.4,None,None,None,0,333,333,333,,,,,,,,,,,,N011,digit,5,"['6', '7', '8', '9']","['1', '2', '3', '4']",1,2023.2.3,harveydigits,2.1,[],8,0.75,
2,digit,0.3,['dot'],['small_1'],black,0,334,334,334,,,119.30025005340576,119.0098979473114,119.30987787246704,"[[-0.17929310210773516, -0.18821589276164086]]",['DejaVu Sans'],[0.6],,,,N011,digit,5,"['6', '7', '8', '9']","['1', '2', '3', '4']",1,2023.2.3,harveydigits,2.1,[],8,0.75,
0,pause,0.4,None,None,None,0,335,335,335,,,,,,,,,,,,N011,digit,5,"['6', '7', '8', '9']","['1', '2', '3', '4']",1,2023.2.3,harveydigits,2.1,[],8,0.75,
3,digit,0.3,['dot'],['small_1'],black,0,336,336,336,,,120.00023698806763,119.70986795425415,120.00988101959229,"[[-0.1772375128023999, -0.16499053074335784]]",['DejaVu Sans'],[0.6],,,,N011,digit,5,"['6', '7', '8', '9']","['1', '2', '3', '4']",1,2023.2.3,harveydigits,2.1,[],8,0.75,
0,pause,0.4,None,None,None,0,337,337,337,,,,,,,,,,,,N011,digit,5,"['6', '7', '8', '9']","['1', '2', '3', '4']",1,2023.2.3,harveydigits,2.1,[],8,0.75,
3,digit,0.3,['dot'],['small_1'],black,0,338,338,338,,,120.70023989677429,120.4098629951477,120.70982789993286,"[[-0.17167364230528875, 0.25430034068232005]]",['DejaVu Sans'],[0.6],,,,N011,digit,5,"['6', '7', '8', '9']","['1', '2', '3', '4']",1,2023.2.3,harveydigits,2.1,[],8,0.75,
0,pause,0.4,None,None,None,0,339,339,339,,,,,,,,,,,,N011,digit,5,"['6', '7', '8', '9']","['1', '2', '3', '4']",1,2023.2.3,harveydigits,2.1,[],8,0.75,
3,digit,0.3,['dot'],['small_1'],black,0,340,340,340,,,121.40022993087769,121.10986089706421,121.40987300872803,"[[-0.045894619900197775, 0.287815807004552]]",['DejaVu Sans'],[0.6],,,,N011,digit,5,"['6', '7', '8', '9']","['1', '2', '3', '4']",1,2023.2.3,harveydigits,2.1,[],8,0.75,
0,pause,0.4,None,None,None,0,341,341,341,,,,,,,,,,,,N011,digit,5,"['6', '7', '8', '9']","['1', '2', '3', '4']",1,2023.2.3,harveydigits,2.1,[],8,0.75,
3,digit,0.3,['dot'],['small_1'],black,0,342,342,342,,,122.10025191307068,121.80988502502441,122.10981392860413,"[[-0.055207988144956366, 0.2732686453680322]]",['DejaVu Sans'],[0.6],,,,N011,digit,5,"['6', '7', '8', '9']","['1', '2', '3', '4']",1,2023.2.3,harveydigits,2.1,[],8,0.75,
0,pause,0.4,None,None,None,0,343,343,343,,,,,,,,,,,,N011,digit,5,"['6', '7', '8', '9']","['1', '2', '3', '4']",1,2023.2.3,harveydigits,2.1,[],8,0.75,
3,digit,0.3,['dot'],['small_1'],black,0,344,344,344,,,122.80024290084839,122.50978684425354,122.80977702140808,"[[0.3052450467279203, -0.0732608798560345]]",['DejaVu Sans'],[0.6],,,,N011,digit,5,"['6', '7', '8', '9']","['1', '2', '3', '4']",1,2023.2.3,harveydigits,2.1,[],8,0.75,
0,pause,0.4,None,None,None,0,345,345,345,,,,,,,,,,,,N011,digit,5,"['6', '7', '8', '9']","['1', '2', '3', '4']",1,2023.2.3,harveydigits,2.1,[],8,0.75,
3,digit,0.3,['dot'],['small_1'],black,0,346,346,346,,,123.50024700164795,123.20977401733398,123.50981402397156,"[[-0.2991112855088162, 0.12879760631927833]]",['DejaVu Sans'],[0.6],,,,N011,digit,5,"['6', '7', '8', '9']","['1', '2', '3', '4']",1,2023.2.3,harveydigits,2.1,[],8,0.75,
0,pause,0.4,None,None,None,0,347,347,347,,,,,,,,,,,,N011,digit,5,"['6', '7', '8', '9']","['1', '2', '3', '4']",1,2023.2.3,harveydigits,2.1,[],8,0.75,
4,digit,0.3,['dot'],['small_1'],white,0,348,348,348,,,124.20025086402893,123.90977883338928,124.20977282524109,"[[-0.04421218346316724, 0.3365949817316183]]",['DejaVu Sans'],[0.6],,,,N011,digit,5,"['6', '7', '8', '9']","['1', '2', '3', '4']",1,2023.2.3,harveydigits,2.1,[],8,0.75,
0,pause,0.4,None,None,None,0,349,349,349,,,,,,,,,1,,124.5086100101471,N011,digit,5,"['6', '7', '8', '9']","['1', '2', '3', '4']",1,2023.2.3,harveydigits,2.1,[],8,0.75,
4,digit,0.3,['dot'],['small_1'],white,0,350,350,350,,,124.90022397041321,124.60976600646973,124.90975594520569,"[[-0.29092227395842224, 0.0454801737727841]]",['DejaVu Sans'],[0.6],,,,N011,digit,5,"['6', '7', '8', '9']","['1', '2', '3', '4']",1,2023.2.3,harveydigits,2.1,[],8,0.75,
0,pause,0.4,None,None,None,0,351,351,351,,,,,,,,,,,,N011,digit,5,"['6', '7', '8', '9']","['1', '2', '3', '4']",1,2023.2.3,harveydigits,2.1,[],8,0.75,
4,digit,0.3,['dot'],['small_1'],white,0,352,352,352,,,125.60022282600403,125.30974984169006,125.60973191261292,"[[0.20969917915707548, -0.023218996414650583]]",['DejaVu Sans'],[0.6],,,,N011,digit,5,"['6', '7', '8', '9']","['1', '2', '3', '4']",1,2023.2.3,harveydigits,2.1,[],8,0.75,
0,pause,0.4,None,None,None,0,353,353,353,,,,,,,,,,,,N011,digit,5,"['6', '7', '8', '9']","['1', '2', '3', '4']",1,2023.2.3,harveydigits,2.1,[],8,0.75,
4,digit,0.3,['dot'],['small_1'],white,0,354,354,354,,,126.30023789405823,126.00972890853882,126.30971097946167,"[[-0.2609533938400635, -0.0019351551504367404]]",['DejaVu Sans'],[0.6],,,,N011,digit,5,"['6', '7', '8', '9']","['1', '2', '3', '4']",1,2023.2.3,harveydigits,2.1,[],8,0.75,
0,pause,0.4,None,None,None,0,355,355,355,,,,,,,,,,,,N011,digit,5,"['6', '7', '8', '9']","['1', '2', '3', '4']",1,2023.2.3,harveydigits,2.1,[],8,0.75,
4,digit,0.3,['dot'],['small_1'],white,0,356,356,356,,,127.00024104118347,126.70971584320068,127.00984001159668,"[[-0.15018882126252914, -0.1405088522448643]]",['DejaVu Sans'],[0.6],,,,N011,digit,5,"['6', '7', '8', '9']","['1', '2', '3', '4']",1,2023.2.3,harveydigits,2.1,[],8,0.75,
0,pause,0.4,None,None,None,0,357,357,357,,,,,,,,,,,,N011,digit,5,"['6', '7', '8', '9']","['1', '2', '3', '4']",1,2023.2.3,harveydigits,2.1,[],8,0.75,
4,digit,0.3,['dot'],['small_1'],white,0,358,358,358,,,127.70023894309998,127.40972685813904,127.70968890190125,"[[0.169534611976758, 0.30365050843150954]]",['DejaVu Sans'],[0.6],,,,N011,digit,5,"['6', '7', '8', '9']","['1', '2', '3', '4']",1,2023.2.3,harveydigits,2.1,[],8,0.75,
0,pause,0.4,None,None,None,0,359,359,359,,,,,,,,,,,,N011,digit,5,"['6', '7', '8', '9']","['1', '2', '3', '4']",1,2023.2.3,harveydigits,2.1,[],8,0.75,
5,digit,0.3,['dot'],['small_1'],black,0,360,360,360,,,128.40024495124817,128.10980486869812,128.4097969532013,"[[0.2297248179757153, 0.12359985942366253]]",['DejaVu Sans'],[0.6],,,,N011,digit,5,"['6', '7', '8', '9']","['1', '2', '3', '4']",1,2023.2.3,harveydigits,2.1,[],8,0.75,
0,pause,0.4,None,None,None,0,361,361,361,,,,,,,,,,,,N011,digit,5,"['6', '7', '8', '9']","['1', '2', '3', '4']",1,2023.2.3,harveydigits,2.1,[],8,0.75,
5,digit,0.3,['dot'],['small_1'],black,0,362,362,362,,,129.10022592544556,128.80983996391296,129.1097948551178,"[[0.13600278113617675, 0.17873527039627773]]",['DejaVu Sans'],[0.6],,,,N011,digit,5,"['6', '7', '8', '9']","['1', '2', '3', '4']",1,2023.2.3,harveydigits,2.1,[],8,0.75,
0,pause,0.4,None,None,None,0,363,363,363,,,,,,,,,,,,N011,digit,5,"['6', '7', '8', '9']","['1', '2', '3', '4']",1,2023.2.3,harveydigits,2.1,[],8,0.75,
5,digit,0.3,['dot'],['small_1'],black,0,364,364,364,,,129.80023097991943,129.50981998443604,129.80958604812622,"[[-0.07761640503460154, -0.2613705535237722]]",['DejaVu Sans'],[0.6],,,,N011,digit,5,"['6', '7', '8', '9']","['1', '2', '3', '4']",1,2023.2.3,harveydigits,2.1,[],8,0.75,
0,pause,0.4,None,None,None,0,365,365,365,,,,,,,,,,,,N011,digit,5,"['6', '7', '8', '9']","['1', '2', '3', '4']",1,2023.2.3,harveydigits,2.1,[],8,0.75,
5,digit,0.3,['dot'],['small_1'],black,0,366,366,366,,,130.50023484230042,130.20959186553955,130.5095808506012,"[[0.016043223982632304, 0.1470610674080341]]",['DejaVu Sans'],[0.6],,,,N011,digit,5,"['6', '7', '8', '9']","['1', '2', '3', '4']",1,2023.2.3,harveydigits,2.1,[],8,0.75,
0,pause,0.4,None,None,None,0,367,367,367,,,,,,,,,,,,N011,digit,5,"['6', '7', '8', '9']","['1', '2', '3', '4']",1,2023.2.3,harveydigits,2.1,[],8,0.75,
5,digit,0.3,['dot'],['small_1'],black,0,368,368,368,,,131.20023488998413,130.909569978714,131.2096128463745,"[[0.17055158885668942, 0.19363597958694062]]",['DejaVu Sans'],[0.6],,,,N011,digit,5,"['6', '7', '8', '9']","['1', '2', '3', '4']",1,2023.2.3,harveydigits,2.1,[],8,0.75,
0,pause,0.4,None,None,None,0,369,369,369,,,,,,,,,,,,N011,digit,5,"['6', '7', '8', '9']","['1', '2', '3', '4']",1,2023.2.3,harveydigits,2.1,[],8,0.75,
5,digit,0.3,['dot'],['small_1'],black,0,370,370,370,,,131.9002468585968,131.60960602760315,131.9095368385315,"[[0.022412896061243304, -0.2885461669033263]]",['DejaVu Sans'],[0.6],,,,N011,digit,5,"['6', '7', '8', '9']","['1', '2', '3', '4']",1,2023.2.3,harveydigits,2.1,[],8,0.75,
0,pause,0.4,None,None,None,0,371,371,371,,,,,,,,,,,,N011,digit,5,"['6', '7', '8', '9']","['1', '2', '3', '4']",1,2023.2.3,harveydigits,2.1,[],8,0.75,
6,digit,0.3,['dot'],['small_1'],black,0,372,372,372,,,132.6002299785614,132.30953288078308,132.60952997207642,"[[-0.0166501892246953, 0.11431319441832155]]",['DejaVu Sans'],[0.6],,,,N011,digit,5,"['6', '7', '8', '9']","['1', '2', '3', '4']",1,2023.2.3,harveydigits,2.1,[],8,0.75,
0,pause,0.4,None,None,None,0,373,373,373,,,,,,,,,,,,N011,digit,5,"['6', '7', '8', '9']","['1', '2', '3', '4']",1,2023.2.3,harveydigits,2.1,[],8,0.75,
6,digit,0.3,['dot'],['small_1'],black,0,374,374,374,,,133.3002519607544,133.00960302352905,133.30957984924316,"[[0.05132872776374048, 0.19806797143014254]]",['DejaVu Sans'],[0.6],,,,N011,digit,5,"['6', '7', '8', '9']","['1', '2', '3', '4']",1,2023.2.3,harveydigits,2.1,[],8,0.75,
0,pause,0.4,None,None,None,0,375,375,375,,,,,,,,,,,,N011,digit,5,"['6', '7', '8', '9']","['1', '2', '3', '4']",1,2023.2.3,harveydigits,2.1,[],8,0.75,
6,digit,0.3,['dot'],['small_1'],black,0,376,376,376,,,134.00023794174194,133.7095718383789,134.00956988334656,"[[-0.2571450653543031, 0.045526345686760006]]",['DejaVu Sans'],[0.6],,,,N011,digit,5,"['6', '7', '8', '9']","['1', '2', '3', '4']",1,2023.2.3,harveydigits,2.1,[],8,0.75,
0,pause,0.4,None,None,None,0,377,377,377,,,,,,,,,,,,N011,digit,5,"['6', '7', '8', '9']","['1', '2', '3', '4']",1,2023.2.3,harveydigits,2.1,[],8,0.75,
6,digit,0.3,['dot'],['small_1'],black,0,378,378,378,,,134.70022702217102,134.40949296951294,134.7094829082489,"[[-0.049213727763364745, 0.30227622716775543]]",['DejaVu Sans'],[0.6],,,,N011,digit,5,"['6', '7', '8', '9']","['1', '2', '3', '4']",1,2023.2.3,harveydigits,2.1,[],8,0.75,
0,pause,0.4,None,None,None,0,379,379,379,,,,,,,,,,,,N011,digit,5,"['6', '7', '8', '9']","['1', '2', '3', '4']",1,2023.2.3,harveydigits,2.1,[],8,0.75,
6,digit,0.3,['dot'],['small_1'],black,0,380,380,380,,,135.40023803710938,135.10946488380432,135.40944385528564,"[[-0.3428492879832362, 0.008120116403317224]]",['DejaVu Sans'],[0.6],,,,N011,digit,5,"['6', '7', '8', '9']","['1', '2', '3', '4']",1,2023.2.3,harveydigits,2.1,[],8,0.75,
0,pause,0.4,None,None,None,0,381,381,381,,,,,,,,,,,,N011,digit,5,"['6', '7', '8', '9']","['1', '2', '3', '4']",1,2023.2.3,harveydigits,2.1,[],8,0.75,
6,digit,0.3,['dot'],['small_1'],black,0,382,382,382,,,136.100252866745,135.80947995185852,136.10945987701416,"[[0.03790380582310282, 0.1447848539817469]]",['DejaVu Sans'],[0.6],,,,N011,digit,5,"['6', '7', '8', '9']","['1', '2', '3', '4']",1,2023.2.3,harveydigits,2.1,[],8,0.75,
0,pause,0.4,None,None,None,0,383,383,383,,,,,,,,,,,,N011,digit,5,"['6', '7', '8', '9']","['1', '2', '3', '4']",1,2023.2.3,harveydigits,2.1,[],8,0.75,
7,digit,0.3,['dot'],['small_1'],black,0,384,384,384,,,136.80025005340576,136.5094199180603,136.80940103530884,"[[-0.09254667130784583, 0.1062334945321537]]",['DejaVu Sans'],[0.6],,,,N011,digit,5,"['6', '7', '8', '9']","['1', '2', '3', '4']",1,2023.2.3,harveydigits,2.1,[],8,0.75,
0,pause,0.4,None,None,None,0,385,385,385,,,,,,,,,,,,N011,digit,5,"['6', '7', '8', '9']","['1', '2', '3', '4']",1,2023.2.3,harveydigits,2.1,[],8,0.75,
7,digit,0.3,['dot'],['small_1'],black,0,386,386,386,,,137.50023889541626,137.20946288108826,137.5094850063324,"[[-0.29739817965972193, -0.16881657038627934]]",['DejaVu Sans'],[0.6],,,,N011,digit,5,"['6', '7', '8', '9']","['1', '2', '3', '4']",1,2023.2.3,harveydigits,2.1,[],8,0.75,
0,pause,0.4,None,None,None,0,387,387,387,,,,,,,,,,,,N011,digit,5,"['6', '7', '8', '9']","['1', '2', '3', '4']",1,2023.2.3,harveydigits,2.1,[],8,0.75,
7,digit,0.3,['dot'],['small_1'],black,0,388,388,388,,,138.2002558708191,137.90943598747253,138.20948886871338,"[[0.004587877891849612, 0.027795155340456568]]",['DejaVu Sans'],[0.6],,,,N011,digit,5,"['6', '7', '8', '9']","['1', '2', '3', '4']",1,2023.2.3,harveydigits,2.1,[],8,0.75,
0,pause,0.4,None,None,None,0,389,389,389,,,,,,,,,,,,N011,digit,5,"['6', '7', '8', '9']","['1', '2', '3', '4']",1,2023.2.3,harveydigits,2.1,[],8,0.75,
7,digit,0.3,['dot'],['small_1'],black,0,390,390,390,,,138.90025091171265,138.60940194129944,138.90937685966492,"[[-0.1057863540578163, 0.07594946722415818]]",['DejaVu Sans'],[0.6],,,,N011,digit,5,"['6', '7', '8', '9']","['1', '2', '3', '4']",1,2023.2.3,harveydigits,2.1,[],8,0.75,
0,pause,0.4,None,None,None,0,391,391,391,,,,,,,,,,,,N011,digit,5,"['6', '7', '8', '9']","['1', '2', '3', '4']",1,2023.2.3,harveydigits,2.1,[],8,0.75,
7,digit,0.3,['dot'],['small_1'],black,0,392,392,392,,,139.600252866745,139.30937385559082,139.60936093330383,"[[0.024494774960600707, 0.2367762135918079]]",['DejaVu Sans'],[0.6],,,,N011,digit,5,"['6', '7', '8', '9']","['1', '2', '3', '4']",1,2023.2.3,harveydigits,2.1,[],8,0.75,
0,pause,0.4,None,None,None,0,393,393,393,,,,,,,,,,,,N011,digit,5,"['6', '7', '8', '9']","['1', '2', '3', '4']",1,2023.2.3,harveydigits,2.1,[],8,0.75,
7,digit,0.3,['dot'],['small_1'],black,0,394,394,394,,,140.30024886131287,140.00939798355103,140.30940985679626,"[[0.03410858361665248, -0.2083977353660854]]",['DejaVu Sans'],[0.6],,,,N011,digit,5,"['6', '7', '8', '9']","['1', '2', '3', '4']",1,2023.2.3,harveydigits,2.1,[],8,0.75,
0,pause,0.4,None,None,None,0,395,395,395,,,,,,,,,,,,N011,digit,5,"['6', '7', '8', '9']","['1', '2', '3', '4']",1,2023.2.3,harveydigits,2.1,[],8,0.75,
8,digit,0.3,['dot'],['small_1'],black,0,396,396,396,,,141.00025486946106,140.70932793617249,141.0093128681183,"[[-0.1299230769754807, -0.014771499639210428]]",['DejaVu Sans'],[0.6],,,,N011,digit,5,"['6', '7', '8', '9']","['1', '2', '3', '4']",1,2023.2.3,harveydigits,2.1,[],8,0.75,
0,pause,0.4,None,None,None,0,397,397,397,,,,,,,,,,,,N011,digit,5,"['6', '7', '8', '9']","['1', '2', '3', '4']",1,2023.2.3,harveydigits,2.1,[],8,0.75,
8,digit,0.3,['dot'],['small_1'],black,0,398,398,398,,,141.7002408504486,141.40936994552612,141.709312915802,"[[-0.19838702667761363, 0.0833649403629394]]",['DejaVu Sans'],[0.6],,,,N011,digit,5,"['6', '7', '8', '9']","['1', '2', '3', '4']",1,2023.2.3,harveydigits,2.1,[],8,0.75,
0,pause,0.4,None,None,None,0,399,399,399,,,,,,,,,,,,N011,digit,5,"['6', '7', '8', '9']","['1', '2', '3', '4']",1,2023.2.3,harveydigits,2.1,[],8,0.75,
8,digit,0.3,['dot'],['small_1'],black,0,400,400,400,,,142.40024590492249,142.10940289497375,142.40928196907043,"[[-0.3166612564576765, -0.14628188815113666]]",['DejaVu Sans'],[0.6],,,,N011,digit,5,"['6', '7', '8', '9']","['1', '2', '3', '4']",1,2023.2.3,harveydigits,2.1,[],8,0.75,
0,pause,0.4,None,None,None,0,401,401,401,,,,,,,,,,,,N011,digit,5,"['6', '7', '8', '9']","['1', '2', '3', '4']",1,2023.2.3,harveydigits,2.1,[],8,0.75,
8,digit,0.3,['dot'],['small_1'],black,0,402,402,402,,,143.1002278327942,142.80926990509033,143.10925197601318,"[[-0.246824232429602, 0.08712583487662204]]",['DejaVu Sans'],[0.6],,,,N011,digit,5,"['6', '7', '8', '9']","['1', '2', '3', '4']",1,2023.2.3,harveydigits,2.1,[],8,0.75,
0,pause,0.4,None,None,None,0,403,403,403,,,,,,,,,,,,N011,digit,5,"['6', '7', '8', '9']","['1', '2', '3', '4']",1,2023.2.3,harveydigits,2.1,[],8,0.75,
8,digit,0.3,['dot'],['small_1'],black,0,404,404,404,,,143.8002269268036,143.50925588607788,143.80924081802368,"[[0.03220646024835955, -0.29701972202771454]]",['DejaVu Sans'],[0.6],,,,N011,digit,5,"['6', '7', '8', '9']","['1', '2', '3', '4']",1,2023.2.3,harveydigits,2.1,[],8,0.75,
0,pause,0.4,None,None,None,0,405,405,405,,,,,,,,,,,,N011,digit,5,"['6', '7', '8', '9']","['1', '2', '3', '4']",1,2023.2.3,harveydigits,2.1,[],8,0.75,
8,digit,0.3,['dot'],['small_1'],black,0,406,406,406,,,144.5002269744873,144.2092490196228,144.50923085212708,"[[0.12864113559006457, 0.040810605004030776]]",['DejaVu Sans'],[0.6],,,,N011,digit,5,"['6', '7', '8', '9']","['1', '2', '3', '4']",1,2023.2.3,harveydigits,2.1,[],8,0.75,
0,pause,0.4,None,None,None,0,407,407,407,,,,,,,,,,,,N011,digit,5,"['6', '7', '8', '9']","['1', '2', '3', '4']",1,2023.2.3,harveydigits,2.1,[],8,0.75,
9,digit,0.3,['dot'],['small_1'],white,0,408,408,408,,,145.2002308368683,144.90922594070435,145.20923686027527,"[[-0.013757872809602223, 0.08252647838079291]]",['DejaVu Sans'],[0.6],,,,N011,digit,5,"['6', '7', '8', '9']","['1', '2', '3', '4']",1,2023.2.3,harveydigits,2.1,[],8,0.75,
0,pause,0.4,None,None,None,0,409,409,409,,,,,,,,,,,,N011,digit,5,"['6', '7', '8', '9']","['1', '2', '3', '4']",1,2023.2.3,harveydigits,2.1,[],8,0.75,
9,digit,0.3,['dot'],['small_1'],white,0,410,410,410,,,145.90026783943176,145.60920691490173,145.90917301177979,"[[0.24028731536187653, 0.11366703119403987]]",['DejaVu Sans'],[0.6],left,odd,145.56813192367554,N011,digit,5,"['6', '7', '8', '9']","['1', '2', '3', '4']",1,2023.2.3,harveydigits,2.1,[],8,0.75,
0,pause,0.4,None,None,None,0,411,411,411,,,,,,,,,,,,N011,digit,5,"['6', '7', '8', '9']","['1', '2', '3', '4']",1,2023.2.3,harveydigits,2.1,[],8,0.75,
9,digit,0.3,['dot'],['small_1'],white,0,412,412,412,,,146.60025000572205,146.30922889709473,146.60922503471375,"[[0.3272664976310661, -0.01230672433122515]]",['DejaVu Sans'],[0.6],,,,N011,digit,5,"['6', '7', '8', '9']","['1', '2', '3', '4']",1,2023.2.3,harveydigits,2.1,[],8,0.75,
0,pause,0.4,None,None,None,0,413,413,413,,,,,,,,,,,,N011,digit,5,"['6', '7', '8', '9']","['1', '2', '3', '4']",1,2023.2.3,harveydigits,2.1,[],8,0.75,
9,digit,0.3,['dot'],['small_1'],white,0,414,414,414,,,147.30025601387024,147.00919890403748,147.3091640472412,"[[-0.07358323993743421, 0.019709533000363766]]",['DejaVu Sans'],[0.6],,,,N011,digit,5,"['6', '7', '8', '9']","['1', '2', '3', '4']",1,2023.2.3,harveydigits,2.1,[],8,0.75,
0,pause,0.4,None,None,None,0,415,415,415,,,,,,,,,,,,N011,digit,5,"['6', '7', '8', '9']","['1', '2', '3', '4']",1,2023.2.3,harveydigits,2.1,[],8,0.75,
9,digit,0.3,['dot'],['small_1'],white,0,416,416,416,,,148.00024700164795,147.70916604995728,148.00915098190308,"[[-0.025434092761944915, -0.3125218447015945]]",['DejaVu Sans'],[0.6],,,,N011,digit,5,"['6', '7', '8', '9']","['1', '2', '3', '4']",1,2023.2.3,harveydigits,2.1,[],8,0.75,
0,pause,0.4,None,None,None,0,417,417,417,,,,,,,,,,,,N011,digit,5,"['6', '7', '8', '9']","['1', '2', '3', '4']",1,2023.2.3,harveydigits,2.1,[],8,0.75,
9,digit,0.3,['dot'],['small_1'],white,0,418,418,418,,,148.70022988319397,148.40918803215027,148.70910382270813,"[[-0.21683757799011794, 0.26557029617661315]]",['DejaVu Sans'],[0.6],,,,N011,digit,5,"['6', '7', '8', '9']","['1', '2', '3', '4']",1,2023.2.3,harveydigits,2.1,[],8,0.75,
0,pause,0.4,None,None,None,0,419,419,419,,,,,,,,,,,,N011,digit,5,"['6', '7', '8', '9']","['1', '2', '3', '4']",1,2023.2.3,harveydigits,2.1,[],8,0.75,
20,digit,0.3,['dot'],['small_1'],black,0,420,420,420,,,149.4002480506897,149.1091229915619,149.40910983085632,"[[-0.21113337798956777, 0.12425784710174453]]",['DejaVu Sans'],[0.6],,,,N011,digit,5,"['6', '7', '8', '9']","['1', '2', '3', '4']",1,2023.2.3,harveydigits,2.1,[],8,0.75,
0,pause,0.4,None,None,None,0,421,421,421,,,,,,,,,,,,N011,digit,5,"['6', '7', '8', '9']","['1', '2', '3', '4']",1,2023.2.3,harveydigits,2.1,[],8,0.75,
20,digit,0.3,['dot'],['small_1'],black,0,422,422,422,,,150.10025596618652,149.8090798854828,150.10907793045044,"[[-0.25199035198258224, 0.11410887195416983]]",['DejaVu Sans'],[0.6],,,,N011,digit,5,"['6', '7', '8', '9']","['1', '2', '3', '4']",1,2023.2.3,harveydigits,2.1,[],8,0.75,
0,pause,0.4,None,None,None,0,423,423,423,,,,,,,,,,,,N011,digit,5,"['6', '7', '8', '9']","['1', '2', '3', '4']",1,2023.2.3,harveydigits,2.1,[],8,0.75,
20,digit,0.3,['dot'],['small_1'],black,0,424,424,424,,,150.80024695396423,150.5091860294342,150.8091208934784,"[[0.12410505081981471, 0.2153365573956018]]",['DejaVu Sans'],[0.6],,,,N011,digit,5,"['6', '7', '8', '9']","['1', '2', '3', '4']",1,2023.2.3,harveydigits,2.1,[],8,0.75,
0,pause,0.4,None,None,None,0,425,425,425,,,,,,,,,,,,N011,digit,5,"['6', '7', '8', '9']","['1', '2', '3', '4']",1,2023.2.3,harveydigits,2.1,[],8,0.75,
20,digit,0.3,['dot'],['small_1'],black,0,426,426,426,,,151.5002338886261,151.20908188819885,151.5090570449829,"[[0.19303165846580084, -0.2606948426366618]]",['DejaVu Sans'],[0.6],,,,N011,digit,5,"['6', '7', '8', '9']","['1', '2', '3', '4']",1,2023.2.3,harveydigits,2.1,[],8,0.75,
0,pause,0.4,None,None,None,0,427,427,427,,,,,,,,,,,,N011,digit,5,"['6', '7', '8', '9']","['1', '2', '3', '4']",1,2023.2.3,harveydigits,2.1,[],8,0.75,
20,digit,0.3,['dot'],['small_1'],black,0,428,428,428,,,152.2002329826355,151.90904784202576,152.20903396606445,"[[0.2726066349516306, 0.0521738253462431]]",['DejaVu Sans'],[0.6],,,,N011,digit,5,"['6', '7', '8', '9']","['1', '2', '3', '4']",1,2023.2.3,harveydigits,2.1,[],8,0.75,
0,pause,0.4,None,None,None,0,429,429,429,,,,,,,,,,,,N011,digit,5,"['6', '7', '8', '9']","['1', '2', '3', '4']",1,2023.2.3,harveydigits,2.1,[],8,0.75,
20,digit,0.3,['dot'],['small_1'],black,0,430,430,430,,,152.90023803710938,152.60903096199036,152.90900683403015,"[[0.3407607215746449, -0.0021595152293437947]]",['DejaVu Sans'],[0.6],,,,N011,digit,5,"['6', '7', '8', '9']","['1', '2', '3', '4']",1,2023.2.3,harveydigits,2.1,[],8,0.75,
0,pause,0.4,None,None,None,0,431,431,431,,,,,,,,,,,,N011,digit,5,"['6', '7', '8', '9']","['1', '2', '3', '4']",1,2023.2.3,harveydigits,2.1,[],8,0.75,
20,digit,0.3,['dot'],['small_1'],black,0,432,432,432,,,153.60026001930237,153.30903601646423,153.6090428829193,"[[0.029019464580719412, -0.295027173134338]]",['DejaVu Sans'],[0.6],,,,N011,digit,5,"['6', '7', '8', '9']","['1', '2', '3', '4']",1,2023.2.3,harveydigits,2.1,[],8,0.75,
0,pause,0.4,None,None,None,0,433,433,433,,,,,,,,,,,,N011,digit,5,"['6', '7', '8', '9']","['1', '2', '3', '4']",1,2023.2.3,harveydigits,2.1,[],8,0.75,
20,digit,0.3,['dot'],['small_1'],black,0,434,434,434,,,154.30023789405823,154.00899696350098,154.30902099609375,"[[0.3198240429563999, -0.13969462119544668]]",['DejaVu Sans'],[0.6],,,,N011,digit,5,"['6', '7', '8', '9']","['1', '2', '3', '4']",1,2023.2.3,harveydigits,2.1,[],8,0.75,
0,pause,0.4,None,None,None,0,435,435,435,,,,,,,,,,,,N011,digit,5,"['6', '7', '8', '9']","['1', '2', '3', '4']",1,2023.2.3,harveydigits,2.1,[],8,0.75,
20,digit,0.3,['dot'],['small_1'],black,0,436,436,436,,,155.00023198127747,154.7090358734131,155.0090479850769,"[[-0.11228323193130749, 0.2267738860328184]]",['DejaVu Sans'],[0.6],,,,N011,digit,5,"['6', '7', '8', '9']","['1', '2', '3', '4']",1,2023.2.3,harveydigits,2.1,[],8,0.75,
0,pause,0.4,None,None,None,0,437,437,437,,,,,,,,,,,,N011,digit,5,"['6', '7', '8', '9']","['1', '2', '3', '4']",1,2023.2.3,harveydigits,2.1,[],8,0.75,
20,digit,0.3,['dot'],['small_1'],black,0,438,438,438,,,155.7002580165863,155.40906381607056,155.7089238166809,"[[-0.06622860089408972, -0.1049041500263864]]",['DejaVu Sans'],[0.6],,,,N011,digit,5,"['6', '7', '8', '9']","['1', '2', '3', '4']",1,2023.2.3,harveydigits,2.1,[],8,0.75,
0,pause,0.4,None,None,None,0,439,439,439,,,,,,,,,,,,N011,digit,5,"['6', '7', '8', '9']","['1', '2', '3', '4']",1,2023.2.3,harveydigits,2.1,[],8,0.75,
20,digit,0.3,['dot'],['small_1'],black,0,440,440,440,,,156.40023493766785,156.10895895957947,156.40893387794495,"[[-0.16930480346666088, -0.1261850810791153]]",['DejaVu Sans'],[0.6],,,,N011,digit,5,"['6', '7', '8', '9']","['1', '2', '3', '4']",1,2023.2.3,harveydigits,2.1,[],8,0.75,
0,pause,0.4,None,None,None,0,441,441,441,,,,,,,,,,,,N011,digit,5,"['6', '7', '8', '9']","['1', '2', '3', '4']",1,2023.2.3,harveydigits,2.1,[],8,0.75,
20,digit,0.3,['dot'],['small_1'],black,0,442,442,442,,,157.1002378463745,156.80894899368286,157.10892295837402,"[[0.10384428053014205, -0.16451946771559284]]",['DejaVu Sans'],[0.6],,,,N011,digit,5,"['6', '7', '8', '9']","['1', '2', '3', '4']",1,2023.2.3,harveydigits,2.1,[],8,0.75,
0,pause,0.4,None,None,None,0,443,443,443,,,,,,,,,,,,N011,digit,5,"['6', '7', '8', '9']","['1', '2', '3', '4']",1,2023.2.3,harveydigits,2.1,[],8,0.75,
20,digit,0.3,['dot'],['small_1'],black,0,444,444,444,,,157.80025386810303,157.50892686843872,157.8089280128479,"[[-0.2739952708269272, -0.04842220441176906]]",['DejaVu Sans'],[0.6],,,,N011,digit,5,"['6', '7', '8', '9']","['1', '2', '3', '4']",1,2023.2.3,harveydigits,2.1,[],8,0.75,
0,pause,0.4,None,None,None,0,445,445,445,,,,,,,,,,,,N011,digit,5,"['6', '7', '8', '9']","['1', '2', '3', '4']",1,2023.2.3,harveydigits,2.1,[],8,0.75,
20,digit,0.3,['dot'],['small_1'],black,0,446,446,446,,,158.5002658367157,158.2089068889618,158.50888800621033,"[[-0.13207239771198384, -0.07341758544202359]]",['DejaVu Sans'],[0.6],,,,N011,digit,5,"['6', '7', '8', '9']","['1', '2', '3', '4']",1,2023.2.3,harveydigits,2.1,[],8,0.75,
0,pause,0.4,None,None,None,0,447,447,447,,,,,,,,,,,,N011,digit,5,"['6', '7', '8', '9']","['1', '2', '3', '4']",1,2023.2.3,harveydigits,2.1,[],8,0.75,
20,digit,0.3,['dot'],['small_1'],black,0,448,448,448,,,159.20023488998413,158.9089000225067,159.20890283584595,"[[-0.3397484085015238, 0.03390976906908809]]",['DejaVu Sans'],[0.6],,,,N011,digit,5,"['6', '7', '8', '9']","['1', '2', '3', '4']",1,2023.2.3,harveydigits,2.1,[],8,0.75,
0,pause,0.4,None,None,None,0,449,449,449,,,,,,,,,,,,N011,digit,5,"['6', '7', '8', '9']","['1', '2', '3', '4']",1,2023.2.3,harveydigits,2.1,[],8,0.75,
20,digit,0.3,['dot'],['small_1'],black,0,450,450,450,,,159.90025997161865,159.60887789726257,159.90885496139526,"[[-0.2707203488028974, -0.08578099842440548]]",['DejaVu Sans'],[0.6],,,,N011,digit,5,"['6', '7', '8', '9']","['1', '2', '3', '4']",1,2023.2.3,harveydigits,2.1,[],8,0.75,
0,pause,0.4,None,None,None,0,451,451,451,,,,,,,,,,,,N011,digit,5,"['6', '7', '8', '9']","['1', '2', '3', '4']",1,2023.2.3,harveydigits,2.1,[],8,0.75,
20,digit,0.3,['dot'],['small_1'],black,0,452,452,452,,,160.60026001930237,160.30886793136597,160.60885882377625,"[[-0.1822311726539273, 0.00897004240072391]]",['DejaVu Sans'],[0.6],,,,N011,digit,5,"['6', '7', '8', '9']","['1', '2', '3', '4']",1,2023.2.3,harveydigits,2.1,[],8,0.75,
0,pause,0.4,None,None,None,0,453,453,453,,,,,,,,,,,,N011,digit,5,"['6', '7', '8', '9']","['1', '2', '3', '4']",1,2023.2.3,harveydigits,2.1,[],8,0.75,
20,digit,0.3,['dot'],['small_1'],black,0,454,454,454,,,161.30025482177734,161.00886797904968,161.30882287025452,"[[-0.11526533873444691, -0.055707949685456504]]",['DejaVu Sans'],[0.6],,,,N011,digit,5,"['6', '7', '8', '9']","['1', '2', '3', '4']",1,2023.2.3,harveydigits,2.1,[],8,0.75,
0,pause,0.4,None,None,None,0,455,455,455,,,,,,,,,,,,N011,digit,5,"['6', '7', '8', '9']","['1', '2', '3', '4']",1,2023.2.3,harveydigits,2.1,[],8,0.75,
20,digit,0.3,['dot'],['small_1'],black,0,456,456,456,,,162.0002520084381,161.70882487297058,162.00880098342896,"[[0.111652027155216, -0.2783485532837039]]",['DejaVu Sans'],[0.6],,,,N011,digit,5,"['6', '7', '8', '9']","['1', '2', '3', '4']",1,2023.2.3,harveydigits,2.1,[],8,0.75,
0,pause,0.4,None,None,None,0,457,457,457,,,,,,,,,,,,N011,digit,5,"['6', '7', '8', '9']","['1', '2', '3', '4']",1,2023.2.3,harveydigits,2.1,[],8,0.75,
20,digit,0.3,['dot'],['small_1'],black,0,458,458,458,,,162.70026087760925,162.40886092185974,162.7087619304657,"[[0.3037241484399702, -0.16099144801574075]]",['DejaVu Sans'],[0.6],,,,N011,digit,5,"['6', '7', '8', '9']","['1', '2', '3', '4']",1,2023.2.3,harveydigits,2.1,[],8,0.75,
0,pause,0.4,None,None,None,0,459,459,459,,,,,,,,,,,,N011,digit,5,"['6', '7', '8', '9']","['1', '2', '3', '4']",1,2023.2.3,harveydigits,2.1,[],8,0.75,
20,digit,0.3,['dot'],['small_1'],black,0,460,460,460,,,163.40025782585144,163.10873103141785,163.40874004364014,"[[-0.16542605259739399, 0.04827803896150795]]",['DejaVu Sans'],[0.6],,,,N011,digit,5,"['6', '7', '8', '9']","['1', '2', '3', '4']",1,2023.2.3,harveydigits,2.1,[],8,0.75,
0,pause,0.4,None,None,None,0,461,461,461,,,,,,,,,,,,N011,digit,5,"['6', '7', '8', '9']","['1', '2', '3', '4']",1,2023.2.3,harveydigits,2.1,[],8,0.75,
20,digit,0.3,['dot'],['small_1'],black,0,462,462,462,,,164.1002390384674,163.8087809085846,164.10875391960144,"[[0.06428250588555767, -0.1358550085034394]]",['DejaVu Sans'],[0.6],,,,N011,digit,5,"['6', '7', '8', '9']","['1', '2', '3', '4']",1,2023.2.3,harveydigits,2.1,[],8,0.75,
0,pause,0.4,None,None,None,0,463,463,463,,,,,,,,,,,,N011,digit,5,"['6', '7', '8', '9']","['1', '2', '3', '4']",1,2023.2.3,harveydigits,2.1,[],8,0.75,
20,digit,0.3,['dot'],['small_1'],black,0,464,464,464,,,164.80023193359375,164.50871396064758,164.8087010383606,"[[0.1540403026118402, 0.2132474100701235]]",['DejaVu Sans'],[0.6],,,,N011,digit,5,"['6', '7', '8', '9']","['1', '2', '3', '4']",1,2023.2.3,harveydigits,2.1,[],8,0.75,
