num,mod,duration,shape,ll_cond,colors,.thisRepN,.thisTrialN,.thisN,.thisIndex,thisRow.t,notes,raw_global_time,t_start,t_stop,pos,fonts,size,button,answer,RT,participant,session,starting_run,left button (match/odd),right button (non-match/even),samples_per_block,psychopy version,expName,offset,audio,number_runs,radius,
1,digit,0.3,['dot'],['big_1'],black,0,0,0,0,,,2.4002199172973633,2.120063066482544,2.403378963470459,"[[0.04233396928645189, -0.18651107349532758]]",['DejaVu Sans'],[0.9],,,,N003,digit,5,"['6', '7', '8', '9']","['1', '2', '3', '4']",1,2023.2.3,harveydigits,2.1,[],8,0.75,
0,pause,0.4,None,None,None,0,1,1,1,,,,,,,,,,,,N003,digit,5,"['6', '7', '8', '9']","['1', '2', '3', '4']",1,2023.2.3,harveydigits,2.1,[],8,0.75,
1,digit,0.3,['dot'],['big_1'],black,0,2,2,2,,,3.1002368927001953,2.803386926651001,3.1033620834350586,"[[-0.1516970985455122, -0.12563158949511744]]",['DejaVu Sans'],[0.9],,,,N003,digit,5,"['6', '7', '8', '9']","['1', '2', '3', '4']",1,2023.2.3,harveydigits,2.1,[],8,0.75,
0,pause,0.4,None,None,None,0,3,3,3,,,,,,,,,,,,N003,digit,5,"['6', '7', '8', '9']","['1', '2', '3', '4']",1,2023.2.3,harveydigits,2.1,[],8,0.75,
1,digit,0.3,['dot'],['big_1'],black,0,4,4,4,,,3.800230026245117,3.503371000289917,3.8033440113067627,"[[0.03822441281212646, -0.1358617390668148]]",['DejaVu Sans'],[0.9],,,,N003,digit,5,"['6', '7', '8', '9']","['1', '2', '3', '4']",1,2023.2.3,harveydigits,2.1,[],8,0.75,
0,pause,0.4,None,None,None,0,5,5,5,,,,,,,,,,,,N003,digit,5,"['6', '7', '8', '9']","['1', '2', '3', '4']",1,2023.2.3,harveydigits,2.1,[],8,0.75,
1,digit,0.3,['dot'],['big_1'],black,0,6,6,6,,,4.5002100467681885,4.203346014022827,4.50332498550415,"[[0.12056315183246077, -0.02297786118904399]]",['DejaVu Sans'],[0.9],,,,N003,digit,5,"['6', '7', '8', '9']","['1', '2', '3', '4']",1,2023.2.3,harveydigits,2.1,[],8,0.75,
0,pause,0.4,None,None,None,0,7,7,7,,,,,,,,,,,,N003,digit,5,"['6', '7', '8', '9']","['1', '2', '3', '4']",1,2023.2.3,harveydigits,2.1,[],8,0.75,
1,digit,0.3,['dot'],['big_1'],black,0,8,8,8,,,5.200217008590698,4.903339862823486,5.2033140659332275,"[[-0.026493525386971195, 0.14767122259127044]]",['DejaVu Sans'],[0.9],,,,N003,digit,5,"['6', '7', '8', '9']","['1', '2', '3', '4']",1,2023.2.3,harveydigits,2.1,[],8,0.75,
0,pause,0.4,None,None,None,0,9,9,9,,,,,,,,,,,,N003,digit,5,"['6', '7', '8', '9']","['1', '2', '3', '4']",1,2023.2.3,harveydigits,2.1,[],8,0.75,
1,digit,0.3,['dot'],['big_1'],black,0,10,10,10,,,5.9002158641815186,5.603318929672241,5.903290033340454,"[[0.056219795027955516, 0.01359419724179034]]",['DejaVu Sans'],[0.9],,,,N003,digit,5,"['6', '7', '8', '9']","['1', '2', '3', '4']",1,2023.2.3,harveydigits,2.1,[],8,0.75,
0,pause,0.4,None,None,None,0,11,11,11,,,,,,,,,,,,N003,digit,5,"['6', '7', '8', '9']","['1', '2', '3', '4']",1,2023.2.3,harveydigits,2.1,[],8,0.75,
2,digit,0.3,['dot'],['big_1'],black,0,12,12,12,,,6.600225925445557,6.303297996520996,6.603270053863525,"[[0.049188831644828956, -0.14515875656206179]]",['DejaVu Sans'],[0.9],,,,N003,digit,5,"['6', '7', '8', '9']","['1', '2', '3', '4']",1,2023.2.3,harveydigits,2.1,[],8,0.75,
0,pause,0.4,None,None,None,0,13,13,13,,,,,,,,,,,,N003,digit,5,"['6', '7', '8', '9']","['1', '2', '3', '4']",1,2023.2.3,harveydigits,2.1,[],8,0.75,
2,digit,0.3,['dot'],['big_1'],black,0,14,14,14,,,7.3002259731292725,7.0032830238342285,7.303240060806274,"[[0.14739690874758718, -0.09366287156727826]]",['DejaVu Sans'],[0.9],,,,N003,digit,5,"['6', '7', '8', '9']","['1', '2', '3', '4']",1,2023.2.3,harveydigits,2.1,[],8,0.75,
0,pause,0.4,None,None,None,0,15,15,15,,,,,,,,,,,,N003,digit,5,"['6', '7', '8', '9']","['1', '2', '3', '4']",1,2023.2.3,harveydigits,2.1,[],8,0.75,
2,digit,0.3,['dot'],['big_1'],black,0,16,16,16,,,8.000221014022827,7.703263998031616,8.003257989883423,"[[-0.1345894307076072, 0.03516395428914537]]",['DejaVu Sans'],[0.9],,,,N003,digit,5,"['6', '7', '8', '9']","['1', '2', '3', '4']",1,2023.2.3,harveydigits,2.1,[],8,0.75,
0,pause,0.4,None,None,None,0,17,17,17,,,,,,,,,,,,N003,digit,5,"['6', '7', '8', '9']","['1', '2', '3', '4']",1,2023.2.3,harveydigits,2.1,[],8,0.75,
2,digit,0.3,['dot'],['big_1'],black,0,18,18,18,,,8.700224876403809,8.403372049331665,8.703234910964966,"[[-0.13599291975333497, 0.057568780652522134]]",['DejaVu Sans'],[0.9],,,,N003,digit,5,"['6', '7', '8', '9']","['1', '2', '3', '4']",1,2023.2.3,harveydigits,2.1,[],8,0.75,
0,pause,0.4,None,None,None,0,19,19,19,,,,,,,,,,,,N003,digit,5,"['6', '7', '8', '9']","['1', '2', '3', '4']",1,2023.2.3,harveydigits,2.1,[],8,0.75,
2,digit,0.3,['dot'],['big_1'],black,0,20,20,20,,,9.400232076644897,9.103205919265747,9.403213024139404,"[[-0.15122220935560995, 0.06391852903988993]]",['DejaVu Sans'],[0.9],,,,N003,digit,5,"['6', '7', '8', '9']","['1', '2', '3', '4']",1,2023.2.3,harveydigits,2.1,[],8,0.75,
0,pause,0.4,None,None,None,0,21,21,21,,,,,,,,,,,,N003,digit,5,"['6', '7', '8', '9']","['1', '2', '3', '4']",1,2023.2.3,harveydigits,2.1,[],8,0.75,
2,digit,0.3,['dot'],['big_1'],black,0,22,22,22,,,10.100229978561401,9.803210973739624,10.103211879730225,"[[-0.1315560911701359, 0.04165632257714458]]",['DejaVu Sans'],[0.9],,,,N003,digit,5,"['6', '7', '8', '9']","['1', '2', '3', '4']",1,2023.2.3,harveydigits,2.1,[],8,0.75,
0,pause,0.4,None,None,None,0,23,23,23,,,,,,,,,,,,N003,digit,5,"['6', '7', '8', '9']","['1', '2', '3', '4']",1,2023.2.3,harveydigits,2.1,[],8,0.75,
3,digit,0.3,['dot'],['big_1'],white,0,24,24,24,,,10.800212860107422,10.503196954727173,10.803176879882812,"[[-0.08062492839345752, -0.13071843360050872]]",['DejaVu Sans'],[0.9],,,,N003,digit,5,"['6', '7', '8', '9']","['1', '2', '3', '4']",1,2023.2.3,harveydigits,2.1,[],8,0.75,
0,pause,0.4,None,None,None,0,25,25,25,,,,,,,,,,,,N003,digit,5,"['6', '7', '8', '9']","['1', '2', '3', '4']",1,2023.2.3,harveydigits,2.1,[],8,0.75,
3,digit,0.3,['dot'],['big_1'],white,0,26,26,26,,,11.500247955322266,11.203144073486328,11.503166913986206,"[[0.04839364665425386, 0.10081750687087945]]",['DejaVu Sans'],[0.9],left,odd,10.559514999389648,N003,digit,5,"['6', '7', '8', '9']","['1', '2', '3', '4']",1,2023.2.3,harveydigits,2.1,[],8,0.75,
0,pause,0.4,None,None,None,0,27,27,27,,,,,,,,,,,,N003,digit,5,"['6', '7', '8', '9']","['1', '2', '3', '4']",1,2023.2.3,harveydigits,2.1,[],8,0.75,
3,digit,0.3,['dot'],['big_1'],white,0,28,28,28,,,12.20023488998413,11.903156042098999,12.203110933303833,"[[0.17367600136168518, 0.04762366843636559]]",['DejaVu Sans'],[0.9],left,odd,11.21964979171753,N003,digit,5,"['6', '7', '8', '9']","['1', '2', '3', '4']",1,2023.2.3,harveydigits,2.1,[],8,0.75,
0,pause,0.4,None,None,None,0,29,29,29,,,,,,,,,,,,N003,digit,5,"['6', '7', '8', '9']","['1', '2', '3', '4']",1,2023.2.3,harveydigits,2.1,[],8,0.75,
3,digit,0.3,['dot'],['big_1'],white,0,30,30,30,,,12.90023398399353,12.60313892364502,12.903132915496826,"[[-0.19213419914528748, -0.0326815514080568]]",['DejaVu Sans'],[0.9],left,odd,11.975737810134888,N003,digit,5,"['6', '7', '8', '9']","['1', '2', '3', '4']",1,2023.2.3,harveydigits,2.1,[],8,0.75,
0,pause,0.4,None,None,None,0,31,31,31,,,,,,,,,,,,N003,digit,5,"['6', '7', '8', '9']","['1', '2', '3', '4']",1,2023.2.3,harveydigits,2.1,[],8,0.75,
3,digit,0.3,['dot'],['big_1'],white,0,32,32,32,,,13.600241899490356,13.303247928619385,13.60311508178711,"[[-0.07952137084443812, 0.05278462302927797]]",['DejaVu Sans'],[0.9],left,odd,12.53578495979309,N003,digit,5,"['6', '7', '8', '9']","['1', '2', '3', '4']",1,2023.2.3,harveydigits,2.1,[],8,0.75,
0,pause,0.4,None,None,None,0,33,33,33,,,,,,,,,,,,N003,digit,5,"['6', '7', '8', '9']","['1', '2', '3', '4']",1,2023.2.3,harveydigits,2.1,[],8,0.75,
3,digit,0.3,['dot'],['big_1'],white,0,34,34,34,,,14.300216913223267,14.003107070922852,14.303229093551636,"[[0.0890097813476334, 0.04587933703953592]]",['DejaVu Sans'],[0.9],,,,N003,digit,5,"['6', '7', '8', '9']","['1', '2', '3', '4']",1,2023.2.3,harveydigits,2.1,[],8,0.75,
0,pause,0.4,None,None,None,0,35,35,35,,,,,,,,,,,,N003,digit,5,"['6', '7', '8', '9']","['1', '2', '3', '4']",1,2023.2.3,harveydigits,2.1,[],8,0.75,
4,digit,0.3,['dot'],['big_1'],black,0,36,36,36,,,15.00023889541626,14.703090906143188,15.003082036972046,"[[-0.14589436536907543, 0.050733843774944415]]",['DejaVu Sans'],[0.9],left,odd,14.025745868682861,N003,digit,5,"['6', '7', '8', '9']","['1', '2', '3', '4']",1,2023.2.3,harveydigits,2.1,[],8,0.75,
0,pause,0.4,None,None,None,0,37,37,37,,,,,,,,,,,,N003,digit,5,"['6', '7', '8', '9']","['1', '2', '3', '4']",1,2023.2.3,harveydigits,2.1,[],8,0.75,
4,digit,0.3,['dot'],['big_1'],black,0,38,38,38,,,15.700232028961182,15.403084993362427,15.703062057495117,"[[0.07929139701654295, -0.1584583363684323]]",['DejaVu Sans'],[0.9],,,,N003,digit,5,"['6', '7', '8', '9']","['1', '2', '3', '4']",1,2023.2.3,harveydigits,2.1,[],8,0.75,
0,pause,0.4,None,None,None,0,39,39,39,,,,,,,,,,,,N003,digit,5,"['6', '7', '8', '9']","['1', '2', '3', '4']",1,2023.2.3,harveydigits,2.1,[],8,0.75,
4,digit,0.3,['dot'],['big_1'],black,0,40,40,40,,,16.400224924087524,16.103065013885498,16.40305995941162,"[[0.11401490058290556, -0.006370851789072013]]",['DejaVu Sans'],[0.9],,,,N003,digit,5,"['6', '7', '8', '9']","['1', '2', '3', '4']",1,2023.2.3,harveydigits,2.1,[],8,0.75,
0,pause,0.4,None,None,None,0,41,41,41,,,,,,,,,,,,N003,digit,5,"['6', '7', '8', '9']","['1', '2', '3', '4']",1,2023.2.3,harveydigits,2.1,[],8,0.75,
4,digit,0.3,['dot'],['big_1'],black,0,42,42,42,,,17.100210905075073,16.803163051605225,17.103003978729248,"[[-0.13663031693226535, 0.09476495858143685]]",['DejaVu Sans'],[0.9],,,,N003,digit,5,"['6', '7', '8', '9']","['1', '2', '3', '4']",1,2023.2.3,harveydigits,2.1,[],8,0.75,
0,pause,0.4,None,None,None,0,43,43,43,,,,,,,,,,,,N003,digit,5,"['6', '7', '8', '9']","['1', '2', '3', '4']",1,2023.2.3,harveydigits,2.1,[],8,0.75,
4,digit,0.3,['dot'],['big_1'],black,0,44,44,44,,,17.800232887268066,17.50315809249878,17.80301308631897,"[[-0.1937647442865205, -0.023365612676589993]]",['DejaVu Sans'],[0.9],,,,N003,digit,5,"['6', '7', '8', '9']","['1', '2', '3', '4']",1,2023.2.3,harveydigits,2.1,[],8,0.75,
0,pause,0.4,None,None,None,0,45,45,45,,,,,,,,,,,,N003,digit,5,"['6', '7', '8', '9']","['1', '2', '3', '4']",1,2023.2.3,harveydigits,2.1,[],8,0.75,
4,digit,0.3,['dot'],['big_1'],black,0,46,46,46,,,18.500221014022827,18.20297408103943,18.502996921539307,"[[-0.13213535078484975, 0.08370613817907599]]",['DejaVu Sans'],[0.9],,,,N003,digit,5,"['6', '7', '8', '9']","['1', '2', '3', '4']",1,2023.2.3,harveydigits,2.1,[],8,0.75,
0,pause,0.4,None,None,None,0,47,47,47,,,,,,,,,,,,N003,digit,5,"['6', '7', '8', '9']","['1', '2', '3', '4']",1,2023.2.3,harveydigits,2.1,[],8,0.75,
5,digit,0.3,['dot'],['big_1'],white,0,48,48,48,,,19.200221061706543,18.902987957000732,19.20294499397278,"[[0.10166148967510555, 0.061330565811839766]]",['DejaVu Sans'],[0.9],,,,N003,digit,5,"['6', '7', '8', '9']","['1', '2', '3', '4']",1,2023.2.3,harveydigits,2.1,[],8,0.75,
0,pause,0.4,None,None,None,0,49,49,49,,,,,,,,,,,,N003,digit,5,"['6', '7', '8', '9']","['1', '2', '3', '4']",1,2023.2.3,harveydigits,2.1,[],8,0.75,
5,digit,0.3,['dot'],['big_1'],white,0,50,50,50,,,19.90024995803833,19.602964878082275,19.90296196937561,"[[0.13145226379785166, 0.030705842780752557]]",['DejaVu Sans'],[0.9],left,odd,18.99058485031128,N003,digit,5,"['6', '7', '8', '9']","['1', '2', '3', '4']",1,2023.2.3,harveydigits,2.1,[],8,0.75,
0,pause,0.4,None,None,None,0,51,51,51,,,,,,,,,,,,N003,digit,5,"['6', '7', '8', '9']","['1', '2', '3', '4']",1,2023.2.3,harveydigits,2.1,[],8,0.75,
5,digit,0.3,['dot'],['big_1'],white,0,52,52,52,,,20.600244998931885,20.30299997329712,20.602943897247314,"[[-0.1091696449171847, 0.052973404525228224]]",['DejaVu Sans'],[0.9],left,odd,19.50070095062256,N003,digit,5,"['6', '7', '8', '9']","['1', '2', '3', '4']",1,2023.2.3,harveydigits,2.1,[],8,0.75,
0,pause,0.4,None,None,None,0,53,53,53,,,,,,,,,,,,N003,digit,5,"['6', '7', '8', '9']","['1', '2', '3', '4']",1,2023.2.3,harveydigits,2.1,[],8,0.75,
5,digit,0.3,['dot'],['big_1'],white,0,54,54,54,,,21.300241947174072,21.00295400619507,21.302949905395508,"[[-0.19222782945221126, -0.02147585979120148]]",['DejaVu Sans'],[0.9],left,odd,20.80360198020935,N003,digit,5,"['6', '7', '8', '9']","['1', '2', '3', '4']",1,2023.2.3,harveydigits,2.1,[],8,0.75,
0,pause,0.4,None,None,None,0,55,55,55,,,,,,,,,,,,N003,digit,5,"['6', '7', '8', '9']","['1', '2', '3', '4']",1,2023.2.3,harveydigits,2.1,[],8,0.75,
5,digit,0.3,['dot'],['big_1'],white,0,56,56,56,,,22.00025486946106,21.702938079833984,22.002914905548096,"[[-0.08310195870840902, -0.0423132307283933]]",['DejaVu Sans'],[0.9],left,odd,21.47469687461853,N003,digit,5,"['6', '7', '8', '9']","['1', '2', '3', '4']",1,2023.2.3,harveydigits,2.1,[],8,0.75,
0,pause,0.4,None,None,None,0,57,57,57,,,,,,,,,,,,N003,digit,5,"['6', '7', '8', '9']","['1', '2', '3', '4']",1,2023.2.3,harveydigits,2.1,[],8,0.75,
5,digit,0.3,['dot'],['big_1'],white,0,58,58,58,,,22.70025897026062,22.40286898612976,22.702887058258057,"[[-0.13348503681526575, -0.03469372674808205]]",['DejaVu Sans'],[0.9],left,odd,22.063854932785034,N003,digit,5,"['6', '7', '8', '9']","['1', '2', '3', '4']",1,2023.2.3,harveydigits,2.1,[],8,0.75,
0,pause,0.4,None,None,None,0,59,59,59,,,,,,,,,,,,N003,digit,5,"['6', '7', '8', '9']","['1', '2', '3', '4']",1,2023.2.3,harveydigits,2.1,[],8,0.75,
6,digit,0.3,['dot'],['big_1'],black,0,60,60,60,,,23.40022587776184,23.102866888046265,23.402836084365845,"[[-0.17886084830167243, -0.021601629635899275]]",['DejaVu Sans'],[0.9],,,,N003,digit,5,"['6', '7', '8', '9']","['1', '2', '3', '4']",1,2023.2.3,harveydigits,2.1,[],8,0.75,
0,pause,0.4,None,None,None,0,61,61,61,,,,,,,,,,,,N003,digit,5,"['6', '7', '8', '9']","['1', '2', '3', '4']",1,2023.2.3,harveydigits,2.1,[],8,0.75,
6,digit,0.3,['dot'],['big_1'],black,0,62,62,62,,,24.100223064422607,23.802869081497192,24.102839946746826,"[[0.08619509300308412, -0.12409801095970271]]",['DejaVu Sans'],[0.9],,,,N003,digit,5,"['6', '7', '8', '9']","['1', '2', '3', '4']",1,2023.2.3,harveydigits,2.1,[],8,0.75,
0,pause,0.4,None,None,None,0,63,63,63,,,,,,,,,,,,N003,digit,5,"['6', '7', '8', '9']","['1', '2', '3', '4']",1,2023.2.3,harveydigits,2.1,[],8,0.75,
6,digit,0.3,['dot'],['big_1'],black,0,64,64,64,,,24.80023503303528,24.502820014953613,24.80283808708191,"[[-0.04667861724869876, -0.07433158984346695]]",['DejaVu Sans'],[0.9],,,,N003,digit,5,"['6', '7', '8', '9']","['1', '2', '3', '4']",1,2023.2.3,harveydigits,2.1,[],8,0.75,
0,pause,0.4,None,None,None,0,65,65,65,,,,,,,,,,,,N003,digit,5,"['6', '7', '8', '9']","['1', '2', '3', '4']",1,2023.2.3,harveydigits,2.1,[],8,0.75,
6,digit,0.3,['dot'],['big_1'],black,0,66,66,66,,,25.50023603439331,25.202887058258057,25.502820014953613,"[[-0.1503244374173658, -0.11082365396375636]]",['DejaVu Sans'],[0.9],,,,N003,digit,5,"['6', '7', '8', '9']","['1', '2', '3', '4']",1,2023.2.3,harveydigits,2.1,[],8,0.75,
0,pause,0.4,None,None,None,0,67,67,67,,,,,,,,,,,,N003,digit,5,"['6', '7', '8', '9']","['1', '2', '3', '4']",1,2023.2.3,harveydigits,2.1,[],8,0.75,
6,digit,0.3,['dot'],['big_1'],black,0,68,68,68,,,26.20021104812622,25.90281105041504,26.20283603668213,"[[0.15027305535493932, -0.06474652783068505]]",['DejaVu Sans'],[0.9],,,,N003,digit,5,"['6', '7', '8', '9']","['1', '2', '3', '4']",1,2023.2.3,harveydigits,2.1,[],8,0.75,
0,pause,0.4,None,None,None,0,69,69,69,,,,,,,,,,,,N003,digit,5,"['6', '7', '8', '9']","['1', '2', '3', '4']",1,2023.2.3,harveydigits,2.1,[],8,0.75,
6,digit,0.3,['dot'],['big_1'],black,0,70,70,70,,,26.900233030319214,26.602797031402588,26.902788877487183,"[[-0.09711157949443007, -0.10000420985774962]]",['DejaVu Sans'],[0.9],,,,N003,digit,5,"['6', '7', '8', '9']","['1', '2', '3', '4']",1,2023.2.3,harveydigits,2.1,[],8,0.75,
0,pause,0.4,None,None,None,0,71,71,71,,,,,,,,,,,,N003,digit,5,"['6', '7', '8', '9']","['1', '2', '3', '4']",1,2023.2.3,harveydigits,2.1,[],8,0.75,
7,digit,0.3,['dot'],['big_1'],black,0,72,72,72,,,27.60021996498108,27.302785873413086,27.602768898010254,"[[-0.010645200132301108, -0.01085606100967193]]",['DejaVu Sans'],[0.9],,,,N003,digit,5,"['6', '7', '8', '9']","['1', '2', '3', '4']",1,2023.2.3,harveydigits,2.1,[],8,0.75,
0,pause,0.4,None,None,None,0,73,73,73,,,,,,,,,,,,N003,digit,5,"['6', '7', '8', '9']","['1', '2', '3', '4']",1,2023.2.3,harveydigits,2.1,[],8,0.75,
7,digit,0.3,['dot'],['big_1'],black,0,74,74,74,,,28.30021095275879,28.002767086029053,28.302758932113647,"[[0.13156009451910092, 0.13876307350417927]]",['DejaVu Sans'],[0.9],,,,N003,digit,5,"['6', '7', '8', '9']","['1', '2', '3', '4']",1,2023.2.3,harveydigits,2.1,[],8,0.75,
0,pause,0.4,None,None,None,0,75,75,75,,,,,,,,,,,,N003,digit,5,"['6', '7', '8', '9']","['1', '2', '3', '4']",1,2023.2.3,harveydigits,2.1,[],8,0.75,
7,digit,0.3,['dot'],['big_1'],black,0,76,76,76,,,29.000228881835938,28.702744960784912,29.00273299217224,"[[-0.1860961789262464, -0.043319781812626]]",['DejaVu Sans'],[0.9],,,,N003,digit,5,"['6', '7', '8', '9']","['1', '2', '3', '4']",1,2023.2.3,harveydigits,2.1,[],8,0.75,
0,pause,0.4,None,None,None,0,77,77,77,,,,,,,,,,,,N003,digit,5,"['6', '7', '8', '9']","['1', '2', '3', '4']",1,2023.2.3,harveydigits,2.1,[],8,0.75,
7,digit,0.3,['dot'],['big_1'],black,0,78,78,78,,,29.700222969055176,29.40280795097351,29.702713012695312,"[[-0.17043973613111543, -0.08371167695508622]]",['DejaVu Sans'],[0.9],,,,N003,digit,5,"['6', '7', '8', '9']","['1', '2', '3', '4']",1,2023.2.3,harveydigits,2.1,[],8,0.75,
0,pause,0.4,None,None,None,0,79,79,79,,,,,,,,,,,,N003,digit,5,"['6', '7', '8', '9']","['1', '2', '3', '4']",1,2023.2.3,harveydigits,2.1,[],8,0.75,
7,digit,0.3,['dot'],['big_1'],black,0,80,80,80,,,30.40022301673889,30.10268807411194,30.402667999267578,"[[0.12423813822550281, -0.1411321029205344]]",['DejaVu Sans'],[0.9],,,,N003,digit,5,"['6', '7', '8', '9']","['1', '2', '3', '4']",1,2023.2.3,harveydigits,2.1,[],8,0.75,
0,pause,0.4,None,None,None,0,81,81,81,,,,,,,,,,,,N003,digit,5,"['6', '7', '8', '9']","['1', '2', '3', '4']",1,2023.2.3,harveydigits,2.1,[],8,0.75,
7,digit,0.3,['dot'],['big_1'],black,0,82,82,82,,,31.100214958190918,30.80269694328308,31.10265302658081,"[[-0.05417951950518288, 0.1720328570479062]]",['DejaVu Sans'],[0.9],,,,N003,digit,5,"['6', '7', '8', '9']","['1', '2', '3', '4']",1,2023.2.3,harveydigits,2.1,[],8,0.75,
0,pause,0.4,None,None,None,0,83,83,83,,,,,,,,,,,,N003,digit,5,"['6', '7', '8', '9']","['1', '2', '3', '4']",1,2023.2.3,harveydigits,2.1,[],8,0.75,
8,digit,0.3,['dot'],['big_1'],black,0,84,84,84,,,31.800212860107422,31.50264000892639,31.80266809463501,"[[-0.06448919427739033, 0.1358623249450578]]",['DejaVu Sans'],[0.9],,,,N003,digit,5,"['6', '7', '8', '9']","['1', '2', '3', '4']",1,2023.2.3,harveydigits,2.1,[],8,0.75,
0,pause,0.4,None,None,None,0,85,85,85,,,,,,,,,,,,N003,digit,5,"['6', '7', '8', '9']","['1', '2', '3', '4']",1,2023.2.3,harveydigits,2.1,[],8,0.75,
8,digit,0.3,['dot'],['big_1'],black,0,86,86,86,,,32.50023794174194,32.20267200469971,32.50263500213623,"[[-0.08453464585589411, 0.12793215447441508]]",['DejaVu Sans'],[0.9],,,,N003,digit,5,"['6', '7', '8', '9']","['1', '2', '3', '4']",1,2023.2.3,harveydigits,2.1,[],8,0.75,
0,pause,0.4,None,None,None,0,87,87,87,,,,,,,,,,,,N003,digit,5,"['6', '7', '8', '9']","['1', '2', '3', '4']",1,2023.2.3,harveydigits,2.1,[],8,0.75,
8,digit,0.3,['dot'],['big_1'],black,0,88,88,88,,,33.20022988319397,32.90264892578125,33.2026309967041,"[[0.08497669885403455, 0.1586734580194784]]",['DejaVu Sans'],[0.9],,,,N003,digit,5,"['6', '7', '8', '9']","['1', '2', '3', '4']",1,2023.2.3,harveydigits,2.1,[],8,0.75,
0,pause,0.4,None,None,None,0,89,89,89,,,,,,,,,,,,N003,digit,5,"['6', '7', '8', '9']","['1', '2', '3', '4']",1,2023.2.3,harveydigits,2.1,[],8,0.75,
8,digit,0.3,['dot'],['big_1'],black,0,90,90,90,,,33.900224924087524,33.60259199142456,33.902600049972534,"[[-0.19283648794135633, -0.05262206347329904]]",['DejaVu Sans'],[0.9],,,,N003,digit,5,"['6', '7', '8', '9']","['1', '2', '3', '4']",1,2023.2.3,harveydigits,2.1,[],8,0.75,
0,pause,0.4,None,None,None,0,91,91,91,,,,,,,,,,,,N003,digit,5,"['6', '7', '8', '9']","['1', '2', '3', '4']",1,2023.2.3,harveydigits,2.1,[],8,0.75,
8,digit,0.3,['dot'],['big_1'],black,0,92,92,92,,,34.60021495819092,34.30257797241211,34.60259008407593,"[[-0.06398266366959415, -0.10743456819032311]]",['DejaVu Sans'],[0.9],,,,N003,digit,5,"['6', '7', '8', '9']","['1', '2', '3', '4']",1,2023.2.3,harveydigits,2.1,[],8,0.75,
0,pause,0.4,None,None,None,0,93,93,93,,,,,,,,,,,,N003,digit,5,"['6', '7', '8', '9']","['1', '2', '3', '4']",1,2023.2.3,harveydigits,2.1,[],8,0.75,
8,digit,0.3,['dot'],['big_1'],black,0,94,94,94,,,35.30023789405823,35.00259304046631,35.302650928497314,"[[0.11084835875540208, -0.1150349758838177]]",['DejaVu Sans'],[0.9],,,,N003,digit,5,"['6', '7', '8', '9']","['1', '2', '3', '4']",1,2023.2.3,harveydigits,2.1,[],8,0.75,
0,pause,0.4,None,None,None,0,95,95,95,,,,,,,,,,,,N003,digit,5,"['6', '7', '8', '9']","['1', '2', '3', '4']",1,2023.2.3,harveydigits,2.1,[],8,0.75,
9,digit,0.3,['dot'],['big_1'],black,0,96,96,96,,,36.00022101402283,35.70256996154785,36.00255608558655,"[[0.007293073751055784, 0.023122209653988063]]",['DejaVu Sans'],[0.9],,,,N003,digit,5,"['6', '7', '8', '9']","['1', '2', '3', '4']",1,2023.2.3,harveydigits,2.1,[],8,0.75,
0,pause,0.4,None,None,None,0,97,97,97,,,,,,,,,,,,N003,digit,5,"['6', '7', '8', '9']","['1', '2', '3', '4']",1,2023.2.3,harveydigits,2.1,[],8,0.75,
9,digit,0.3,['dot'],['big_1'],black,0,98,98,98,,,36.700233936309814,36.40256309509277,36.70254707336426,"[[0.02325333853431477, 0.15701785987430963]]",['DejaVu Sans'],[0.9],,,,N003,digit,5,"['6', '7', '8', '9']","['1', '2', '3', '4']",1,2023.2.3,harveydigits,2.1,[],8,0.75,
0,pause,0.4,None,None,None,0,99,99,99,,,,,,,,,,,,N003,digit,5,"['6', '7', '8', '9']","['1', '2', '3', '4']",1,2023.2.3,harveydigits,2.1,[],8,0.75,
9,digit,0.3,['dot'],['big_1'],black,0,100,100,100,,,37.400230884552,37.10253405570984,37.40250086784363,"[[-0.12923918432999634, 0.028798895153642534]]",['DejaVu Sans'],[0.9],,,,N003,digit,5,"['6', '7', '8', '9']","['1', '2', '3', '4']",1,2023.2.3,harveydigits,2.1,[],8,0.75,
0,pause,0.4,None,None,None,0,101,101,101,,,,,,,,,,,,N003,digit,5,"['6', '7', '8', '9']","['1', '2', '3', '4']",1,2023.2.3,harveydigits,2.1,[],8,0.75,
9,digit,0.3,['dot'],['big_1'],black,0,102,102,102,,,38.10021901130676,37.80256390571594,38.1026349067688,"[[0.13017417738638207, -0.06215379546863303]]",['DejaVu Sans'],[0.9],,,,N003,digit,5,"['6', '7', '8', '9']","['1', '2', '3', '4']",1,2023.2.3,harveydigits,2.1,[],8,0.75,
0,pause,0.4,None,None,None,0,103,103,103,,,,,,,,,,,,N003,digit,5,"['6', '7', '8', '9']","['1', '2', '3', '4']",1,2023.2.3,harveydigits,2.1,[],8,0.75,
9,digit,0.3,['dot'],['big_1'],black,0,104,104,104,,,38.80023694038391,38.502503871917725,38.8024959564209,"[[0.18355831662062175, -0.024031975572936647]]",['DejaVu Sans'],[0.9],,,,N003,digit,5,"['6', '7', '8', '9']","['1', '2', '3', '4']",1,2023.2.3,harveydigits,2.1,[],8,0.75,
0,pause,0.4,None,None,None,0,105,105,105,,,,,,,,,,,,N003,digit,5,"['6', '7', '8', '9']","['1', '2', '3', '4']",1,2023.2.3,harveydigits,2.1,[],8,0.75,
9,digit,0.3,['dot'],['big_1'],black,0,106,106,106,,,39.50023293495178,39.20248508453369,39.502455949783325,"[[0.0727948188797751, -0.007280958220056172]]",['DejaVu Sans'],[0.9],,,,N003,digit,5,"['6', '7', '8', '9']","['1', '2', '3', '4']",1,2023.2.3,harveydigits,2.1,[],8,0.75,
0,pause,0.4,None,None,None,0,107,107,107,,,,,,,,,,,,N003,digit,5,"['6', '7', '8', '9']","['1', '2', '3', '4']",1,2023.2.3,harveydigits,2.1,[],8,0.75,
20,digit,0.3,['dot'],['big_1'],black,0,108,108,108,,,40.20021295547485,39.90246796607971,40.20244598388672,"[[-0.025922487669261418, -0.13388948285597368]]",['DejaVu Sans'],[0.9],,,,N003,digit,5,"['6', '7', '8', '9']","['1', '2', '3', '4']",1,2023.2.3,harveydigits,2.1,[],8,0.75,
0,pause,0.4,None,None,None,0,109,109,109,,,,,,,,,,,,N003,digit,5,"['6', '7', '8', '9']","['1', '2', '3', '4']",1,2023.2.3,harveydigits,2.1,[],8,0.75,
20,digit,0.3,['dot'],['big_1'],black,0,110,110,110,,,40.9002149105072,40.60244393348694,40.91977095603943,"[[0.11558264043921493, -0.00258762083736519]]",['DejaVu Sans'],[0.9],,,,N003,digit,5,"['6', '7', '8', '9']","['1', '2', '3', '4']",1,2023.2.3,harveydigits,2.1,[],8,0.75,
0,pause,0.4,None,None,None,0,111,111,111,,,,,,,,,,,,N003,digit,5,"['6', '7', '8', '9']","['1', '2', '3', '4']",1,2023.2.3,harveydigits,2.1,[],8,0.75,
20,digit,0.3,['dot'],['big_1'],black,0,112,112,112,,,41.600236892700195,41.30294394493103,41.61965799331665,"[[-0.054588316134124154, -0.1161667676905138]]",['DejaVu Sans'],[0.9],,,,N003,digit,5,"['6', '7', '8', '9']","['1', '2', '3', '4']",1,2023.2.3,harveydigits,2.1,[],8,0.75,
0,pause,0.4,None,None,None,0,113,113,113,,,,,,,,,,,,N003,digit,5,"['6', '7', '8', '9']","['1', '2', '3', '4']",1,2023.2.3,harveydigits,2.1,[],8,0.75,
20,digit,0.3,['dot'],['big_1'],black,0,114,114,114,,,42.300227880477905,42.0029878616333,42.31958198547363,"[[0.10185452281299454, 0.040074799148360096]]",['DejaVu Sans'],[0.9],,,,N003,digit,5,"['6', '7', '8', '9']","['1', '2', '3', '4']",1,2023.2.3,harveydigits,2.1,[],8,0.75,
0,pause,0.4,None,None,None,0,115,115,115,,,,,,,,,,,,N003,digit,5,"['6', '7', '8', '9']","['1', '2', '3', '4']",1,2023.2.3,harveydigits,2.1,[],8,0.75,
20,digit,0.3,['dot'],['big_1'],black,0,116,116,116,,,43.00022888183594,42.70301103591919,43.0196259021759,"[[0.1364407386306761, 0.12359289326927628]]",['DejaVu Sans'],[0.9],,,,N003,digit,5,"['6', '7', '8', '9']","['1', '2', '3', '4']",1,2023.2.3,harveydigits,2.1,[],8,0.75,
0,pause,0.4,None,None,None,0,117,117,117,,,,,,,,,,,,N003,digit,5,"['6', '7', '8', '9']","['1', '2', '3', '4']",1,2023.2.3,harveydigits,2.1,[],8,0.75,
20,digit,0.3,['dot'],['big_1'],black,0,118,118,118,,,43.70021390914917,43.403022050857544,43.72188401222229,"[[0.04238342194767339, 0.18398563622461597]]",['DejaVu Sans'],[0.9],,,,N003,digit,5,"['6', '7', '8', '9']","['1', '2', '3', '4']",1,2023.2.3,harveydigits,2.1,[],8,0.75,
0,pause,0.4,None,None,None,0,119,119,119,,,,,,,,,,,,N003,digit,5,"['6', '7', '8', '9']","['1', '2', '3', '4']",1,2023.2.3,harveydigits,2.1,[],8,0.75,
20,digit,0.3,['dot'],['big_1'],black,0,120,120,120,,,44.4002149105072,44.105205059051514,44.4218590259552,"[[0.08185597839485756, -0.11010714304175807]]",['DejaVu Sans'],[0.9],,,,N003,digit,5,"['6', '7', '8', '9']","['1', '2', '3', '4']",1,2023.2.3,harveydigits,2.1,[],8,0.75,
0,pause,0.4,None,None,None,0,121,121,121,,,,,,,,,,,,N003,digit,5,"['6', '7', '8', '9']","['1', '2', '3', '4']",1,2023.2.3,harveydigits,2.1,[],8,0.75,
20,digit,0.3,['dot'],['big_1'],black,0,122,122,122,,,45.10023903846741,44.80518889427185,45.12196087837219,"[[-0.03169049196782345, -0.11532918466660307]]",['DejaVu Sans'],[0.9],,,,N003,digit,5,"['6', '7', '8', '9']","['1', '2', '3', '4']",1,2023.2.3,harveydigits,2.1,[],8,0.75,
0,pause,0.4,None,None,None,0,123,123,123,,,,,,,,,,,,N003,digit,5,"['6', '7', '8', '9']","['1', '2', '3', '4']",1,2023.2.3,harveydigits,2.1,[],8,0.75,
20,digit,0.3,['dot'],['big_1'],black,0,124,124,124,,,45.80023193359375,45.505167961120605,45.82182002067566,"[[0.01550636762214505, -0.09458794201009571]]",['DejaVu Sans'],[0.9],,,,N003,digit,5,"['6', '7', '8', '9']","['1', '2', '3', '4']",1,2023.2.3,harveydigits,2.1,[],8,0.75,
0,pause,0.4,None,None,None,0,125,125,125,,,,,,,,,,,,N003,digit,5,"['6', '7', '8', '9']","['1', '2', '3', '4']",1,2023.2.3,harveydigits,2.1,[],8,0.75,
20,digit,0.3,['dot'],['big_1'],black,0,126,126,126,,,46.50023007392883,46.20518493652344,46.52268409729004,"[[0.1434090461983857, -0.057553771541197285]]",['DejaVu Sans'],[0.9],,,,N003,digit,5,"['6', '7', '8', '9']","['1', '2', '3', '4']",1,2023.2.3,harveydigits,2.1,[],8,0.75,
0,pause,0.4,None,None,None,0,127,127,127,,,,,,,,,,,,N003,digit,5,"['6', '7', '8', '9']","['1', '2', '3', '4']",1,2023.2.3,harveydigits,2.1,[],8,0.75,
20,digit,0.3,['dot'],['big_1'],black,0,128,128,128,,,47.20022892951965,46.905040979385376,47.22176194190979,"[[0.14926458972825316, 0.11283009440092248]]",['DejaVu Sans'],[0.9],,,,N003,digit,5,"['6', '7', '8', '9']","['1', '2', '3', '4']",1,2023.2.3,harveydigits,2.1,[],8,0.75,
0,pause,0.4,None,None,None,0,129,129,129,,,,,,,,,,,,N003,digit,5,"['6', '7', '8', '9']","['1', '2', '3', '4']",1,2023.2.3,harveydigits,2.1,[],8,0.75,
20,digit,0.3,['dot'],['big_1'],black,0,130,130,130,,,47.90021991729736,47.605154037475586,47.92186498641968,"[[-0.15359084095399345, 0.09122767008879876]]",['DejaVu Sans'],[0.9],,,,N003,digit,5,"['6', '7', '8', '9']","['1', '2', '3', '4']",1,2023.2.3,harveydigits,2.1,[],8,0.75,
0,pause,0.4,None,None,None,0,131,131,131,,,,,,,,,,,,N003,digit,5,"['6', '7', '8', '9']","['1', '2', '3', '4']",1,2023.2.3,harveydigits,2.1,[],8,0.75,
20,digit,0.3,['dot'],['big_1'],white,0,132,132,132,,,48.600231885910034,48.305147886276245,48.62177109718323,"[[-0.007191437888452196, 0.11914799050912084]]",['DejaVu Sans'],[0.9],,,,N003,digit,5,"['6', '7', '8', '9']","['1', '2', '3', '4']",1,2023.2.3,harveydigits,2.1,[],8,0.75,
0,pause,0.4,None,None,None,0,133,133,133,,,,,,,,,,,,N003,digit,5,"['6', '7', '8', '9']","['1', '2', '3', '4']",1,2023.2.3,harveydigits,2.1,[],8,0.75,
20,digit,0.3,['dot'],['big_1'],white,0,134,134,134,,,49.30022406578064,49.00500202178955,49.32174587249756,"[[-0.11351944880843211, 0.027371445599407185]]",['DejaVu Sans'],[0.9],,,,N003,digit,5,"['6', '7', '8', '9']","['1', '2', '3', '4']",1,2023.2.3,harveydigits,2.1,[],8,0.75,
0,pause,0.4,None,None,None,0,135,135,135,,,,,,,,,,,,N003,digit,5,"['6', '7', '8', '9']","['1', '2', '3', '4']",1,2023.2.3,harveydigits,2.1,[],8,0.75,
20,digit,0.3,['dot'],['big_1'],white,0,136,136,136,,,50.000216007232666,49.704988956451416,50.02170991897583,"[[-0.1787700792605461, -0.05353750024640101]]",['DejaVu Sans'],[0.9],,,,N003,digit,5,"['6', '7', '8', '9']","['1', '2', '3', '4']",1,2023.2.3,harveydigits,2.1,[],8,0.75,
0,pause,0.4,None,None,None,0,137,137,137,,,,,,,,,,,,N003,digit,5,"['6', '7', '8', '9']","['1', '2', '3', '4']",1,2023.2.3,harveydigits,2.1,[],8,0.75,
20,digit,0.3,['dot'],['big_1'],white,0,138,138,138,,,50.70023703575134,50.404979944229126,50.72166705131531,"[[-0.12560132534420843, -0.014153121385836631]]",['DejaVu Sans'],[0.9],,,,N003,digit,5,"['6', '7', '8', '9']","['1', '2', '3', '4']",1,2023.2.3,harveydigits,2.1,[],8,0.75,
0,pause,0.4,None,None,None,0,139,139,139,,,,,,,,,,,,N003,digit,5,"['6', '7', '8', '9']","['1', '2', '3', '4']",1,2023.2.3,harveydigits,2.1,[],8,0.75,
20,digit,0.3,['dot'],['big_1'],white,0,140,140,140,,,51.40023708343506,51.104925870895386,51.42255997657776,"[[0.04704883863314893, 0.1404317856369445]]",['DejaVu Sans'],[0.9],,,,N003,digit,5,"['6', '7', '8', '9']","['1', '2', '3', '4']",1,2023.2.3,harveydigits,2.1,[],8,0.75,
0,pause,0.4,None,None,None,0,141,141,141,,,,,,,,,,,,N003,digit,5,"['6', '7', '8', '9']","['1', '2', '3', '4']",1,2023.2.3,harveydigits,2.1,[],8,0.75,
20,digit,0.3,['dot'],['big_1'],white,0,142,142,142,,,52.10024404525757,51.80493903160095,52.12165904045105,"[[-0.021574358285712858, 0.18497703775416435]]",['DejaVu Sans'],[0.9],,,,N003,digit,5,"['6', '7', '8', '9']","['1', '2', '3', '4']",1,2023.2.3,harveydigits,2.1,[],8,0.75,
0,pause,0.4,None,None,None,0,143,143,143,,,,,,,,,,,,N003,digit,5,"['6', '7', '8', '9']","['1', '2', '3', '4']",1,2023.2.3,harveydigits,2.1,[],8,0.75,
20,digit,0.3,['dot'],['big_1'],black,0,144,144,144,,,52.800232887268066,52.52163791656494,52.82161498069763,"[[0.17823624057495865, -0.0012886561623302872]]",['DejaVu Sans'],[0.9],,,,N003,digit,5,"['6', '7', '8', '9']","['1', '2', '3', '4']",1,2023.2.3,harveydigits,2.1,[],8,0.75,
0,pause,0.4,None,None,None,0,145,145,145,,,,,,,,,,,,N003,digit,5,"['6', '7', '8', '9']","['1', '2', '3', '4']",1,2023.2.3,harveydigits,2.1,[],8,0.75,
20,digit,0.3,['dot'],['big_1'],black,0,146,146,146,,,53.50021696090698,53.222739934921265,53.52165198326111,"[[-0.07308713828747307, -0.07649268024122531]]",['DejaVu Sans'],[0.9],,,,N003,digit,5,"['6', '7', '8', '9']","['1', '2', '3', '4']",1,2023.2.3,harveydigits,2.1,[],8,0.75,
0,pause,0.4,None,None,None,0,147,147,147,,,,,,,,,,,,N003,digit,5,"['6', '7', '8', '9']","['1', '2', '3', '4']",1,2023.2.3,harveydigits,2.1,[],8,0.75,
20,digit,0.3,['dot'],['big_1'],black,0,148,148,148,,,54.20021891593933,53.90487289428711,54.22161602973938,"[[-0.15957241334875832, -0.02808521360055327]]",['DejaVu Sans'],[0.9],,,,N003,digit,5,"['6', '7', '8', '9']","['1', '2', '3', '4']",1,2023.2.3,harveydigits,2.1,[],8,0.75,
0,pause,0.4,None,None,None,0,149,149,149,,,,,,,,,,,,N003,digit,5,"['6', '7', '8', '9']","['1', '2', '3', '4']",1,2023.2.3,harveydigits,2.1,[],8,0.75,
20,digit,0.3,['dot'],['big_1'],black,0,150,150,150,,,54.900222063064575,54.621644020080566,54.92163109779358,"[[-0.1759398009324791, -0.07066393897822659]]",['DejaVu Sans'],[0.9],,,,N003,digit,5,"['6', '7', '8', '9']","['1', '2', '3', '4']",1,2023.2.3,harveydigits,2.1,[],8,0.75,
0,pause,0.4,None,None,None,0,151,151,151,,,,,,,,,,,,N003,digit,5,"['6', '7', '8', '9']","['1', '2', '3', '4']",1,2023.2.3,harveydigits,2.1,[],8,0.75,
20,digit,0.3,['dot'],['big_1'],black,0,152,152,152,,,55.60023808479309,55.321934938430786,55.621607065200806,"[[0.07713089737886056, 0.07565941305561516]]",['DejaVu Sans'],[0.9],,,,N003,digit,5,"['6', '7', '8', '9']","['1', '2', '3', '4']",1,2023.2.3,harveydigits,2.1,[],8,0.75,
0,pause,0.4,None,None,None,0,153,153,153,,,,,,,,,,,,N003,digit,5,"['6', '7', '8', '9']","['1', '2', '3', '4']",1,2023.2.3,harveydigits,2.1,[],8,0.75,
20,digit,0.3,['dot'],['big_1'],black,0,154,154,154,,,56.300230979919434,56.0215699672699,56.321722984313965,"[[0.1445378339567848, -0.02561328593684009]]",['DejaVu Sans'],[0.9],,,,N003,digit,5,"['6', '7', '8', '9']","['1', '2', '3', '4']",1,2023.2.3,harveydigits,2.1,[],8,0.75,
0,pause,0.4,None,None,None,0,155,155,155,,,,,,,,,,,,N003,digit,5,"['6', '7', '8', '9']","['1', '2', '3', '4']",1,2023.2.3,harveydigits,2.1,[],8,0.75,
9,digit,0.3,['dot'],['big_1'],black,0,156,156,156,,,57.00022101402283,56.72154903411865,57.02151894569397,"[[-0.04607088378883553, 0.016008746806072893]]",['DejaVu Sans'],[0.9],,,,N003,digit,5,"['6', '7', '8', '9']","['1', '2', '3', '4']",1,2023.2.3,harveydigits,2.1,[],8,0.75,
0,pause,0.4,None,None,None,0,157,157,157,,,,,,,,,,,,N003,digit,5,"['6', '7', '8', '9']","['1', '2', '3', '4']",1,2023.2.3,harveydigits,2.1,[],8,0.75,
9,digit,0.3,['dot'],['big_1'],black,0,158,158,158,,,57.70021891593933,57.421539068222046,57.721510887145996,"[[-0.039005765326602215, 0.05894100402513]]",['DejaVu Sans'],[0.9],,,,N003,digit,5,"['6', '7', '8', '9']","['1', '2', '3', '4']",1,2023.2.3,harveydigits,2.1,[],8,0.75,
0,pause,0.4,None,None,None,0,159,159,159,,,,,,,,,,,,N003,digit,5,"['6', '7', '8', '9']","['1', '2', '3', '4']",1,2023.2.3,harveydigits,2.1,[],8,0.75,
9,digit,0.3,['dot'],['big_1'],black,0,160,160,160,,,58.40023398399353,58.122416973114014,58.42148303985596,"[[-0.02951457710335098, 0.05314235127654279]]",['DejaVu Sans'],[0.9],,,,N003,digit,5,"['6', '7', '8', '9']","['1', '2', '3', '4']",1,2023.2.3,harveydigits,2.1,[],8,0.75,
0,pause,0.4,None,None,None,0,161,161,161,,,,,,,,,,,,N003,digit,5,"['6', '7', '8', '9']","['1', '2', '3', '4']",1,2023.2.3,harveydigits,2.1,[],8,0.75,
9,digit,0.3,['dot'],['big_1'],black,0,162,162,162,,,59.10023593902588,58.82303595542908,59.122369050979614,"[[0.19238211855757706, -0.02285233252083793]]",['DejaVu Sans'],[0.9],,,,N003,digit,5,"['6', '7', '8', '9']","['1', '2', '3', '4']",1,2023.2.3,harveydigits,2.1,[],8,0.75,
0,pause,0.4,None,None,None,0,163,163,163,,,,,,,,,,,,N003,digit,5,"['6', '7', '8', '9']","['1', '2', '3', '4']",1,2023.2.3,harveydigits,2.1,[],8,0.75,
9,digit,0.3,['dot'],['big_1'],black,0,164,164,164,,,59.80023002624512,59.521480083465576,59.82147002220154,"[[0.04290572855170652, -0.13891650400710176]]",['DejaVu Sans'],[0.9],,,,N003,digit,5,"['6', '7', '8', '9']","['1', '2', '3', '4']",1,2023.2.3,harveydigits,2.1,[],8,0.75,
0,pause,0.4,None,None,None,0,165,165,165,,,,,,,,,,,,N003,digit,5,"['6', '7', '8', '9']","['1', '2', '3', '4']",1,2023.2.3,harveydigits,2.1,[],8,0.75,
9,digit,0.3,['dot'],['big_1'],black,0,166,166,166,,,60.50022602081299,60.221822023391724,60.52149200439453,"[[-0.1743347423297758, 0.0399707684079882]]",['DejaVu Sans'],[0.9],,,,N003,digit,5,"['6', '7', '8', '9']","['1', '2', '3', '4']",1,2023.2.3,harveydigits,2.1,[],8,0.75,
0,pause,0.4,None,None,None,0,167,167,167,,,,,,,,,,,,N003,digit,5,"['6', '7', '8', '9']","['1', '2', '3', '4']",1,2023.2.3,harveydigits,2.1,[],8,0.75,
8,digit,0.3,['dot'],['big_1'],black,0,168,168,168,,,61.20023488998413,60.92145299911499,61.22140693664551,"[[-0.08768775966477542, 0.15070507426794283]]",['DejaVu Sans'],[0.9],,,,N003,digit,5,"['6', '7', '8', '9']","['1', '2', '3', '4']",1,2023.2.3,harveydigits,2.1,[],8,0.75,
0,pause,0.4,None,None,None,0,169,169,169,,,,,,,,,,,,N003,digit,5,"['6', '7', '8', '9']","['1', '2', '3', '4']",1,2023.2.3,harveydigits,2.1,[],8,0.75,
8,digit,0.3,['dot'],['big_1'],black,0,170,170,170,,,61.90023899078369,61.621469020843506,61.92145299911499,"[[0.059578352107565874, 0.019191598344700828]]",['DejaVu Sans'],[0.9],,,,N003,digit,5,"['6', '7', '8', '9']","['1', '2', '3', '4']",1,2023.2.3,harveydigits,2.1,[],8,0.75,
0,pause,0.4,None,None,None,0,171,171,171,,,,,,,,,,,,N003,digit,5,"['6', '7', '8', '9']","['1', '2', '3', '4']",1,2023.2.3,harveydigits,2.1,[],8,0.75,
8,digit,0.3,['dot'],['big_1'],black,0,172,172,172,,,62.600220918655396,62.32233691215515,62.62511706352234,"[[-0.091285116081787, -0.020642939740626115]]",['DejaVu Sans'],[0.9],,,,N003,digit,5,"['6', '7', '8', '9']","['1', '2', '3', '4']",1,2023.2.3,harveydigits,2.1,[],8,0.75,
0,pause,0.4,None,None,None,0,173,173,173,,,,,,,,,,,,N003,digit,5,"['6', '7', '8', '9']","['1', '2', '3', '4']",1,2023.2.3,harveydigits,2.1,[],8,0.75,
8,digit,0.3,['dot'],['big_1'],black,0,174,174,174,,,63.30023407936096,63.021425008773804,63.32139706611633,"[[-0.05892060634624746, -0.09689514015757011]]",['DejaVu Sans'],[0.9],,,,N003,digit,5,"['6', '7', '8', '9']","['1', '2', '3', '4']",1,2023.2.3,harveydigits,2.1,[],8,0.75,
0,pause,0.4,None,None,None,0,175,175,175,,,,,,,,,,,,N003,digit,5,"['6', '7', '8', '9']","['1', '2', '3', '4']",1,2023.2.3,harveydigits,2.1,[],8,0.75,
8,digit,0.3,['dot'],['big_1'],black,0,176,176,176,,,64.00022006034851,63.72139096260071,64.02138209342957,"[[-0.17918721166778984, 0.055676257183320116]]",['DejaVu Sans'],[0.9],,,,N003,digit,5,"['6', '7', '8', '9']","['1', '2', '3', '4']",1,2023.2.3,harveydigits,2.1,[],8,0.75,
0,pause,0.4,None,None,None,0,177,177,177,,,,,,,,,,,,N003,digit,5,"['6', '7', '8', '9']","['1', '2', '3', '4']",1,2023.2.3,harveydigits,2.1,[],8,0.75,
8,digit,0.3,['dot'],['big_1'],black,0,178,178,178,,,64.70023703575134,64.4213650226593,64.72136902809143,"[[0.08577456967341243, -0.08733440156674498]]",['DejaVu Sans'],[0.9],,,,N003,digit,5,"['6', '7', '8', '9']","['1', '2', '3', '4']",1,2023.2.3,harveydigits,2.1,[],8,0.75,
0,pause,0.4,None,None,None,0,179,179,179,,,,,,,,,,,,N003,digit,5,"['6', '7', '8', '9']","['1', '2', '3', '4']",1,2023.2.3,harveydigits,2.1,[],8,0.75,
7,digit,0.3,['dot'],['big_1'],black,0,180,180,180,,,65.40021800994873,65.12134194374084,65.42134594917297,"[[0.06444469348038193, -0.06955731375210517]]",['DejaVu Sans'],[0.9],,,,N003,digit,5,"['6', '7', '8', '9']","['1', '2', '3', '4']",1,2023.2.3,harveydigits,2.1,[],8,0.75,
0,pause,0.4,None,None,None,0,181,181,181,,,,,,,,,,,,N003,digit,5,"['6', '7', '8', '9']","['1', '2', '3', '4']",1,2023.2.3,harveydigits,2.1,[],8,0.75,
7,digit,0.3,['dot'],['big_1'],black,0,182,182,182,,,66.10023593902588,65.82165503501892,66.12243700027466,"[[0.10406671723428149, 0.03341557070478354]]",['DejaVu Sans'],[0.9],,,,N003,digit,5,"['6', '7', '8', '9']","['1', '2', '3', '4']",1,2023.2.3,harveydigits,2.1,[],8,0.75,
0,pause,0.4,None,None,None,0,183,183,183,,,,,,,,,,,,N003,digit,5,"['6', '7', '8', '9']","['1', '2', '3', '4']",1,2023.2.3,harveydigits,2.1,[],8,0.75,
7,digit,0.3,['dot'],['big_1'],black,0,184,184,184,,,66.80022192001343,66.52133393287659,66.82129406929016,"[[0.18529785495022102, -0.055700138893956544]]",['DejaVu Sans'],[0.9],,,,N003,digit,5,"['6', '7', '8', '9']","['1', '2', '3', '4']",1,2023.2.3,harveydigits,2.1,[],8,0.75,
0,pause,0.4,None,None,None,0,185,185,185,,,,,,,,,,,,N003,digit,5,"['6', '7', '8', '9']","['1', '2', '3', '4']",1,2023.2.3,harveydigits,2.1,[],8,0.75,
7,digit,0.3,['dot'],['big_1'],black,0,186,186,186,,,67.50023794174194,67.22126293182373,67.52128601074219,"[[0.029974878759407936, -0.10470273061669452]]",['DejaVu Sans'],[0.9],,,,N003,digit,5,"['6', '7', '8', '9']","['1', '2', '3', '4']",1,2023.2.3,harveydigits,2.1,[],8,0.75,
0,pause,0.4,None,None,None,0,187,187,187,,,,,,,,,,,,N003,digit,5,"['6', '7', '8', '9']","['1', '2', '3', '4']",1,2023.2.3,harveydigits,2.1,[],8,0.75,
7,digit,0.3,['dot'],['big_1'],black,0,188,188,188,,,68.20022296905518,67.9212760925293,68.22126698493958,"[[-0.07389019443113298, -0.10772133555977177]]",['DejaVu Sans'],[0.9],,,,N003,digit,5,"['6', '7', '8', '9']","['1', '2', '3', '4']",1,2023.2.3,harveydigits,2.1,[],8,0.75,
0,pause,0.4,None,None,None,0,189,189,189,,,,,,,,,,,,N003,digit,5,"['6', '7', '8', '9']","['1', '2', '3', '4']",1,2023.2.3,harveydigits,2.1,[],8,0.75,
7,digit,0.3,['dot'],['big_1'],black,0,190,190,190,,,68.900230884552,68.62125897407532,68.92124009132385,"[[0.10022108364076956, 0.05820547597728801]]",['DejaVu Sans'],[0.9],,,,N003,digit,5,"['6', '7', '8', '9']","['1', '2', '3', '4']",1,2023.2.3,harveydigits,2.1,[],8,0.75,
0,pause,0.4,None,None,None,0,191,191,191,,,,,,,,,,,,N003,digit,5,"['6', '7', '8', '9']","['1', '2', '3', '4']",1,2023.2.3,harveydigits,2.1,[],8,0.75,
6,digit,0.3,['dot'],['big_1'],black,0,192,192,192,,,69.60022687911987,69.32122802734375,69.62125301361084,"[[0.11147282294990526, 0.1304026206673687]]",['DejaVu Sans'],[0.9],,,,N003,digit,5,"['6', '7', '8', '9']","['1', '2', '3', '4']",1,2023.2.3,harveydigits,2.1,[],8,0.75,
0,pause,0.4,None,None,None,0,193,193,193,,,,,,,,,,,,N003,digit,5,"['6', '7', '8', '9']","['1', '2', '3', '4']",1,2023.2.3,harveydigits,2.1,[],8,0.75,
6,digit,0.3,['dot'],['big_1'],black,0,194,194,194,,,70.30024290084839,70.02121496200562,70.32121896743774,"[[-0.04274089404049075, 0.07397180483366553]]",['DejaVu Sans'],[0.9],,,,N003,digit,5,"['6', '7', '8', '9']","['1', '2', '3', '4']",1,2023.2.3,harveydigits,2.1,[],8,0.75,
0,pause,0.4,None,None,None,0,195,195,195,,,,,,,,,,,,N003,digit,5,"['6', '7', '8', '9']","['1', '2', '3', '4']",1,2023.2.3,harveydigits,2.1,[],8,0.75,
6,digit,0.3,['dot'],['big_1'],black,0,196,196,196,,,71.00022792816162,70.72227096557617,71.02123594284058,"[[-0.024347044997835854, 0.09401158282843775]]",['DejaVu Sans'],[0.9],,,,N003,digit,5,"['6', '7', '8', '9']","['1', '2', '3', '4']",1,2023.2.3,harveydigits,2.1,[],8,0.75,
0,pause,0.4,None,None,None,0,197,197,197,,,,,,,,,,,,N003,digit,5,"['6', '7', '8', '9']","['1', '2', '3', '4']",1,2023.2.3,harveydigits,2.1,[],8,0.75,
6,digit,0.3,['dot'],['big_1'],black,0,198,198,198,,,71.70022392272949,71.42119789123535,71.72115802764893,"[[0.13984755818532393, -0.06110232700965687]]",['DejaVu Sans'],[0.9],,,,N003,digit,5,"['6', '7', '8', '9']","['1', '2', '3', '4']",1,2023.2.3,harveydigits,2.1,[],8,0.75,
0,pause,0.4,None,None,None,0,199,199,199,,,,,,,,,,,,N003,digit,5,"['6', '7', '8', '9']","['1', '2', '3', '4']",1,2023.2.3,harveydigits,2.1,[],8,0.75,
6,digit,0.3,['dot'],['big_1'],black,0,200,200,200,,,72.40023589134216,72.12119698524475,72.42115592956543,"[[-0.03392243814721488, 0.055395554895234955]]",['DejaVu Sans'],[0.9],,,,N003,digit,5,"['6', '7', '8', '9']","['1', '2', '3', '4']",1,2023.2.3,harveydigits,2.1,[],8,0.75,
0,pause,0.4,None,None,None,0,201,201,201,,,,,,,,,,,,N003,digit,5,"['6', '7', '8', '9']","['1', '2', '3', '4']",1,2023.2.3,harveydigits,2.1,[],8,0.75,
6,digit,0.3,['dot'],['big_1'],black,0,202,202,202,,,73.1002368927002,72.82432389259338,73.12202191352844,"[[-0.08961231351706006, 0.022786756298086103]]",['DejaVu Sans'],[0.9],,,,N003,digit,5,"['6', '7', '8', '9']","['1', '2', '3', '4']",1,2023.2.3,harveydigits,2.1,[],8,0.75,
0,pause,0.4,None,None,None,0,203,203,203,,,,,,,,,,,,N003,digit,5,"['6', '7', '8', '9']","['1', '2', '3', '4']",1,2023.2.3,harveydigits,2.1,[],8,0.75,
5,digit,0.3,['dot'],['big_1'],black,0,204,204,204,,,73.80023288726807,73.52114486694336,73.82112097740173,"[[0.15240850319878477, 0.06170153915994661]]",['DejaVu Sans'],[0.9],,,,N003,digit,5,"['6', '7', '8', '9']","['1', '2', '3', '4']",1,2023.2.3,harveydigits,2.1,[],8,0.75,
0,pause,0.4,None,None,None,0,205,205,205,,,,,,,,,,,,N003,digit,5,"['6', '7', '8', '9']","['1', '2', '3', '4']",1,2023.2.3,harveydigits,2.1,[],8,0.75,
5,digit,0.3,['dot'],['big_1'],black,0,206,206,206,,,74.50024795532227,74.22339391708374,74.52112102508545,"[[0.04236262523971046, -0.11718585988925563]]",['DejaVu Sans'],[0.9],,,,N003,digit,5,"['6', '7', '8', '9']","['1', '2', '3', '4']",1,2023.2.3,harveydigits,2.1,[],8,0.75,
0,pause,0.4,None,None,None,0,207,207,207,,,,,,,,,,,,N003,digit,5,"['6', '7', '8', '9']","['1', '2', '3', '4']",1,2023.2.3,harveydigits,2.1,[],8,0.75,
5,digit,0.3,['dot'],['big_1'],black,0,208,208,208,,,75.20022702217102,74.90486693382263,75.22109198570251,"[[0.06172454645983014, 0.1382170203799163]]",['DejaVu Sans'],[0.9],,,,N003,digit,5,"['6', '7', '8', '9']","['1', '2', '3', '4']",1,2023.2.3,harveydigits,2.1,[],8,0.75,
0,pause,0.4,None,None,None,0,209,209,209,,,,,,,,,,,,N003,digit,5,"['6', '7', '8', '9']","['1', '2', '3', '4']",1,2023.2.3,harveydigits,2.1,[],8,0.75,
5,digit,0.3,['dot'],['big_1'],black,0,210,210,210,,,75.90023398399353,75.62107300758362,75.92106890678406,"[[0.1956100822766406, 0.014751292577113564]]",['DejaVu Sans'],[0.9],,,,N003,digit,5,"['6', '7', '8', '9']","['1', '2', '3', '4']",1,2023.2.3,harveydigits,2.1,[],8,0.75,
0,pause,0.4,None,None,None,0,211,211,211,,,,,,,,,,,,N003,digit,5,"['6', '7', '8', '9']","['1', '2', '3', '4']",1,2023.2.3,harveydigits,2.1,[],8,0.75,
5,digit,0.3,['dot'],['big_1'],black,0,212,212,212,,,76.6002299785614,76.3210608959198,76.62105298042297,"[[-0.1103632650891281, 0.04474429383371056]]",['DejaVu Sans'],[0.9],,,,N003,digit,5,"['6', '7', '8', '9']","['1', '2', '3', '4']",1,2023.2.3,harveydigits,2.1,[],8,0.75,
0,pause,0.4,None,None,None,0,213,213,213,,,,,,,,,,,,N003,digit,5,"['6', '7', '8', '9']","['1', '2', '3', '4']",1,2023.2.3,harveydigits,2.1,[],8,0.75,
5,digit,0.3,['dot'],['big_1'],black,0,214,214,214,,,77.30023097991943,77.02103686332703,77.32101798057556,"[[0.03464442078376878, -0.039221198487738085]]",['DejaVu Sans'],[0.9],,,,N003,digit,5,"['6', '7', '8', '9']","['1', '2', '3', '4']",1,2023.2.3,harveydigits,2.1,[],8,0.75,
0,pause,0.4,None,None,None,0,215,215,215,,,,,,,,,,,,N003,digit,5,"['6', '7', '8', '9']","['1', '2', '3', '4']",1,2023.2.3,harveydigits,2.1,[],8,0.75,
4,digit,0.3,['dot'],['big_1'],black,0,216,216,216,,,78.00024509429932,77.72100806236267,78.0210599899292,"[[-0.19054318320620964, 0.017522951468146884]]",['DejaVu Sans'],[0.9],,,,N003,digit,5,"['6', '7', '8', '9']","['1', '2', '3', '4']",1,2023.2.3,harveydigits,2.1,[],8,0.75,
0,pause,0.4,None,None,None,0,217,217,217,,,,,,,,,,,,N003,digit,5,"['6', '7', '8', '9']","['1', '2', '3', '4']",1,2023.2.3,harveydigits,2.1,[],8,0.75,
4,digit,0.3,['dot'],['big_1'],black,0,218,218,218,,,78.70023488998413,78.42099809646606,78.72098994255066,"[[0.19834139853673474, -0.020098669904192665]]",['DejaVu Sans'],[0.9],,,,N003,digit,5,"['6', '7', '8', '9']","['1', '2', '3', '4']",1,2023.2.3,harveydigits,2.1,[],8,0.75,
0,pause,0.4,None,None,None,0,219,219,219,,,,,,,,,,,,N003,digit,5,"['6', '7', '8', '9']","['1', '2', '3', '4']",1,2023.2.3,harveydigits,2.1,[],8,0.75,
4,digit,0.3,['dot'],['big_1'],black,0,220,220,220,,,79.40022587776184,79.12099003791809,79.42098093032837,"[[-0.0847359038200901, 0.14523561332442175]]",['DejaVu Sans'],[0.9],,,,N003,digit,5,"['6', '7', '8', '9']","['1', '2', '3', '4']",1,2023.2.3,harveydigits,2.1,[],8,0.75,
0,pause,0.4,None,None,None,0,221,221,221,,,,,,,,,,,,N003,digit,5,"['6', '7', '8', '9']","['1', '2', '3', '4']",1,2023.2.3,harveydigits,2.1,[],8,0.75,
4,digit,0.3,['dot'],['big_1'],black,0,222,222,222,,,80.10024809837341,79.82097291946411,80.12096786499023,"[[-0.1746278483838928, -0.022279751535364517]]",['DejaVu Sans'],[0.9],,,,N003,digit,5,"['6', '7', '8', '9']","['1', '2', '3', '4']",1,2023.2.3,harveydigits,2.1,[],8,0.75,
0,pause,0.4,None,None,None,0,223,223,223,,,,,,,,,,,,N003,digit,5,"['6', '7', '8', '9']","['1', '2', '3', '4']",1,2023.2.3,harveydigits,2.1,[],8,0.75,
4,digit,0.3,['dot'],['big_1'],black,0,224,224,224,,,80.80024600028992,80.52096891403198,80.82449793815613,"[[-0.05406991845166989, 0.1281276115789977]]",['DejaVu Sans'],[0.9],,,,N003,digit,5,"['6', '7', '8', '9']","['1', '2', '3', '4']",1,2023.2.3,harveydigits,2.1,[],8,0.75,
0,pause,0.4,None,None,None,0,225,225,225,,,,,,,,,,,,N003,digit,5,"['6', '7', '8', '9']","['1', '2', '3', '4']",1,2023.2.3,harveydigits,2.1,[],8,0.75,
4,digit,0.3,['dot'],['big_1'],black,0,226,226,226,,,81.50024008750916,81.22187495231628,81.52093291282654,"[[0.16478685860768102, -0.08119669339511285]]",['DejaVu Sans'],[0.9],,,,N003,digit,5,"['6', '7', '8', '9']","['1', '2', '3', '4']",1,2023.2.3,harveydigits,2.1,[],8,0.75,
0,pause,0.4,None,None,None,0,227,227,227,,,,,,,,,,,,N003,digit,5,"['6', '7', '8', '9']","['1', '2', '3', '4']",1,2023.2.3,harveydigits,2.1,[],8,0.75,
3,digit,0.3,['dot'],['big_1'],black,0,228,228,228,,,82.20024490356445,81.92092108726501,82.2209620475769,"[[-0.04783903802128958, 0.06128597803027597]]",['DejaVu Sans'],[0.9],,,,N003,digit,5,"['6', '7', '8', '9']","['1', '2', '3', '4']",1,2023.2.3,harveydigits,2.1,[],8,0.75,
0,pause,0.4,None,None,None,0,229,229,229,,,,,,,,,,,,N003,digit,5,"['6', '7', '8', '9']","['1', '2', '3', '4']",1,2023.2.3,harveydigits,2.1,[],8,0.75,
3,digit,0.3,['dot'],['big_1'],black,0,230,230,230,,,82.90024900436401,82.62094593048096,82.92096304893494,"[[-0.06457883744785456, 0.04780093755058895]]",['DejaVu Sans'],[0.9],,,,N003,digit,5,"['6', '7', '8', '9']","['1', '2', '3', '4']",1,2023.2.3,harveydigits,2.1,[],8,0.75,
0,pause,0.4,None,None,None,0,231,231,231,,,,,,,,,,,,N003,digit,5,"['6', '7', '8', '9']","['1', '2', '3', '4']",1,2023.2.3,harveydigits,2.1,[],8,0.75,
3,digit,0.3,['dot'],['big_1'],black,0,232,232,232,,,83.60022497177124,83.32086706161499,83.62085199356079,"[[0.07278881265536072, 0.18589636664731152]]",['DejaVu Sans'],[0.9],,,,N003,digit,5,"['6', '7', '8', '9']","['1', '2', '3', '4']",1,2023.2.3,harveydigits,2.1,[],8,0.75,
0,pause,0.4,None,None,None,0,233,233,233,,,,,,,,,,,,N003,digit,5,"['6', '7', '8', '9']","['1', '2', '3', '4']",1,2023.2.3,harveydigits,2.1,[],8,0.75,
3,digit,0.3,['dot'],['big_1'],black,0,234,234,234,,,84.3002290725708,84.0208830833435,84.32085704803467,"[[-0.17287955362096466, 0.03567389788403988]]",['DejaVu Sans'],[0.9],,,,N003,digit,5,"['6', '7', '8', '9']","['1', '2', '3', '4']",1,2023.2.3,harveydigits,2.1,[],8,0.75,
0,pause,0.4,None,None,None,0,235,235,235,,,,,,,,,,,,N003,digit,5,"['6', '7', '8', '9']","['1', '2', '3', '4']",1,2023.2.3,harveydigits,2.1,[],8,0.75,
3,digit,0.3,['dot'],['big_1'],black,0,236,236,236,,,85.00024390220642,84.72084498405457,85.02083086967468,"[[-0.15264320141881557, 0.1232017106434363]]",['DejaVu Sans'],[0.9],,,,N003,digit,5,"['6', '7', '8', '9']","['1', '2', '3', '4']",1,2023.2.3,harveydigits,2.1,[],8,0.75,
0,pause,0.4,None,None,None,0,237,237,237,,,,,,,,,,,,N003,digit,5,"['6', '7', '8', '9']","['1', '2', '3', '4']",1,2023.2.3,harveydigits,2.1,[],8,0.75,
3,digit,0.3,['dot'],['big_1'],black,0,238,238,238,,,85.70022106170654,85.42081689834595,85.72087097167969,"[[-0.08981544388128086, -0.1393923497945717]]",['DejaVu Sans'],[0.9],,,,N003,digit,5,"['6', '7', '8', '9']","['1', '2', '3', '4']",1,2023.2.3,harveydigits,2.1,[],8,0.75,
0,pause,0.4,None,None,None,0,239,239,239,,,,,,,,,,,,N003,digit,5,"['6', '7', '8', '9']","['1', '2', '3', '4']",1,2023.2.3,harveydigits,2.1,[],8,0.75,
2,digit,0.3,['dot'],['big_1'],black,0,240,240,240,,,86.40024209022522,86.12194204330444,86.420814037323,"[[0.055888164342563024, 0.020642840162066356]]",['DejaVu Sans'],[0.9],,,,N003,digit,5,"['6', '7', '8', '9']","['1', '2', '3', '4']",1,2023.2.3,harveydigits,2.1,[],8,0.75,
0,pause,0.4,None,None,None,0,241,241,241,,,,,,,,,,,,N003,digit,5,"['6', '7', '8', '9']","['1', '2', '3', '4']",1,2023.2.3,harveydigits,2.1,[],8,0.75,
2,digit,0.3,['dot'],['big_1'],black,0,242,242,242,,,87.10022401809692,86.82083201408386,87.12076902389526,"[[-0.17000889043267997, 0.10332131756460868]]",['DejaVu Sans'],[0.9],,,,N003,digit,5,"['6', '7', '8', '9']","['1', '2', '3', '4']",1,2023.2.3,harveydigits,2.1,[],8,0.75,
0,pause,0.4,None,None,None,0,243,243,243,,,,,,,,,,,,N003,digit,5,"['6', '7', '8', '9']","['1', '2', '3', '4']",1,2023.2.3,harveydigits,2.1,[],8,0.75,
2,digit,0.3,['dot'],['big_1'],black,0,244,244,244,,,87.80024003982544,87.52079796791077,87.82076096534729,"[[-0.16293823065843863, -0.08523475906145611]]",['DejaVu Sans'],[0.9],,,,N003,digit,5,"['6', '7', '8', '9']","['1', '2', '3', '4']",1,2023.2.3,harveydigits,2.1,[],8,0.75,
0,pause,0.4,None,None,None,0,245,245,245,,,,,,,,,,,,N003,digit,5,"['6', '7', '8', '9']","['1', '2', '3', '4']",1,2023.2.3,harveydigits,2.1,[],8,0.75,
2,digit,0.3,['dot'],['big_1'],black,0,246,246,246,,,88.50023007392883,88.22075390815735,88.52078104019165,"[[-0.11953499277706515, -0.1314482143441359]]",['DejaVu Sans'],[0.9],,,,N003,digit,5,"['6', '7', '8', '9']","['1', '2', '3', '4']",1,2023.2.3,harveydigits,2.1,[],8,0.75,
0,pause,0.4,None,None,None,0,247,247,247,,,,,,,,,,,,N003,digit,5,"['6', '7', '8', '9']","['1', '2', '3', '4']",1,2023.2.3,harveydigits,2.1,[],8,0.75,
2,digit,0.3,['dot'],['big_1'],black,0,248,248,248,,,89.20023703575134,88.92083287239075,89.22078895568848,"[[0.15612881391250535, -0.0016188019268771614]]",['DejaVu Sans'],[0.9],,,,N003,digit,5,"['6', '7', '8', '9']","['1', '2', '3', '4']",1,2023.2.3,harveydigits,2.1,[],8,0.75,
0,pause,0.4,None,None,None,0,249,249,249,,,,,,,,,,,,N003,digit,5,"['6', '7', '8', '9']","['1', '2', '3', '4']",1,2023.2.3,harveydigits,2.1,[],8,0.75,
2,digit,0.3,['dot'],['big_1'],black,0,250,250,250,,,89.90025305747986,89.6207549571991,89.92072987556458,"[[0.08335207583265511, -0.01339557058380128]]",['DejaVu Sans'],[0.9],,,,N003,digit,5,"['6', '7', '8', '9']","['1', '2', '3', '4']",1,2023.2.3,harveydigits,2.1,[],8,0.75,
0,pause,0.4,None,None,None,0,251,251,251,,,,,,,,,,,,N003,digit,5,"['6', '7', '8', '9']","['1', '2', '3', '4']",1,2023.2.3,harveydigits,2.1,[],8,0.75,
1,digit,0.3,['dot'],['big_1'],black,0,252,252,252,,,90.60023093223572,90.32070708274841,90.62068295478821,"[[0.11836036239287936, 0.08985794257781568]]",['DejaVu Sans'],[0.9],,,,N003,digit,5,"['6', '7', '8', '9']","['1', '2', '3', '4']",1,2023.2.3,harveydigits,2.1,[],8,0.75,
0,pause,0.4,None,None,None,0,253,253,253,,,,,,,,,,,,N003,digit,5,"['6', '7', '8', '9']","['1', '2', '3', '4']",1,2023.2.3,harveydigits,2.1,[],8,0.75,
1,digit,0.3,['dot'],['big_1'],black,0,254,254,254,,,91.3002519607544,91.02068209648132,91.32070589065552,"[[-0.0660623119407934, 0.010785969363319048]]",['DejaVu Sans'],[0.9],,,,N003,digit,5,"['6', '7', '8', '9']","['1', '2', '3', '4']",1,2023.2.3,harveydigits,2.1,[],8,0.75,
0,pause,0.4,None,None,None,0,255,255,255,,,,,,,,,,,,N003,digit,5,"['6', '7', '8', '9']","['1', '2', '3', '4']",1,2023.2.3,harveydigits,2.1,[],8,0.75,
1,digit,0.3,['dot'],['big_1'],black,0,256,256,256,,,92.0002429485321,91.7207019329071,92.02071404457092,"[[-0.07317063900957013, -0.13112966794919206]]",['DejaVu Sans'],[0.9],,,,N003,digit,5,"['6', '7', '8', '9']","['1', '2', '3', '4']",1,2023.2.3,harveydigits,2.1,[],8,0.75,
0,pause,0.4,None,None,None,0,257,257,257,,,,,,,,,,,,N003,digit,5,"['6', '7', '8', '9']","['1', '2', '3', '4']",1,2023.2.3,harveydigits,2.1,[],8,0.75,
1,digit,0.3,['dot'],['big_1'],black,0,258,258,258,,,92.70024800300598,92.42071199417114,92.72071099281311,"[[-0.09194413019830336, 0.09713396828951515]]",['DejaVu Sans'],[0.9],,,,N003,digit,5,"['6', '7', '8', '9']","['1', '2', '3', '4']",1,2023.2.3,harveydigits,2.1,[],8,0.75,
0,pause,0.4,None,None,None,0,259,259,259,,,,,,,,,,,,N003,digit,5,"['6', '7', '8', '9']","['1', '2', '3', '4']",1,2023.2.3,harveydigits,2.1,[],8,0.75,
1,digit,0.3,['dot'],['big_1'],black,0,260,260,260,,,93.40022206306458,93.12067008018494,93.42065691947937,"[[0.15149870156153147, 0.10098655838523274]]",['DejaVu Sans'],[0.9],,,,N003,digit,5,"['6', '7', '8', '9']","['1', '2', '3', '4']",1,2023.2.3,harveydigits,2.1,[],8,0.75,
0,pause,0.4,None,None,None,0,261,261,261,,,,,,,,,,,,N003,digit,5,"['6', '7', '8', '9']","['1', '2', '3', '4']",1,2023.2.3,harveydigits,2.1,[],8,0.75,
1,digit,0.3,['dot'],['big_1'],black,0,262,262,262,,,94.10024189949036,93.82064294815063,94.1206259727478,"[[-0.10686588283592292, 0.08393243334138553]]",['DejaVu Sans'],[0.9],,,,N003,digit,5,"['6', '7', '8', '9']","['1', '2', '3', '4']",1,2023.2.3,harveydigits,2.1,[],8,0.75,
0,pause,0.4,None,None,None,0,263,263,263,,,,,,,,,,,,N003,digit,5,"['6', '7', '8', '9']","['1', '2', '3', '4']",1,2023.2.3,harveydigits,2.1,[],8,0.75,
20,digit,0.3,['dot'],['big_1'],black,0,264,264,264,,,94.80024886131287,94.52064800262451,94.82063388824463,"[[0.18830658457042274, -0.0611255582416524]]",['DejaVu Sans'],[0.9],,,,N003,digit,5,"['6', '7', '8', '9']","['1', '2', '3', '4']",1,2023.2.3,harveydigits,2.1,[],8,0.75,
0,pause,0.4,None,None,None,0,265,265,265,,,,,,,,,,,,N003,digit,5,"['6', '7', '8', '9']","['1', '2', '3', '4']",1,2023.2.3,harveydigits,2.1,[],8,0.75,
20,digit,0.3,['dot'],['big_1'],black,0,266,266,266,,,95.5002338886261,95.22058391571045,95.52056694030762,"[[0.1137211135120644, -0.011361450440913995]]",['DejaVu Sans'],[0.9],,,,N003,digit,5,"['6', '7', '8', '9']","['1', '2', '3', '4']",1,2023.2.3,harveydigits,2.1,[],8,0.75,
0,pause,0.4,None,None,None,0,267,267,267,,,,,,,,,,,,N003,digit,5,"['6', '7', '8', '9']","['1', '2', '3', '4']",1,2023.2.3,harveydigits,2.1,[],8,0.75,
20,digit,0.3,['dot'],['big_1'],black,0,268,268,268,,,96.20024800300598,95.92054486274719,96.22054386138916,"[[0.06840357586803034, -0.11954378885480714]]",['DejaVu Sans'],[0.9],,,,N003,digit,5,"['6', '7', '8', '9']","['1', '2', '3', '4']",1,2023.2.3,harveydigits,2.1,[],8,0.75,
0,pause,0.4,None,None,None,0,269,269,269,,,,,,,,,,,,N003,digit,5,"['6', '7', '8', '9']","['1', '2', '3', '4']",1,2023.2.3,harveydigits,2.1,[],8,0.75,
20,digit,0.3,['dot'],['big_1'],black,0,270,270,270,,,96.90023589134216,96.62083196640015,96.92056393623352,"[[0.13721764037866227, 0.009799924851763231]]",['DejaVu Sans'],[0.9],,,,N003,digit,5,"['6', '7', '8', '9']","['1', '2', '3', '4']",1,2023.2.3,harveydigits,2.1,[],8,0.75,
0,pause,0.4,None,None,None,0,271,271,271,,,,,,,,,,,,N003,digit,5,"['6', '7', '8', '9']","['1', '2', '3', '4']",1,2023.2.3,harveydigits,2.1,[],8,0.75,
20,digit,0.3,['dot'],['big_1'],black,0,272,272,272,,,97.60023999214172,97.32054305076599,97.62167596817017,"[[0.18975231240809917, -0.024724173496559483]]",['DejaVu Sans'],[0.9],,,,N003,digit,5,"['6', '7', '8', '9']","['1', '2', '3', '4']",1,2023.2.3,harveydigits,2.1,[],8,0.75,
0,pause,0.4,None,None,None,0,273,273,273,,,,,,,,,,,,N003,digit,5,"['6', '7', '8', '9']","['1', '2', '3', '4']",1,2023.2.3,harveydigits,2.1,[],8,0.75,
20,digit,0.3,['dot'],['big_1'],black,0,274,274,274,,,98.30022501945496,98.02053308486938,98.32050800323486,"[[-0.01541502244952872, 0.027359575604718467]]",['DejaVu Sans'],[0.9],,,,N003,digit,5,"['6', '7', '8', '9']","['1', '2', '3', '4']",1,2023.2.3,harveydigits,2.1,[],8,0.75,
0,pause,0.4,None,None,None,0,275,275,275,,,,,,,,,,,,N003,digit,5,"['6', '7', '8', '9']","['1', '2', '3', '4']",1,2023.2.3,harveydigits,2.1,[],8,0.75,
20,digit,0.3,['dot'],['big_1'],black,0,276,276,276,,,99.00023293495178,98.72054600715637,99.02156400680542,"[[-0.1295519049876522, 0.12773954857549957]]",['DejaVu Sans'],[0.9],,,,N003,digit,5,"['6', '7', '8', '9']","['1', '2', '3', '4']",1,2023.2.3,harveydigits,2.1,[],8,0.75,
0,pause,0.4,None,None,None,0,277,277,277,,,,,,,,,,,,N003,digit,5,"['6', '7', '8', '9']","['1', '2', '3', '4']",1,2023.2.3,harveydigits,2.1,[],8,0.75,
20,digit,0.3,['dot'],['big_1'],black,0,278,278,278,,,99.70024394989014,99.42051792144775,99.72052001953125,"[[-0.1641234065010494, 0.00839777185142812]]",['DejaVu Sans'],[0.9],,,,N003,digit,5,"['6', '7', '8', '9']","['1', '2', '3', '4']",1,2023.2.3,harveydigits,2.1,[],8,0.75,
0,pause,0.4,None,None,None,0,279,279,279,,,,,,,,,,,,N003,digit,5,"['6', '7', '8', '9']","['1', '2', '3', '4']",1,2023.2.3,harveydigits,2.1,[],8,0.75,
20,digit,0.3,['dot'],['big_1'],black,0,280,280,280,,,100.40023493766785,100.12051391601562,100.42049908638,"[[0.004025005413090088, 0.17438587884708065]]",['DejaVu Sans'],[0.9],,,,N003,digit,5,"['6', '7', '8', '9']","['1', '2', '3', '4']",1,2023.2.3,harveydigits,2.1,[],8,0.75,
0,pause,0.4,None,None,None,0,281,281,281,,,,,,,,,,,,N003,digit,5,"['6', '7', '8', '9']","['1', '2', '3', '4']",1,2023.2.3,harveydigits,2.1,[],8,0.75,
20,digit,0.3,['dot'],['big_1'],black,0,282,282,282,,,101.10023999214172,100.82048892974854,101.1204879283905,"[[-0.029411234077726472, -0.18313129326770278]]",['DejaVu Sans'],[0.9],,,,N003,digit,5,"['6', '7', '8', '9']","['1', '2', '3', '4']",1,2023.2.3,harveydigits,2.1,[],8,0.75,
0,pause,0.4,None,None,None,0,283,283,283,,,,,,,,,,,,N003,digit,5,"['6', '7', '8', '9']","['1', '2', '3', '4']",1,2023.2.3,harveydigits,2.1,[],8,0.75,
20,digit,0.3,['dot'],['big_1'],black,0,284,284,284,,,101.80022597312927,101.5205020904541,101.82046794891357,"[[0.16633989689357218, -0.09880828848769736]]",['DejaVu Sans'],[0.9],,,,N003,digit,5,"['6', '7', '8', '9']","['1', '2', '3', '4']",1,2023.2.3,harveydigits,2.1,[],8,0.75,
0,pause,0.4,None,None,None,0,285,285,285,,,,,,,,,,,,N003,digit,5,"['6', '7', '8', '9']","['1', '2', '3', '4']",1,2023.2.3,harveydigits,2.1,[],8,0.75,
20,digit,0.3,['dot'],['big_1'],black,0,286,286,286,,,102.50024104118347,102.22045588493347,102.520427942276,"[[0.0005451737524859723, -0.10309780213540312]]",['DejaVu Sans'],[0.9],,,,N003,digit,5,"['6', '7', '8', '9']","['1', '2', '3', '4']",1,2023.2.3,harveydigits,2.1,[],8,0.75,
0,pause,0.4,None,None,None,0,287,287,287,,,,,,,,,,,,N003,digit,5,"['6', '7', '8', '9']","['1', '2', '3', '4']",1,2023.2.3,harveydigits,2.1,[],8,0.75,
20,digit,0.3,['dot'],['big_1'],black,0,288,288,288,,,103.20024991035461,102.92151188850403,103.22040390968323,"[[-0.08638211399257266, 0.10026056073614542]]",['DejaVu Sans'],[0.9],,,,N003,digit,5,"['6', '7', '8', '9']","['1', '2', '3', '4']",1,2023.2.3,harveydigits,2.1,[],8,0.75,
0,pause,0.4,None,None,None,0,289,289,289,,,,,,,,,,,,N003,digit,5,"['6', '7', '8', '9']","['1', '2', '3', '4']",1,2023.2.3,harveydigits,2.1,[],8,0.75,
20,digit,0.3,['dot'],['big_1'],black,0,290,290,290,,,103.90023303031921,103.62039399147034,103.92037391662598,"[[0.1845634189735352, -0.006695022365176689]]",['DejaVu Sans'],[0.9],,,,N003,digit,5,"['6', '7', '8', '9']","['1', '2', '3', '4']",1,2023.2.3,harveydigits,2.1,[],8,0.75,
0,pause,0.4,None,None,None,0,291,291,291,,,,,,,,,,,,N003,digit,5,"['6', '7', '8', '9']","['1', '2', '3', '4']",1,2023.2.3,harveydigits,2.1,[],8,0.75,
20,digit,0.3,['dot'],['big_1'],black,0,292,292,292,,,104.60023498535156,104.3203558921814,104.62035298347473,"[[-0.01810758428226128, -0.10910735846379084]]",['DejaVu Sans'],[0.9],,,,N003,digit,5,"['6', '7', '8', '9']","['1', '2', '3', '4']",1,2023.2.3,harveydigits,2.1,[],8,0.75,
0,pause,0.4,None,None,None,0,293,293,293,,,,,,,,,,,,N003,digit,5,"['6', '7', '8', '9']","['1', '2', '3', '4']",1,2023.2.3,harveydigits,2.1,[],8,0.75,
20,digit,0.3,['dot'],['big_1'],black,0,294,294,294,,,105.30025696754456,105.02037501335144,105.32033109664917,"[[-0.0036669819589421893, 0.06797014152360559]]",['DejaVu Sans'],[0.9],,,,N003,digit,5,"['6', '7', '8', '9']","['1', '2', '3', '4']",1,2023.2.3,harveydigits,2.1,[],8,0.75,
0,pause,0.4,None,None,None,0,295,295,295,,,,,,,,,,,,N003,digit,5,"['6', '7', '8', '9']","['1', '2', '3', '4']",1,2023.2.3,harveydigits,2.1,[],8,0.75,
20,digit,0.3,['dot'],['big_1'],black,0,296,296,296,,,106.00025296211243,105.72033405303955,106.02032089233398,"[[-0.0214565775143179, 0.029392279572931113]]",['DejaVu Sans'],[0.9],,,,N003,digit,5,"['6', '7', '8', '9']","['1', '2', '3', '4']",1,2023.2.3,harveydigits,2.1,[],8,0.75,
0,pause,0.4,None,None,None,0,297,297,297,,,,,,,,,,,,N003,digit,5,"['6', '7', '8', '9']","['1', '2', '3', '4']",1,2023.2.3,harveydigits,2.1,[],8,0.75,
20,digit,0.3,['dot'],['big_1'],black,0,298,298,298,,,106.7002260684967,106.42031002044678,106.7202889919281,"[[-0.03676494216438639, 0.17782967615586404]]",['DejaVu Sans'],[0.9],,,,N003,digit,5,"['6', '7', '8', '9']","['1', '2', '3', '4']",1,2023.2.3,harveydigits,2.1,[],8,0.75,
0,pause,0.4,None,None,None,0,299,299,299,,,,,,,,,,,,N003,digit,5,"['6', '7', '8', '9']","['1', '2', '3', '4']",1,2023.2.3,harveydigits,2.1,[],8,0.75,
20,digit,0.3,['dot'],['big_1'],white,0,300,300,300,,,107.40023398399353,107.12117600440979,107.42026901245117,"[[0.12048171595693122, 0.15191270863989667]]",['DejaVu Sans'],[0.9],,,,N003,digit,5,"['6', '7', '8', '9']","['1', '2', '3', '4']",1,2023.2.3,harveydigits,2.1,[],8,0.75,
0,pause,0.4,None,None,None,0,301,301,301,,,,,,,,,,,,N003,digit,5,"['6', '7', '8', '9']","['1', '2', '3', '4']",1,2023.2.3,harveydigits,2.1,[],8,0.75,
20,digit,0.3,['dot'],['big_1'],white,0,302,302,302,,,108.100252866745,107.82030296325684,108.12028789520264,"[[0.12769734134031488, 0.08543255437794817]]",['DejaVu Sans'],[0.9],,,,N003,digit,5,"['6', '7', '8', '9']","['1', '2', '3', '4']",1,2023.2.3,harveydigits,2.1,[],8,0.75,
0,pause,0.4,None,None,None,0,303,303,303,,,,,,,,,,,,N003,digit,5,"['6', '7', '8', '9']","['1', '2', '3', '4']",1,2023.2.3,harveydigits,2.1,[],8,0.75,
20,digit,0.3,['dot'],['big_1'],white,0,304,304,304,,,108.80023288726807,108.52028799057007,108.8202269077301,"[[0.08831246140036306, 0.021729706252600733]]",['DejaVu Sans'],[0.9],,,,N003,digit,5,"['6', '7', '8', '9']","['1', '2', '3', '4']",1,2023.2.3,harveydigits,2.1,[],8,0.75,
0,pause,0.4,None,None,None,0,305,305,305,,,,,,,,,,,,N003,digit,5,"['6', '7', '8', '9']","['1', '2', '3', '4']",1,2023.2.3,harveydigits,2.1,[],8,0.75,
20,digit,0.3,['dot'],['big_1'],white,0,306,306,306,,,109.50025701522827,109.22025299072266,109.52026009559631,"[[-0.06834917673409233, -0.11467867833655158]]",['DejaVu Sans'],[0.9],,,,N003,digit,5,"['6', '7', '8', '9']","['1', '2', '3', '4']",1,2023.2.3,harveydigits,2.1,[],8,0.75,
0,pause,0.4,None,None,None,0,307,307,307,,,,,,,,,,,,N003,digit,5,"['6', '7', '8', '9']","['1', '2', '3', '4']",1,2023.2.3,harveydigits,2.1,[],8,0.75,
20,digit,0.3,['dot'],['big_1'],white,0,308,308,308,,,110.20023894309998,109.92024993896484,110.22019600868225,"[[-0.028121006603405052, -0.18895402427387883]]",['DejaVu Sans'],[0.9],,,,N003,digit,5,"['6', '7', '8', '9']","['1', '2', '3', '4']",1,2023.2.3,harveydigits,2.1,[],8,0.75,
0,pause,0.4,None,None,None,0,309,309,309,,,,,,,,,,,,N003,digit,5,"['6', '7', '8', '9']","['1', '2', '3', '4']",1,2023.2.3,harveydigits,2.1,[],8,0.75,
20,digit,0.3,['dot'],['big_1'],white,0,310,310,310,,,110.90023994445801,110.62021493911743,110.92019391059875,"[[-0.10928065749239252, 0.05628756171043092]]",['DejaVu Sans'],[0.9],,,,N003,digit,5,"['6', '7', '8', '9']","['1', '2', '3', '4']",1,2023.2.3,harveydigits,2.1,[],8,0.75,
0,pause,0.4,None,None,None,0,311,311,311,,,,,,,,,,,,N003,digit,5,"['6', '7', '8', '9']","['1', '2', '3', '4']",1,2023.2.3,harveydigits,2.1,[],8,0.75,
1,digit,0.3,['dot'],['small_1'],black,0,312,312,312,,,111.60024189949036,111.32018399238586,111.62017703056335,"[[0.2578828133978124, -0.2091376415451083]]",['DejaVu Sans'],[0.6],,,,N003,digit,5,"['6', '7', '8', '9']","['1', '2', '3', '4']",1,2023.2.3,harveydigits,2.1,[],8,0.75,
0,pause,0.4,None,None,None,0,313,313,313,,,,,,,,,,,,N003,digit,5,"['6', '7', '8', '9']","['1', '2', '3', '4']",1,2023.2.3,harveydigits,2.1,[],8,0.75,
1,digit,0.3,['dot'],['small_1'],black,0,314,314,314,,,112.30023407936096,112.02017998695374,112.32106590270996,"[[-0.11104662778302052, 0.2787013643189256]]",['DejaVu Sans'],[0.6],,,,N003,digit,5,"['6', '7', '8', '9']","['1', '2', '3', '4']",1,2023.2.3,harveydigits,2.1,[],8,0.75,
0,pause,0.4,None,None,None,0,315,315,315,,,,,,,,,,,,N003,digit,5,"['6', '7', '8', '9']","['1', '2', '3', '4']",1,2023.2.3,harveydigits,2.1,[],8,0.75,
1,digit,0.3,['dot'],['small_1'],black,0,316,316,316,,,113.00025486946106,112.72012996673584,113.02013301849365,"[[-0.02233548565431276, 0.31676900646864237]]",['DejaVu Sans'],[0.6],,,,N003,digit,5,"['6', '7', '8', '9']","['1', '2', '3', '4']",1,2023.2.3,harveydigits,2.1,[],8,0.75,
0,pause,0.4,None,None,None,0,317,317,317,,,,,,,,,,,,N003,digit,5,"['6', '7', '8', '9']","['1', '2', '3', '4']",1,2023.2.3,harveydigits,2.1,[],8,0.75,
1,digit,0.3,['dot'],['small_1'],black,0,318,318,318,,,113.70024704933167,113.42103791236877,113.72011208534241,"[[0.2254370411102341, -0.19563710909173376]]",['DejaVu Sans'],[0.6],,,,N003,digit,5,"['6', '7', '8', '9']","['1', '2', '3', '4']",1,2023.2.3,harveydigits,2.1,[],8,0.75,
0,pause,0.4,None,None,None,0,319,319,319,,,,,,,,,,,,N003,digit,5,"['6', '7', '8', '9']","['1', '2', '3', '4']",1,2023.2.3,harveydigits,2.1,[],8,0.75,
1,digit,0.3,['dot'],['small_1'],black,0,320,320,320,,,114.40023708343506,114.12012195587158,114.42009806632996,"[[-0.004601757003007856, 0.25193154709183074]]",['DejaVu Sans'],[0.6],,,,N003,digit,5,"['6', '7', '8', '9']","['1', '2', '3', '4']",1,2023.2.3,harveydigits,2.1,[],8,0.75,
0,pause,0.4,None,None,None,0,321,321,321,,,,,,,,,,,,N003,digit,5,"['6', '7', '8', '9']","['1', '2', '3', '4']",1,2023.2.3,harveydigits,2.1,[],8,0.75,
1,digit,0.3,['dot'],['small_1'],black,0,322,322,322,,,115.10025787353516,114.82009100914001,115.12007403373718,"[[0.2829205821096732, 0.18949694817212914]]",['DejaVu Sans'],[0.6],,,,N003,digit,5,"['6', '7', '8', '9']","['1', '2', '3', '4']",1,2023.2.3,harveydigits,2.1,[],8,0.75,
0,pause,0.4,None,None,None,0,323,323,323,,,,,,,,,,,,N003,digit,5,"['6', '7', '8', '9']","['1', '2', '3', '4']",1,2023.2.3,harveydigits,2.1,[],8,0.75,
2,digit,0.3,['dot'],['small_1'],black,0,324,324,324,,,115.80022692680359,115.52006602287292,115.82006192207336,"[[0.2768598112085041, -0.06815037892803957]]",['DejaVu Sans'],[0.6],,,,N003,digit,5,"['6', '7', '8', '9']","['1', '2', '3', '4']",1,2023.2.3,harveydigits,2.1,[],8,0.75,
0,pause,0.4,None,None,None,0,325,325,325,,,,,,,,,,,,N003,digit,5,"['6', '7', '8', '9']","['1', '2', '3', '4']",1,2023.2.3,harveydigits,2.1,[],8,0.75,
2,digit,0.3,['dot'],['small_1'],black,0,326,326,326,,,116.50024509429932,116.22391390800476,116.52008891105652,"[[-0.10636767585619697, -0.0785226395525715]]",['DejaVu Sans'],[0.6],,,,N003,digit,5,"['6', '7', '8', '9']","['1', '2', '3', '4']",1,2023.2.3,harveydigits,2.1,[],8,0.75,
0,pause,0.4,None,None,None,0,327,327,327,,,,,,,,,,,,N003,digit,5,"['6', '7', '8', '9']","['1', '2', '3', '4']",1,2023.2.3,harveydigits,2.1,[],8,0.75,
2,digit,0.3,['dot'],['small_1'],black,0,328,328,328,,,117.20022702217102,116.92012095451355,117.22007894515991,"[[-0.30776354705868914, 0.15104472447806863]]",['DejaVu Sans'],[0.6],,,,N003,digit,5,"['6', '7', '8', '9']","['1', '2', '3', '4']",1,2023.2.3,harveydigits,2.1,[],8,0.75,
0,pause,0.4,None,None,None,0,329,329,329,,,,,,,,,,,,N003,digit,5,"['6', '7', '8', '9']","['1', '2', '3', '4']",1,2023.2.3,harveydigits,2.1,[],8,0.75,
2,digit,0.3,['dot'],['small_1'],black,0,330,330,330,,,117.90023303031921,117.62007188796997,117.92001605033875,"[[-0.044956392830639236, 0.2895945757309976]]",['DejaVu Sans'],[0.6],,,,N003,digit,5,"['6', '7', '8', '9']","['1', '2', '3', '4']",1,2023.2.3,harveydigits,2.1,[],8,0.75,
0,pause,0.4,None,None,None,0,331,331,331,,,,,,,,,,,,N003,digit,5,"['6', '7', '8', '9']","['1', '2', '3', '4']",1,2023.2.3,harveydigits,2.1,[],8,0.75,
2,digit,0.3,['dot'],['small_1'],black,0,332,332,332,,,118.60023903846741,118.32001686096191,118.62001204490662,"[[-0.33046545765101776, -0.09038728550979837]]",['DejaVu Sans'],[0.6],,,,N003,digit,5,"['6', '7', '8', '9']","['1', '2', '3', '4']",1,2023.2.3,harveydigits,2.1,[],8,0.75,
0,pause,0.4,None,None,None,0,333,333,333,,,,,,,,,,,,N003,digit,5,"['6', '7', '8', '9']","['1', '2', '3', '4']",1,2023.2.3,harveydigits,2.1,[],8,0.75,
2,digit,0.3,['dot'],['small_1'],black,0,334,334,334,,,119.30023789405823,119.01999092102051,119.31999087333679,"[[-0.20138979817137784, -0.018129883444710282]]",['DejaVu Sans'],[0.6],,,,N003,digit,5,"['6', '7', '8', '9']","['1', '2', '3', '4']",1,2023.2.3,harveydigits,2.1,[],8,0.75,
0,pause,0.4,None,None,None,0,335,335,335,,,,,,,,,,,,N003,digit,5,"['6', '7', '8', '9']","['1', '2', '3', '4']",1,2023.2.3,harveydigits,2.1,[],8,0.75,
3,digit,0.3,['dot'],['small_1'],white,0,336,336,336,,,120.0002338886261,119.72109603881836,120.01996898651123,"[[0.3427052495952847, 0.0007367049297094114]]",['DejaVu Sans'],[0.6],,,,N003,digit,5,"['6', '7', '8', '9']","['1', '2', '3', '4']",1,2023.2.3,harveydigits,2.1,[],8,0.75,
0,pause,0.4,None,None,None,0,337,337,337,,,,,,,,,,,,N003,digit,5,"['6', '7', '8', '9']","['1', '2', '3', '4']",1,2023.2.3,harveydigits,2.1,[],8,0.75,
3,digit,0.3,['dot'],['small_1'],white,0,338,338,338,,,120.70027995109558,120.41996192932129,120.71994400024414,"[[0.020141266175173034, 0.18867658378425373]]",['DejaVu Sans'],[0.6],left,odd,119.97289991378784,N003,digit,5,"['6', '7', '8', '9']","['1', '2', '3', '4']",1,2023.2.3,harveydigits,2.1,[],8,0.75,
0,pause,0.4,None,None,None,0,339,339,339,,,,,,,,,,,,N003,digit,5,"['6', '7', '8', '9']","['1', '2', '3', '4']",1,2023.2.3,harveydigits,2.1,[],8,0.75,
3,digit,0.3,['dot'],['small_1'],white,0,340,340,340,,,121.40028595924377,121.11994791030884,121.41992807388306,"[[-0.32185762438351906, -0.014515359979071468]]",['DejaVu Sans'],[0.6],left,odd,120.48996186256409,N003,digit,5,"['6', '7', '8', '9']","['1', '2', '3', '4']",1,2023.2.3,harveydigits,2.1,[],8,0.75,
0,pause,0.4,None,None,None,0,341,341,341,,,,,,,,,,,,N003,digit,5,"['6', '7', '8', '9']","['1', '2', '3', '4']",1,2023.2.3,harveydigits,2.1,[],8,0.75,
3,digit,0.3,['dot'],['small_1'],white,0,342,342,342,,,122.10028195381165,121.81991386413574,122.12104296684265,"[[-0.10671702767517416, 0.32381577401053924]]",['DejaVu Sans'],[0.6],left,odd,121.10306787490845,N003,digit,5,"['6', '7', '8', '9']","['1', '2', '3', '4']",1,2023.2.3,harveydigits,2.1,[],8,0.75,
0,pause,0.4,None,None,None,0,343,343,343,,,,,,,,,,,,N003,digit,5,"['6', '7', '8', '9']","['1', '2', '3', '4']",1,2023.2.3,harveydigits,2.1,[],8,0.75,
3,digit,0.3,['dot'],['small_1'],white,0,344,344,344,,,122.80029487609863,122.51991105079651,122.81993889808655,"[[-0.02342248663990637, -0.3009813507800809]]",['DejaVu Sans'],[0.6],left,odd,121.7191469669342,N003,digit,5,"['6', '7', '8', '9']","['1', '2', '3', '4']",1,2023.2.3,harveydigits,2.1,[],8,0.75,
0,pause,0.4,None,None,None,0,345,345,345,,,,,,,,,,,,N003,digit,5,"['6', '7', '8', '9']","['1', '2', '3', '4']",1,2023.2.3,harveydigits,2.1,[],8,0.75,
3,digit,0.3,['dot'],['small_1'],white,0,346,346,346,,,123.50029301643372,123.21988701820374,123.51993298530579,"[[0.16143613990085426, -0.023396320416230743]]",['DejaVu Sans'],[0.6],left,odd,122.95428395271301,N003,digit,5,"['6', '7', '8', '9']","['1', '2', '3', '4']",1,2023.2.3,harveydigits,2.1,[],8,0.75,
0,pause,0.4,None,None,None,0,347,347,347,,,,,,,,,,,,N003,digit,5,"['6', '7', '8', '9']","['1', '2', '3', '4']",1,2023.2.3,harveydigits,2.1,[],8,0.75,
4,digit,0.3,['dot'],['small_1'],black,0,348,348,348,,,124.20023107528687,123.91989302635193,124.21989703178406,"[[0.1346162297809248, -0.21516273283636136]]",['DejaVu Sans'],[0.6],,,,N003,digit,5,"['6', '7', '8', '9']","['1', '2', '3', '4']",1,2023.2.3,harveydigits,2.1,[],8,0.75,
0,pause,0.4,None,None,None,0,349,349,349,,,,,,,,,,,,N003,digit,5,"['6', '7', '8', '9']","['1', '2', '3', '4']",1,2023.2.3,harveydigits,2.1,[],8,0.75,
4,digit,0.3,['dot'],['small_1'],black,0,350,350,350,,,124.90023493766785,124.6200020313263,124.91987299919128,"[[-0.2905851188247109, -0.0567340808885069]]",['DejaVu Sans'],[0.6],,,,N003,digit,5,"['6', '7', '8', '9']","['1', '2', '3', '4']",1,2023.2.3,harveydigits,2.1,[],8,0.75,
0,pause,0.4,None,None,None,0,351,351,351,,,,,,,,,,,,N003,digit,5,"['6', '7', '8', '9']","['1', '2', '3', '4']",1,2023.2.3,harveydigits,2.1,[],8,0.75,
4,digit,0.3,['dot'],['small_1'],black,0,352,352,352,,,125.60023403167725,125.31989789009094,125.61981105804443,"[[0.0871814745420087, 0.3375007164726623]]",['DejaVu Sans'],[0.6],,,,N003,digit,5,"['6', '7', '8', '9']","['1', '2', '3', '4']",1,2023.2.3,harveydigits,2.1,[],8,0.75,
0,pause,0.4,None,None,None,0,353,353,353,,,,,,,,,,,,N003,digit,5,"['6', '7', '8', '9']","['1', '2', '3', '4']",1,2023.2.3,harveydigits,2.1,[],8,0.75,
4,digit,0.3,['dot'],['small_1'],black,0,354,354,354,,,126.30023288726807,126.0198118686676,126.31982898712158,"[[0.10685918900705388, 0.195031206067315]]",['DejaVu Sans'],[0.6],,,,N003,digit,5,"['6', '7', '8', '9']","['1', '2', '3', '4']",1,2023.2.3,harveydigits,2.1,[],8,0.75,
0,pause,0.4,None,None,None,0,355,355,355,,,,,,,,,,,,N003,digit,5,"['6', '7', '8', '9']","['1', '2', '3', '4']",1,2023.2.3,harveydigits,2.1,[],8,0.75,
4,digit,0.3,['dot'],['small_1'],black,0,356,356,356,,,127.0002429485321,126.71980404853821,127.01978898048401,"[[0.0401914595708982, 0.02372027204026833]]",['DejaVu Sans'],[0.6],,,,N003,digit,5,"['6', '7', '8', '9']","['1', '2', '3', '4']",1,2023.2.3,harveydigits,2.1,[],8,0.75,
0,pause,0.4,None,None,None,0,357,357,357,,,,,,,,,,,,N003,digit,5,"['6', '7', '8', '9']","['1', '2', '3', '4']",1,2023.2.3,harveydigits,2.1,[],8,0.75,
4,digit,0.3,['dot'],['small_1'],black,0,358,358,358,,,127.70025491714478,127.41978597640991,127.71977400779724,"[[0.279895533032386, 0.1772275085220085]]",['DejaVu Sans'],[0.6],,,,N003,digit,5,"['6', '7', '8', '9']","['1', '2', '3', '4']",1,2023.2.3,harveydigits,2.1,[],8,0.75,
0,pause,0.4,None,None,None,0,359,359,359,,,,,,,,,,,,N003,digit,5,"['6', '7', '8', '9']","['1', '2', '3', '4']",1,2023.2.3,harveydigits,2.1,[],8,0.75,
5,digit,0.3,['dot'],['small_1'],black,0,360,360,360,,,128.40023398399353,128.12066006660461,128.41976809501648,"[[0.017029078079046245, 0.23054063951268827]]",['DejaVu Sans'],[0.6],,,,N003,digit,5,"['6', '7', '8', '9']","['1', '2', '3', '4']",1,2023.2.3,harveydigits,2.1,[],8,0.75,
0,pause,0.4,None,None,None,0,361,361,361,,,,,,,,,,,,N003,digit,5,"['6', '7', '8', '9']","['1', '2', '3', '4']",1,2023.2.3,harveydigits,2.1,[],8,0.75,
5,digit,0.3,['dot'],['small_1'],black,0,362,362,362,,,129.10023188591003,128.81976890563965,129.11974596977234,"[[0.02820897454804644, 0.14728131590284954]]",['DejaVu Sans'],[0.6],,,,N003,digit,5,"['6', '7', '8', '9']","['1', '2', '3', '4']",1,2023.2.3,harveydigits,2.1,[],8,0.75,
0,pause,0.4,None,None,None,0,363,363,363,,,,,,,,,,,,N003,digit,5,"['6', '7', '8', '9']","['1', '2', '3', '4']",1,2023.2.3,harveydigits,2.1,[],8,0.75,
5,digit,0.3,['dot'],['small_1'],black,0,364,364,364,,,129.80025601387024,129.51975297927856,129.81974601745605,"[[0.1072802025997518, 0.048521297711253186]]",['DejaVu Sans'],[0.6],,,,N003,digit,5,"['6', '7', '8', '9']","['1', '2', '3', '4']",1,2023.2.3,harveydigits,2.1,[],8,0.75,
0,pause,0.4,None,None,None,0,365,365,365,,,,,,,,,,,,N003,digit,5,"['6', '7', '8', '9']","['1', '2', '3', '4']",1,2023.2.3,harveydigits,2.1,[],8,0.75,
5,digit,0.3,['dot'],['small_1'],black,0,366,366,366,,,130.5002498626709,130.21970987319946,130.519700050354,"[[0.09031424105671226, 0.10792138818664687]]",['DejaVu Sans'],[0.6],,,,N003,digit,5,"['6', '7', '8', '9']","['1', '2', '3', '4']",1,2023.2.3,harveydigits,2.1,[],8,0.75,
0,pause,0.4,None,None,None,0,367,367,367,,,,,,,,,,,,N003,digit,5,"['6', '7', '8', '9']","['1', '2', '3', '4']",1,2023.2.3,harveydigits,2.1,[],8,0.75,
5,digit,0.3,['dot'],['small_1'],black,0,368,368,368,,,131.20023202896118,130.9196960926056,131.21968603134155,"[[-0.08677186791351355, 0.13948265553204453]]",['DejaVu Sans'],[0.6],,,,N003,digit,5,"['6', '7', '8', '9']","['1', '2', '3', '4']",1,2023.2.3,harveydigits,2.1,[],8,0.75,
0,pause,0.4,None,None,None,0,369,369,369,,,,,,,,,,,,N003,digit,5,"['6', '7', '8', '9']","['1', '2', '3', '4']",1,2023.2.3,harveydigits,2.1,[],8,0.75,
5,digit,0.3,['dot'],['small_1'],black,0,370,370,370,,,131.9002389907837,131.61968088150024,131.91966605186462,"[[-0.2875900644514436, -0.11050450636730498]]",['DejaVu Sans'],[0.6],,,,N003,digit,5,"['6', '7', '8', '9']","['1', '2', '3', '4']",1,2023.2.3,harveydigits,2.1,[],8,0.75,
0,pause,0.4,None,None,None,0,371,371,371,,,,,,,,,,,,N003,digit,5,"['6', '7', '8', '9']","['1', '2', '3', '4']",1,2023.2.3,harveydigits,2.1,[],8,0.75,
6,digit,0.3,['dot'],['small_1'],black,0,372,372,372,,,132.60026001930237,132.319659948349,132.62058687210083,"[[0.17997156440689321, -0.2857502912858259]]",['DejaVu Sans'],[0.6],,,,N003,digit,5,"['6', '7', '8', '9']","['1', '2', '3', '4']",1,2023.2.3,harveydigits,2.1,[],8,0.75,
0,pause,0.4,None,None,None,0,373,373,373,,,,,,,,,,,,N003,digit,5,"['6', '7', '8', '9']","['1', '2', '3', '4']",1,2023.2.3,harveydigits,2.1,[],8,0.75,
6,digit,0.3,['dot'],['small_1'],black,0,374,374,374,,,133.3002588748932,133.0196349620819,133.319650888443,"[[-0.3357384618632915, 0.025625792672417852]]",['DejaVu Sans'],[0.6],,,,N003,digit,5,"['6', '7', '8', '9']","['1', '2', '3', '4']",1,2023.2.3,harveydigits,2.1,[],8,0.75,
0,pause,0.4,None,None,None,0,375,375,375,,,,,,,,,,,,N003,digit,5,"['6', '7', '8', '9']","['1', '2', '3', '4']",1,2023.2.3,harveydigits,2.1,[],8,0.75,
6,digit,0.3,['dot'],['small_1'],black,0,376,376,376,,,134.00023102760315,133.7196159362793,134.01961708068848,"[[0.3197665704177579, 0.09898998030196268]]",['DejaVu Sans'],[0.6],,,,N003,digit,5,"['6', '7', '8', '9']","['1', '2', '3', '4']",1,2023.2.3,harveydigits,2.1,[],8,0.75,
0,pause,0.4,None,None,None,0,377,377,377,,,,,,,,,,,,N003,digit,5,"['6', '7', '8', '9']","['1', '2', '3', '4']",1,2023.2.3,harveydigits,2.1,[],8,0.75,
6,digit,0.3,['dot'],['small_1'],black,0,378,378,378,,,134.700257062912,134.41961097717285,134.71959686279297,"[[0.29675800130988605, -0.15621495667369661]]",['DejaVu Sans'],[0.6],,,,N003,digit,5,"['6', '7', '8', '9']","['1', '2', '3', '4']",1,2023.2.3,harveydigits,2.1,[],8,0.75,
0,pause,0.4,None,None,None,0,379,379,379,,,,,,,,,,,,N003,digit,5,"['6', '7', '8', '9']","['1', '2', '3', '4']",1,2023.2.3,harveydigits,2.1,[],8,0.75,
6,digit,0.3,['dot'],['small_1'],black,0,380,380,380,,,135.40025305747986,135.11957597732544,135.41956186294556,"[[0.2345982710610135, -0.09968509170636339]]",['DejaVu Sans'],[0.6],,,,N003,digit,5,"['6', '7', '8', '9']","['1', '2', '3', '4']",1,2023.2.3,harveydigits,2.1,[],8,0.75,
0,pause,0.4,None,None,None,0,381,381,381,,,,,,,,,,,,N003,digit,5,"['6', '7', '8', '9']","['1', '2', '3', '4']",1,2023.2.3,harveydigits,2.1,[],8,0.75,
6,digit,0.3,['dot'],['small_1'],black,0,382,382,382,,,136.10024905204773,135.81957697868347,136.1195628643036,"[[0.2663096657986259, -0.18661562901422776]]",['DejaVu Sans'],[0.6],,,,N003,digit,5,"['6', '7', '8', '9']","['1', '2', '3', '4']",1,2023.2.3,harveydigits,2.1,[],8,0.75,
0,pause,0.4,None,None,None,0,383,383,383,,,,,,,,,,,,N003,digit,5,"['6', '7', '8', '9']","['1', '2', '3', '4']",1,2023.2.3,harveydigits,2.1,[],8,0.75,
7,digit,0.3,['dot'],['small_1'],black,0,384,384,384,,,136.80025601387024,136.51956605911255,136.8195378780365,"[[0.15240820491632923, -0.21126246847059288]]",['DejaVu Sans'],[0.6],,,,N003,digit,5,"['6', '7', '8', '9']","['1', '2', '3', '4']",1,2023.2.3,harveydigits,2.1,[],8,0.75,
0,pause,0.4,None,None,None,0,385,385,385,,,,,,,,,,,,N003,digit,5,"['6', '7', '8', '9']","['1', '2', '3', '4']",1,2023.2.3,harveydigits,2.1,[],8,0.75,
7,digit,0.3,['dot'],['small_1'],black,0,386,386,386,,,137.5002520084381,137.2195270061493,137.51951909065247,"[[0.16938339520538304, -0.13383409017291306]]",['DejaVu Sans'],[0.6],,,,N003,digit,5,"['6', '7', '8', '9']","['1', '2', '3', '4']",1,2023.2.3,harveydigits,2.1,[],8,0.75,
0,pause,0.4,None,None,None,0,387,387,387,,,,,,,,,,,,N003,digit,5,"['6', '7', '8', '9']","['1', '2', '3', '4']",1,2023.2.3,harveydigits,2.1,[],8,0.75,
7,digit,0.3,['dot'],['small_1'],black,0,388,388,388,,,138.20026302337646,137.91949892044067,138.21955108642578,"[[0.02072465436553167, -0.06703683163012664]]",['DejaVu Sans'],[0.6],,,,N003,digit,5,"['6', '7', '8', '9']","['1', '2', '3', '4']",1,2023.2.3,harveydigits,2.1,[],8,0.75,
0,pause,0.4,None,None,None,0,389,389,389,,,,,,,,,,,,N003,digit,5,"['6', '7', '8', '9']","['1', '2', '3', '4']",1,2023.2.3,harveydigits,2.1,[],8,0.75,
7,digit,0.3,['dot'],['small_1'],black,0,390,390,390,,,138.9002389907837,138.61951994895935,138.9194929599762,"[[-0.2678545697646445, -0.03811193949444017]]",['DejaVu Sans'],[0.6],,,,N003,digit,5,"['6', '7', '8', '9']","['1', '2', '3', '4']",1,2023.2.3,harveydigits,2.1,[],8,0.75,
0,pause,0.4,None,None,None,0,391,391,391,,,,,,,,,,,,N003,digit,5,"['6', '7', '8', '9']","['1', '2', '3', '4']",1,2023.2.3,harveydigits,2.1,[],8,0.75,
7,digit,0.3,['dot'],['small_1'],black,0,392,392,392,,,139.60026001930237,139.31948590278625,139.61965894699097,"[[-0.16392941171805617, -0.08463882641267365]]",['DejaVu Sans'],[0.6],,,,N003,digit,5,"['6', '7', '8', '9']","['1', '2', '3', '4']",1,2023.2.3,harveydigits,2.1,[],8,0.75,
0,pause,0.4,None,None,None,0,393,393,393,,,,,,,,,,,,N003,digit,5,"['6', '7', '8', '9']","['1', '2', '3', '4']",1,2023.2.3,harveydigits,2.1,[],8,0.75,
7,digit,0.3,['dot'],['small_1'],black,0,394,394,394,,,140.3002369403839,140.019455909729,140.31946086883545,"[[0.16513680486877658, -0.10061970474400658]]",['DejaVu Sans'],[0.6],,,,N003,digit,5,"['6', '7', '8', '9']","['1', '2', '3', '4']",1,2023.2.3,harveydigits,2.1,[],8,0.75,
0,pause,0.4,None,None,None,0,395,395,395,,,,,,,,,,,,N003,digit,5,"['6', '7', '8', '9']","['1', '2', '3', '4']",1,2023.2.3,harveydigits,2.1,[],8,0.75,
8,digit,0.3,['dot'],['small_1'],black,0,396,396,396,,,141.00024104118347,140.71943998336792,141.01944303512573,"[[-0.2504367855987546, -0.1224544943886148]]",['DejaVu Sans'],[0.6],,,,N003,digit,5,"['6', '7', '8', '9']","['1', '2', '3', '4']",1,2023.2.3,harveydigits,2.1,[],8,0.75,
0,pause,0.4,None,None,None,0,397,397,397,,,,,,,,,,,,N003,digit,5,"['6', '7', '8', '9']","['1', '2', '3', '4']",1,2023.2.3,harveydigits,2.1,[],8,0.75,
8,digit,0.3,['dot'],['small_1'],black,0,398,398,398,,,141.70023608207703,141.41943502426147,141.71941709518433,"[[0.024575671166267354, 0.18880032456876888]]",['DejaVu Sans'],[0.6],,,,N003,digit,5,"['6', '7', '8', '9']","['1', '2', '3', '4']",1,2023.2.3,harveydigits,2.1,[],8,0.75,
0,pause,0.4,None,None,None,0,399,399,399,,,,,,,,,,,,N003,digit,5,"['6', '7', '8', '9']","['1', '2', '3', '4']",1,2023.2.3,harveydigits,2.1,[],8,0.75,
8,digit,0.3,['dot'],['small_1'],black,0,400,400,400,,,142.4002320766449,142.11940503120422,142.41938996315002,"[[0.3103954087545421, 0.1320467793037324]]",['DejaVu Sans'],[0.6],,,,N003,digit,5,"['6', '7', '8', '9']","['1', '2', '3', '4']",1,2023.2.3,harveydigits,2.1,[],8,0.75,
0,pause,0.4,None,None,None,0,401,401,401,,,,,,,,,,,,N003,digit,5,"['6', '7', '8', '9']","['1', '2', '3', '4']",1,2023.2.3,harveydigits,2.1,[],8,0.75,
8,digit,0.3,['dot'],['small_1'],black,0,402,402,402,,,143.10023307800293,142.8193759918213,143.11937594413757,"[[0.20683801046306982, -0.24274165912189208]]",['DejaVu Sans'],[0.6],,,,N003,digit,5,"['6', '7', '8', '9']","['1', '2', '3', '4']",1,2023.2.3,harveydigits,2.1,[],8,0.75,
0,pause,0.4,None,None,None,0,403,403,403,,,,,,,,,,,,N003,digit,5,"['6', '7', '8', '9']","['1', '2', '3', '4']",1,2023.2.3,harveydigits,2.1,[],8,0.75,
8,digit,0.3,['dot'],['small_1'],black,0,404,404,404,,,143.80024600028992,143.51937198638916,143.81936287879944,"[[0.23117845017076655, -0.2602314216176139]]",['DejaVu Sans'],[0.6],,,,N003,digit,5,"['6', '7', '8', '9']","['1', '2', '3', '4']",1,2023.2.3,harveydigits,2.1,[],8,0.75,
0,pause,0.4,None,None,None,0,405,405,405,,,,,,,,,,,,N003,digit,5,"['6', '7', '8', '9']","['1', '2', '3', '4']",1,2023.2.3,harveydigits,2.1,[],8,0.75,
8,digit,0.3,['dot'],['small_1'],black,0,406,406,406,,,144.5002498626709,144.21939897537231,144.51932907104492,"[[0.10604586347713657, 0.07059121008063379]]",['DejaVu Sans'],[0.6],,,,N003,digit,5,"['6', '7', '8', '9']","['1', '2', '3', '4']",1,2023.2.3,harveydigits,2.1,[],8,0.75,
0,pause,0.4,None,None,None,0,407,407,407,,,,,,,,,,,,N003,digit,5,"['6', '7', '8', '9']","['1', '2', '3', '4']",1,2023.2.3,harveydigits,2.1,[],8,0.75,
9,digit,0.3,['dot'],['small_1'],black,0,408,408,408,,,145.20024800300598,144.9193160533905,145.21933102607727,"[[-0.24688590919335357, -0.16370435049141033]]",['DejaVu Sans'],[0.6],,,,N003,digit,5,"['6', '7', '8', '9']","['1', '2', '3', '4']",1,2023.2.3,harveydigits,2.1,[],8,0.75,
0,pause,0.4,None,None,None,0,409,409,409,,,,,,,,,,,,N003,digit,5,"['6', '7', '8', '9']","['1', '2', '3', '4']",1,2023.2.3,harveydigits,2.1,[],8,0.75,
9,digit,0.3,['dot'],['small_1'],black,0,410,410,410,,,145.90025401115417,145.61933302879333,145.91929697990417,"[[0.13349541814820692, 0.22381469515526942]]",['DejaVu Sans'],[0.6],,,,N003,digit,5,"['6', '7', '8', '9']","['1', '2', '3', '4']",1,2023.2.3,harveydigits,2.1,[],8,0.75,
0,pause,0.4,None,None,None,0,411,411,411,,,,,,,,,,,,N003,digit,5,"['6', '7', '8', '9']","['1', '2', '3', '4']",1,2023.2.3,harveydigits,2.1,[],8,0.75,
9,digit,0.3,['dot'],['small_1'],black,0,412,412,412,,,146.6002390384674,146.31928491592407,146.61931705474854,"[[-0.16701496395858553, -0.011486368731935703]]",['DejaVu Sans'],[0.6],,,,N003,digit,5,"['6', '7', '8', '9']","['1', '2', '3', '4']",1,2023.2.3,harveydigits,2.1,[],8,0.75,
0,pause,0.4,None,None,None,0,413,413,413,,,,,,,,,,,,N003,digit,5,"['6', '7', '8', '9']","['1', '2', '3', '4']",1,2023.2.3,harveydigits,2.1,[],8,0.75,
9,digit,0.3,['dot'],['small_1'],black,0,414,414,414,,,147.3002588748932,147.0193099975586,147.31931495666504,"[[0.3289182230557701, -0.003449813875791019]]",['DejaVu Sans'],[0.6],,,,N003,digit,5,"['6', '7', '8', '9']","['1', '2', '3', '4']",1,2023.2.3,harveydigits,2.1,[],8,0.75,
0,pause,0.4,None,None,None,0,415,415,415,,,,,,,,,,,,N003,digit,5,"['6', '7', '8', '9']","['1', '2', '3', '4']",1,2023.2.3,harveydigits,2.1,[],8,0.75,
9,digit,0.3,['dot'],['small_1'],black,0,416,416,416,,,148.00026297569275,147.71927094459534,148.01926708221436,"[[0.12546039033202527, -0.034495998113638515]]",['DejaVu Sans'],[0.6],,,,N003,digit,5,"['6', '7', '8', '9']","['1', '2', '3', '4']",1,2023.2.3,harveydigits,2.1,[],8,0.75,
0,pause,0.4,None,None,None,0,417,417,417,,,,,,,,,,,,N003,digit,5,"['6', '7', '8', '9']","['1', '2', '3', '4']",1,2023.2.3,harveydigits,2.1,[],8,0.75,
9,digit,0.3,['dot'],['small_1'],black,0,418,418,418,,,148.70026206970215,148.41926789283752,148.71924495697021,"[[-0.14709074417604784, 0.06840002990138916]]",['DejaVu Sans'],[0.6],,,,N003,digit,5,"['6', '7', '8', '9']","['1', '2', '3', '4']",1,2023.2.3,harveydigits,2.1,[],8,0.75,
0,pause,0.4,None,None,None,0,419,419,419,,,,,,,,,,,,N003,digit,5,"['6', '7', '8', '9']","['1', '2', '3', '4']",1,2023.2.3,harveydigits,2.1,[],8,0.75,
20,digit,0.3,['dot'],['small_1'],black,0,420,420,420,,,149.40026187896729,149.11922907829285,149.4192419052124,"[[0.051751206291567375, -0.0601070601781985]]",['DejaVu Sans'],[0.6],,,,N003,digit,5,"['6', '7', '8', '9']","['1', '2', '3', '4']",1,2023.2.3,harveydigits,2.1,[],8,0.75,
0,pause,0.4,None,None,None,0,421,421,421,,,,,,,,,,,,N003,digit,5,"['6', '7', '8', '9']","['1', '2', '3', '4']",1,2023.2.3,harveydigits,2.1,[],8,0.75,
20,digit,0.3,['dot'],['small_1'],black,0,422,422,422,,,150.10023999214172,149.81922602653503,150.12015509605408,"[[0.324157841340628, -0.101025310207879]]",['DejaVu Sans'],[0.6],,,,N003,digit,5,"['6', '7', '8', '9']","['1', '2', '3', '4']",1,2023.2.3,harveydigits,2.1,[],8,0.75,
0,pause,0.4,None,None,None,0,423,423,423,,,,,,,,,,,,N003,digit,5,"['6', '7', '8', '9']","['1', '2', '3', '4']",1,2023.2.3,harveydigits,2.1,[],8,0.75,
20,digit,0.3,['dot'],['small_1'],black,0,424,424,424,,,150.8002359867096,150.51921105384827,150.8191978931427,"[[0.27550839164805196, -0.1349463140437909]]",['DejaVu Sans'],[0.6],,,,N003,digit,5,"['6', '7', '8', '9']","['1', '2', '3', '4']",1,2023.2.3,harveydigits,2.1,[],8,0.75,
0,pause,0.4,None,None,None,0,425,425,425,,,,,,,,,,,,N003,digit,5,"['6', '7', '8', '9']","['1', '2', '3', '4']",1,2023.2.3,harveydigits,2.1,[],8,0.75,
20,digit,0.3,['dot'],['small_1'],black,0,426,426,426,,,151.50024890899658,151.21919298171997,151.51915407180786,"[[-0.2372413397561398, 0.08696536002586602]]",['DejaVu Sans'],[0.6],,,,N003,digit,5,"['6', '7', '8', '9']","['1', '2', '3', '4']",1,2023.2.3,harveydigits,2.1,[],8,0.75,
0,pause,0.4,None,None,None,0,427,427,427,,,,,,,,,,,,N003,digit,5,"['6', '7', '8', '9']","['1', '2', '3', '4']",1,2023.2.3,harveydigits,2.1,[],8,0.75,
20,digit,0.3,['dot'],['small_1'],black,0,428,428,428,,,152.20026302337646,151.91915202140808,152.21913886070251,"[[-0.1946254663743695, -0.20951220533776882]]",['DejaVu Sans'],[0.6],,,,N003,digit,5,"['6', '7', '8', '9']","['1', '2', '3', '4']",1,2023.2.3,harveydigits,2.1,[],8,0.75,
0,pause,0.4,None,None,None,0,429,429,429,,,,,,,,,,,,N003,digit,5,"['6', '7', '8', '9']","['1', '2', '3', '4']",1,2023.2.3,harveydigits,2.1,[],8,0.75,
20,digit,0.3,['dot'],['small_1'],black,0,430,430,430,,,152.900239944458,152.61915707588196,152.9191119670868,"[[-0.2677256328069456, 0.12880039768854917]]",['DejaVu Sans'],[0.6],,,,N003,digit,5,"['6', '7', '8', '9']","['1', '2', '3', '4']",1,2023.2.3,harveydigits,2.1,[],8,0.75,
0,pause,0.4,None,None,None,0,431,431,431,,,,,,,,,,,,N003,digit,5,"['6', '7', '8', '9']","['1', '2', '3', '4']",1,2023.2.3,harveydigits,2.1,[],8,0.75,
20,digit,0.3,['dot'],['small_1'],black,0,432,432,432,,,153.60025787353516,153.3191180229187,153.61910486221313,"[[-0.2744116533010484, 0.2030544938364609]]",['DejaVu Sans'],[0.6],,,,N003,digit,5,"['6', '7', '8', '9']","['1', '2', '3', '4']",1,2023.2.3,harveydigits,2.1,[],8,0.75,
0,pause,0.4,None,None,None,0,433,433,433,,,,,,,,,,,,N003,digit,5,"['6', '7', '8', '9']","['1', '2', '3', '4']",1,2023.2.3,harveydigits,2.1,[],8,0.75,
20,digit,0.3,['dot'],['small_1'],black,0,434,434,434,,,154.30026388168335,154.0191080570221,154.31909203529358,"[[-0.1145149835961142, -0.24531989311627284]]",['DejaVu Sans'],[0.6],,,,N003,digit,5,"['6', '7', '8', '9']","['1', '2', '3', '4']",1,2023.2.3,harveydigits,2.1,[],8,0.75,
0,pause,0.4,None,None,None,0,435,435,435,,,,,,,,,,,,N003,digit,5,"['6', '7', '8', '9']","['1', '2', '3', '4']",1,2023.2.3,harveydigits,2.1,[],8,0.75,
20,digit,0.3,['dot'],['small_1'],black,0,436,436,436,,,155.00024008750916,154.71910691261292,155.01909494400024,"[[0.007998692900653692, -0.2118836279930489]]",['DejaVu Sans'],[0.6],,,,N003,digit,5,"['6', '7', '8', '9']","['1', '2', '3', '4']",1,2023.2.3,harveydigits,2.1,[],8,0.75,
0,pause,0.4,None,None,None,0,437,437,437,,,,,,,,,,,,N003,digit,5,"['6', '7', '8', '9']","['1', '2', '3', '4']",1,2023.2.3,harveydigits,2.1,[],8,0.75,
20,digit,0.3,['dot'],['small_1'],black,0,438,438,438,,,155.70023798942566,155.41907405853271,155.71908807754517,"[[0.21782010664023788, -0.01202086469413638]]",['DejaVu Sans'],[0.6],,,,N003,digit,5,"['6', '7', '8', '9']","['1', '2', '3', '4']",1,2023.2.3,harveydigits,2.1,[],8,0.75,
0,pause,0.4,None,None,None,0,439,439,439,,,,,,,,,,,,N003,digit,5,"['6', '7', '8', '9']","['1', '2', '3', '4']",1,2023.2.3,harveydigits,2.1,[],8,0.75,
20,digit,0.3,['dot'],['small_1'],black,0,440,440,440,,,156.40026807785034,156.11905908584595,156.41904997825623,"[[0.09255489459673805, -0.14365469699354289]]",['DejaVu Sans'],[0.6],,,,N003,digit,5,"['6', '7', '8', '9']","['1', '2', '3', '4']",1,2023.2.3,harveydigits,2.1,[],8,0.75,
0,pause,0.4,None,None,None,0,441,441,441,,,,,,,,,,,,N003,digit,5,"['6', '7', '8', '9']","['1', '2', '3', '4']",1,2023.2.3,harveydigits,2.1,[],8,0.75,
20,digit,0.3,['dot'],['small_1'],black,0,442,442,442,,,157.100252866745,156.81904697418213,157.1201639175415,"[[0.20807468866570789, -0.10072112411645762]]",['DejaVu Sans'],[0.6],,,,N003,digit,5,"['6', '7', '8', '9']","['1', '2', '3', '4']",1,2023.2.3,harveydigits,2.1,[],8,0.75,
0,pause,0.4,None,None,None,0,443,443,443,,,,,,,,,,,,N003,digit,5,"['6', '7', '8', '9']","['1', '2', '3', '4']",1,2023.2.3,harveydigits,2.1,[],8,0.75,
20,digit,0.3,['dot'],['small_1'],black,0,444,444,444,,,157.8002450466156,157.51902103424072,157.8190200328827,"[[-0.23753407405309634, -0.07034369661551013]]",['DejaVu Sans'],[0.6],,,,N003,digit,5,"['6', '7', '8', '9']","['1', '2', '3', '4']",1,2023.2.3,harveydigits,2.1,[],8,0.75,
0,pause,0.4,None,None,None,0,445,445,445,,,,,,,,,,,,N003,digit,5,"['6', '7', '8', '9']","['1', '2', '3', '4']",1,2023.2.3,harveydigits,2.1,[],8,0.75,
20,digit,0.3,['dot'],['small_1'],black,0,446,446,446,,,158.5002419948578,158.21900391578674,158.51898193359375,"[[0.038500274822240166, -0.09221077898607788]]",['DejaVu Sans'],[0.6],,,,N003,digit,5,"['6', '7', '8', '9']","['1', '2', '3', '4']",1,2023.2.3,harveydigits,2.1,[],8,0.75,
0,pause,0.4,None,None,None,0,447,447,447,,,,,,,,,,,,N003,digit,5,"['6', '7', '8', '9']","['1', '2', '3', '4']",1,2023.2.3,harveydigits,2.1,[],8,0.75,
20,digit,0.3,['dot'],['small_1'],black,0,448,448,448,,,159.2002398967743,158.9190080165863,159.21896290779114,"[[0.24708688318326433, 0.13956496844658625]]",['DejaVu Sans'],[0.6],,,,N003,digit,5,"['6', '7', '8', '9']","['1', '2', '3', '4']",1,2023.2.3,harveydigits,2.1,[],8,0.75,
0,pause,0.4,None,None,None,0,449,449,449,,,,,,,,,,,,N003,digit,5,"['6', '7', '8', '9']","['1', '2', '3', '4']",1,2023.2.3,harveydigits,2.1,[],8,0.75,
20,digit,0.3,['dot'],['small_1'],black,0,450,450,450,,,159.90025091171265,159.61894702911377,159.91893887519836,"[[0.1418590369847334, 0.08329006607475747]]",['DejaVu Sans'],[0.6],,,,N003,digit,5,"['6', '7', '8', '9']","['1', '2', '3', '4']",1,2023.2.3,harveydigits,2.1,[],8,0.75,
0,pause,0.4,None,None,None,0,451,451,451,,,,,,,,,,,,N003,digit,5,"['6', '7', '8', '9']","['1', '2', '3', '4']",1,2023.2.3,harveydigits,2.1,[],8,0.75,
20,digit,0.3,['dot'],['small_1'],black,0,452,452,452,,,160.6002459526062,160.32006692886353,160.61892294883728,"[[-0.043918818225553824, -0.0996417398766038]]",['DejaVu Sans'],[0.6],,,,N003,digit,5,"['6', '7', '8', '9']","['1', '2', '3', '4']",1,2023.2.3,harveydigits,2.1,[],8,0.75,
0,pause,0.4,None,None,None,0,453,453,453,,,,,,,,,,,,N003,digit,5,"['6', '7', '8', '9']","['1', '2', '3', '4']",1,2023.2.3,harveydigits,2.1,[],8,0.75,
20,digit,0.3,['dot'],['small_1'],black,0,454,454,454,,,161.30026388168335,161.0189230442047,161.31892800331116,"[[0.2079998808921032, 0.13195835556653096]]",['DejaVu Sans'],[0.6],,,,N003,digit,5,"['6', '7', '8', '9']","['1', '2', '3', '4']",1,2023.2.3,harveydigits,2.1,[],8,0.75,
0,pause,0.4,None,None,None,0,455,455,455,,,,,,,,,,,,N003,digit,5,"['6', '7', '8', '9']","['1', '2', '3', '4']",1,2023.2.3,harveydigits,2.1,[],8,0.75,
20,digit,0.3,['dot'],['small_1'],black,0,456,456,456,,,162.00024795532227,161.71890997886658,162.01891994476318,"[[-0.3262077488245977, 0.005628964171489226]]",['DejaVu Sans'],[0.6],,,,N003,digit,5,"['6', '7', '8', '9']","['1', '2', '3', '4']",1,2023.2.3,harveydigits,2.1,[],8,0.75,
0,pause,0.4,None,None,None,0,457,457,457,,,,,,,,,,,,N003,digit,5,"['6', '7', '8', '9']","['1', '2', '3', '4']",1,2023.2.3,harveydigits,2.1,[],8,0.75,
20,digit,0.3,['dot'],['small_1'],black,0,458,458,458,,,162.70024490356445,162.41895008087158,162.7190968990326,"[[0.13344719023172197, -0.283876753970028]]",['DejaVu Sans'],[0.6],,,,N003,digit,5,"['6', '7', '8', '9']","['1', '2', '3', '4']",1,2023.2.3,harveydigits,2.1,[],8,0.75,
0,pause,0.4,None,None,None,0,459,459,459,,,,,,,,,,,,N003,digit,5,"['6', '7', '8', '9']","['1', '2', '3', '4']",1,2023.2.3,harveydigits,2.1,[],8,0.75,
20,digit,0.3,['dot'],['small_1'],black,0,460,460,460,,,163.40025687217712,163.1191189289093,163.41909503936768,"[[0.3199592715467856, 0.13615421308820588]]",['DejaVu Sans'],[0.6],,,,N003,digit,5,"['6', '7', '8', '9']","['1', '2', '3', '4']",1,2023.2.3,harveydigits,2.1,[],8,0.75,
0,pause,0.4,None,None,None,0,461,461,461,,,,,,,,,,,,N003,digit,5,"['6', '7', '8', '9']","['1', '2', '3', '4']",1,2023.2.3,harveydigits,2.1,[],8,0.75,
20,digit,0.3,['dot'],['small_1'],black,0,462,462,462,,,164.10024309158325,163.81909203529358,164.1190710067749,"[[0.04221568589595176, 0.1494036844307996]]",['DejaVu Sans'],[0.6],,,,N003,digit,5,"['6', '7', '8', '9']","['1', '2', '3', '4']",1,2023.2.3,harveydigits,2.1,[],8,0.75,
0,pause,0.4,None,None,None,0,463,463,463,,,,,,,,,,,,N003,digit,5,"['6', '7', '8', '9']","['1', '2', '3', '4']",1,2023.2.3,harveydigits,2.1,[],8,0.75,
