num,mod,duration,shape,ll_cond,colors,.thisRepN,.thisTrialN,.thisN,.thisIndex,thisRow.t,notes,t_start,t_stop,shapes,size,pos,cond,color,match,answer_truth,RT,participant,session,starting_run,left button (match/odd),right button (non-match/even),samples_per_block,_thisDir,out_path,psychopy version,expName,win,MR_settings,routine_timer,background,offset,audio,number_runs,radius,fix_cross,defaultKeyboard,
1,dot,0.3,['dot'],['density'],black,0,0,0,0,,,2.1139450073242188,2.4138739109039307,dot,[0.06],"[0.4420174282329864, -0.3383815273201445]",density,black,,,,N006,visual,1,"['1', '2']","['3', '4']",1,/NOBACKUP2/USER/Jeong/experiment2,/NOBACKUP2/USER/Jeong/experiment2/logfiles/visual/N006_d-20240926,2023.2.3,harveyvisual,"Window(allowGUI=False, allowStencil=False, autoLog=True, backendConf=UNKNOWN, backgroundFit='cover', backgroundImage=None, bitsMode=UNKNOWN, blendMode='avg', bpc=(8, 8, 8), color=array([-1, -1, -1]), colorSpace='rgb', depthBits=8, fullscr=<method-wrapper '__getattribute__' of attributeSetter object at 0x7fb87b6d44f0>, gamma=None, gammaErrorPolicy='raise', lms=UNKNOWN, monitor=<psychopy.monitors.calibTools.Monitor object at 0x7fb8747fef10>, multiSample=False, name='stim_window', numSamples=2, pos=[0.0, 0.0], screen=0, size=array([1920, 1080]), stencilBits=0, stereo=False, title='PsychoPy', units='deg', useFBO=True, useRetina=False, viewOri=0.0, viewPos=None, viewScale=None, waitBlanking=True, winType='pyglet')","{'TR': 2.1, 'volumes': 5, 'sync': '5', 'skip': 0, 'sound': False}",<psychopy.clock.CountdownTimer object at 0x7fb8747db8b0>,"Rect(__class__=<class 'psychopy.visual.rect.Rect'>, anchor=('center', 'center'), autoDraw=True, autoLog=True, closeShape=True, color=method-wrapper(...), colorSpace='rgb', contrast=None, depth=0, draggable=False, fillColor=array([0.00392157, 0.00392157, 0.00392157]), fillColorSpace='rgb', fillRGB=array([0.00392157, 0.00392157, 0.00392157]), interpolate=True, lineColor=array([0., 0., 0.]), lineColorSpace='rgb', lineRGB=array([0, 0, 0]), lineWidth=1.5, name='unnamed Rect', opacity=0.5, ori=0.0, pos=array([0., 0.]), size=array([2., 2.]), units='norm', vertices=ndarray(...), win=Window(...))",2.1,[],8,0.75,"[<psychopy.visual.line.Line object at 0x7fb871723100>, <psychopy.visual.line.Line object at 0x7fb8717234f0>]",<psychopy.hardware.keyboard.Keyboard object at 0x7fb87014e070>,
0,pause,0.4,None,None,None,0,1,1,1,,,,,,,,,,,,,N006,visual,1,"['1', '2']","['3', '4']",1,/NOBACKUP2/USER/Jeong/experiment2,/NOBACKUP2/USER/Jeong/experiment2/logfiles/visual/N006_d-20240926,2023.2.3,harveyvisual,"Window(allowGUI=False, allowStencil=False, autoLog=True, backendConf=UNKNOWN, backgroundFit='cover', backgroundImage=None, bitsMode=UNKNOWN, blendMode='avg', bpc=(8, 8, 8), color=array([-1, -1, -1]), colorSpace='rgb', depthBits=8, fullscr=<method-wrapper '__getattribute__' of attributeSetter object at 0x7fb87b6d44f0>, gamma=None, gammaErrorPolicy='raise', lms=UNKNOWN, monitor=<psychopy.monitors.calibTools.Monitor object at 0x7fb8747fef10>, multiSample=False, name='stim_window', numSamples=2, pos=[0.0, 0.0], screen=0, size=array([1920, 1080]), stencilBits=0, stereo=False, title='PsychoPy', units='deg', useFBO=True, useRetina=False, viewOri=0.0, viewPos=None, viewScale=None, waitBlanking=True, winType='pyglet')","{'TR': 2.1, 'volumes': 5, 'sync': '5', 'skip': 0, 'sound': False}",<psychopy.clock.CountdownTimer object at 0x7fb8747db8b0>,"Rect(__class__=<class 'psychopy.visual.rect.Rect'>, anchor=('center', 'center'), autoDraw=True, autoLog=True, closeShape=True, color=method-wrapper(...), colorSpace='rgb', contrast=None, depth=0, draggable=False, fillColor=array([0.00392157, 0.00392157, 0.00392157]), fillColorSpace='rgb', fillRGB=array([0.00392157, 0.00392157, 0.00392157]), interpolate=True, lineColor=array([0., 0., 0.]), lineColorSpace='rgb', lineRGB=array([0, 0, 0]), lineWidth=1.5, name='unnamed Rect', opacity=0.5, ori=0.0, pos=array([0., 0.]), size=array([2., 2.]), units='norm', vertices=ndarray(...), win=Window(...))",2.1,[],8,0.75,"[<psychopy.visual.line.Line object at 0x7fb871723100>, <psychopy.visual.line.Line object at 0x7fb8717234f0>]",<psychopy.hardware.keyboard.Keyboard object at 0x7fb87014e070>,
1,dot,0.3,['dot'],['density'],black,0,2,2,2,,,2.8138809204101562,3.1145479679107666,dot,[0.06],"[0.1771264825789444, 0.012298414170669998]",density,black,true,correct,nan,N006,visual,1,"['1', '2']","['3', '4']",1,/NOBACKUP2/USER/Jeong/experiment2,/NOBACKUP2/USER/Jeong/experiment2/logfiles/visual/N006_d-20240926,2023.2.3,harveyvisual,"Window(allowGUI=False, allowStencil=False, autoLog=True, backendConf=UNKNOWN, backgroundFit='cover', backgroundImage=None, bitsMode=UNKNOWN, blendMode='avg', bpc=(8, 8, 8), color=array([-1, -1, -1]), colorSpace='rgb', depthBits=8, fullscr=<method-wrapper '__getattribute__' of attributeSetter object at 0x7fb87b6d44f0>, gamma=None, gammaErrorPolicy='raise', lms=UNKNOWN, monitor=<psychopy.monitors.calibTools.Monitor object at 0x7fb8747fef10>, multiSample=False, name='stim_window', numSamples=2, pos=[0.0, 0.0], screen=0, size=array([1920, 1080]), stencilBits=0, stereo=False, title='PsychoPy', units='deg', useFBO=True, useRetina=False, viewOri=0.0, viewPos=None, viewScale=None, waitBlanking=True, winType='pyglet')","{'TR': 2.1, 'volumes': 5, 'sync': '5', 'skip': 0, 'sound': False}",<psychopy.clock.CountdownTimer object at 0x7fb8747db8b0>,"Rect(__class__=<class 'psychopy.visual.rect.Rect'>, anchor=('center', 'center'), autoDraw=True, autoLog=True, closeShape=True, color=method-wrapper(...), colorSpace='rgb', contrast=None, depth=0, draggable=False, fillColor=array([0.00392157, 0.00392157, 0.00392157]), fillColorSpace='rgb', fillRGB=array([0.00392157, 0.00392157, 0.00392157]), interpolate=True, lineColor=array([0., 0., 0.]), lineColorSpace='rgb', lineRGB=array([0, 0, 0]), lineWidth=1.5, name='unnamed Rect', opacity=0.5, ori=0.0, pos=array([0., 0.]), size=array([2., 2.]), units='norm', vertices=ndarray(...), win=Window(...))",2.1,[],8,0.75,"[<psychopy.visual.line.Line object at 0x7fb871723100>, <psychopy.visual.line.Line object at 0x7fb8717234f0>]",<psychopy.hardware.keyboard.Keyboard object at 0x7fb87014e070>,
0,pause,0.4,None,None,None,0,3,3,3,,,,,,,,,,,,,N006,visual,1,"['1', '2']","['3', '4']",1,/NOBACKUP2/USER/Jeong/experiment2,/NOBACKUP2/USER/Jeong/experiment2/logfiles/visual/N006_d-20240926,2023.2.3,harveyvisual,"Window(allowGUI=False, allowStencil=False, autoLog=True, backendConf=UNKNOWN, backgroundFit='cover', backgroundImage=None, bitsMode=UNKNOWN, blendMode='avg', bpc=(8, 8, 8), color=array([-1, -1, -1]), colorSpace='rgb', depthBits=8, fullscr=<method-wrapper '__getattribute__' of attributeSetter object at 0x7fb87b6d44f0>, gamma=None, gammaErrorPolicy='raise', lms=UNKNOWN, monitor=<psychopy.monitors.calibTools.Monitor object at 0x7fb8747fef10>, multiSample=False, name='stim_window', numSamples=2, pos=[0.0, 0.0], screen=0, size=array([1920, 1080]), stencilBits=0, stereo=False, title='PsychoPy', units='deg', useFBO=True, useRetina=False, viewOri=0.0, viewPos=None, viewScale=None, waitBlanking=True, winType='pyglet')","{'TR': 2.1, 'volumes': 5, 'sync': '5', 'skip': 0, 'sound': False}",<psychopy.clock.CountdownTimer object at 0x7fb8747db8b0>,"Rect(__class__=<class 'psychopy.visual.rect.Rect'>, anchor=('center', 'center'), autoDraw=True, autoLog=True, closeShape=True, color=method-wrapper(...), colorSpace='rgb', contrast=None, depth=0, draggable=False, fillColor=array([0.00392157, 0.00392157, 0.00392157]), fillColorSpace='rgb', fillRGB=array([0.00392157, 0.00392157, 0.00392157]), interpolate=True, lineColor=array([0., 0., 0.]), lineColorSpace='rgb', lineRGB=array([0, 0, 0]), lineWidth=1.5, name='unnamed Rect', opacity=0.5, ori=0.0, pos=array([0., 0.]), size=array([2., 2.]), units='norm', vertices=ndarray(...), win=Window(...))",2.1,[],8,0.75,"[<psychopy.visual.line.Line object at 0x7fb871723100>, <psychopy.visual.line.Line object at 0x7fb8717234f0>]",<psychopy.hardware.keyboard.Keyboard object at 0x7fb87014e070>,
1,dot,0.3,['dot'],['density'],black,0,4,4,4,,,3.514400005340576,3.8143470287323,dot,[0.1],"[0.43730911014729085, 0.38068286015665653]",density,black,true,correct,nan,N006,visual,1,"['1', '2']","['3', '4']",1,/NOBACKUP2/USER/Jeong/experiment2,/NOBACKUP2/USER/Jeong/experiment2/logfiles/visual/N006_d-20240926,2023.2.3,harveyvisual,"Window(allowGUI=False, allowStencil=False, autoLog=True, backendConf=UNKNOWN, backgroundFit='cover', backgroundImage=None, bitsMode=UNKNOWN, blendMode='avg', bpc=(8, 8, 8), color=array([-1, -1, -1]), colorSpace='rgb', depthBits=8, fullscr=<method-wrapper '__getattribute__' of attributeSetter object at 0x7fb87b6d44f0>, gamma=None, gammaErrorPolicy='raise', lms=UNKNOWN, monitor=<psychopy.monitors.calibTools.Monitor object at 0x7fb8747fef10>, multiSample=False, name='stim_window', numSamples=2, pos=[0.0, 0.0], screen=0, size=array([1920, 1080]), stencilBits=0, stereo=False, title='PsychoPy', units='deg', useFBO=True, useRetina=False, viewOri=0.0, viewPos=None, viewScale=None, waitBlanking=True, winType='pyglet')","{'TR': 2.1, 'volumes': 5, 'sync': '5', 'skip': 0, 'sound': False}",<psychopy.clock.CountdownTimer object at 0x7fb8747db8b0>,"Rect(__class__=<class 'psychopy.visual.rect.Rect'>, anchor=('center', 'center'), autoDraw=True, autoLog=True, closeShape=True, color=method-wrapper(...), colorSpace='rgb', contrast=None, depth=0, draggable=False, fillColor=array([0.00392157, 0.00392157, 0.00392157]), fillColorSpace='rgb', fillRGB=array([0.00392157, 0.00392157, 0.00392157]), interpolate=True, lineColor=array([0., 0., 0.]), lineColorSpace='rgb', lineRGB=array([0, 0, 0]), lineWidth=1.5, name='unnamed Rect', opacity=0.5, ori=0.0, pos=array([0., 0.]), size=array([2., 2.]), units='norm', vertices=ndarray(...), win=Window(...))",2.1,[],8,0.75,"[<psychopy.visual.line.Line object at 0x7fb871723100>, <psychopy.visual.line.Line object at 0x7fb8717234f0>]",<psychopy.hardware.keyboard.Keyboard object at 0x7fb87014e070>,
0,pause,0.4,None,None,None,0,5,5,5,,,,,,,,,,,,,N006,visual,1,"['1', '2']","['3', '4']",1,/NOBACKUP2/USER/Jeong/experiment2,/NOBACKUP2/USER/Jeong/experiment2/logfiles/visual/N006_d-20240926,2023.2.3,harveyvisual,"Window(allowGUI=False, allowStencil=False, autoLog=True, backendConf=UNKNOWN, backgroundFit='cover', backgroundImage=None, bitsMode=UNKNOWN, blendMode='avg', bpc=(8, 8, 8), color=array([-1, -1, -1]), colorSpace='rgb', depthBits=8, fullscr=<method-wrapper '__getattribute__' of attributeSetter object at 0x7fb87b6d44f0>, gamma=None, gammaErrorPolicy='raise', lms=UNKNOWN, monitor=<psychopy.monitors.calibTools.Monitor object at 0x7fb8747fef10>, multiSample=False, name='stim_window', numSamples=2, pos=[0.0, 0.0], screen=0, size=array([1920, 1080]), stencilBits=0, stereo=False, title='PsychoPy', units='deg', useFBO=True, useRetina=False, viewOri=0.0, viewPos=None, viewScale=None, waitBlanking=True, winType='pyglet')","{'TR': 2.1, 'volumes': 5, 'sync': '5', 'skip': 0, 'sound': False}",<psychopy.clock.CountdownTimer object at 0x7fb8747db8b0>,"Rect(__class__=<class 'psychopy.visual.rect.Rect'>, anchor=('center', 'center'), autoDraw=True, autoLog=True, closeShape=True, color=method-wrapper(...), colorSpace='rgb', contrast=None, depth=0, draggable=False, fillColor=array([0.00392157, 0.00392157, 0.00392157]), fillColorSpace='rgb', fillRGB=array([0.00392157, 0.00392157, 0.00392157]), interpolate=True, lineColor=array([0., 0., 0.]), lineColorSpace='rgb', lineRGB=array([0, 0, 0]), lineWidth=1.5, name='unnamed Rect', opacity=0.5, ori=0.0, pos=array([0., 0.]), size=array([2., 2.]), units='norm', vertices=ndarray(...), win=Window(...))",2.1,[],8,0.75,"[<psychopy.visual.line.Line object at 0x7fb871723100>, <psychopy.visual.line.Line object at 0x7fb8717234f0>]",<psychopy.hardware.keyboard.Keyboard object at 0x7fb87014e070>,
1,dot,0.3,['dot'],['density'],black,0,6,6,6,,,4.214341878890991,4.514318943023682,dot,[0.08],"[0.00661777001411412, 0.39634766145863237]",density,black,true,correct,nan,N006,visual,1,"['1', '2']","['3', '4']",1,/NOBACKUP2/USER/Jeong/experiment2,/NOBACKUP2/USER/Jeong/experiment2/logfiles/visual/N006_d-20240926,2023.2.3,harveyvisual,"Window(allowGUI=False, allowStencil=False, autoLog=True, backendConf=UNKNOWN, backgroundFit='cover', backgroundImage=None, bitsMode=UNKNOWN, blendMode='avg', bpc=(8, 8, 8), color=array([-1, -1, -1]), colorSpace='rgb', depthBits=8, fullscr=<method-wrapper '__getattribute__' of attributeSetter object at 0x7fb87b6d44f0>, gamma=None, gammaErrorPolicy='raise', lms=UNKNOWN, monitor=<psychopy.monitors.calibTools.Monitor object at 0x7fb8747fef10>, multiSample=False, name='stim_window', numSamples=2, pos=[0.0, 0.0], screen=0, size=array([1920, 1080]), stencilBits=0, stereo=False, title='PsychoPy', units='deg', useFBO=True, useRetina=False, viewOri=0.0, viewPos=None, viewScale=None, waitBlanking=True, winType='pyglet')","{'TR': 2.1, 'volumes': 5, 'sync': '5', 'skip': 0, 'sound': False}",<psychopy.clock.CountdownTimer object at 0x7fb8747db8b0>,"Rect(__class__=<class 'psychopy.visual.rect.Rect'>, anchor=('center', 'center'), autoDraw=True, autoLog=True, closeShape=True, color=method-wrapper(...), colorSpace='rgb', contrast=None, depth=0, draggable=False, fillColor=array([0.00392157, 0.00392157, 0.00392157]), fillColorSpace='rgb', fillRGB=array([0.00392157, 0.00392157, 0.00392157]), interpolate=True, lineColor=array([0., 0., 0.]), lineColorSpace='rgb', lineRGB=array([0, 0, 0]), lineWidth=1.5, name='unnamed Rect', opacity=0.5, ori=0.0, pos=array([0., 0.]), size=array([2., 2.]), units='norm', vertices=ndarray(...), win=Window(...))",2.1,[],8,0.75,"[<psychopy.visual.line.Line object at 0x7fb871723100>, <psychopy.visual.line.Line object at 0x7fb8717234f0>]",<psychopy.hardware.keyboard.Keyboard object at 0x7fb87014e070>,
0,pause,0.4,None,None,None,0,7,7,7,,,,,,,,,,,,,N006,visual,1,"['1', '2']","['3', '4']",1,/NOBACKUP2/USER/Jeong/experiment2,/NOBACKUP2/USER/Jeong/experiment2/logfiles/visual/N006_d-20240926,2023.2.3,harveyvisual,"Window(allowGUI=False, allowStencil=False, autoLog=True, backendConf=UNKNOWN, backgroundFit='cover', backgroundImage=None, bitsMode=UNKNOWN, blendMode='avg', bpc=(8, 8, 8), color=array([-1, -1, -1]), colorSpace='rgb', depthBits=8, fullscr=<method-wrapper '__getattribute__' of attributeSetter object at 0x7fb87b6d44f0>, gamma=None, gammaErrorPolicy='raise', lms=UNKNOWN, monitor=<psychopy.monitors.calibTools.Monitor object at 0x7fb8747fef10>, multiSample=False, name='stim_window', numSamples=2, pos=[0.0, 0.0], screen=0, size=array([1920, 1080]), stencilBits=0, stereo=False, title='PsychoPy', units='deg', useFBO=True, useRetina=False, viewOri=0.0, viewPos=None, viewScale=None, waitBlanking=True, winType='pyglet')","{'TR': 2.1, 'volumes': 5, 'sync': '5', 'skip': 0, 'sound': False}",<psychopy.clock.CountdownTimer object at 0x7fb8747db8b0>,"Rect(__class__=<class 'psychopy.visual.rect.Rect'>, anchor=('center', 'center'), autoDraw=True, autoLog=True, closeShape=True, color=method-wrapper(...), colorSpace='rgb', contrast=None, depth=0, draggable=False, fillColor=array([0.00392157, 0.00392157, 0.00392157]), fillColorSpace='rgb', fillRGB=array([0.00392157, 0.00392157, 0.00392157]), interpolate=True, lineColor=array([0., 0., 0.]), lineColorSpace='rgb', lineRGB=array([0, 0, 0]), lineWidth=1.5, name='unnamed Rect', opacity=0.5, ori=0.0, pos=array([0., 0.]), size=array([2., 2.]), units='norm', vertices=ndarray(...), win=Window(...))",2.1,[],8,0.75,"[<psychopy.visual.line.Line object at 0x7fb871723100>, <psychopy.visual.line.Line object at 0x7fb8717234f0>]",<psychopy.hardware.keyboard.Keyboard object at 0x7fb87014e070>,
1,dot,0.3,['dot'],['density'],black,0,8,8,8,,,4.914306879043579,5.214292049407959,dot,[0.08],"[-0.00037526000000685745, -0.027921386894572527]",density,black,true,correct,nan,N006,visual,1,"['1', '2']","['3', '4']",1,/NOBACKUP2/USER/Jeong/experiment2,/NOBACKUP2/USER/Jeong/experiment2/logfiles/visual/N006_d-20240926,2023.2.3,harveyvisual,"Window(allowGUI=False, allowStencil=False, autoLog=True, backendConf=UNKNOWN, backgroundFit='cover', backgroundImage=None, bitsMode=UNKNOWN, blendMode='avg', bpc=(8, 8, 8), color=array([-1, -1, -1]), colorSpace='rgb', depthBits=8, fullscr=<method-wrapper '__getattribute__' of attributeSetter object at 0x7fb87b6d44f0>, gamma=None, gammaErrorPolicy='raise', lms=UNKNOWN, monitor=<psychopy.monitors.calibTools.Monitor object at 0x7fb8747fef10>, multiSample=False, name='stim_window', numSamples=2, pos=[0.0, 0.0], screen=0, size=array([1920, 1080]), stencilBits=0, stereo=False, title='PsychoPy', units='deg', useFBO=True, useRetina=False, viewOri=0.0, viewPos=None, viewScale=None, waitBlanking=True, winType='pyglet')","{'TR': 2.1, 'volumes': 5, 'sync': '5', 'skip': 0, 'sound': False}",<psychopy.clock.CountdownTimer object at 0x7fb8747db8b0>,"Rect(__class__=<class 'psychopy.visual.rect.Rect'>, anchor=('center', 'center'), autoDraw=True, autoLog=True, closeShape=True, color=method-wrapper(...), colorSpace='rgb', contrast=None, depth=0, draggable=False, fillColor=array([0.00392157, 0.00392157, 0.00392157]), fillColorSpace='rgb', fillRGB=array([0.00392157, 0.00392157, 0.00392157]), interpolate=True, lineColor=array([0., 0., 0.]), lineColorSpace='rgb', lineRGB=array([0, 0, 0]), lineWidth=1.5, name='unnamed Rect', opacity=0.5, ori=0.0, pos=array([0., 0.]), size=array([2., 2.]), units='norm', vertices=ndarray(...), win=Window(...))",2.1,[],8,0.75,"[<psychopy.visual.line.Line object at 0x7fb871723100>, <psychopy.visual.line.Line object at 0x7fb8717234f0>]",<psychopy.hardware.keyboard.Keyboard object at 0x7fb87014e070>,
0,pause,0.4,None,None,None,0,9,9,9,,,,,,,,,,,,,N006,visual,1,"['1', '2']","['3', '4']",1,/NOBACKUP2/USER/Jeong/experiment2,/NOBACKUP2/USER/Jeong/experiment2/logfiles/visual/N006_d-20240926,2023.2.3,harveyvisual,"Window(allowGUI=False, allowStencil=False, autoLog=True, backendConf=UNKNOWN, backgroundFit='cover', backgroundImage=None, bitsMode=UNKNOWN, blendMode='avg', bpc=(8, 8, 8), color=array([-1, -1, -1]), colorSpace='rgb', depthBits=8, fullscr=<method-wrapper '__getattribute__' of attributeSetter object at 0x7fb87b6d44f0>, gamma=None, gammaErrorPolicy='raise', lms=UNKNOWN, monitor=<psychopy.monitors.calibTools.Monitor object at 0x7fb8747fef10>, multiSample=False, name='stim_window', numSamples=2, pos=[0.0, 0.0], screen=0, size=array([1920, 1080]), stencilBits=0, stereo=False, title='PsychoPy', units='deg', useFBO=True, useRetina=False, viewOri=0.0, viewPos=None, viewScale=None, waitBlanking=True, winType='pyglet')","{'TR': 2.1, 'volumes': 5, 'sync': '5', 'skip': 0, 'sound': False}",<psychopy.clock.CountdownTimer object at 0x7fb8747db8b0>,"Rect(__class__=<class 'psychopy.visual.rect.Rect'>, anchor=('center', 'center'), autoDraw=True, autoLog=True, closeShape=True, color=method-wrapper(...), colorSpace='rgb', contrast=None, depth=0, draggable=False, fillColor=array([0.00392157, 0.00392157, 0.00392157]), fillColorSpace='rgb', fillRGB=array([0.00392157, 0.00392157, 0.00392157]), interpolate=True, lineColor=array([0., 0., 0.]), lineColorSpace='rgb', lineRGB=array([0, 0, 0]), lineWidth=1.5, name='unnamed Rect', opacity=0.5, ori=0.0, pos=array([0., 0.]), size=array([2., 2.]), units='norm', vertices=ndarray(...), win=Window(...))",2.1,[],8,0.75,"[<psychopy.visual.line.Line object at 0x7fb871723100>, <psychopy.visual.line.Line object at 0x7fb8717234f0>]",<psychopy.hardware.keyboard.Keyboard object at 0x7fb87014e070>,
1,dot,0.3,['dot'],['density'],black,0,10,10,10,,,5.616623878479004,5.916590929031372,dot,[0.06],"[-0.40242150741388927, 0.27329756427278695]",density,black,true,correct,nan,N006,visual,1,"['1', '2']","['3', '4']",1,/NOBACKUP2/USER/Jeong/experiment2,/NOBACKUP2/USER/Jeong/experiment2/logfiles/visual/N006_d-20240926,2023.2.3,harveyvisual,"Window(allowGUI=False, allowStencil=False, autoLog=True, backendConf=UNKNOWN, backgroundFit='cover', backgroundImage=None, bitsMode=UNKNOWN, blendMode='avg', bpc=(8, 8, 8), color=array([-1, -1, -1]), colorSpace='rgb', depthBits=8, fullscr=<method-wrapper '__getattribute__' of attributeSetter object at 0x7fb87b6d44f0>, gamma=None, gammaErrorPolicy='raise', lms=UNKNOWN, monitor=<psychopy.monitors.calibTools.Monitor object at 0x7fb8747fef10>, multiSample=False, name='stim_window', numSamples=2, pos=[0.0, 0.0], screen=0, size=array([1920, 1080]), stencilBits=0, stereo=False, title='PsychoPy', units='deg', useFBO=True, useRetina=False, viewOri=0.0, viewPos=None, viewScale=None, waitBlanking=True, winType='pyglet')","{'TR': 2.1, 'volumes': 5, 'sync': '5', 'skip': 0, 'sound': False}",<psychopy.clock.CountdownTimer object at 0x7fb8747db8b0>,"Rect(__class__=<class 'psychopy.visual.rect.Rect'>, anchor=('center', 'center'), autoDraw=True, autoLog=True, closeShape=True, color=method-wrapper(...), colorSpace='rgb', contrast=None, depth=0, draggable=False, fillColor=array([0.00392157, 0.00392157, 0.00392157]), fillColorSpace='rgb', fillRGB=array([0.00392157, 0.00392157, 0.00392157]), interpolate=True, lineColor=array([0., 0., 0.]), lineColorSpace='rgb', lineRGB=array([0, 0, 0]), lineWidth=1.5, name='unnamed Rect', opacity=0.5, ori=0.0, pos=array([0., 0.]), size=array([2., 2.]), units='norm', vertices=ndarray(...), win=Window(...))",2.1,[],8,0.75,"[<psychopy.visual.line.Line object at 0x7fb871723100>, <psychopy.visual.line.Line object at 0x7fb8717234f0>]",<psychopy.hardware.keyboard.Keyboard object at 0x7fb87014e070>,
0,pause,0.4,None,None,None,0,11,11,11,,,,,,,,,,,,,N006,visual,1,"['1', '2']","['3', '4']",1,/NOBACKUP2/USER/Jeong/experiment2,/NOBACKUP2/USER/Jeong/experiment2/logfiles/visual/N006_d-20240926,2023.2.3,harveyvisual,"Window(allowGUI=False, allowStencil=False, autoLog=True, backendConf=UNKNOWN, backgroundFit='cover', backgroundImage=None, bitsMode=UNKNOWN, blendMode='avg', bpc=(8, 8, 8), color=array([-1, -1, -1]), colorSpace='rgb', depthBits=8, fullscr=<method-wrapper '__getattribute__' of attributeSetter object at 0x7fb87b6d44f0>, gamma=None, gammaErrorPolicy='raise', lms=UNKNOWN, monitor=<psychopy.monitors.calibTools.Monitor object at 0x7fb8747fef10>, multiSample=False, name='stim_window', numSamples=2, pos=[0.0, 0.0], screen=0, size=array([1920, 1080]), stencilBits=0, stereo=False, title='PsychoPy', units='deg', useFBO=True, useRetina=False, viewOri=0.0, viewPos=None, viewScale=None, waitBlanking=True, winType='pyglet')","{'TR': 2.1, 'volumes': 5, 'sync': '5', 'skip': 0, 'sound': False}",<psychopy.clock.CountdownTimer object at 0x7fb8747db8b0>,"Rect(__class__=<class 'psychopy.visual.rect.Rect'>, anchor=('center', 'center'), autoDraw=True, autoLog=True, closeShape=True, color=method-wrapper(...), colorSpace='rgb', contrast=None, depth=0, draggable=False, fillColor=array([0.00392157, 0.00392157, 0.00392157]), fillColorSpace='rgb', fillRGB=array([0.00392157, 0.00392157, 0.00392157]), interpolate=True, lineColor=array([0., 0., 0.]), lineColorSpace='rgb', lineRGB=array([0, 0, 0]), lineWidth=1.5, name='unnamed Rect', opacity=0.5, ori=0.0, pos=array([0., 0.]), size=array([2., 2.]), units='norm', vertices=ndarray(...), win=Window(...))",2.1,[],8,0.75,"[<psychopy.visual.line.Line object at 0x7fb871723100>, <psychopy.visual.line.Line object at 0x7fb8717234f0>]",<psychopy.hardware.keyboard.Keyboard object at 0x7fb87014e070>,
2,dot,0.3,['dot'],['density'],black,0,12,12,12,,,6.316617965698242,6.616575002670288,dot,"[0.06, 0.08]","[[-0.40295961353468523, -0.33947470962363085], [-0.23663605411983973, -0.22749761394439932]]",density,black,false,wrong,nan,N006,visual,1,"['1', '2']","['3', '4']",1,/NOBACKUP2/USER/Jeong/experiment2,/NOBACKUP2/USER/Jeong/experiment2/logfiles/visual/N006_d-20240926,2023.2.3,harveyvisual,"Window(allowGUI=False, allowStencil=False, autoLog=True, backendConf=UNKNOWN, backgroundFit='cover', backgroundImage=None, bitsMode=UNKNOWN, blendMode='avg', bpc=(8, 8, 8), color=array([-1, -1, -1]), colorSpace='rgb', depthBits=8, fullscr=<method-wrapper '__getattribute__' of attributeSetter object at 0x7fb87b6d44f0>, gamma=None, gammaErrorPolicy='raise', lms=UNKNOWN, monitor=<psychopy.monitors.calibTools.Monitor object at 0x7fb8747fef10>, multiSample=False, name='stim_window', numSamples=2, pos=[0.0, 0.0], screen=0, size=array([1920, 1080]), stencilBits=0, stereo=False, title='PsychoPy', units='deg', useFBO=True, useRetina=False, viewOri=0.0, viewPos=None, viewScale=None, waitBlanking=True, winType='pyglet')","{'TR': 2.1, 'volumes': 5, 'sync': '5', 'skip': 0, 'sound': False}",<psychopy.clock.CountdownTimer object at 0x7fb8747db8b0>,"Rect(__class__=<class 'psychopy.visual.rect.Rect'>, anchor=('center', 'center'), autoDraw=True, autoLog=True, closeShape=True, color=method-wrapper(...), colorSpace='rgb', contrast=None, depth=0, draggable=False, fillColor=array([0.00392157, 0.00392157, 0.00392157]), fillColorSpace='rgb', fillRGB=array([0.00392157, 0.00392157, 0.00392157]), interpolate=True, lineColor=array([0., 0., 0.]), lineColorSpace='rgb', lineRGB=array([0, 0, 0]), lineWidth=1.5, name='unnamed Rect', opacity=0.5, ori=0.0, pos=array([0., 0.]), size=array([2., 2.]), units='norm', vertices=ndarray(...), win=Window(...))",2.1,[],8,0.75,"[<psychopy.visual.line.Line object at 0x7fb871723100>, <psychopy.visual.line.Line object at 0x7fb8717234f0>]",<psychopy.hardware.keyboard.Keyboard object at 0x7fb87014e070>,
0,pause,0.4,None,None,None,0,13,13,13,,,,,,,,,,,,,N006,visual,1,"['1', '2']","['3', '4']",1,/NOBACKUP2/USER/Jeong/experiment2,/NOBACKUP2/USER/Jeong/experiment2/logfiles/visual/N006_d-20240926,2023.2.3,harveyvisual,"Window(allowGUI=False, allowStencil=False, autoLog=True, backendConf=UNKNOWN, backgroundFit='cover', backgroundImage=None, bitsMode=UNKNOWN, blendMode='avg', bpc=(8, 8, 8), color=array([-1, -1, -1]), colorSpace='rgb', depthBits=8, fullscr=<method-wrapper '__getattribute__' of attributeSetter object at 0x7fb87b6d44f0>, gamma=None, gammaErrorPolicy='raise', lms=UNKNOWN, monitor=<psychopy.monitors.calibTools.Monitor object at 0x7fb8747fef10>, multiSample=False, name='stim_window', numSamples=2, pos=[0.0, 0.0], screen=0, size=array([1920, 1080]), stencilBits=0, stereo=False, title='PsychoPy', units='deg', useFBO=True, useRetina=False, viewOri=0.0, viewPos=None, viewScale=None, waitBlanking=True, winType='pyglet')","{'TR': 2.1, 'volumes': 5, 'sync': '5', 'skip': 0, 'sound': False}",<psychopy.clock.CountdownTimer object at 0x7fb8747db8b0>,"Rect(__class__=<class 'psychopy.visual.rect.Rect'>, anchor=('center', 'center'), autoDraw=True, autoLog=True, closeShape=True, color=method-wrapper(...), colorSpace='rgb', contrast=None, depth=0, draggable=False, fillColor=array([0.00392157, 0.00392157, 0.00392157]), fillColorSpace='rgb', fillRGB=array([0.00392157, 0.00392157, 0.00392157]), interpolate=True, lineColor=array([0., 0., 0.]), lineColorSpace='rgb', lineRGB=array([0, 0, 0]), lineWidth=1.5, name='unnamed Rect', opacity=0.5, ori=0.0, pos=array([0., 0.]), size=array([2., 2.]), units='norm', vertices=ndarray(...), win=Window(...))",2.1,[],8,0.75,"[<psychopy.visual.line.Line object at 0x7fb871723100>, <psychopy.visual.line.Line object at 0x7fb8717234f0>]",<psychopy.hardware.keyboard.Keyboard object at 0x7fb87014e070>,
2,dot,0.3,['dot'],['density'],black,0,14,14,14,,,7.016564846038818,7.316560983657837,dot,"[0.06, 0.1]","[[0.28379985726396956, 0.19228106150028407], [0.10160376615595414, 0.2763535177041957]]",density,black,true,correct,nan,N006,visual,1,"['1', '2']","['3', '4']",1,/NOBACKUP2/USER/Jeong/experiment2,/NOBACKUP2/USER/Jeong/experiment2/logfiles/visual/N006_d-20240926,2023.2.3,harveyvisual,"Window(allowGUI=False, allowStencil=False, autoLog=True, backendConf=UNKNOWN, backgroundFit='cover', backgroundImage=None, bitsMode=UNKNOWN, blendMode='avg', bpc=(8, 8, 8), color=array([-1, -1, -1]), colorSpace='rgb', depthBits=8, fullscr=<method-wrapper '__getattribute__' of attributeSetter object at 0x7fb87b6d44f0>, gamma=None, gammaErrorPolicy='raise', lms=UNKNOWN, monitor=<psychopy.monitors.calibTools.Monitor object at 0x7fb8747fef10>, multiSample=False, name='stim_window', numSamples=2, pos=[0.0, 0.0], screen=0, size=array([1920, 1080]), stencilBits=0, stereo=False, title='PsychoPy', units='deg', useFBO=True, useRetina=False, viewOri=0.0, viewPos=None, viewScale=None, waitBlanking=True, winType='pyglet')","{'TR': 2.1, 'volumes': 5, 'sync': '5', 'skip': 0, 'sound': False}",<psychopy.clock.CountdownTimer object at 0x7fb8747db8b0>,"Rect(__class__=<class 'psychopy.visual.rect.Rect'>, anchor=('center', 'center'), autoDraw=True, autoLog=True, closeShape=True, color=method-wrapper(...), colorSpace='rgb', contrast=None, depth=0, draggable=False, fillColor=array([0.00392157, 0.00392157, 0.00392157]), fillColorSpace='rgb', fillRGB=array([0.00392157, 0.00392157, 0.00392157]), interpolate=True, lineColor=array([0., 0., 0.]), lineColorSpace='rgb', lineRGB=array([0, 0, 0]), lineWidth=1.5, name='unnamed Rect', opacity=0.5, ori=0.0, pos=array([0., 0.]), size=array([2., 2.]), units='norm', vertices=ndarray(...), win=Window(...))",2.1,[],8,0.75,"[<psychopy.visual.line.Line object at 0x7fb871723100>, <psychopy.visual.line.Line object at 0x7fb8717234f0>]",<psychopy.hardware.keyboard.Keyboard object at 0x7fb87014e070>,
0,pause,0.4,None,None,None,0,15,15,15,,,,,,,,,,,,,N006,visual,1,"['1', '2']","['3', '4']",1,/NOBACKUP2/USER/Jeong/experiment2,/NOBACKUP2/USER/Jeong/experiment2/logfiles/visual/N006_d-20240926,2023.2.3,harveyvisual,"Window(allowGUI=False, allowStencil=False, autoLog=True, backendConf=UNKNOWN, backgroundFit='cover', backgroundImage=None, bitsMode=UNKNOWN, blendMode='avg', bpc=(8, 8, 8), color=array([-1, -1, -1]), colorSpace='rgb', depthBits=8, fullscr=<method-wrapper '__getattribute__' of attributeSetter object at 0x7fb87b6d44f0>, gamma=None, gammaErrorPolicy='raise', lms=UNKNOWN, monitor=<psychopy.monitors.calibTools.Monitor object at 0x7fb8747fef10>, multiSample=False, name='stim_window', numSamples=2, pos=[0.0, 0.0], screen=0, size=array([1920, 1080]), stencilBits=0, stereo=False, title='PsychoPy', units='deg', useFBO=True, useRetina=False, viewOri=0.0, viewPos=None, viewScale=None, waitBlanking=True, winType='pyglet')","{'TR': 2.1, 'volumes': 5, 'sync': '5', 'skip': 0, 'sound': False}",<psychopy.clock.CountdownTimer object at 0x7fb8747db8b0>,"Rect(__class__=<class 'psychopy.visual.rect.Rect'>, anchor=('center', 'center'), autoDraw=True, autoLog=True, closeShape=True, color=method-wrapper(...), colorSpace='rgb', contrast=None, depth=0, draggable=False, fillColor=array([0.00392157, 0.00392157, 0.00392157]), fillColorSpace='rgb', fillRGB=array([0.00392157, 0.00392157, 0.00392157]), interpolate=True, lineColor=array([0., 0., 0.]), lineColorSpace='rgb', lineRGB=array([0, 0, 0]), lineWidth=1.5, name='unnamed Rect', opacity=0.5, ori=0.0, pos=array([0., 0.]), size=array([2., 2.]), units='norm', vertices=ndarray(...), win=Window(...))",2.1,[],8,0.75,"[<psychopy.visual.line.Line object at 0x7fb871723100>, <psychopy.visual.line.Line object at 0x7fb8717234f0>]",<psychopy.hardware.keyboard.Keyboard object at 0x7fb87014e070>,
2,dot,0.3,['dot'],['density'],black,0,16,16,16,,,7.716547012329102,8.016532897949219,dot,"[0.1, 0.1]","[[0.4101371699595759, -0.046236245446824746], [0.42481245787877703, -0.24684889303111815]]",density,black,true,correct,nan,N006,visual,1,"['1', '2']","['3', '4']",1,/NOBACKUP2/USER/Jeong/experiment2,/NOBACKUP2/USER/Jeong/experiment2/logfiles/visual/N006_d-20240926,2023.2.3,harveyvisual,"Window(allowGUI=False, allowStencil=False, autoLog=True, backendConf=UNKNOWN, backgroundFit='cover', backgroundImage=None, bitsMode=UNKNOWN, blendMode='avg', bpc=(8, 8, 8), color=array([-1, -1, -1]), colorSpace='rgb', depthBits=8, fullscr=<method-wrapper '__getattribute__' of attributeSetter object at 0x7fb87b6d44f0>, gamma=None, gammaErrorPolicy='raise', lms=UNKNOWN, monitor=<psychopy.monitors.calibTools.Monitor object at 0x7fb8747fef10>, multiSample=False, name='stim_window', numSamples=2, pos=[0.0, 0.0], screen=0, size=array([1920, 1080]), stencilBits=0, stereo=False, title='PsychoPy', units='deg', useFBO=True, useRetina=False, viewOri=0.0, viewPos=None, viewScale=None, waitBlanking=True, winType='pyglet')","{'TR': 2.1, 'volumes': 5, 'sync': '5', 'skip': 0, 'sound': False}",<psychopy.clock.CountdownTimer object at 0x7fb8747db8b0>,"Rect(__class__=<class 'psychopy.visual.rect.Rect'>, anchor=('center', 'center'), autoDraw=True, autoLog=True, closeShape=True, color=method-wrapper(...), colorSpace='rgb', contrast=None, depth=0, draggable=False, fillColor=array([0.00392157, 0.00392157, 0.00392157]), fillColorSpace='rgb', fillRGB=array([0.00392157, 0.00392157, 0.00392157]), interpolate=True, lineColor=array([0., 0., 0.]), lineColorSpace='rgb', lineRGB=array([0, 0, 0]), lineWidth=1.5, name='unnamed Rect', opacity=0.5, ori=0.0, pos=array([0., 0.]), size=array([2., 2.]), units='norm', vertices=ndarray(...), win=Window(...))",2.1,[],8,0.75,"[<psychopy.visual.line.Line object at 0x7fb871723100>, <psychopy.visual.line.Line object at 0x7fb8717234f0>]",<psychopy.hardware.keyboard.Keyboard object at 0x7fb87014e070>,
0,pause,0.4,None,None,None,0,17,17,17,,,,,,,,,,,,,N006,visual,1,"['1', '2']","['3', '4']",1,/NOBACKUP2/USER/Jeong/experiment2,/NOBACKUP2/USER/Jeong/experiment2/logfiles/visual/N006_d-20240926,2023.2.3,harveyvisual,"Window(allowGUI=False, allowStencil=False, autoLog=True, backendConf=UNKNOWN, backgroundFit='cover', backgroundImage=None, bitsMode=UNKNOWN, blendMode='avg', bpc=(8, 8, 8), color=array([-1, -1, -1]), colorSpace='rgb', depthBits=8, fullscr=<method-wrapper '__getattribute__' of attributeSetter object at 0x7fb87b6d44f0>, gamma=None, gammaErrorPolicy='raise', lms=UNKNOWN, monitor=<psychopy.monitors.calibTools.Monitor object at 0x7fb8747fef10>, multiSample=False, name='stim_window', numSamples=2, pos=[0.0, 0.0], screen=0, size=array([1920, 1080]), stencilBits=0, stereo=False, title='PsychoPy', units='deg', useFBO=True, useRetina=False, viewOri=0.0, viewPos=None, viewScale=None, waitBlanking=True, winType='pyglet')","{'TR': 2.1, 'volumes': 5, 'sync': '5', 'skip': 0, 'sound': False}",<psychopy.clock.CountdownTimer object at 0x7fb8747db8b0>,"Rect(__class__=<class 'psychopy.visual.rect.Rect'>, anchor=('center', 'center'), autoDraw=True, autoLog=True, closeShape=True, color=method-wrapper(...), colorSpace='rgb', contrast=None, depth=0, draggable=False, fillColor=array([0.00392157, 0.00392157, 0.00392157]), fillColorSpace='rgb', fillRGB=array([0.00392157, 0.00392157, 0.00392157]), interpolate=True, lineColor=array([0., 0., 0.]), lineColorSpace='rgb', lineRGB=array([0, 0, 0]), lineWidth=1.5, name='unnamed Rect', opacity=0.5, ori=0.0, pos=array([0., 0.]), size=array([2., 2.]), units='norm', vertices=ndarray(...), win=Window(...))",2.1,[],8,0.75,"[<psychopy.visual.line.Line object at 0x7fb871723100>, <psychopy.visual.line.Line object at 0x7fb8717234f0>]",<psychopy.hardware.keyboard.Keyboard object at 0x7fb87014e070>,
2,dot,0.3,['dot'],['density'],black,0,18,18,18,,,8.416548013687134,8.716529846191406,dot,"[0.1, 0.06]","[[0.038501021189721846, -0.3380528513692932], [0.2360793696083702, -0.306423538752856]]",density,black,true,correct,nan,N006,visual,1,"['1', '2']","['3', '4']",1,/NOBACKUP2/USER/Jeong/experiment2,/NOBACKUP2/USER/Jeong/experiment2/logfiles/visual/N006_d-20240926,2023.2.3,harveyvisual,"Window(allowGUI=False, allowStencil=False, autoLog=True, backendConf=UNKNOWN, backgroundFit='cover', backgroundImage=None, bitsMode=UNKNOWN, blendMode='avg', bpc=(8, 8, 8), color=array([-1, -1, -1]), colorSpace='rgb', depthBits=8, fullscr=<method-wrapper '__getattribute__' of attributeSetter object at 0x7fb87b6d44f0>, gamma=None, gammaErrorPolicy='raise', lms=UNKNOWN, monitor=<psychopy.monitors.calibTools.Monitor object at 0x7fb8747fef10>, multiSample=False, name='stim_window', numSamples=2, pos=[0.0, 0.0], screen=0, size=array([1920, 1080]), stencilBits=0, stereo=False, title='PsychoPy', units='deg', useFBO=True, useRetina=False, viewOri=0.0, viewPos=None, viewScale=None, waitBlanking=True, winType='pyglet')","{'TR': 2.1, 'volumes': 5, 'sync': '5', 'skip': 0, 'sound': False}",<psychopy.clock.CountdownTimer object at 0x7fb8747db8b0>,"Rect(__class__=<class 'psychopy.visual.rect.Rect'>, anchor=('center', 'center'), autoDraw=True, autoLog=True, closeShape=True, color=method-wrapper(...), colorSpace='rgb', contrast=None, depth=0, draggable=False, fillColor=array([0.00392157, 0.00392157, 0.00392157]), fillColorSpace='rgb', fillRGB=array([0.00392157, 0.00392157, 0.00392157]), interpolate=True, lineColor=array([0., 0., 0.]), lineColorSpace='rgb', lineRGB=array([0, 0, 0]), lineWidth=1.5, name='unnamed Rect', opacity=0.5, ori=0.0, pos=array([0., 0.]), size=array([2., 2.]), units='norm', vertices=ndarray(...), win=Window(...))",2.1,[],8,0.75,"[<psychopy.visual.line.Line object at 0x7fb871723100>, <psychopy.visual.line.Line object at 0x7fb8717234f0>]",<psychopy.hardware.keyboard.Keyboard object at 0x7fb87014e070>,
0,pause,0.4,None,None,None,0,19,19,19,,,,,,,,,,,,,N006,visual,1,"['1', '2']","['3', '4']",1,/NOBACKUP2/USER/Jeong/experiment2,/NOBACKUP2/USER/Jeong/experiment2/logfiles/visual/N006_d-20240926,2023.2.3,harveyvisual,"Window(allowGUI=False, allowStencil=False, autoLog=True, backendConf=UNKNOWN, backgroundFit='cover', backgroundImage=None, bitsMode=UNKNOWN, blendMode='avg', bpc=(8, 8, 8), color=array([-1, -1, -1]), colorSpace='rgb', depthBits=8, fullscr=<method-wrapper '__getattribute__' of attributeSetter object at 0x7fb87b6d44f0>, gamma=None, gammaErrorPolicy='raise', lms=UNKNOWN, monitor=<psychopy.monitors.calibTools.Monitor object at 0x7fb8747fef10>, multiSample=False, name='stim_window', numSamples=2, pos=[0.0, 0.0], screen=0, size=array([1920, 1080]), stencilBits=0, stereo=False, title='PsychoPy', units='deg', useFBO=True, useRetina=False, viewOri=0.0, viewPos=None, viewScale=None, waitBlanking=True, winType='pyglet')","{'TR': 2.1, 'volumes': 5, 'sync': '5', 'skip': 0, 'sound': False}",<psychopy.clock.CountdownTimer object at 0x7fb8747db8b0>,"Rect(__class__=<class 'psychopy.visual.rect.Rect'>, anchor=('center', 'center'), autoDraw=True, autoLog=True, closeShape=True, color=method-wrapper(...), colorSpace='rgb', contrast=None, depth=0, draggable=False, fillColor=array([0.00392157, 0.00392157, 0.00392157]), fillColorSpace='rgb', fillRGB=array([0.00392157, 0.00392157, 0.00392157]), interpolate=True, lineColor=array([0., 0., 0.]), lineColorSpace='rgb', lineRGB=array([0, 0, 0]), lineWidth=1.5, name='unnamed Rect', opacity=0.5, ori=0.0, pos=array([0., 0.]), size=array([2., 2.]), units='norm', vertices=ndarray(...), win=Window(...))",2.1,[],8,0.75,"[<psychopy.visual.line.Line object at 0x7fb871723100>, <psychopy.visual.line.Line object at 0x7fb8717234f0>]",<psychopy.hardware.keyboard.Keyboard object at 0x7fb87014e070>,
2,dot,0.3,['dot'],['density'],black,0,20,20,20,,,9.116523027420044,9.416510820388794,dot,"[0.06, 0.08]","[[0.002249876020969301, 0.20442088447143333], [-0.056293345030126195, 0.39599742374220376]]",density,black,true,correct,nan,N006,visual,1,"['1', '2']","['3', '4']",1,/NOBACKUP2/USER/Jeong/experiment2,/NOBACKUP2/USER/Jeong/experiment2/logfiles/visual/N006_d-20240926,2023.2.3,harveyvisual,"Window(allowGUI=False, allowStencil=False, autoLog=True, backendConf=UNKNOWN, backgroundFit='cover', backgroundImage=None, bitsMode=UNKNOWN, blendMode='avg', bpc=(8, 8, 8), color=array([-1, -1, -1]), colorSpace='rgb', depthBits=8, fullscr=<method-wrapper '__getattribute__' of attributeSetter object at 0x7fb87b6d44f0>, gamma=None, gammaErrorPolicy='raise', lms=UNKNOWN, monitor=<psychopy.monitors.calibTools.Monitor object at 0x7fb8747fef10>, multiSample=False, name='stim_window', numSamples=2, pos=[0.0, 0.0], screen=0, size=array([1920, 1080]), stencilBits=0, stereo=False, title='PsychoPy', units='deg', useFBO=True, useRetina=False, viewOri=0.0, viewPos=None, viewScale=None, waitBlanking=True, winType='pyglet')","{'TR': 2.1, 'volumes': 5, 'sync': '5', 'skip': 0, 'sound': False}",<psychopy.clock.CountdownTimer object at 0x7fb8747db8b0>,"Rect(__class__=<class 'psychopy.visual.rect.Rect'>, anchor=('center', 'center'), autoDraw=True, autoLog=True, closeShape=True, color=method-wrapper(...), colorSpace='rgb', contrast=None, depth=0, draggable=False, fillColor=array([0.00392157, 0.00392157, 0.00392157]), fillColorSpace='rgb', fillRGB=array([0.00392157, 0.00392157, 0.00392157]), interpolate=True, lineColor=array([0., 0., 0.]), lineColorSpace='rgb', lineRGB=array([0, 0, 0]), lineWidth=1.5, name='unnamed Rect', opacity=0.5, ori=0.0, pos=array([0., 0.]), size=array([2., 2.]), units='norm', vertices=ndarray(...), win=Window(...))",2.1,[],8,0.75,"[<psychopy.visual.line.Line object at 0x7fb871723100>, <psychopy.visual.line.Line object at 0x7fb8717234f0>]",<psychopy.hardware.keyboard.Keyboard object at 0x7fb87014e070>,
0,pause,0.4,None,None,None,0,21,21,21,,,,,,,,,,,,,N006,visual,1,"['1', '2']","['3', '4']",1,/NOBACKUP2/USER/Jeong/experiment2,/NOBACKUP2/USER/Jeong/experiment2/logfiles/visual/N006_d-20240926,2023.2.3,harveyvisual,"Window(allowGUI=False, allowStencil=False, autoLog=True, backendConf=UNKNOWN, backgroundFit='cover', backgroundImage=None, bitsMode=UNKNOWN, blendMode='avg', bpc=(8, 8, 8), color=array([-1, -1, -1]), colorSpace='rgb', depthBits=8, fullscr=<method-wrapper '__getattribute__' of attributeSetter object at 0x7fb87b6d44f0>, gamma=None, gammaErrorPolicy='raise', lms=UNKNOWN, monitor=<psychopy.monitors.calibTools.Monitor object at 0x7fb8747fef10>, multiSample=False, name='stim_window', numSamples=2, pos=[0.0, 0.0], screen=0, size=array([1920, 1080]), stencilBits=0, stereo=False, title='PsychoPy', units='deg', useFBO=True, useRetina=False, viewOri=0.0, viewPos=None, viewScale=None, waitBlanking=True, winType='pyglet')","{'TR': 2.1, 'volumes': 5, 'sync': '5', 'skip': 0, 'sound': False}",<psychopy.clock.CountdownTimer object at 0x7fb8747db8b0>,"Rect(__class__=<class 'psychopy.visual.rect.Rect'>, anchor=('center', 'center'), autoDraw=True, autoLog=True, closeShape=True, color=method-wrapper(...), colorSpace='rgb', contrast=None, depth=0, draggable=False, fillColor=array([0.00392157, 0.00392157, 0.00392157]), fillColorSpace='rgb', fillRGB=array([0.00392157, 0.00392157, 0.00392157]), interpolate=True, lineColor=array([0., 0., 0.]), lineColorSpace='rgb', lineRGB=array([0, 0, 0]), lineWidth=1.5, name='unnamed Rect', opacity=0.5, ori=0.0, pos=array([0., 0.]), size=array([2., 2.]), units='norm', vertices=ndarray(...), win=Window(...))",2.1,[],8,0.75,"[<psychopy.visual.line.Line object at 0x7fb871723100>, <psychopy.visual.line.Line object at 0x7fb8717234f0>]",<psychopy.hardware.keyboard.Keyboard object at 0x7fb87014e070>,
2,dot,0.3,['dot'],['density'],black,0,22,22,22,,,9.816499948501587,10.116545915603638,dot,"[0.06, 0.06]","[[0.21918454152848227, -0.10588244801595839], [0.1860161616926718, 0.09155890801726524]]",density,black,true,correct,nan,N006,visual,1,"['1', '2']","['3', '4']",1,/NOBACKUP2/USER/Jeong/experiment2,/NOBACKUP2/USER/Jeong/experiment2/logfiles/visual/N006_d-20240926,2023.2.3,harveyvisual,"Window(allowGUI=False, allowStencil=False, autoLog=True, backendConf=UNKNOWN, backgroundFit='cover', backgroundImage=None, bitsMode=UNKNOWN, blendMode='avg', bpc=(8, 8, 8), color=array([-1, -1, -1]), colorSpace='rgb', depthBits=8, fullscr=<method-wrapper '__getattribute__' of attributeSetter object at 0x7fb87b6d44f0>, gamma=None, gammaErrorPolicy='raise', lms=UNKNOWN, monitor=<psychopy.monitors.calibTools.Monitor object at 0x7fb8747fef10>, multiSample=False, name='stim_window', numSamples=2, pos=[0.0, 0.0], screen=0, size=array([1920, 1080]), stencilBits=0, stereo=False, title='PsychoPy', units='deg', useFBO=True, useRetina=False, viewOri=0.0, viewPos=None, viewScale=None, waitBlanking=True, winType='pyglet')","{'TR': 2.1, 'volumes': 5, 'sync': '5', 'skip': 0, 'sound': False}",<psychopy.clock.CountdownTimer object at 0x7fb8747db8b0>,"Rect(__class__=<class 'psychopy.visual.rect.Rect'>, anchor=('center', 'center'), autoDraw=True, autoLog=True, closeShape=True, color=method-wrapper(...), colorSpace='rgb', contrast=None, depth=0, draggable=False, fillColor=array([0.00392157, 0.00392157, 0.00392157]), fillColorSpace='rgb', fillRGB=array([0.00392157, 0.00392157, 0.00392157]), interpolate=True, lineColor=array([0., 0., 0.]), lineColorSpace='rgb', lineRGB=array([0, 0, 0]), lineWidth=1.5, name='unnamed Rect', opacity=0.5, ori=0.0, pos=array([0., 0.]), size=array([2., 2.]), units='norm', vertices=ndarray(...), win=Window(...))",2.1,[],8,0.75,"[<psychopy.visual.line.Line object at 0x7fb871723100>, <psychopy.visual.line.Line object at 0x7fb8717234f0>]",<psychopy.hardware.keyboard.Keyboard object at 0x7fb87014e070>,
0,pause,0.4,None,None,None,0,23,23,23,,,,,,,,,,,,,N006,visual,1,"['1', '2']","['3', '4']",1,/NOBACKUP2/USER/Jeong/experiment2,/NOBACKUP2/USER/Jeong/experiment2/logfiles/visual/N006_d-20240926,2023.2.3,harveyvisual,"Window(allowGUI=False, allowStencil=False, autoLog=True, backendConf=UNKNOWN, backgroundFit='cover', backgroundImage=None, bitsMode=UNKNOWN, blendMode='avg', bpc=(8, 8, 8), color=array([-1, -1, -1]), colorSpace='rgb', depthBits=8, fullscr=<method-wrapper '__getattribute__' of attributeSetter object at 0x7fb87b6d44f0>, gamma=None, gammaErrorPolicy='raise', lms=UNKNOWN, monitor=<psychopy.monitors.calibTools.Monitor object at 0x7fb8747fef10>, multiSample=False, name='stim_window', numSamples=2, pos=[0.0, 0.0], screen=0, size=array([1920, 1080]), stencilBits=0, stereo=False, title='PsychoPy', units='deg', useFBO=True, useRetina=False, viewOri=0.0, viewPos=None, viewScale=None, waitBlanking=True, winType='pyglet')","{'TR': 2.1, 'volumes': 5, 'sync': '5', 'skip': 0, 'sound': False}",<psychopy.clock.CountdownTimer object at 0x7fb8747db8b0>,"Rect(__class__=<class 'psychopy.visual.rect.Rect'>, anchor=('center', 'center'), autoDraw=True, autoLog=True, closeShape=True, color=method-wrapper(...), colorSpace='rgb', contrast=None, depth=0, draggable=False, fillColor=array([0.00392157, 0.00392157, 0.00392157]), fillColorSpace='rgb', fillRGB=array([0.00392157, 0.00392157, 0.00392157]), interpolate=True, lineColor=array([0., 0., 0.]), lineColorSpace='rgb', lineRGB=array([0, 0, 0]), lineWidth=1.5, name='unnamed Rect', opacity=0.5, ori=0.0, pos=array([0., 0.]), size=array([2., 2.]), units='norm', vertices=ndarray(...), win=Window(...))",2.1,[],8,0.75,"[<psychopy.visual.line.Line object at 0x7fb871723100>, <psychopy.visual.line.Line object at 0x7fb8717234f0>]",<psychopy.hardware.keyboard.Keyboard object at 0x7fb87014e070>,
3,dot,0.3,['dot'],['density'],black,0,24,24,24,,,10.516541004180908,10.816515922546387,dot,"[0.06, 0.08, 0.1]","[[-0.05604225559701161, -0.5082314702914299], [0.10137377066920354, -0.3837858820064252], [-0.12802807887251882, -0.3142638921214105]]",density,black,false,wrong,nan,N006,visual,1,"['1', '2']","['3', '4']",1,/NOBACKUP2/USER/Jeong/experiment2,/NOBACKUP2/USER/Jeong/experiment2/logfiles/visual/N006_d-20240926,2023.2.3,harveyvisual,"Window(allowGUI=False, allowStencil=False, autoLog=True, backendConf=UNKNOWN, backgroundFit='cover', backgroundImage=None, bitsMode=UNKNOWN, blendMode='avg', bpc=(8, 8, 8), color=array([-1, -1, -1]), colorSpace='rgb', depthBits=8, fullscr=<method-wrapper '__getattribute__' of attributeSetter object at 0x7fb87b6d44f0>, gamma=None, gammaErrorPolicy='raise', lms=UNKNOWN, monitor=<psychopy.monitors.calibTools.Monitor object at 0x7fb8747fef10>, multiSample=False, name='stim_window', numSamples=2, pos=[0.0, 0.0], screen=0, size=array([1920, 1080]), stencilBits=0, stereo=False, title='PsychoPy', units='deg', useFBO=True, useRetina=False, viewOri=0.0, viewPos=None, viewScale=None, waitBlanking=True, winType='pyglet')","{'TR': 2.1, 'volumes': 5, 'sync': '5', 'skip': 0, 'sound': False}",<psychopy.clock.CountdownTimer object at 0x7fb8747db8b0>,"Rect(__class__=<class 'psychopy.visual.rect.Rect'>, anchor=('center', 'center'), autoDraw=True, autoLog=True, closeShape=True, color=method-wrapper(...), colorSpace='rgb', contrast=None, depth=0, draggable=False, fillColor=array([0.00392157, 0.00392157, 0.00392157]), fillColorSpace='rgb', fillRGB=array([0.00392157, 0.00392157, 0.00392157]), interpolate=True, lineColor=array([0., 0., 0.]), lineColorSpace='rgb', lineRGB=array([0, 0, 0]), lineWidth=1.5, name='unnamed Rect', opacity=0.5, ori=0.0, pos=array([0., 0.]), size=array([2., 2.]), units='norm', vertices=ndarray(...), win=Window(...))",2.1,[],8,0.75,"[<psychopy.visual.line.Line object at 0x7fb871723100>, <psychopy.visual.line.Line object at 0x7fb8717234f0>]",<psychopy.hardware.keyboard.Keyboard object at 0x7fb87014e070>,
0,pause,0.4,None,None,None,0,25,25,25,,,,,,,,,,,,,N006,visual,1,"['1', '2']","['3', '4']",1,/NOBACKUP2/USER/Jeong/experiment2,/NOBACKUP2/USER/Jeong/experiment2/logfiles/visual/N006_d-20240926,2023.2.3,harveyvisual,"Window(allowGUI=False, allowStencil=False, autoLog=True, backendConf=UNKNOWN, backgroundFit='cover', backgroundImage=None, bitsMode=UNKNOWN, blendMode='avg', bpc=(8, 8, 8), color=array([-1, -1, -1]), colorSpace='rgb', depthBits=8, fullscr=<method-wrapper '__getattribute__' of attributeSetter object at 0x7fb87b6d44f0>, gamma=None, gammaErrorPolicy='raise', lms=UNKNOWN, monitor=<psychopy.monitors.calibTools.Monitor object at 0x7fb8747fef10>, multiSample=False, name='stim_window', numSamples=2, pos=[0.0, 0.0], screen=0, size=array([1920, 1080]), stencilBits=0, stereo=False, title='PsychoPy', units='deg', useFBO=True, useRetina=False, viewOri=0.0, viewPos=None, viewScale=None, waitBlanking=True, winType='pyglet')","{'TR': 2.1, 'volumes': 5, 'sync': '5', 'skip': 0, 'sound': False}",<psychopy.clock.CountdownTimer object at 0x7fb8747db8b0>,"Rect(__class__=<class 'psychopy.visual.rect.Rect'>, anchor=('center', 'center'), autoDraw=True, autoLog=True, closeShape=True, color=method-wrapper(...), colorSpace='rgb', contrast=None, depth=0, draggable=False, fillColor=array([0.00392157, 0.00392157, 0.00392157]), fillColorSpace='rgb', fillRGB=array([0.00392157, 0.00392157, 0.00392157]), interpolate=True, lineColor=array([0., 0., 0.]), lineColorSpace='rgb', lineRGB=array([0, 0, 0]), lineWidth=1.5, name='unnamed Rect', opacity=0.5, ori=0.0, pos=array([0., 0.]), size=array([2., 2.]), units='norm', vertices=ndarray(...), win=Window(...))",2.1,[],8,0.75,"[<psychopy.visual.line.Line object at 0x7fb871723100>, <psychopy.visual.line.Line object at 0x7fb8717234f0>]",<psychopy.hardware.keyboard.Keyboard object at 0x7fb87014e070>,
3,dot,0.3,['dot'],['density'],black,0,26,26,26,,,11.216513872146606,11.516458988189697,dot,"[0.1, 0.08, 0.06]","[[0.4290032298944087, 0.1407520187648592], [0.22848299553954127, 0.06362144779139585], [0.3595680574788582, -0.09433362503040832]]",density,black,true,correct,nan,N006,visual,1,"['1', '2']","['3', '4']",1,/NOBACKUP2/USER/Jeong/experiment2,/NOBACKUP2/USER/Jeong/experiment2/logfiles/visual/N006_d-20240926,2023.2.3,harveyvisual,"Window(allowGUI=False, allowStencil=False, autoLog=True, backendConf=UNKNOWN, backgroundFit='cover', backgroundImage=None, bitsMode=UNKNOWN, blendMode='avg', bpc=(8, 8, 8), color=array([-1, -1, -1]), colorSpace='rgb', depthBits=8, fullscr=<method-wrapper '__getattribute__' of attributeSetter object at 0x7fb87b6d44f0>, gamma=None, gammaErrorPolicy='raise', lms=UNKNOWN, monitor=<psychopy.monitors.calibTools.Monitor object at 0x7fb8747fef10>, multiSample=False, name='stim_window', numSamples=2, pos=[0.0, 0.0], screen=0, size=array([1920, 1080]), stencilBits=0, stereo=False, title='PsychoPy', units='deg', useFBO=True, useRetina=False, viewOri=0.0, viewPos=None, viewScale=None, waitBlanking=True, winType='pyglet')","{'TR': 2.1, 'volumes': 5, 'sync': '5', 'skip': 0, 'sound': False}",<psychopy.clock.CountdownTimer object at 0x7fb8747db8b0>,"Rect(__class__=<class 'psychopy.visual.rect.Rect'>, anchor=('center', 'center'), autoDraw=True, autoLog=True, closeShape=True, color=method-wrapper(...), colorSpace='rgb', contrast=None, depth=0, draggable=False, fillColor=array([0.00392157, 0.00392157, 0.00392157]), fillColorSpace='rgb', fillRGB=array([0.00392157, 0.00392157, 0.00392157]), interpolate=True, lineColor=array([0., 0., 0.]), lineColorSpace='rgb', lineRGB=array([0, 0, 0]), lineWidth=1.5, name='unnamed Rect', opacity=0.5, ori=0.0, pos=array([0., 0.]), size=array([2., 2.]), units='norm', vertices=ndarray(...), win=Window(...))",2.1,[],8,0.75,"[<psychopy.visual.line.Line object at 0x7fb871723100>, <psychopy.visual.line.Line object at 0x7fb8717234f0>]",<psychopy.hardware.keyboard.Keyboard object at 0x7fb87014e070>,
0,pause,0.4,None,None,None,0,27,27,27,,,,,,,,,,,,,N006,visual,1,"['1', '2']","['3', '4']",1,/NOBACKUP2/USER/Jeong/experiment2,/NOBACKUP2/USER/Jeong/experiment2/logfiles/visual/N006_d-20240926,2023.2.3,harveyvisual,"Window(allowGUI=False, allowStencil=False, autoLog=True, backendConf=UNKNOWN, backgroundFit='cover', backgroundImage=None, bitsMode=UNKNOWN, blendMode='avg', bpc=(8, 8, 8), color=array([-1, -1, -1]), colorSpace='rgb', depthBits=8, fullscr=<method-wrapper '__getattribute__' of attributeSetter object at 0x7fb87b6d44f0>, gamma=None, gammaErrorPolicy='raise', lms=UNKNOWN, monitor=<psychopy.monitors.calibTools.Monitor object at 0x7fb8747fef10>, multiSample=False, name='stim_window', numSamples=2, pos=[0.0, 0.0], screen=0, size=array([1920, 1080]), stencilBits=0, stereo=False, title='PsychoPy', units='deg', useFBO=True, useRetina=False, viewOri=0.0, viewPos=None, viewScale=None, waitBlanking=True, winType='pyglet')","{'TR': 2.1, 'volumes': 5, 'sync': '5', 'skip': 0, 'sound': False}",<psychopy.clock.CountdownTimer object at 0x7fb8747db8b0>,"Rect(__class__=<class 'psychopy.visual.rect.Rect'>, anchor=('center', 'center'), autoDraw=True, autoLog=True, closeShape=True, color=method-wrapper(...), colorSpace='rgb', contrast=None, depth=0, draggable=False, fillColor=array([0.00392157, 0.00392157, 0.00392157]), fillColorSpace='rgb', fillRGB=array([0.00392157, 0.00392157, 0.00392157]), interpolate=True, lineColor=array([0., 0., 0.]), lineColorSpace='rgb', lineRGB=array([0, 0, 0]), lineWidth=1.5, name='unnamed Rect', opacity=0.5, ori=0.0, pos=array([0., 0.]), size=array([2., 2.]), units='norm', vertices=ndarray(...), win=Window(...))",2.1,[],8,0.75,"[<psychopy.visual.line.Line object at 0x7fb871723100>, <psychopy.visual.line.Line object at 0x7fb8717234f0>]",<psychopy.hardware.keyboard.Keyboard object at 0x7fb87014e070>,
3,dot,0.3,['dot'],['density'],black,0,28,28,28,,,11.916436910629272,12.216454029083252,dot,"[0.1, 0.06, 0.06]","[[-0.476501853024302, 0.3110516410681161], [-0.26865065753742645, 0.4732574608261889], [-0.2772428868380306, 0.2516539537451065]]",density,black,true,correct,nan,N006,visual,1,"['1', '2']","['3', '4']",1,/NOBACKUP2/USER/Jeong/experiment2,/NOBACKUP2/USER/Jeong/experiment2/logfiles/visual/N006_d-20240926,2023.2.3,harveyvisual,"Window(allowGUI=False, allowStencil=False, autoLog=True, backendConf=UNKNOWN, backgroundFit='cover', backgroundImage=None, bitsMode=UNKNOWN, blendMode='avg', bpc=(8, 8, 8), color=array([-1, -1, -1]), colorSpace='rgb', depthBits=8, fullscr=<method-wrapper '__getattribute__' of attributeSetter object at 0x7fb87b6d44f0>, gamma=None, gammaErrorPolicy='raise', lms=UNKNOWN, monitor=<psychopy.monitors.calibTools.Monitor object at 0x7fb8747fef10>, multiSample=False, name='stim_window', numSamples=2, pos=[0.0, 0.0], screen=0, size=array([1920, 1080]), stencilBits=0, stereo=False, title='PsychoPy', units='deg', useFBO=True, useRetina=False, viewOri=0.0, viewPos=None, viewScale=None, waitBlanking=True, winType='pyglet')","{'TR': 2.1, 'volumes': 5, 'sync': '5', 'skip': 0, 'sound': False}",<psychopy.clock.CountdownTimer object at 0x7fb8747db8b0>,"Rect(__class__=<class 'psychopy.visual.rect.Rect'>, anchor=('center', 'center'), autoDraw=True, autoLog=True, closeShape=True, color=method-wrapper(...), colorSpace='rgb', contrast=None, depth=0, draggable=False, fillColor=array([0.00392157, 0.00392157, 0.00392157]), fillColorSpace='rgb', fillRGB=array([0.00392157, 0.00392157, 0.00392157]), interpolate=True, lineColor=array([0., 0., 0.]), lineColorSpace='rgb', lineRGB=array([0, 0, 0]), lineWidth=1.5, name='unnamed Rect', opacity=0.5, ori=0.0, pos=array([0., 0.]), size=array([2., 2.]), units='norm', vertices=ndarray(...), win=Window(...))",2.1,[],8,0.75,"[<psychopy.visual.line.Line object at 0x7fb871723100>, <psychopy.visual.line.Line object at 0x7fb8717234f0>]",<psychopy.hardware.keyboard.Keyboard object at 0x7fb87014e070>,
0,pause,0.4,None,None,None,0,29,29,29,,,,,,,,,,,,,N006,visual,1,"['1', '2']","['3', '4']",1,/NOBACKUP2/USER/Jeong/experiment2,/NOBACKUP2/USER/Jeong/experiment2/logfiles/visual/N006_d-20240926,2023.2.3,harveyvisual,"Window(allowGUI=False, allowStencil=False, autoLog=True, backendConf=UNKNOWN, backgroundFit='cover', backgroundImage=None, bitsMode=UNKNOWN, blendMode='avg', bpc=(8, 8, 8), color=array([-1, -1, -1]), colorSpace='rgb', depthBits=8, fullscr=<method-wrapper '__getattribute__' of attributeSetter object at 0x7fb87b6d44f0>, gamma=None, gammaErrorPolicy='raise', lms=UNKNOWN, monitor=<psychopy.monitors.calibTools.Monitor object at 0x7fb8747fef10>, multiSample=False, name='stim_window', numSamples=2, pos=[0.0, 0.0], screen=0, size=array([1920, 1080]), stencilBits=0, stereo=False, title='PsychoPy', units='deg', useFBO=True, useRetina=False, viewOri=0.0, viewPos=None, viewScale=None, waitBlanking=True, winType='pyglet')","{'TR': 2.1, 'volumes': 5, 'sync': '5', 'skip': 0, 'sound': False}",<psychopy.clock.CountdownTimer object at 0x7fb8747db8b0>,"Rect(__class__=<class 'psychopy.visual.rect.Rect'>, anchor=('center', 'center'), autoDraw=True, autoLog=True, closeShape=True, color=method-wrapper(...), colorSpace='rgb', contrast=None, depth=0, draggable=False, fillColor=array([0.00392157, 0.00392157, 0.00392157]), fillColorSpace='rgb', fillRGB=array([0.00392157, 0.00392157, 0.00392157]), interpolate=True, lineColor=array([0., 0., 0.]), lineColorSpace='rgb', lineRGB=array([0, 0, 0]), lineWidth=1.5, name='unnamed Rect', opacity=0.5, ori=0.0, pos=array([0., 0.]), size=array([2., 2.]), units='norm', vertices=ndarray(...), win=Window(...))",2.1,[],8,0.75,"[<psychopy.visual.line.Line object at 0x7fb871723100>, <psychopy.visual.line.Line object at 0x7fb8717234f0>]",<psychopy.hardware.keyboard.Keyboard object at 0x7fb87014e070>,
3,dot,0.3,['dot'],['density'],black,0,30,30,30,,,12.616466999053955,12.916461944580078,dot,"[0.1, 0.1, 0.08]","[[-0.15674404860239688, -0.25078459247658497], [0.006578924124220241, -0.41324131210186005], [0.06959682433872849, -0.20549031443856539]]",density,black,true,correct,nan,N006,visual,1,"['1', '2']","['3', '4']",1,/NOBACKUP2/USER/Jeong/experiment2,/NOBACKUP2/USER/Jeong/experiment2/logfiles/visual/N006_d-20240926,2023.2.3,harveyvisual,"Window(allowGUI=False, allowStencil=False, autoLog=True, backendConf=UNKNOWN, backgroundFit='cover', backgroundImage=None, bitsMode=UNKNOWN, blendMode='avg', bpc=(8, 8, 8), color=array([-1, -1, -1]), colorSpace='rgb', depthBits=8, fullscr=<method-wrapper '__getattribute__' of attributeSetter object at 0x7fb87b6d44f0>, gamma=None, gammaErrorPolicy='raise', lms=UNKNOWN, monitor=<psychopy.monitors.calibTools.Monitor object at 0x7fb8747fef10>, multiSample=False, name='stim_window', numSamples=2, pos=[0.0, 0.0], screen=0, size=array([1920, 1080]), stencilBits=0, stereo=False, title='PsychoPy', units='deg', useFBO=True, useRetina=False, viewOri=0.0, viewPos=None, viewScale=None, waitBlanking=True, winType='pyglet')","{'TR': 2.1, 'volumes': 5, 'sync': '5', 'skip': 0, 'sound': False}",<psychopy.clock.CountdownTimer object at 0x7fb8747db8b0>,"Rect(__class__=<class 'psychopy.visual.rect.Rect'>, anchor=('center', 'center'), autoDraw=True, autoLog=True, closeShape=True, color=method-wrapper(...), colorSpace='rgb', contrast=None, depth=0, draggable=False, fillColor=array([0.00392157, 0.00392157, 0.00392157]), fillColorSpace='rgb', fillRGB=array([0.00392157, 0.00392157, 0.00392157]), interpolate=True, lineColor=array([0., 0., 0.]), lineColorSpace='rgb', lineRGB=array([0, 0, 0]), lineWidth=1.5, name='unnamed Rect', opacity=0.5, ori=0.0, pos=array([0., 0.]), size=array([2., 2.]), units='norm', vertices=ndarray(...), win=Window(...))",2.1,[],8,0.75,"[<psychopy.visual.line.Line object at 0x7fb871723100>, <psychopy.visual.line.Line object at 0x7fb8717234f0>]",<psychopy.hardware.keyboard.Keyboard object at 0x7fb87014e070>,
0,pause,0.4,None,None,None,0,31,31,31,,,,,,,,,,,,,N006,visual,1,"['1', '2']","['3', '4']",1,/NOBACKUP2/USER/Jeong/experiment2,/NOBACKUP2/USER/Jeong/experiment2/logfiles/visual/N006_d-20240926,2023.2.3,harveyvisual,"Window(allowGUI=False, allowStencil=False, autoLog=True, backendConf=UNKNOWN, backgroundFit='cover', backgroundImage=None, bitsMode=UNKNOWN, blendMode='avg', bpc=(8, 8, 8), color=array([-1, -1, -1]), colorSpace='rgb', depthBits=8, fullscr=<method-wrapper '__getattribute__' of attributeSetter object at 0x7fb87b6d44f0>, gamma=None, gammaErrorPolicy='raise', lms=UNKNOWN, monitor=<psychopy.monitors.calibTools.Monitor object at 0x7fb8747fef10>, multiSample=False, name='stim_window', numSamples=2, pos=[0.0, 0.0], screen=0, size=array([1920, 1080]), stencilBits=0, stereo=False, title='PsychoPy', units='deg', useFBO=True, useRetina=False, viewOri=0.0, viewPos=None, viewScale=None, waitBlanking=True, winType='pyglet')","{'TR': 2.1, 'volumes': 5, 'sync': '5', 'skip': 0, 'sound': False}",<psychopy.clock.CountdownTimer object at 0x7fb8747db8b0>,"Rect(__class__=<class 'psychopy.visual.rect.Rect'>, anchor=('center', 'center'), autoDraw=True, autoLog=True, closeShape=True, color=method-wrapper(...), colorSpace='rgb', contrast=None, depth=0, draggable=False, fillColor=array([0.00392157, 0.00392157, 0.00392157]), fillColorSpace='rgb', fillRGB=array([0.00392157, 0.00392157, 0.00392157]), interpolate=True, lineColor=array([0., 0., 0.]), lineColorSpace='rgb', lineRGB=array([0, 0, 0]), lineWidth=1.5, name='unnamed Rect', opacity=0.5, ori=0.0, pos=array([0., 0.]), size=array([2., 2.]), units='norm', vertices=ndarray(...), win=Window(...))",2.1,[],8,0.75,"[<psychopy.visual.line.Line object at 0x7fb871723100>, <psychopy.visual.line.Line object at 0x7fb8717234f0>]",<psychopy.hardware.keyboard.Keyboard object at 0x7fb87014e070>,
3,dot,0.3,['dot'],['density'],black,0,32,32,32,,,13.316444873809814,13.61658000946045,dot,"[0.06, 0.1, 0.08]","[[-0.3391924794566746, 0.43027756448319565], [-0.33080415183405026, 0.2112686575961512], [-0.14277619127331137, 0.29962579604826906]]",density,black,true,correct,nan,N006,visual,1,"['1', '2']","['3', '4']",1,/NOBACKUP2/USER/Jeong/experiment2,/NOBACKUP2/USER/Jeong/experiment2/logfiles/visual/N006_d-20240926,2023.2.3,harveyvisual,"Window(allowGUI=False, allowStencil=False, autoLog=True, backendConf=UNKNOWN, backgroundFit='cover', backgroundImage=None, bitsMode=UNKNOWN, blendMode='avg', bpc=(8, 8, 8), color=array([-1, -1, -1]), colorSpace='rgb', depthBits=8, fullscr=<method-wrapper '__getattribute__' of attributeSetter object at 0x7fb87b6d44f0>, gamma=None, gammaErrorPolicy='raise', lms=UNKNOWN, monitor=<psychopy.monitors.calibTools.Monitor object at 0x7fb8747fef10>, multiSample=False, name='stim_window', numSamples=2, pos=[0.0, 0.0], screen=0, size=array([1920, 1080]), stencilBits=0, stereo=False, title='PsychoPy', units='deg', useFBO=True, useRetina=False, viewOri=0.0, viewPos=None, viewScale=None, waitBlanking=True, winType='pyglet')","{'TR': 2.1, 'volumes': 5, 'sync': '5', 'skip': 0, 'sound': False}",<psychopy.clock.CountdownTimer object at 0x7fb8747db8b0>,"Rect(__class__=<class 'psychopy.visual.rect.Rect'>, anchor=('center', 'center'), autoDraw=True, autoLog=True, closeShape=True, color=method-wrapper(...), colorSpace='rgb', contrast=None, depth=0, draggable=False, fillColor=array([0.00392157, 0.00392157, 0.00392157]), fillColorSpace='rgb', fillRGB=array([0.00392157, 0.00392157, 0.00392157]), interpolate=True, lineColor=array([0., 0., 0.]), lineColorSpace='rgb', lineRGB=array([0, 0, 0]), lineWidth=1.5, name='unnamed Rect', opacity=0.5, ori=0.0, pos=array([0., 0.]), size=array([2., 2.]), units='norm', vertices=ndarray(...), win=Window(...))",2.1,[],8,0.75,"[<psychopy.visual.line.Line object at 0x7fb871723100>, <psychopy.visual.line.Line object at 0x7fb8717234f0>]",<psychopy.hardware.keyboard.Keyboard object at 0x7fb87014e070>,
0,pause,0.4,None,None,None,0,33,33,33,,,,,,,,,,,,,N006,visual,1,"['1', '2']","['3', '4']",1,/NOBACKUP2/USER/Jeong/experiment2,/NOBACKUP2/USER/Jeong/experiment2/logfiles/visual/N006_d-20240926,2023.2.3,harveyvisual,"Window(allowGUI=False, allowStencil=False, autoLog=True, backendConf=UNKNOWN, backgroundFit='cover', backgroundImage=None, bitsMode=UNKNOWN, blendMode='avg', bpc=(8, 8, 8), color=array([-1, -1, -1]), colorSpace='rgb', depthBits=8, fullscr=<method-wrapper '__getattribute__' of attributeSetter object at 0x7fb87b6d44f0>, gamma=None, gammaErrorPolicy='raise', lms=UNKNOWN, monitor=<psychopy.monitors.calibTools.Monitor object at 0x7fb8747fef10>, multiSample=False, name='stim_window', numSamples=2, pos=[0.0, 0.0], screen=0, size=array([1920, 1080]), stencilBits=0, stereo=False, title='PsychoPy', units='deg', useFBO=True, useRetina=False, viewOri=0.0, viewPos=None, viewScale=None, waitBlanking=True, winType='pyglet')","{'TR': 2.1, 'volumes': 5, 'sync': '5', 'skip': 0, 'sound': False}",<psychopy.clock.CountdownTimer object at 0x7fb8747db8b0>,"Rect(__class__=<class 'psychopy.visual.rect.Rect'>, anchor=('center', 'center'), autoDraw=True, autoLog=True, closeShape=True, color=method-wrapper(...), colorSpace='rgb', contrast=None, depth=0, draggable=False, fillColor=array([0.00392157, 0.00392157, 0.00392157]), fillColorSpace='rgb', fillRGB=array([0.00392157, 0.00392157, 0.00392157]), interpolate=True, lineColor=array([0., 0., 0.]), lineColorSpace='rgb', lineRGB=array([0, 0, 0]), lineWidth=1.5, name='unnamed Rect', opacity=0.5, ori=0.0, pos=array([0., 0.]), size=array([2., 2.]), units='norm', vertices=ndarray(...), win=Window(...))",2.1,[],8,0.75,"[<psychopy.visual.line.Line object at 0x7fb871723100>, <psychopy.visual.line.Line object at 0x7fb8717234f0>]",<psychopy.hardware.keyboard.Keyboard object at 0x7fb87014e070>,
3,dot,0.3,['dot'],['density'],black,0,34,34,34,,,14.016562938690186,14.316551923751831,dot,"[0.06, 0.08, 0.08]","[[-0.15188894406744968, -0.195193050272512], [6.772800145782267e-05, -0.040844811103836635], [-0.2045693439875358, 0.0038115475482788236]]",density,black,true,correct,nan,N006,visual,1,"['1', '2']","['3', '4']",1,/NOBACKUP2/USER/Jeong/experiment2,/NOBACKUP2/USER/Jeong/experiment2/logfiles/visual/N006_d-20240926,2023.2.3,harveyvisual,"Window(allowGUI=False, allowStencil=False, autoLog=True, backendConf=UNKNOWN, backgroundFit='cover', backgroundImage=None, bitsMode=UNKNOWN, blendMode='avg', bpc=(8, 8, 8), color=array([-1, -1, -1]), colorSpace='rgb', depthBits=8, fullscr=<method-wrapper '__getattribute__' of attributeSetter object at 0x7fb87b6d44f0>, gamma=None, gammaErrorPolicy='raise', lms=UNKNOWN, monitor=<psychopy.monitors.calibTools.Monitor object at 0x7fb8747fef10>, multiSample=False, name='stim_window', numSamples=2, pos=[0.0, 0.0], screen=0, size=array([1920, 1080]), stencilBits=0, stereo=False, title='PsychoPy', units='deg', useFBO=True, useRetina=False, viewOri=0.0, viewPos=None, viewScale=None, waitBlanking=True, winType='pyglet')","{'TR': 2.1, 'volumes': 5, 'sync': '5', 'skip': 0, 'sound': False}",<psychopy.clock.CountdownTimer object at 0x7fb8747db8b0>,"Rect(__class__=<class 'psychopy.visual.rect.Rect'>, anchor=('center', 'center'), autoDraw=True, autoLog=True, closeShape=True, color=method-wrapper(...), colorSpace='rgb', contrast=None, depth=0, draggable=False, fillColor=array([0.00392157, 0.00392157, 0.00392157]), fillColorSpace='rgb', fillRGB=array([0.00392157, 0.00392157, 0.00392157]), interpolate=True, lineColor=array([0., 0., 0.]), lineColorSpace='rgb', lineRGB=array([0, 0, 0]), lineWidth=1.5, name='unnamed Rect', opacity=0.5, ori=0.0, pos=array([0., 0.]), size=array([2., 2.]), units='norm', vertices=ndarray(...), win=Window(...))",2.1,[],8,0.75,"[<psychopy.visual.line.Line object at 0x7fb871723100>, <psychopy.visual.line.Line object at 0x7fb8717234f0>]",<psychopy.hardware.keyboard.Keyboard object at 0x7fb87014e070>,
0,pause,0.4,None,None,None,0,35,35,35,,,,,,,,,,,,,N006,visual,1,"['1', '2']","['3', '4']",1,/NOBACKUP2/USER/Jeong/experiment2,/NOBACKUP2/USER/Jeong/experiment2/logfiles/visual/N006_d-20240926,2023.2.3,harveyvisual,"Window(allowGUI=False, allowStencil=False, autoLog=True, backendConf=UNKNOWN, backgroundFit='cover', backgroundImage=None, bitsMode=UNKNOWN, blendMode='avg', bpc=(8, 8, 8), color=array([-1, -1, -1]), colorSpace='rgb', depthBits=8, fullscr=<method-wrapper '__getattribute__' of attributeSetter object at 0x7fb87b6d44f0>, gamma=None, gammaErrorPolicy='raise', lms=UNKNOWN, monitor=<psychopy.monitors.calibTools.Monitor object at 0x7fb8747fef10>, multiSample=False, name='stim_window', numSamples=2, pos=[0.0, 0.0], screen=0, size=array([1920, 1080]), stencilBits=0, stereo=False, title='PsychoPy', units='deg', useFBO=True, useRetina=False, viewOri=0.0, viewPos=None, viewScale=None, waitBlanking=True, winType='pyglet')","{'TR': 2.1, 'volumes': 5, 'sync': '5', 'skip': 0, 'sound': False}",<psychopy.clock.CountdownTimer object at 0x7fb8747db8b0>,"Rect(__class__=<class 'psychopy.visual.rect.Rect'>, anchor=('center', 'center'), autoDraw=True, autoLog=True, closeShape=True, color=method-wrapper(...), colorSpace='rgb', contrast=None, depth=0, draggable=False, fillColor=array([0.00392157, 0.00392157, 0.00392157]), fillColorSpace='rgb', fillRGB=array([0.00392157, 0.00392157, 0.00392157]), interpolate=True, lineColor=array([0., 0., 0.]), lineColorSpace='rgb', lineRGB=array([0, 0, 0]), lineWidth=1.5, name='unnamed Rect', opacity=0.5, ori=0.0, pos=array([0., 0.]), size=array([2., 2.]), units='norm', vertices=ndarray(...), win=Window(...))",2.1,[],8,0.75,"[<psychopy.visual.line.Line object at 0x7fb871723100>, <psychopy.visual.line.Line object at 0x7fb8717234f0>]",<psychopy.hardware.keyboard.Keyboard object at 0x7fb87014e070>,
4,dot,0.3,['dot'],['density'],black,0,36,36,36,,,14.716523885726929,15.016522884368896,dot,"[0.08, 0.06, 0.08, 0.1]","[[0.06081986304483943, 0.35358512719402324], [0.4232304195196481, 0.14579533924648716], [0.12419639750553536, 0.133833625718984], [0.26609561976711055, 0.2970795792082364]]",density,black,false,wrong,nan,N006,visual,1,"['1', '2']","['3', '4']",1,/NOBACKUP2/USER/Jeong/experiment2,/NOBACKUP2/USER/Jeong/experiment2/logfiles/visual/N006_d-20240926,2023.2.3,harveyvisual,"Window(allowGUI=False, allowStencil=False, autoLog=True, backendConf=UNKNOWN, backgroundFit='cover', backgroundImage=None, bitsMode=UNKNOWN, blendMode='avg', bpc=(8, 8, 8), color=array([-1, -1, -1]), colorSpace='rgb', depthBits=8, fullscr=<method-wrapper '__getattribute__' of attributeSetter object at 0x7fb87b6d44f0>, gamma=None, gammaErrorPolicy='raise', lms=UNKNOWN, monitor=<psychopy.monitors.calibTools.Monitor object at 0x7fb8747fef10>, multiSample=False, name='stim_window', numSamples=2, pos=[0.0, 0.0], screen=0, size=array([1920, 1080]), stencilBits=0, stereo=False, title='PsychoPy', units='deg', useFBO=True, useRetina=False, viewOri=0.0, viewPos=None, viewScale=None, waitBlanking=True, winType='pyglet')","{'TR': 2.1, 'volumes': 5, 'sync': '5', 'skip': 0, 'sound': False}",<psychopy.clock.CountdownTimer object at 0x7fb8747db8b0>,"Rect(__class__=<class 'psychopy.visual.rect.Rect'>, anchor=('center', 'center'), autoDraw=True, autoLog=True, closeShape=True, color=method-wrapper(...), colorSpace='rgb', contrast=None, depth=0, draggable=False, fillColor=array([0.00392157, 0.00392157, 0.00392157]), fillColorSpace='rgb', fillRGB=array([0.00392157, 0.00392157, 0.00392157]), interpolate=True, lineColor=array([0., 0., 0.]), lineColorSpace='rgb', lineRGB=array([0, 0, 0]), lineWidth=1.5, name='unnamed Rect', opacity=0.5, ori=0.0, pos=array([0., 0.]), size=array([2., 2.]), units='norm', vertices=ndarray(...), win=Window(...))",2.1,[],8,0.75,"[<psychopy.visual.line.Line object at 0x7fb871723100>, <psychopy.visual.line.Line object at 0x7fb8717234f0>]",<psychopy.hardware.keyboard.Keyboard object at 0x7fb87014e070>,
0,pause,0.4,None,None,None,0,37,37,37,,,,,,,,,,,,,N006,visual,1,"['1', '2']","['3', '4']",1,/NOBACKUP2/USER/Jeong/experiment2,/NOBACKUP2/USER/Jeong/experiment2/logfiles/visual/N006_d-20240926,2023.2.3,harveyvisual,"Window(allowGUI=False, allowStencil=False, autoLog=True, backendConf=UNKNOWN, backgroundFit='cover', backgroundImage=None, bitsMode=UNKNOWN, blendMode='avg', bpc=(8, 8, 8), color=array([-1, -1, -1]), colorSpace='rgb', depthBits=8, fullscr=<method-wrapper '__getattribute__' of attributeSetter object at 0x7fb87b6d44f0>, gamma=None, gammaErrorPolicy='raise', lms=UNKNOWN, monitor=<psychopy.monitors.calibTools.Monitor object at 0x7fb8747fef10>, multiSample=False, name='stim_window', numSamples=2, pos=[0.0, 0.0], screen=0, size=array([1920, 1080]), stencilBits=0, stereo=False, title='PsychoPy', units='deg', useFBO=True, useRetina=False, viewOri=0.0, viewPos=None, viewScale=None, waitBlanking=True, winType='pyglet')","{'TR': 2.1, 'volumes': 5, 'sync': '5', 'skip': 0, 'sound': False}",<psychopy.clock.CountdownTimer object at 0x7fb8747db8b0>,"Rect(__class__=<class 'psychopy.visual.rect.Rect'>, anchor=('center', 'center'), autoDraw=True, autoLog=True, closeShape=True, color=method-wrapper(...), colorSpace='rgb', contrast=None, depth=0, draggable=False, fillColor=array([0.00392157, 0.00392157, 0.00392157]), fillColorSpace='rgb', fillRGB=array([0.00392157, 0.00392157, 0.00392157]), interpolate=True, lineColor=array([0., 0., 0.]), lineColorSpace='rgb', lineRGB=array([0, 0, 0]), lineWidth=1.5, name='unnamed Rect', opacity=0.5, ori=0.0, pos=array([0., 0.]), size=array([2., 2.]), units='norm', vertices=ndarray(...), win=Window(...))",2.1,[],8,0.75,"[<psychopy.visual.line.Line object at 0x7fb871723100>, <psychopy.visual.line.Line object at 0x7fb8717234f0>]",<psychopy.hardware.keyboard.Keyboard object at 0x7fb87014e070>,
4,dot,0.3,['dot'],['density'],black,0,38,38,38,,,15.416409969329834,15.716372966766357,dot,"[0.06, 0.08, 0.06, 0.08]","[[-0.5133923796685119, -0.13567638448558317], [-0.3102378593599109, -0.17790160316510653], [-0.5338837235738882, 0.07316730980410076], [-0.255286731521037, 0.022123457211080083]]",density,black,true,correct,nan,N006,visual,1,"['1', '2']","['3', '4']",1,/NOBACKUP2/USER/Jeong/experiment2,/NOBACKUP2/USER/Jeong/experiment2/logfiles/visual/N006_d-20240926,2023.2.3,harveyvisual,"Window(allowGUI=False, allowStencil=False, autoLog=True, backendConf=UNKNOWN, backgroundFit='cover', backgroundImage=None, bitsMode=UNKNOWN, blendMode='avg', bpc=(8, 8, 8), color=array([-1, -1, -1]), colorSpace='rgb', depthBits=8, fullscr=<method-wrapper '__getattribute__' of attributeSetter object at 0x7fb87b6d44f0>, gamma=None, gammaErrorPolicy='raise', lms=UNKNOWN, monitor=<psychopy.monitors.calibTools.Monitor object at 0x7fb8747fef10>, multiSample=False, name='stim_window', numSamples=2, pos=[0.0, 0.0], screen=0, size=array([1920, 1080]), stencilBits=0, stereo=False, title='PsychoPy', units='deg', useFBO=True, useRetina=False, viewOri=0.0, viewPos=None, viewScale=None, waitBlanking=True, winType='pyglet')","{'TR': 2.1, 'volumes': 5, 'sync': '5', 'skip': 0, 'sound': False}",<psychopy.clock.CountdownTimer object at 0x7fb8747db8b0>,"Rect(__class__=<class 'psychopy.visual.rect.Rect'>, anchor=('center', 'center'), autoDraw=True, autoLog=True, closeShape=True, color=method-wrapper(...), colorSpace='rgb', contrast=None, depth=0, draggable=False, fillColor=array([0.00392157, 0.00392157, 0.00392157]), fillColorSpace='rgb', fillRGB=array([0.00392157, 0.00392157, 0.00392157]), interpolate=True, lineColor=array([0., 0., 0.]), lineColorSpace='rgb', lineRGB=array([0, 0, 0]), lineWidth=1.5, name='unnamed Rect', opacity=0.5, ori=0.0, pos=array([0., 0.]), size=array([2., 2.]), units='norm', vertices=ndarray(...), win=Window(...))",2.1,[],8,0.75,"[<psychopy.visual.line.Line object at 0x7fb871723100>, <psychopy.visual.line.Line object at 0x7fb8717234f0>]",<psychopy.hardware.keyboard.Keyboard object at 0x7fb87014e070>,
0,pause,0.4,None,None,None,0,39,39,39,,,,,,,,,,,,,N006,visual,1,"['1', '2']","['3', '4']",1,/NOBACKUP2/USER/Jeong/experiment2,/NOBACKUP2/USER/Jeong/experiment2/logfiles/visual/N006_d-20240926,2023.2.3,harveyvisual,"Window(allowGUI=False, allowStencil=False, autoLog=True, backendConf=UNKNOWN, backgroundFit='cover', backgroundImage=None, bitsMode=UNKNOWN, blendMode='avg', bpc=(8, 8, 8), color=array([-1, -1, -1]), colorSpace='rgb', depthBits=8, fullscr=<method-wrapper '__getattribute__' of attributeSetter object at 0x7fb87b6d44f0>, gamma=None, gammaErrorPolicy='raise', lms=UNKNOWN, monitor=<psychopy.monitors.calibTools.Monitor object at 0x7fb8747fef10>, multiSample=False, name='stim_window', numSamples=2, pos=[0.0, 0.0], screen=0, size=array([1920, 1080]), stencilBits=0, stereo=False, title='PsychoPy', units='deg', useFBO=True, useRetina=False, viewOri=0.0, viewPos=None, viewScale=None, waitBlanking=True, winType='pyglet')","{'TR': 2.1, 'volumes': 5, 'sync': '5', 'skip': 0, 'sound': False}",<psychopy.clock.CountdownTimer object at 0x7fb8747db8b0>,"Rect(__class__=<class 'psychopy.visual.rect.Rect'>, anchor=('center', 'center'), autoDraw=True, autoLog=True, closeShape=True, color=method-wrapper(...), colorSpace='rgb', contrast=None, depth=0, draggable=False, fillColor=array([0.00392157, 0.00392157, 0.00392157]), fillColorSpace='rgb', fillRGB=array([0.00392157, 0.00392157, 0.00392157]), interpolate=True, lineColor=array([0., 0., 0.]), lineColorSpace='rgb', lineRGB=array([0, 0, 0]), lineWidth=1.5, name='unnamed Rect', opacity=0.5, ori=0.0, pos=array([0., 0.]), size=array([2., 2.]), units='norm', vertices=ndarray(...), win=Window(...))",2.1,[],8,0.75,"[<psychopy.visual.line.Line object at 0x7fb871723100>, <psychopy.visual.line.Line object at 0x7fb8717234f0>]",<psychopy.hardware.keyboard.Keyboard object at 0x7fb87014e070>,
4,dot,0.3,['dot'],['density'],black,0,40,40,40,,,16.116400003433228,16.416383981704712,dot,"[0.06, 0.06, 0.06, 0.06]","[[-0.22711054503220823, -0.5144049053218714], [-0.016307770745122817, -0.5558659767831347], [-0.26432457165568224, -0.2824025039497699], [-0.026303944553407815, -0.34464361634901186]]",density,black,true,correct,nan,N006,visual,1,"['1', '2']","['3', '4']",1,/NOBACKUP2/USER/Jeong/experiment2,/NOBACKUP2/USER/Jeong/experiment2/logfiles/visual/N006_d-20240926,2023.2.3,harveyvisual,"Window(allowGUI=False, allowStencil=False, autoLog=True, backendConf=UNKNOWN, backgroundFit='cover', backgroundImage=None, bitsMode=UNKNOWN, blendMode='avg', bpc=(8, 8, 8), color=array([-1, -1, -1]), colorSpace='rgb', depthBits=8, fullscr=<method-wrapper '__getattribute__' of attributeSetter object at 0x7fb87b6d44f0>, gamma=None, gammaErrorPolicy='raise', lms=UNKNOWN, monitor=<psychopy.monitors.calibTools.Monitor object at 0x7fb8747fef10>, multiSample=False, name='stim_window', numSamples=2, pos=[0.0, 0.0], screen=0, size=array([1920, 1080]), stencilBits=0, stereo=False, title='PsychoPy', units='deg', useFBO=True, useRetina=False, viewOri=0.0, viewPos=None, viewScale=None, waitBlanking=True, winType='pyglet')","{'TR': 2.1, 'volumes': 5, 'sync': '5', 'skip': 0, 'sound': False}",<psychopy.clock.CountdownTimer object at 0x7fb8747db8b0>,"Rect(__class__=<class 'psychopy.visual.rect.Rect'>, anchor=('center', 'center'), autoDraw=True, autoLog=True, closeShape=True, color=method-wrapper(...), colorSpace='rgb', contrast=None, depth=0, draggable=False, fillColor=array([0.00392157, 0.00392157, 0.00392157]), fillColorSpace='rgb', fillRGB=array([0.00392157, 0.00392157, 0.00392157]), interpolate=True, lineColor=array([0., 0., 0.]), lineColorSpace='rgb', lineRGB=array([0, 0, 0]), lineWidth=1.5, name='unnamed Rect', opacity=0.5, ori=0.0, pos=array([0., 0.]), size=array([2., 2.]), units='norm', vertices=ndarray(...), win=Window(...))",2.1,[],8,0.75,"[<psychopy.visual.line.Line object at 0x7fb871723100>, <psychopy.visual.line.Line object at 0x7fb8717234f0>]",<psychopy.hardware.keyboard.Keyboard object at 0x7fb87014e070>,
0,pause,0.4,None,None,None,0,41,41,41,,,,,,,,,,,,,N006,visual,1,"['1', '2']","['3', '4']",1,/NOBACKUP2/USER/Jeong/experiment2,/NOBACKUP2/USER/Jeong/experiment2/logfiles/visual/N006_d-20240926,2023.2.3,harveyvisual,"Window(allowGUI=False, allowStencil=False, autoLog=True, backendConf=UNKNOWN, backgroundFit='cover', backgroundImage=None, bitsMode=UNKNOWN, blendMode='avg', bpc=(8, 8, 8), color=array([-1, -1, -1]), colorSpace='rgb', depthBits=8, fullscr=<method-wrapper '__getattribute__' of attributeSetter object at 0x7fb87b6d44f0>, gamma=None, gammaErrorPolicy='raise', lms=UNKNOWN, monitor=<psychopy.monitors.calibTools.Monitor object at 0x7fb8747fef10>, multiSample=False, name='stim_window', numSamples=2, pos=[0.0, 0.0], screen=0, size=array([1920, 1080]), stencilBits=0, stereo=False, title='PsychoPy', units='deg', useFBO=True, useRetina=False, viewOri=0.0, viewPos=None, viewScale=None, waitBlanking=True, winType='pyglet')","{'TR': 2.1, 'volumes': 5, 'sync': '5', 'skip': 0, 'sound': False}",<psychopy.clock.CountdownTimer object at 0x7fb8747db8b0>,"Rect(__class__=<class 'psychopy.visual.rect.Rect'>, anchor=('center', 'center'), autoDraw=True, autoLog=True, closeShape=True, color=method-wrapper(...), colorSpace='rgb', contrast=None, depth=0, draggable=False, fillColor=array([0.00392157, 0.00392157, 0.00392157]), fillColorSpace='rgb', fillRGB=array([0.00392157, 0.00392157, 0.00392157]), interpolate=True, lineColor=array([0., 0., 0.]), lineColorSpace='rgb', lineRGB=array([0, 0, 0]), lineWidth=1.5, name='unnamed Rect', opacity=0.5, ori=0.0, pos=array([0., 0.]), size=array([2., 2.]), units='norm', vertices=ndarray(...), win=Window(...))",2.1,[],8,0.75,"[<psychopy.visual.line.Line object at 0x7fb871723100>, <psychopy.visual.line.Line object at 0x7fb8717234f0>]",<psychopy.hardware.keyboard.Keyboard object at 0x7fb87014e070>,
4,dot,0.3,['dot'],['density'],black,0,42,42,42,,,16.816349029541016,17.116497039794922,dot,"[0.08, 0.1, 0.06, 0.08]","[[-0.1807894278345534, -0.050693892368996955], [-0.03778933673514029, -0.29773510453537966], [0.0747201162679791, -0.1287424711559737], [-0.02241484737224569, 0.07404475448468936]]",density,black,true,correct,nan,N006,visual,1,"['1', '2']","['3', '4']",1,/NOBACKUP2/USER/Jeong/experiment2,/NOBACKUP2/USER/Jeong/experiment2/logfiles/visual/N006_d-20240926,2023.2.3,harveyvisual,"Window(allowGUI=False, allowStencil=False, autoLog=True, backendConf=UNKNOWN, backgroundFit='cover', backgroundImage=None, bitsMode=UNKNOWN, blendMode='avg', bpc=(8, 8, 8), color=array([-1, -1, -1]), colorSpace='rgb', depthBits=8, fullscr=<method-wrapper '__getattribute__' of attributeSetter object at 0x7fb87b6d44f0>, gamma=None, gammaErrorPolicy='raise', lms=UNKNOWN, monitor=<psychopy.monitors.calibTools.Monitor object at 0x7fb8747fef10>, multiSample=False, name='stim_window', numSamples=2, pos=[0.0, 0.0], screen=0, size=array([1920, 1080]), stencilBits=0, stereo=False, title='PsychoPy', units='deg', useFBO=True, useRetina=False, viewOri=0.0, viewPos=None, viewScale=None, waitBlanking=True, winType='pyglet')","{'TR': 2.1, 'volumes': 5, 'sync': '5', 'skip': 0, 'sound': False}",<psychopy.clock.CountdownTimer object at 0x7fb8747db8b0>,"Rect(__class__=<class 'psychopy.visual.rect.Rect'>, anchor=('center', 'center'), autoDraw=True, autoLog=True, closeShape=True, color=method-wrapper(...), colorSpace='rgb', contrast=None, depth=0, draggable=False, fillColor=array([0.00392157, 0.00392157, 0.00392157]), fillColorSpace='rgb', fillRGB=array([0.00392157, 0.00392157, 0.00392157]), interpolate=True, lineColor=array([0., 0., 0.]), lineColorSpace='rgb', lineRGB=array([0, 0, 0]), lineWidth=1.5, name='unnamed Rect', opacity=0.5, ori=0.0, pos=array([0., 0.]), size=array([2., 2.]), units='norm', vertices=ndarray(...), win=Window(...))",2.1,[],8,0.75,"[<psychopy.visual.line.Line object at 0x7fb871723100>, <psychopy.visual.line.Line object at 0x7fb8717234f0>]",<psychopy.hardware.keyboard.Keyboard object at 0x7fb87014e070>,
0,pause,0.4,None,None,None,0,43,43,43,,,,,,,,,,,,,N006,visual,1,"['1', '2']","['3', '4']",1,/NOBACKUP2/USER/Jeong/experiment2,/NOBACKUP2/USER/Jeong/experiment2/logfiles/visual/N006_d-20240926,2023.2.3,harveyvisual,"Window(allowGUI=False, allowStencil=False, autoLog=True, backendConf=UNKNOWN, backgroundFit='cover', backgroundImage=None, bitsMode=UNKNOWN, blendMode='avg', bpc=(8, 8, 8), color=array([-1, -1, -1]), colorSpace='rgb', depthBits=8, fullscr=<method-wrapper '__getattribute__' of attributeSetter object at 0x7fb87b6d44f0>, gamma=None, gammaErrorPolicy='raise', lms=UNKNOWN, monitor=<psychopy.monitors.calibTools.Monitor object at 0x7fb8747fef10>, multiSample=False, name='stim_window', numSamples=2, pos=[0.0, 0.0], screen=0, size=array([1920, 1080]), stencilBits=0, stereo=False, title='PsychoPy', units='deg', useFBO=True, useRetina=False, viewOri=0.0, viewPos=None, viewScale=None, waitBlanking=True, winType='pyglet')","{'TR': 2.1, 'volumes': 5, 'sync': '5', 'skip': 0, 'sound': False}",<psychopy.clock.CountdownTimer object at 0x7fb8747db8b0>,"Rect(__class__=<class 'psychopy.visual.rect.Rect'>, anchor=('center', 'center'), autoDraw=True, autoLog=True, closeShape=True, color=method-wrapper(...), colorSpace='rgb', contrast=None, depth=0, draggable=False, fillColor=array([0.00392157, 0.00392157, 0.00392157]), fillColorSpace='rgb', fillRGB=array([0.00392157, 0.00392157, 0.00392157]), interpolate=True, lineColor=array([0., 0., 0.]), lineColorSpace='rgb', lineRGB=array([0, 0, 0]), lineWidth=1.5, name='unnamed Rect', opacity=0.5, ori=0.0, pos=array([0., 0.]), size=array([2., 2.]), units='norm', vertices=ndarray(...), win=Window(...))",2.1,[],8,0.75,"[<psychopy.visual.line.Line object at 0x7fb871723100>, <psychopy.visual.line.Line object at 0x7fb8717234f0>]",<psychopy.hardware.keyboard.Keyboard object at 0x7fb87014e070>,
4,dot,0.3,['dot'],['density'],black,0,44,44,44,,,17.516461849212646,17.816452026367188,dot,"[0.08, 0.06, 0.06, 0.06]","[[-0.1807894278345534, -0.050693892368996955], [-0.03778933673514029, -0.29773510453537966], [0.0747201162679791, -0.1287424711559737], [-0.02241484737224569, 0.07404475448468936]]",density,black,true,correct,nan,N006,visual,1,"['1', '2']","['3', '4']",1,/NOBACKUP2/USER/Jeong/experiment2,/NOBACKUP2/USER/Jeong/experiment2/logfiles/visual/N006_d-20240926,2023.2.3,harveyvisual,"Window(allowGUI=False, allowStencil=False, autoLog=True, backendConf=UNKNOWN, backgroundFit='cover', backgroundImage=None, bitsMode=UNKNOWN, blendMode='avg', bpc=(8, 8, 8), color=array([-1, -1, -1]), colorSpace='rgb', depthBits=8, fullscr=<method-wrapper '__getattribute__' of attributeSetter object at 0x7fb87b6d44f0>, gamma=None, gammaErrorPolicy='raise', lms=UNKNOWN, monitor=<psychopy.monitors.calibTools.Monitor object at 0x7fb8747fef10>, multiSample=False, name='stim_window', numSamples=2, pos=[0.0, 0.0], screen=0, size=array([1920, 1080]), stencilBits=0, stereo=False, title='PsychoPy', units='deg', useFBO=True, useRetina=False, viewOri=0.0, viewPos=None, viewScale=None, waitBlanking=True, winType='pyglet')","{'TR': 2.1, 'volumes': 5, 'sync': '5', 'skip': 0, 'sound': False}",<psychopy.clock.CountdownTimer object at 0x7fb8747db8b0>,"Rect(__class__=<class 'psychopy.visual.rect.Rect'>, anchor=('center', 'center'), autoDraw=True, autoLog=True, closeShape=True, color=method-wrapper(...), colorSpace='rgb', contrast=None, depth=0, draggable=False, fillColor=array([0.00392157, 0.00392157, 0.00392157]), fillColorSpace='rgb', fillRGB=array([0.00392157, 0.00392157, 0.00392157]), interpolate=True, lineColor=array([0., 0., 0.]), lineColorSpace='rgb', lineRGB=array([0, 0, 0]), lineWidth=1.5, name='unnamed Rect', opacity=0.5, ori=0.0, pos=array([0., 0.]), size=array([2., 2.]), units='norm', vertices=ndarray(...), win=Window(...))",2.1,[],8,0.75,"[<psychopy.visual.line.Line object at 0x7fb871723100>, <psychopy.visual.line.Line object at 0x7fb8717234f0>]",<psychopy.hardware.keyboard.Keyboard object at 0x7fb87014e070>,
0,pause,0.4,None,None,None,0,45,45,45,,,,,,,,,,,,,N006,visual,1,"['1', '2']","['3', '4']",1,/NOBACKUP2/USER/Jeong/experiment2,/NOBACKUP2/USER/Jeong/experiment2/logfiles/visual/N006_d-20240926,2023.2.3,harveyvisual,"Window(allowGUI=False, allowStencil=False, autoLog=True, backendConf=UNKNOWN, backgroundFit='cover', backgroundImage=None, bitsMode=UNKNOWN, blendMode='avg', bpc=(8, 8, 8), color=array([-1, -1, -1]), colorSpace='rgb', depthBits=8, fullscr=<method-wrapper '__getattribute__' of attributeSetter object at 0x7fb87b6d44f0>, gamma=None, gammaErrorPolicy='raise', lms=UNKNOWN, monitor=<psychopy.monitors.calibTools.Monitor object at 0x7fb8747fef10>, multiSample=False, name='stim_window', numSamples=2, pos=[0.0, 0.0], screen=0, size=array([1920, 1080]), stencilBits=0, stereo=False, title='PsychoPy', units='deg', useFBO=True, useRetina=False, viewOri=0.0, viewPos=None, viewScale=None, waitBlanking=True, winType='pyglet')","{'TR': 2.1, 'volumes': 5, 'sync': '5', 'skip': 0, 'sound': False}",<psychopy.clock.CountdownTimer object at 0x7fb8747db8b0>,"Rect(__class__=<class 'psychopy.visual.rect.Rect'>, anchor=('center', 'center'), autoDraw=True, autoLog=True, closeShape=True, color=method-wrapper(...), colorSpace='rgb', contrast=None, depth=0, draggable=False, fillColor=array([0.00392157, 0.00392157, 0.00392157]), fillColorSpace='rgb', fillRGB=array([0.00392157, 0.00392157, 0.00392157]), interpolate=True, lineColor=array([0., 0., 0.]), lineColorSpace='rgb', lineRGB=array([0, 0, 0]), lineWidth=1.5, name='unnamed Rect', opacity=0.5, ori=0.0, pos=array([0., 0.]), size=array([2., 2.]), units='norm', vertices=ndarray(...), win=Window(...))",2.1,[],8,0.75,"[<psychopy.visual.line.Line object at 0x7fb871723100>, <psychopy.visual.line.Line object at 0x7fb8717234f0>]",<psychopy.hardware.keyboard.Keyboard object at 0x7fb87014e070>,
4,dot,0.3,['dot'],['density'],black,0,46,46,46,,,18.216469049453735,18.51630401611328,dot,"[0.08, 0.08, 0.06, 0.06]","[[0.17852470546651972, -0.2012438881607824], [-0.031034799765910746, -0.12466087783573923], [0.008996399474264666, -0.3229379719524122], [0.15114343287780646, 0.03986859122442722]]",density,black,true,correct,nan,N006,visual,1,"['1', '2']","['3', '4']",1,/NOBACKUP2/USER/Jeong/experiment2,/NOBACKUP2/USER/Jeong/experiment2/logfiles/visual/N006_d-20240926,2023.2.3,harveyvisual,"Window(allowGUI=False, allowStencil=False, autoLog=True, backendConf=UNKNOWN, backgroundFit='cover', backgroundImage=None, bitsMode=UNKNOWN, blendMode='avg', bpc=(8, 8, 8), color=array([-1, -1, -1]), colorSpace='rgb', depthBits=8, fullscr=<method-wrapper '__getattribute__' of attributeSetter object at 0x7fb87b6d44f0>, gamma=None, gammaErrorPolicy='raise', lms=UNKNOWN, monitor=<psychopy.monitors.calibTools.Monitor object at 0x7fb8747fef10>, multiSample=False, name='stim_window', numSamples=2, pos=[0.0, 0.0], screen=0, size=array([1920, 1080]), stencilBits=0, stereo=False, title='PsychoPy', units='deg', useFBO=True, useRetina=False, viewOri=0.0, viewPos=None, viewScale=None, waitBlanking=True, winType='pyglet')","{'TR': 2.1, 'volumes': 5, 'sync': '5', 'skip': 0, 'sound': False}",<psychopy.clock.CountdownTimer object at 0x7fb8747db8b0>,"Rect(__class__=<class 'psychopy.visual.rect.Rect'>, anchor=('center', 'center'), autoDraw=True, autoLog=True, closeShape=True, color=method-wrapper(...), colorSpace='rgb', contrast=None, depth=0, draggable=False, fillColor=array([0.00392157, 0.00392157, 0.00392157]), fillColorSpace='rgb', fillRGB=array([0.00392157, 0.00392157, 0.00392157]), interpolate=True, lineColor=array([0., 0., 0.]), lineColorSpace='rgb', lineRGB=array([0, 0, 0]), lineWidth=1.5, name='unnamed Rect', opacity=0.5, ori=0.0, pos=array([0., 0.]), size=array([2., 2.]), units='norm', vertices=ndarray(...), win=Window(...))",2.1,[],8,0.75,"[<psychopy.visual.line.Line object at 0x7fb871723100>, <psychopy.visual.line.Line object at 0x7fb8717234f0>]",<psychopy.hardware.keyboard.Keyboard object at 0x7fb87014e070>,
0,pause,0.4,None,None,None,0,47,47,47,,,,,,,,,,,,,N006,visual,1,"['1', '2']","['3', '4']",1,/NOBACKUP2/USER/Jeong/experiment2,/NOBACKUP2/USER/Jeong/experiment2/logfiles/visual/N006_d-20240926,2023.2.3,harveyvisual,"Window(allowGUI=False, allowStencil=False, autoLog=True, backendConf=UNKNOWN, backgroundFit='cover', backgroundImage=None, bitsMode=UNKNOWN, blendMode='avg', bpc=(8, 8, 8), color=array([-1, -1, -1]), colorSpace='rgb', depthBits=8, fullscr=<method-wrapper '__getattribute__' of attributeSetter object at 0x7fb87b6d44f0>, gamma=None, gammaErrorPolicy='raise', lms=UNKNOWN, monitor=<psychopy.monitors.calibTools.Monitor object at 0x7fb8747fef10>, multiSample=False, name='stim_window', numSamples=2, pos=[0.0, 0.0], screen=0, size=array([1920, 1080]), stencilBits=0, stereo=False, title='PsychoPy', units='deg', useFBO=True, useRetina=False, viewOri=0.0, viewPos=None, viewScale=None, waitBlanking=True, winType='pyglet')","{'TR': 2.1, 'volumes': 5, 'sync': '5', 'skip': 0, 'sound': False}",<psychopy.clock.CountdownTimer object at 0x7fb8747db8b0>,"Rect(__class__=<class 'psychopy.visual.rect.Rect'>, anchor=('center', 'center'), autoDraw=True, autoLog=True, closeShape=True, color=method-wrapper(...), colorSpace='rgb', contrast=None, depth=0, draggable=False, fillColor=array([0.00392157, 0.00392157, 0.00392157]), fillColorSpace='rgb', fillRGB=array([0.00392157, 0.00392157, 0.00392157]), interpolate=True, lineColor=array([0., 0., 0.]), lineColorSpace='rgb', lineRGB=array([0, 0, 0]), lineWidth=1.5, name='unnamed Rect', opacity=0.5, ori=0.0, pos=array([0., 0.]), size=array([2., 2.]), units='norm', vertices=ndarray(...), win=Window(...))",2.1,[],8,0.75,"[<psychopy.visual.line.Line object at 0x7fb871723100>, <psychopy.visual.line.Line object at 0x7fb8717234f0>]",<psychopy.hardware.keyboard.Keyboard object at 0x7fb87014e070>,
5,dot,0.3,['dot'],['density'],black,0,48,48,48,,,18.91627788543701,19.21625590324402,dot,"[0.08, 0.1, 0.08, 0.08, 0.08]","[[0.2447541601906441, 0.3086669061463178], [0.2085849672204031, -0.04267428248465989], [0.44393754570968663, -0.061602228714441105], [0.027125763574429876, 0.05764502161176834], [0.36879828001487897, 0.1310025380577708]]",density,black,false,wrong,nan,N006,visual,1,"['1', '2']","['3', '4']",1,/NOBACKUP2/USER/Jeong/experiment2,/NOBACKUP2/USER/Jeong/experiment2/logfiles/visual/N006_d-20240926,2023.2.3,harveyvisual,"Window(allowGUI=False, allowStencil=False, autoLog=True, backendConf=UNKNOWN, backgroundFit='cover', backgroundImage=None, bitsMode=UNKNOWN, blendMode='avg', bpc=(8, 8, 8), color=array([-1, -1, -1]), colorSpace='rgb', depthBits=8, fullscr=<method-wrapper '__getattribute__' of attributeSetter object at 0x7fb87b6d44f0>, gamma=None, gammaErrorPolicy='raise', lms=UNKNOWN, monitor=<psychopy.monitors.calibTools.Monitor object at 0x7fb8747fef10>, multiSample=False, name='stim_window', numSamples=2, pos=[0.0, 0.0], screen=0, size=array([1920, 1080]), stencilBits=0, stereo=False, title='PsychoPy', units='deg', useFBO=True, useRetina=False, viewOri=0.0, viewPos=None, viewScale=None, waitBlanking=True, winType='pyglet')","{'TR': 2.1, 'volumes': 5, 'sync': '5', 'skip': 0, 'sound': False}",<psychopy.clock.CountdownTimer object at 0x7fb8747db8b0>,"Rect(__class__=<class 'psychopy.visual.rect.Rect'>, anchor=('center', 'center'), autoDraw=True, autoLog=True, closeShape=True, color=method-wrapper(...), colorSpace='rgb', contrast=None, depth=0, draggable=False, fillColor=array([0.00392157, 0.00392157, 0.00392157]), fillColorSpace='rgb', fillRGB=array([0.00392157, 0.00392157, 0.00392157]), interpolate=True, lineColor=array([0., 0., 0.]), lineColorSpace='rgb', lineRGB=array([0, 0, 0]), lineWidth=1.5, name='unnamed Rect', opacity=0.5, ori=0.0, pos=array([0., 0.]), size=array([2., 2.]), units='norm', vertices=ndarray(...), win=Window(...))",2.1,[],8,0.75,"[<psychopy.visual.line.Line object at 0x7fb871723100>, <psychopy.visual.line.Line object at 0x7fb8717234f0>]",<psychopy.hardware.keyboard.Keyboard object at 0x7fb87014e070>,
0,pause,0.4,None,None,None,0,49,49,49,,,,,,,,,,,,,N006,visual,1,"['1', '2']","['3', '4']",1,/NOBACKUP2/USER/Jeong/experiment2,/NOBACKUP2/USER/Jeong/experiment2/logfiles/visual/N006_d-20240926,2023.2.3,harveyvisual,"Window(allowGUI=False, allowStencil=False, autoLog=True, backendConf=UNKNOWN, backgroundFit='cover', backgroundImage=None, bitsMode=UNKNOWN, blendMode='avg', bpc=(8, 8, 8), color=array([-1, -1, -1]), colorSpace='rgb', depthBits=8, fullscr=<method-wrapper '__getattribute__' of attributeSetter object at 0x7fb87b6d44f0>, gamma=None, gammaErrorPolicy='raise', lms=UNKNOWN, monitor=<psychopy.monitors.calibTools.Monitor object at 0x7fb8747fef10>, multiSample=False, name='stim_window', numSamples=2, pos=[0.0, 0.0], screen=0, size=array([1920, 1080]), stencilBits=0, stereo=False, title='PsychoPy', units='deg', useFBO=True, useRetina=False, viewOri=0.0, viewPos=None, viewScale=None, waitBlanking=True, winType='pyglet')","{'TR': 2.1, 'volumes': 5, 'sync': '5', 'skip': 0, 'sound': False}",<psychopy.clock.CountdownTimer object at 0x7fb8747db8b0>,"Rect(__class__=<class 'psychopy.visual.rect.Rect'>, anchor=('center', 'center'), autoDraw=True, autoLog=True, closeShape=True, color=method-wrapper(...), colorSpace='rgb', contrast=None, depth=0, draggable=False, fillColor=array([0.00392157, 0.00392157, 0.00392157]), fillColorSpace='rgb', fillRGB=array([0.00392157, 0.00392157, 0.00392157]), interpolate=True, lineColor=array([0., 0., 0.]), lineColorSpace='rgb', lineRGB=array([0, 0, 0]), lineWidth=1.5, name='unnamed Rect', opacity=0.5, ori=0.0, pos=array([0., 0.]), size=array([2., 2.]), units='norm', vertices=ndarray(...), win=Window(...))",2.1,[],8,0.75,"[<psychopy.visual.line.Line object at 0x7fb871723100>, <psychopy.visual.line.Line object at 0x7fb8717234f0>]",<psychopy.hardware.keyboard.Keyboard object at 0x7fb87014e070>,
