num,mod,duration,shape,ll_cond,colors,.thisRepN,.thisTrialN,.thisN,.thisIndex,thisRow.t,notes,t_start,t_stop,shapes,size,pos,cond,color,match,answer_truth,RT,participant,session,starting_run,left button (match/odd),right button (non-match/even),samples_per_block,_thisDir,out_path,psychopy version,expName,win,MR_settings,routine_timer,background,offset,audio,number_runs,radius,fix_cross,defaultKeyboard,
1,dot,0.3,['dot'],['density'],black,0,0,0,0,,,2.1042771339416504,2.4047629833221436,dot,[0.08],"[-0.22364231775977078, 0.4637426405669522]",density,black,,,,N006,visual,1,"['1', '2']","['3', '4']",1,/NOBACKUP2/USER/Jeong/experiment2,/NOBACKUP2/USER/Jeong/experiment2/logfiles/visual/N006_d-20240926,2023.2.3,harveyvisual,"Window(allowGUI=False, allowStencil=False, autoLog=True, backendConf=UNKNOWN, backgroundFit='cover', backgroundImage=None, bitsMode=UNKNOWN, blendMode='avg', bpc=(8, 8, 8), color=array([-1, -1, -1]), colorSpace='rgb', depthBits=8, fullscr=<method-wrapper '__getattribute__' of attributeSetter object at 0x7fb87b6d44f0>, gamma=None, gammaErrorPolicy='raise', lms=UNKNOWN, monitor=<psychopy.monitors.calibTools.Monitor object at 0x7fb8747fef10>, multiSample=False, name='stim_window', numSamples=2, pos=[0.0, 0.0], screen=0, size=array([1920, 1080]), stencilBits=0, stereo=False, title='PsychoPy', units='deg', useFBO=True, useRetina=False, viewOri=0.0, viewPos=None, viewScale=None, waitBlanking=True, winType='pyglet')","{'TR': 2.1, 'volumes': 5, 'sync': '5', 'skip': 0, 'sound': False}",<psychopy.clock.CountdownTimer object at 0x7fb8747db8b0>,"Rect(__class__=<class 'psychopy.visual.rect.Rect'>, anchor=('center', 'center'), autoDraw=True, autoLog=True, closeShape=True, color=method-wrapper(...), colorSpace='rgb', contrast=None, depth=0, draggable=False, fillColor=array([0.00392157, 0.00392157, 0.00392157]), fillColorSpace='rgb', fillRGB=array([0.00392157, 0.00392157, 0.00392157]), interpolate=True, lineColor=array([0., 0., 0.]), lineColorSpace='rgb', lineRGB=array([0, 0, 0]), lineWidth=1.5, name='unnamed Rect', opacity=0.5, ori=0.0, pos=array([0., 0.]), size=array([2., 2.]), units='norm', vertices=ndarray(...), win=Window(...))",2.1,[],8,0.75,"[<psychopy.visual.line.Line object at 0x7fb871723100>, <psychopy.visual.line.Line object at 0x7fb8717234f0>]",<psychopy.hardware.keyboard.Keyboard object at 0x7fb857592b80>,
0,pause,0.4,None,None,None,0,1,1,1,,,,,,,,,,,,,N006,visual,1,"['1', '2']","['3', '4']",1,/NOBACKUP2/USER/Jeong/experiment2,/NOBACKUP2/USER/Jeong/experiment2/logfiles/visual/N006_d-20240926,2023.2.3,harveyvisual,"Window(allowGUI=False, allowStencil=False, autoLog=True, backendConf=UNKNOWN, backgroundFit='cover', backgroundImage=None, bitsMode=UNKNOWN, blendMode='avg', bpc=(8, 8, 8), color=array([-1, -1, -1]), colorSpace='rgb', depthBits=8, fullscr=<method-wrapper '__getattribute__' of attributeSetter object at 0x7fb87b6d44f0>, gamma=None, gammaErrorPolicy='raise', lms=UNKNOWN, monitor=<psychopy.monitors.calibTools.Monitor object at 0x7fb8747fef10>, multiSample=False, name='stim_window', numSamples=2, pos=[0.0, 0.0], screen=0, size=array([1920, 1080]), stencilBits=0, stereo=False, title='PsychoPy', units='deg', useFBO=True, useRetina=False, viewOri=0.0, viewPos=None, viewScale=None, waitBlanking=True, winType='pyglet')","{'TR': 2.1, 'volumes': 5, 'sync': '5', 'skip': 0, 'sound': False}",<psychopy.clock.CountdownTimer object at 0x7fb8747db8b0>,"Rect(__class__=<class 'psychopy.visual.rect.Rect'>, anchor=('center', 'center'), autoDraw=True, autoLog=True, closeShape=True, color=method-wrapper(...), colorSpace='rgb', contrast=None, depth=0, draggable=False, fillColor=array([0.00392157, 0.00392157, 0.00392157]), fillColorSpace='rgb', fillRGB=array([0.00392157, 0.00392157, 0.00392157]), interpolate=True, lineColor=array([0., 0., 0.]), lineColorSpace='rgb', lineRGB=array([0, 0, 0]), lineWidth=1.5, name='unnamed Rect', opacity=0.5, ori=0.0, pos=array([0., 0.]), size=array([2., 2.]), units='norm', vertices=ndarray(...), win=Window(...))",2.1,[],8,0.75,"[<psychopy.visual.line.Line object at 0x7fb871723100>, <psychopy.visual.line.Line object at 0x7fb8717234f0>]",<psychopy.hardware.keyboard.Keyboard object at 0x7fb857592b80>,
1,dot,0.3,['dot'],['density'],black,0,2,2,2,,,2.804171085357666,3.1046769618988037,dot,[0.08],"[-0.4309303250570785, -0.37878052449928096]",density,black,true,correct,nan,N006,visual,1,"['1', '2']","['3', '4']",1,/NOBACKUP2/USER/Jeong/experiment2,/NOBACKUP2/USER/Jeong/experiment2/logfiles/visual/N006_d-20240926,2023.2.3,harveyvisual,"Window(allowGUI=False, allowStencil=False, autoLog=True, backendConf=UNKNOWN, backgroundFit='cover', backgroundImage=None, bitsMode=UNKNOWN, blendMode='avg', bpc=(8, 8, 8), color=array([-1, -1, -1]), colorSpace='rgb', depthBits=8, fullscr=<method-wrapper '__getattribute__' of attributeSetter object at 0x7fb87b6d44f0>, gamma=None, gammaErrorPolicy='raise', lms=UNKNOWN, monitor=<psychopy.monitors.calibTools.Monitor object at 0x7fb8747fef10>, multiSample=False, name='stim_window', numSamples=2, pos=[0.0, 0.0], screen=0, size=array([1920, 1080]), stencilBits=0, stereo=False, title='PsychoPy', units='deg', useFBO=True, useRetina=False, viewOri=0.0, viewPos=None, viewScale=None, waitBlanking=True, winType='pyglet')","{'TR': 2.1, 'volumes': 5, 'sync': '5', 'skip': 0, 'sound': False}",<psychopy.clock.CountdownTimer object at 0x7fb8747db8b0>,"Rect(__class__=<class 'psychopy.visual.rect.Rect'>, anchor=('center', 'center'), autoDraw=True, autoLog=True, closeShape=True, color=method-wrapper(...), colorSpace='rgb', contrast=None, depth=0, draggable=False, fillColor=array([0.00392157, 0.00392157, 0.00392157]), fillColorSpace='rgb', fillRGB=array([0.00392157, 0.00392157, 0.00392157]), interpolate=True, lineColor=array([0., 0., 0.]), lineColorSpace='rgb', lineRGB=array([0, 0, 0]), lineWidth=1.5, name='unnamed Rect', opacity=0.5, ori=0.0, pos=array([0., 0.]), size=array([2., 2.]), units='norm', vertices=ndarray(...), win=Window(...))",2.1,[],8,0.75,"[<psychopy.visual.line.Line object at 0x7fb871723100>, <psychopy.visual.line.Line object at 0x7fb8717234f0>]",<psychopy.hardware.keyboard.Keyboard object at 0x7fb857592b80>,
0,pause,0.4,None,None,None,0,3,3,3,,,,,,,,,,,,,N006,visual,1,"['1', '2']","['3', '4']",1,/NOBACKUP2/USER/Jeong/experiment2,/NOBACKUP2/USER/Jeong/experiment2/logfiles/visual/N006_d-20240926,2023.2.3,harveyvisual,"Window(allowGUI=False, allowStencil=False, autoLog=True, backendConf=UNKNOWN, backgroundFit='cover', backgroundImage=None, bitsMode=UNKNOWN, blendMode='avg', bpc=(8, 8, 8), color=array([-1, -1, -1]), colorSpace='rgb', depthBits=8, fullscr=<method-wrapper '__getattribute__' of attributeSetter object at 0x7fb87b6d44f0>, gamma=None, gammaErrorPolicy='raise', lms=UNKNOWN, monitor=<psychopy.monitors.calibTools.Monitor object at 0x7fb8747fef10>, multiSample=False, name='stim_window', numSamples=2, pos=[0.0, 0.0], screen=0, size=array([1920, 1080]), stencilBits=0, stereo=False, title='PsychoPy', units='deg', useFBO=True, useRetina=False, viewOri=0.0, viewPos=None, viewScale=None, waitBlanking=True, winType='pyglet')","{'TR': 2.1, 'volumes': 5, 'sync': '5', 'skip': 0, 'sound': False}",<psychopy.clock.CountdownTimer object at 0x7fb8747db8b0>,"Rect(__class__=<class 'psychopy.visual.rect.Rect'>, anchor=('center', 'center'), autoDraw=True, autoLog=True, closeShape=True, color=method-wrapper(...), colorSpace='rgb', contrast=None, depth=0, draggable=False, fillColor=array([0.00392157, 0.00392157, 0.00392157]), fillColorSpace='rgb', fillRGB=array([0.00392157, 0.00392157, 0.00392157]), interpolate=True, lineColor=array([0., 0., 0.]), lineColorSpace='rgb', lineRGB=array([0, 0, 0]), lineWidth=1.5, name='unnamed Rect', opacity=0.5, ori=0.0, pos=array([0., 0.]), size=array([2., 2.]), units='norm', vertices=ndarray(...), win=Window(...))",2.1,[],8,0.75,"[<psychopy.visual.line.Line object at 0x7fb871723100>, <psychopy.visual.line.Line object at 0x7fb8717234f0>]",<psychopy.hardware.keyboard.Keyboard object at 0x7fb857592b80>,
1,dot,0.3,['dot'],['density'],black,0,4,4,4,,,3.5046370029449463,3.8046741485595703,dot,[0.1],"[-0.40242150741388927, 0.27329756427278695]",density,black,true,correct,nan,N006,visual,1,"['1', '2']","['3', '4']",1,/NOBACKUP2/USER/Jeong/experiment2,/NOBACKUP2/USER/Jeong/experiment2/logfiles/visual/N006_d-20240926,2023.2.3,harveyvisual,"Window(allowGUI=False, allowStencil=False, autoLog=True, backendConf=UNKNOWN, backgroundFit='cover', backgroundImage=None, bitsMode=UNKNOWN, blendMode='avg', bpc=(8, 8, 8), color=array([-1, -1, -1]), colorSpace='rgb', depthBits=8, fullscr=<method-wrapper '__getattribute__' of attributeSetter object at 0x7fb87b6d44f0>, gamma=None, gammaErrorPolicy='raise', lms=UNKNOWN, monitor=<psychopy.monitors.calibTools.Monitor object at 0x7fb8747fef10>, multiSample=False, name='stim_window', numSamples=2, pos=[0.0, 0.0], screen=0, size=array([1920, 1080]), stencilBits=0, stereo=False, title='PsychoPy', units='deg', useFBO=True, useRetina=False, viewOri=0.0, viewPos=None, viewScale=None, waitBlanking=True, winType='pyglet')","{'TR': 2.1, 'volumes': 5, 'sync': '5', 'skip': 0, 'sound': False}",<psychopy.clock.CountdownTimer object at 0x7fb8747db8b0>,"Rect(__class__=<class 'psychopy.visual.rect.Rect'>, anchor=('center', 'center'), autoDraw=True, autoLog=True, closeShape=True, color=method-wrapper(...), colorSpace='rgb', contrast=None, depth=0, draggable=False, fillColor=array([0.00392157, 0.00392157, 0.00392157]), fillColorSpace='rgb', fillRGB=array([0.00392157, 0.00392157, 0.00392157]), interpolate=True, lineColor=array([0., 0., 0.]), lineColorSpace='rgb', lineRGB=array([0, 0, 0]), lineWidth=1.5, name='unnamed Rect', opacity=0.5, ori=0.0, pos=array([0., 0.]), size=array([2., 2.]), units='norm', vertices=ndarray(...), win=Window(...))",2.1,[],8,0.75,"[<psychopy.visual.line.Line object at 0x7fb871723100>, <psychopy.visual.line.Line object at 0x7fb8717234f0>]",<psychopy.hardware.keyboard.Keyboard object at 0x7fb857592b80>,
0,pause,0.4,None,None,None,0,5,5,5,,,,,,,,,,,,,N006,visual,1,"['1', '2']","['3', '4']",1,/NOBACKUP2/USER/Jeong/experiment2,/NOBACKUP2/USER/Jeong/experiment2/logfiles/visual/N006_d-20240926,2023.2.3,harveyvisual,"Window(allowGUI=False, allowStencil=False, autoLog=True, backendConf=UNKNOWN, backgroundFit='cover', backgroundImage=None, bitsMode=UNKNOWN, blendMode='avg', bpc=(8, 8, 8), color=array([-1, -1, -1]), colorSpace='rgb', depthBits=8, fullscr=<method-wrapper '__getattribute__' of attributeSetter object at 0x7fb87b6d44f0>, gamma=None, gammaErrorPolicy='raise', lms=UNKNOWN, monitor=<psychopy.monitors.calibTools.Monitor object at 0x7fb8747fef10>, multiSample=False, name='stim_window', numSamples=2, pos=[0.0, 0.0], screen=0, size=array([1920, 1080]), stencilBits=0, stereo=False, title='PsychoPy', units='deg', useFBO=True, useRetina=False, viewOri=0.0, viewPos=None, viewScale=None, waitBlanking=True, winType='pyglet')","{'TR': 2.1, 'volumes': 5, 'sync': '5', 'skip': 0, 'sound': False}",<psychopy.clock.CountdownTimer object at 0x7fb8747db8b0>,"Rect(__class__=<class 'psychopy.visual.rect.Rect'>, anchor=('center', 'center'), autoDraw=True, autoLog=True, closeShape=True, color=method-wrapper(...), colorSpace='rgb', contrast=None, depth=0, draggable=False, fillColor=array([0.00392157, 0.00392157, 0.00392157]), fillColorSpace='rgb', fillRGB=array([0.00392157, 0.00392157, 0.00392157]), interpolate=True, lineColor=array([0., 0., 0.]), lineColorSpace='rgb', lineRGB=array([0, 0, 0]), lineWidth=1.5, name='unnamed Rect', opacity=0.5, ori=0.0, pos=array([0., 0.]), size=array([2., 2.]), units='norm', vertices=ndarray(...), win=Window(...))",2.1,[],8,0.75,"[<psychopy.visual.line.Line object at 0x7fb871723100>, <psychopy.visual.line.Line object at 0x7fb8717234f0>]",<psychopy.hardware.keyboard.Keyboard object at 0x7fb857592b80>,
1,dot,0.3,['dot'],['density'],black,0,6,6,6,,,4.2046799659729,4.5046751499176025,dot,[0.1],"[-0.40242150741388927, 0.27329756427278695]",density,black,true,correct,nan,N006,visual,1,"['1', '2']","['3', '4']",1,/NOBACKUP2/USER/Jeong/experiment2,/NOBACKUP2/USER/Jeong/experiment2/logfiles/visual/N006_d-20240926,2023.2.3,harveyvisual,"Window(allowGUI=False, allowStencil=False, autoLog=True, backendConf=UNKNOWN, backgroundFit='cover', backgroundImage=None, bitsMode=UNKNOWN, blendMode='avg', bpc=(8, 8, 8), color=array([-1, -1, -1]), colorSpace='rgb', depthBits=8, fullscr=<method-wrapper '__getattribute__' of attributeSetter object at 0x7fb87b6d44f0>, gamma=None, gammaErrorPolicy='raise', lms=UNKNOWN, monitor=<psychopy.monitors.calibTools.Monitor object at 0x7fb8747fef10>, multiSample=False, name='stim_window', numSamples=2, pos=[0.0, 0.0], screen=0, size=array([1920, 1080]), stencilBits=0, stereo=False, title='PsychoPy', units='deg', useFBO=True, useRetina=False, viewOri=0.0, viewPos=None, viewScale=None, waitBlanking=True, winType='pyglet')","{'TR': 2.1, 'volumes': 5, 'sync': '5', 'skip': 0, 'sound': False}",<psychopy.clock.CountdownTimer object at 0x7fb8747db8b0>,"Rect(__class__=<class 'psychopy.visual.rect.Rect'>, anchor=('center', 'center'), autoDraw=True, autoLog=True, closeShape=True, color=method-wrapper(...), colorSpace='rgb', contrast=None, depth=0, draggable=False, fillColor=array([0.00392157, 0.00392157, 0.00392157]), fillColorSpace='rgb', fillRGB=array([0.00392157, 0.00392157, 0.00392157]), interpolate=True, lineColor=array([0., 0., 0.]), lineColorSpace='rgb', lineRGB=array([0, 0, 0]), lineWidth=1.5, name='unnamed Rect', opacity=0.5, ori=0.0, pos=array([0., 0.]), size=array([2., 2.]), units='norm', vertices=ndarray(...), win=Window(...))",2.1,[],8,0.75,"[<psychopy.visual.line.Line object at 0x7fb871723100>, <psychopy.visual.line.Line object at 0x7fb8717234f0>]",<psychopy.hardware.keyboard.Keyboard object at 0x7fb857592b80>,
0,pause,0.4,None,None,None,0,7,7,7,,,,,,,,,,,,,N006,visual,1,"['1', '2']","['3', '4']",1,/NOBACKUP2/USER/Jeong/experiment2,/NOBACKUP2/USER/Jeong/experiment2/logfiles/visual/N006_d-20240926,2023.2.3,harveyvisual,"Window(allowGUI=False, allowStencil=False, autoLog=True, backendConf=UNKNOWN, backgroundFit='cover', backgroundImage=None, bitsMode=UNKNOWN, blendMode='avg', bpc=(8, 8, 8), color=array([-1, -1, -1]), colorSpace='rgb', depthBits=8, fullscr=<method-wrapper '__getattribute__' of attributeSetter object at 0x7fb87b6d44f0>, gamma=None, gammaErrorPolicy='raise', lms=UNKNOWN, monitor=<psychopy.monitors.calibTools.Monitor object at 0x7fb8747fef10>, multiSample=False, name='stim_window', numSamples=2, pos=[0.0, 0.0], screen=0, size=array([1920, 1080]), stencilBits=0, stereo=False, title='PsychoPy', units='deg', useFBO=True, useRetina=False, viewOri=0.0, viewPos=None, viewScale=None, waitBlanking=True, winType='pyglet')","{'TR': 2.1, 'volumes': 5, 'sync': '5', 'skip': 0, 'sound': False}",<psychopy.clock.CountdownTimer object at 0x7fb8747db8b0>,"Rect(__class__=<class 'psychopy.visual.rect.Rect'>, anchor=('center', 'center'), autoDraw=True, autoLog=True, closeShape=True, color=method-wrapper(...), colorSpace='rgb', contrast=None, depth=0, draggable=False, fillColor=array([0.00392157, 0.00392157, 0.00392157]), fillColorSpace='rgb', fillRGB=array([0.00392157, 0.00392157, 0.00392157]), interpolate=True, lineColor=array([0., 0., 0.]), lineColorSpace='rgb', lineRGB=array([0, 0, 0]), lineWidth=1.5, name='unnamed Rect', opacity=0.5, ori=0.0, pos=array([0., 0.]), size=array([2., 2.]), units='norm', vertices=ndarray(...), win=Window(...))",2.1,[],8,0.75,"[<psychopy.visual.line.Line object at 0x7fb871723100>, <psychopy.visual.line.Line object at 0x7fb8717234f0>]",<psychopy.hardware.keyboard.Keyboard object at 0x7fb857592b80>,
1,dot,0.3,['dot'],['density'],black,0,8,8,8,,,4.904700994491577,5.204622983932495,dot,[0.06],"[0.15956500649880873, 0.2640393008039057]",density,black,true,correct,nan,N006,visual,1,"['1', '2']","['3', '4']",1,/NOBACKUP2/USER/Jeong/experiment2,/NOBACKUP2/USER/Jeong/experiment2/logfiles/visual/N006_d-20240926,2023.2.3,harveyvisual,"Window(allowGUI=False, allowStencil=False, autoLog=True, backendConf=UNKNOWN, backgroundFit='cover', backgroundImage=None, bitsMode=UNKNOWN, blendMode='avg', bpc=(8, 8, 8), color=array([-1, -1, -1]), colorSpace='rgb', depthBits=8, fullscr=<method-wrapper '__getattribute__' of attributeSetter object at 0x7fb87b6d44f0>, gamma=None, gammaErrorPolicy='raise', lms=UNKNOWN, monitor=<psychopy.monitors.calibTools.Monitor object at 0x7fb8747fef10>, multiSample=False, name='stim_window', numSamples=2, pos=[0.0, 0.0], screen=0, size=array([1920, 1080]), stencilBits=0, stereo=False, title='PsychoPy', units='deg', useFBO=True, useRetina=False, viewOri=0.0, viewPos=None, viewScale=None, waitBlanking=True, winType='pyglet')","{'TR': 2.1, 'volumes': 5, 'sync': '5', 'skip': 0, 'sound': False}",<psychopy.clock.CountdownTimer object at 0x7fb8747db8b0>,"Rect(__class__=<class 'psychopy.visual.rect.Rect'>, anchor=('center', 'center'), autoDraw=True, autoLog=True, closeShape=True, color=method-wrapper(...), colorSpace='rgb', contrast=None, depth=0, draggable=False, fillColor=array([0.00392157, 0.00392157, 0.00392157]), fillColorSpace='rgb', fillRGB=array([0.00392157, 0.00392157, 0.00392157]), interpolate=True, lineColor=array([0., 0., 0.]), lineColorSpace='rgb', lineRGB=array([0, 0, 0]), lineWidth=1.5, name='unnamed Rect', opacity=0.5, ori=0.0, pos=array([0., 0.]), size=array([2., 2.]), units='norm', vertices=ndarray(...), win=Window(...))",2.1,[],8,0.75,"[<psychopy.visual.line.Line object at 0x7fb871723100>, <psychopy.visual.line.Line object at 0x7fb8717234f0>]",<psychopy.hardware.keyboard.Keyboard object at 0x7fb857592b80>,
0,pause,0.4,None,None,None,0,9,9,9,,,,,,,,,,,,,N006,visual,1,"['1', '2']","['3', '4']",1,/NOBACKUP2/USER/Jeong/experiment2,/NOBACKUP2/USER/Jeong/experiment2/logfiles/visual/N006_d-20240926,2023.2.3,harveyvisual,"Window(allowGUI=False, allowStencil=False, autoLog=True, backendConf=UNKNOWN, backgroundFit='cover', backgroundImage=None, bitsMode=UNKNOWN, blendMode='avg', bpc=(8, 8, 8), color=array([-1, -1, -1]), colorSpace='rgb', depthBits=8, fullscr=<method-wrapper '__getattribute__' of attributeSetter object at 0x7fb87b6d44f0>, gamma=None, gammaErrorPolicy='raise', lms=UNKNOWN, monitor=<psychopy.monitors.calibTools.Monitor object at 0x7fb8747fef10>, multiSample=False, name='stim_window', numSamples=2, pos=[0.0, 0.0], screen=0, size=array([1920, 1080]), stencilBits=0, stereo=False, title='PsychoPy', units='deg', useFBO=True, useRetina=False, viewOri=0.0, viewPos=None, viewScale=None, waitBlanking=True, winType='pyglet')","{'TR': 2.1, 'volumes': 5, 'sync': '5', 'skip': 0, 'sound': False}",<psychopy.clock.CountdownTimer object at 0x7fb8747db8b0>,"Rect(__class__=<class 'psychopy.visual.rect.Rect'>, anchor=('center', 'center'), autoDraw=True, autoLog=True, closeShape=True, color=method-wrapper(...), colorSpace='rgb', contrast=None, depth=0, draggable=False, fillColor=array([0.00392157, 0.00392157, 0.00392157]), fillColorSpace='rgb', fillRGB=array([0.00392157, 0.00392157, 0.00392157]), interpolate=True, lineColor=array([0., 0., 0.]), lineColorSpace='rgb', lineRGB=array([0, 0, 0]), lineWidth=1.5, name='unnamed Rect', opacity=0.5, ori=0.0, pos=array([0., 0.]), size=array([2., 2.]), units='norm', vertices=ndarray(...), win=Window(...))",2.1,[],8,0.75,"[<psychopy.visual.line.Line object at 0x7fb871723100>, <psychopy.visual.line.Line object at 0x7fb8717234f0>]",<psychopy.hardware.keyboard.Keyboard object at 0x7fb857592b80>,
1,dot,0.3,['dot'],['density'],black,0,10,10,10,,,5.606939077377319,5.923987150192261,dot,[0.08],"[0.075024325262877, 0.28946834799837856]",density,black,true,correct,nan,N006,visual,1,"['1', '2']","['3', '4']",1,/NOBACKUP2/USER/Jeong/experiment2,/NOBACKUP2/USER/Jeong/experiment2/logfiles/visual/N006_d-20240926,2023.2.3,harveyvisual,"Window(allowGUI=False, allowStencil=False, autoLog=True, backendConf=UNKNOWN, backgroundFit='cover', backgroundImage=None, bitsMode=UNKNOWN, blendMode='avg', bpc=(8, 8, 8), color=array([-1, -1, -1]), colorSpace='rgb', depthBits=8, fullscr=<method-wrapper '__getattribute__' of attributeSetter object at 0x7fb87b6d44f0>, gamma=None, gammaErrorPolicy='raise', lms=UNKNOWN, monitor=<psychopy.monitors.calibTools.Monitor object at 0x7fb8747fef10>, multiSample=False, name='stim_window', numSamples=2, pos=[0.0, 0.0], screen=0, size=array([1920, 1080]), stencilBits=0, stereo=False, title='PsychoPy', units='deg', useFBO=True, useRetina=False, viewOri=0.0, viewPos=None, viewScale=None, waitBlanking=True, winType='pyglet')","{'TR': 2.1, 'volumes': 5, 'sync': '5', 'skip': 0, 'sound': False}",<psychopy.clock.CountdownTimer object at 0x7fb8747db8b0>,"Rect(__class__=<class 'psychopy.visual.rect.Rect'>, anchor=('center', 'center'), autoDraw=True, autoLog=True, closeShape=True, color=method-wrapper(...), colorSpace='rgb', contrast=None, depth=0, draggable=False, fillColor=array([0.00392157, 0.00392157, 0.00392157]), fillColorSpace='rgb', fillRGB=array([0.00392157, 0.00392157, 0.00392157]), interpolate=True, lineColor=array([0., 0., 0.]), lineColorSpace='rgb', lineRGB=array([0, 0, 0]), lineWidth=1.5, name='unnamed Rect', opacity=0.5, ori=0.0, pos=array([0., 0.]), size=array([2., 2.]), units='norm', vertices=ndarray(...), win=Window(...))",2.1,[],8,0.75,"[<psychopy.visual.line.Line object at 0x7fb871723100>, <psychopy.visual.line.Line object at 0x7fb8717234f0>]",<psychopy.hardware.keyboard.Keyboard object at 0x7fb857592b80>,
0,pause,0.4,None,None,None,0,11,11,11,,,,,,,,,,,,,N006,visual,1,"['1', '2']","['3', '4']",1,/NOBACKUP2/USER/Jeong/experiment2,/NOBACKUP2/USER/Jeong/experiment2/logfiles/visual/N006_d-20240926,2023.2.3,harveyvisual,"Window(allowGUI=False, allowStencil=False, autoLog=True, backendConf=UNKNOWN, backgroundFit='cover', backgroundImage=None, bitsMode=UNKNOWN, blendMode='avg', bpc=(8, 8, 8), color=array([-1, -1, -1]), colorSpace='rgb', depthBits=8, fullscr=<method-wrapper '__getattribute__' of attributeSetter object at 0x7fb87b6d44f0>, gamma=None, gammaErrorPolicy='raise', lms=UNKNOWN, monitor=<psychopy.monitors.calibTools.Monitor object at 0x7fb8747fef10>, multiSample=False, name='stim_window', numSamples=2, pos=[0.0, 0.0], screen=0, size=array([1920, 1080]), stencilBits=0, stereo=False, title='PsychoPy', units='deg', useFBO=True, useRetina=False, viewOri=0.0, viewPos=None, viewScale=None, waitBlanking=True, winType='pyglet')","{'TR': 2.1, 'volumes': 5, 'sync': '5', 'skip': 0, 'sound': False}",<psychopy.clock.CountdownTimer object at 0x7fb8747db8b0>,"Rect(__class__=<class 'psychopy.visual.rect.Rect'>, anchor=('center', 'center'), autoDraw=True, autoLog=True, closeShape=True, color=method-wrapper(...), colorSpace='rgb', contrast=None, depth=0, draggable=False, fillColor=array([0.00392157, 0.00392157, 0.00392157]), fillColorSpace='rgb', fillRGB=array([0.00392157, 0.00392157, 0.00392157]), interpolate=True, lineColor=array([0., 0., 0.]), lineColorSpace='rgb', lineRGB=array([0, 0, 0]), lineWidth=1.5, name='unnamed Rect', opacity=0.5, ori=0.0, pos=array([0., 0.]), size=array([2., 2.]), units='norm', vertices=ndarray(...), win=Window(...))",2.1,[],8,0.75,"[<psychopy.visual.line.Line object at 0x7fb871723100>, <psychopy.visual.line.Line object at 0x7fb8717234f0>]",<psychopy.hardware.keyboard.Keyboard object at 0x7fb857592b80>,
2,dot,0.3,['dot'],['density'],black,0,12,12,12,,,6.30693793296814,6.6236419677734375,dot,"[0.06, 0.1]","[[-0.03288134563171543, -0.4238564918242606], [-0.10611641736664675, -0.2370354775439666]]",density,black,false,wrong,nan,N006,visual,1,"['1', '2']","['3', '4']",1,/NOBACKUP2/USER/Jeong/experiment2,/NOBACKUP2/USER/Jeong/experiment2/logfiles/visual/N006_d-20240926,2023.2.3,harveyvisual,"Window(allowGUI=False, allowStencil=False, autoLog=True, backendConf=UNKNOWN, backgroundFit='cover', backgroundImage=None, bitsMode=UNKNOWN, blendMode='avg', bpc=(8, 8, 8), color=array([-1, -1, -1]), colorSpace='rgb', depthBits=8, fullscr=<method-wrapper '__getattribute__' of attributeSetter object at 0x7fb87b6d44f0>, gamma=None, gammaErrorPolicy='raise', lms=UNKNOWN, monitor=<psychopy.monitors.calibTools.Monitor object at 0x7fb8747fef10>, multiSample=False, name='stim_window', numSamples=2, pos=[0.0, 0.0], screen=0, size=array([1920, 1080]), stencilBits=0, stereo=False, title='PsychoPy', units='deg', useFBO=True, useRetina=False, viewOri=0.0, viewPos=None, viewScale=None, waitBlanking=True, winType='pyglet')","{'TR': 2.1, 'volumes': 5, 'sync': '5', 'skip': 0, 'sound': False}",<psychopy.clock.CountdownTimer object at 0x7fb8747db8b0>,"Rect(__class__=<class 'psychopy.visual.rect.Rect'>, anchor=('center', 'center'), autoDraw=True, autoLog=True, closeShape=True, color=method-wrapper(...), colorSpace='rgb', contrast=None, depth=0, draggable=False, fillColor=array([0.00392157, 0.00392157, 0.00392157]), fillColorSpace='rgb', fillRGB=array([0.00392157, 0.00392157, 0.00392157]), interpolate=True, lineColor=array([0., 0., 0.]), lineColorSpace='rgb', lineRGB=array([0, 0, 0]), lineWidth=1.5, name='unnamed Rect', opacity=0.5, ori=0.0, pos=array([0., 0.]), size=array([2., 2.]), units='norm', vertices=ndarray(...), win=Window(...))",2.1,[],8,0.75,"[<psychopy.visual.line.Line object at 0x7fb871723100>, <psychopy.visual.line.Line object at 0x7fb8717234f0>]",<psychopy.hardware.keyboard.Keyboard object at 0x7fb857592b80>,
0,pause,0.4,None,None,None,0,13,13,13,,,,,,,,,,,,,N006,visual,1,"['1', '2']","['3', '4']",1,/NOBACKUP2/USER/Jeong/experiment2,/NOBACKUP2/USER/Jeong/experiment2/logfiles/visual/N006_d-20240926,2023.2.3,harveyvisual,"Window(allowGUI=False, allowStencil=False, autoLog=True, backendConf=UNKNOWN, backgroundFit='cover', backgroundImage=None, bitsMode=UNKNOWN, blendMode='avg', bpc=(8, 8, 8), color=array([-1, -1, -1]), colorSpace='rgb', depthBits=8, fullscr=<method-wrapper '__getattribute__' of attributeSetter object at 0x7fb87b6d44f0>, gamma=None, gammaErrorPolicy='raise', lms=UNKNOWN, monitor=<psychopy.monitors.calibTools.Monitor object at 0x7fb8747fef10>, multiSample=False, name='stim_window', numSamples=2, pos=[0.0, 0.0], screen=0, size=array([1920, 1080]), stencilBits=0, stereo=False, title='PsychoPy', units='deg', useFBO=True, useRetina=False, viewOri=0.0, viewPos=None, viewScale=None, waitBlanking=True, winType='pyglet')","{'TR': 2.1, 'volumes': 5, 'sync': '5', 'skip': 0, 'sound': False}",<psychopy.clock.CountdownTimer object at 0x7fb8747db8b0>,"Rect(__class__=<class 'psychopy.visual.rect.Rect'>, anchor=('center', 'center'), autoDraw=True, autoLog=True, closeShape=True, color=method-wrapper(...), colorSpace='rgb', contrast=None, depth=0, draggable=False, fillColor=array([0.00392157, 0.00392157, 0.00392157]), fillColorSpace='rgb', fillRGB=array([0.00392157, 0.00392157, 0.00392157]), interpolate=True, lineColor=array([0., 0., 0.]), lineColorSpace='rgb', lineRGB=array([0, 0, 0]), lineWidth=1.5, name='unnamed Rect', opacity=0.5, ori=0.0, pos=array([0., 0.]), size=array([2., 2.]), units='norm', vertices=ndarray(...), win=Window(...))",2.1,[],8,0.75,"[<psychopy.visual.line.Line object at 0x7fb871723100>, <psychopy.visual.line.Line object at 0x7fb8717234f0>]",<psychopy.hardware.keyboard.Keyboard object at 0x7fb857592b80>,
2,dot,0.3,['dot'],['density'],black,0,14,14,14,,,7.006911993026733,7.323555946350098,dot,"[0.08, 0.06]","[[0.21918454152848227, -0.10588244801595839], [0.1860161616926718, 0.09155890801726524]]",density,black,true,correct,nan,N006,visual,1,"['1', '2']","['3', '4']",1,/NOBACKUP2/USER/Jeong/experiment2,/NOBACKUP2/USER/Jeong/experiment2/logfiles/visual/N006_d-20240926,2023.2.3,harveyvisual,"Window(allowGUI=False, allowStencil=False, autoLog=True, backendConf=UNKNOWN, backgroundFit='cover', backgroundImage=None, bitsMode=UNKNOWN, blendMode='avg', bpc=(8, 8, 8), color=array([-1, -1, -1]), colorSpace='rgb', depthBits=8, fullscr=<method-wrapper '__getattribute__' of attributeSetter object at 0x7fb87b6d44f0>, gamma=None, gammaErrorPolicy='raise', lms=UNKNOWN, monitor=<psychopy.monitors.calibTools.Monitor object at 0x7fb8747fef10>, multiSample=False, name='stim_window', numSamples=2, pos=[0.0, 0.0], screen=0, size=array([1920, 1080]), stencilBits=0, stereo=False, title='PsychoPy', units='deg', useFBO=True, useRetina=False, viewOri=0.0, viewPos=None, viewScale=None, waitBlanking=True, winType='pyglet')","{'TR': 2.1, 'volumes': 5, 'sync': '5', 'skip': 0, 'sound': False}",<psychopy.clock.CountdownTimer object at 0x7fb8747db8b0>,"Rect(__class__=<class 'psychopy.visual.rect.Rect'>, anchor=('center', 'center'), autoDraw=True, autoLog=True, closeShape=True, color=method-wrapper(...), colorSpace='rgb', contrast=None, depth=0, draggable=False, fillColor=array([0.00392157, 0.00392157, 0.00392157]), fillColorSpace='rgb', fillRGB=array([0.00392157, 0.00392157, 0.00392157]), interpolate=True, lineColor=array([0., 0., 0.]), lineColorSpace='rgb', lineRGB=array([0, 0, 0]), lineWidth=1.5, name='unnamed Rect', opacity=0.5, ori=0.0, pos=array([0., 0.]), size=array([2., 2.]), units='norm', vertices=ndarray(...), win=Window(...))",2.1,[],8,0.75,"[<psychopy.visual.line.Line object at 0x7fb871723100>, <psychopy.visual.line.Line object at 0x7fb8717234f0>]",<psychopy.hardware.keyboard.Keyboard object at 0x7fb857592b80>,
0,pause,0.4,None,None,None,0,15,15,15,,,,,,,,,,,,,N006,visual,1,"['1', '2']","['3', '4']",1,/NOBACKUP2/USER/Jeong/experiment2,/NOBACKUP2/USER/Jeong/experiment2/logfiles/visual/N006_d-20240926,2023.2.3,harveyvisual,"Window(allowGUI=False, allowStencil=False, autoLog=True, backendConf=UNKNOWN, backgroundFit='cover', backgroundImage=None, bitsMode=UNKNOWN, blendMode='avg', bpc=(8, 8, 8), color=array([-1, -1, -1]), colorSpace='rgb', depthBits=8, fullscr=<method-wrapper '__getattribute__' of attributeSetter object at 0x7fb87b6d44f0>, gamma=None, gammaErrorPolicy='raise', lms=UNKNOWN, monitor=<psychopy.monitors.calibTools.Monitor object at 0x7fb8747fef10>, multiSample=False, name='stim_window', numSamples=2, pos=[0.0, 0.0], screen=0, size=array([1920, 1080]), stencilBits=0, stereo=False, title='PsychoPy', units='deg', useFBO=True, useRetina=False, viewOri=0.0, viewPos=None, viewScale=None, waitBlanking=True, winType='pyglet')","{'TR': 2.1, 'volumes': 5, 'sync': '5', 'skip': 0, 'sound': False}",<psychopy.clock.CountdownTimer object at 0x7fb8747db8b0>,"Rect(__class__=<class 'psychopy.visual.rect.Rect'>, anchor=('center', 'center'), autoDraw=True, autoLog=True, closeShape=True, color=method-wrapper(...), colorSpace='rgb', contrast=None, depth=0, draggable=False, fillColor=array([0.00392157, 0.00392157, 0.00392157]), fillColorSpace='rgb', fillRGB=array([0.00392157, 0.00392157, 0.00392157]), interpolate=True, lineColor=array([0., 0., 0.]), lineColorSpace='rgb', lineRGB=array([0, 0, 0]), lineWidth=1.5, name='unnamed Rect', opacity=0.5, ori=0.0, pos=array([0., 0.]), size=array([2., 2.]), units='norm', vertices=ndarray(...), win=Window(...))",2.1,[],8,0.75,"[<psychopy.visual.line.Line object at 0x7fb871723100>, <psychopy.visual.line.Line object at 0x7fb8717234f0>]",<psychopy.hardware.keyboard.Keyboard object at 0x7fb857592b80>,
2,dot,0.3,['dot'],['density'],black,0,16,16,16,,,7.7068870067596436,8.023575067520142,dot,"[0.08, 0.08]","[[0.2713647219188039, -0.029235290058335472], [0.46697437826705046, 0.014145112521712659]]",density,black,true,correct,nan,N006,visual,1,"['1', '2']","['3', '4']",1,/NOBACKUP2/USER/Jeong/experiment2,/NOBACKUP2/USER/Jeong/experiment2/logfiles/visual/N006_d-20240926,2023.2.3,harveyvisual,"Window(allowGUI=False, allowStencil=False, autoLog=True, backendConf=UNKNOWN, backgroundFit='cover', backgroundImage=None, bitsMode=UNKNOWN, blendMode='avg', bpc=(8, 8, 8), color=array([-1, -1, -1]), colorSpace='rgb', depthBits=8, fullscr=<method-wrapper '__getattribute__' of attributeSetter object at 0x7fb87b6d44f0>, gamma=None, gammaErrorPolicy='raise', lms=UNKNOWN, monitor=<psychopy.monitors.calibTools.Monitor object at 0x7fb8747fef10>, multiSample=False, name='stim_window', numSamples=2, pos=[0.0, 0.0], screen=0, size=array([1920, 1080]), stencilBits=0, stereo=False, title='PsychoPy', units='deg', useFBO=True, useRetina=False, viewOri=0.0, viewPos=None, viewScale=None, waitBlanking=True, winType='pyglet')","{'TR': 2.1, 'volumes': 5, 'sync': '5', 'skip': 0, 'sound': False}",<psychopy.clock.CountdownTimer object at 0x7fb8747db8b0>,"Rect(__class__=<class 'psychopy.visual.rect.Rect'>, anchor=('center', 'center'), autoDraw=True, autoLog=True, closeShape=True, color=method-wrapper(...), colorSpace='rgb', contrast=None, depth=0, draggable=False, fillColor=array([0.00392157, 0.00392157, 0.00392157]), fillColorSpace='rgb', fillRGB=array([0.00392157, 0.00392157, 0.00392157]), interpolate=True, lineColor=array([0., 0., 0.]), lineColorSpace='rgb', lineRGB=array([0, 0, 0]), lineWidth=1.5, name='unnamed Rect', opacity=0.5, ori=0.0, pos=array([0., 0.]), size=array([2., 2.]), units='norm', vertices=ndarray(...), win=Window(...))",2.1,[],8,0.75,"[<psychopy.visual.line.Line object at 0x7fb871723100>, <psychopy.visual.line.Line object at 0x7fb8717234f0>]",<psychopy.hardware.keyboard.Keyboard object at 0x7fb857592b80>,
0,pause,0.4,None,None,None,0,17,17,17,,,,,,,,,,,,,N006,visual,1,"['1', '2']","['3', '4']",1,/NOBACKUP2/USER/Jeong/experiment2,/NOBACKUP2/USER/Jeong/experiment2/logfiles/visual/N006_d-20240926,2023.2.3,harveyvisual,"Window(allowGUI=False, allowStencil=False, autoLog=True, backendConf=UNKNOWN, backgroundFit='cover', backgroundImage=None, bitsMode=UNKNOWN, blendMode='avg', bpc=(8, 8, 8), color=array([-1, -1, -1]), colorSpace='rgb', depthBits=8, fullscr=<method-wrapper '__getattribute__' of attributeSetter object at 0x7fb87b6d44f0>, gamma=None, gammaErrorPolicy='raise', lms=UNKNOWN, monitor=<psychopy.monitors.calibTools.Monitor object at 0x7fb8747fef10>, multiSample=False, name='stim_window', numSamples=2, pos=[0.0, 0.0], screen=0, size=array([1920, 1080]), stencilBits=0, stereo=False, title='PsychoPy', units='deg', useFBO=True, useRetina=False, viewOri=0.0, viewPos=None, viewScale=None, waitBlanking=True, winType='pyglet')","{'TR': 2.1, 'volumes': 5, 'sync': '5', 'skip': 0, 'sound': False}",<psychopy.clock.CountdownTimer object at 0x7fb8747db8b0>,"Rect(__class__=<class 'psychopy.visual.rect.Rect'>, anchor=('center', 'center'), autoDraw=True, autoLog=True, closeShape=True, color=method-wrapper(...), colorSpace='rgb', contrast=None, depth=0, draggable=False, fillColor=array([0.00392157, 0.00392157, 0.00392157]), fillColorSpace='rgb', fillRGB=array([0.00392157, 0.00392157, 0.00392157]), interpolate=True, lineColor=array([0., 0., 0.]), lineColorSpace='rgb', lineRGB=array([0, 0, 0]), lineWidth=1.5, name='unnamed Rect', opacity=0.5, ori=0.0, pos=array([0., 0.]), size=array([2., 2.]), units='norm', vertices=ndarray(...), win=Window(...))",2.1,[],8,0.75,"[<psychopy.visual.line.Line object at 0x7fb871723100>, <psychopy.visual.line.Line object at 0x7fb8717234f0>]",<psychopy.hardware.keyboard.Keyboard object at 0x7fb857592b80>,
2,dot,0.3,['dot'],['density'],black,0,18,18,18,,,8.406909942626953,8.723534107208252,dot,"[0.1, 0.1]","[[-0.22897676209827808, 0.468650264003531], [-0.0598036877009514, 0.5760211786176329]]",density,black,true,correct,nan,N006,visual,1,"['1', '2']","['3', '4']",1,/NOBACKUP2/USER/Jeong/experiment2,/NOBACKUP2/USER/Jeong/experiment2/logfiles/visual/N006_d-20240926,2023.2.3,harveyvisual,"Window(allowGUI=False, allowStencil=False, autoLog=True, backendConf=UNKNOWN, backgroundFit='cover', backgroundImage=None, bitsMode=UNKNOWN, blendMode='avg', bpc=(8, 8, 8), color=array([-1, -1, -1]), colorSpace='rgb', depthBits=8, fullscr=<method-wrapper '__getattribute__' of attributeSetter object at 0x7fb87b6d44f0>, gamma=None, gammaErrorPolicy='raise', lms=UNKNOWN, monitor=<psychopy.monitors.calibTools.Monitor object at 0x7fb8747fef10>, multiSample=False, name='stim_window', numSamples=2, pos=[0.0, 0.0], screen=0, size=array([1920, 1080]), stencilBits=0, stereo=False, title='PsychoPy', units='deg', useFBO=True, useRetina=False, viewOri=0.0, viewPos=None, viewScale=None, waitBlanking=True, winType='pyglet')","{'TR': 2.1, 'volumes': 5, 'sync': '5', 'skip': 0, 'sound': False}",<psychopy.clock.CountdownTimer object at 0x7fb8747db8b0>,"Rect(__class__=<class 'psychopy.visual.rect.Rect'>, anchor=('center', 'center'), autoDraw=True, autoLog=True, closeShape=True, color=method-wrapper(...), colorSpace='rgb', contrast=None, depth=0, draggable=False, fillColor=array([0.00392157, 0.00392157, 0.00392157]), fillColorSpace='rgb', fillRGB=array([0.00392157, 0.00392157, 0.00392157]), interpolate=True, lineColor=array([0., 0., 0.]), lineColorSpace='rgb', lineRGB=array([0, 0, 0]), lineWidth=1.5, name='unnamed Rect', opacity=0.5, ori=0.0, pos=array([0., 0.]), size=array([2., 2.]), units='norm', vertices=ndarray(...), win=Window(...))",2.1,[],8,0.75,"[<psychopy.visual.line.Line object at 0x7fb871723100>, <psychopy.visual.line.Line object at 0x7fb8717234f0>]",<psychopy.hardware.keyboard.Keyboard object at 0x7fb857592b80>,
0,pause,0.4,None,None,None,0,19,19,19,,,,,,,,,,,,,N006,visual,1,"['1', '2']","['3', '4']",1,/NOBACKUP2/USER/Jeong/experiment2,/NOBACKUP2/USER/Jeong/experiment2/logfiles/visual/N006_d-20240926,2023.2.3,harveyvisual,"Window(allowGUI=False, allowStencil=False, autoLog=True, backendConf=UNKNOWN, backgroundFit='cover', backgroundImage=None, bitsMode=UNKNOWN, blendMode='avg', bpc=(8, 8, 8), color=array([-1, -1, -1]), colorSpace='rgb', depthBits=8, fullscr=<method-wrapper '__getattribute__' of attributeSetter object at 0x7fb87b6d44f0>, gamma=None, gammaErrorPolicy='raise', lms=UNKNOWN, monitor=<psychopy.monitors.calibTools.Monitor object at 0x7fb8747fef10>, multiSample=False, name='stim_window', numSamples=2, pos=[0.0, 0.0], screen=0, size=array([1920, 1080]), stencilBits=0, stereo=False, title='PsychoPy', units='deg', useFBO=True, useRetina=False, viewOri=0.0, viewPos=None, viewScale=None, waitBlanking=True, winType='pyglet')","{'TR': 2.1, 'volumes': 5, 'sync': '5', 'skip': 0, 'sound': False}",<psychopy.clock.CountdownTimer object at 0x7fb8747db8b0>,"Rect(__class__=<class 'psychopy.visual.rect.Rect'>, anchor=('center', 'center'), autoDraw=True, autoLog=True, closeShape=True, color=method-wrapper(...), colorSpace='rgb', contrast=None, depth=0, draggable=False, fillColor=array([0.00392157, 0.00392157, 0.00392157]), fillColorSpace='rgb', fillRGB=array([0.00392157, 0.00392157, 0.00392157]), interpolate=True, lineColor=array([0., 0., 0.]), lineColorSpace='rgb', lineRGB=array([0, 0, 0]), lineWidth=1.5, name='unnamed Rect', opacity=0.5, ori=0.0, pos=array([0., 0.]), size=array([2., 2.]), units='norm', vertices=ndarray(...), win=Window(...))",2.1,[],8,0.75,"[<psychopy.visual.line.Line object at 0x7fb871723100>, <psychopy.visual.line.Line object at 0x7fb8717234f0>]",<psychopy.hardware.keyboard.Keyboard object at 0x7fb857592b80>,
2,dot,0.3,['dot'],['density'],black,0,20,20,20,,,9.106861114501953,9.423502922058105,dot,"[0.06, 0.06]","[[0.002249876020969301, 0.20442088447143333], [-0.056293345030126195, 0.39599742374220376]]",density,black,true,correct,nan,N006,visual,1,"['1', '2']","['3', '4']",1,/NOBACKUP2/USER/Jeong/experiment2,/NOBACKUP2/USER/Jeong/experiment2/logfiles/visual/N006_d-20240926,2023.2.3,harveyvisual,"Window(allowGUI=False, allowStencil=False, autoLog=True, backendConf=UNKNOWN, backgroundFit='cover', backgroundImage=None, bitsMode=UNKNOWN, blendMode='avg', bpc=(8, 8, 8), color=array([-1, -1, -1]), colorSpace='rgb', depthBits=8, fullscr=<method-wrapper '__getattribute__' of attributeSetter object at 0x7fb87b6d44f0>, gamma=None, gammaErrorPolicy='raise', lms=UNKNOWN, monitor=<psychopy.monitors.calibTools.Monitor object at 0x7fb8747fef10>, multiSample=False, name='stim_window', numSamples=2, pos=[0.0, 0.0], screen=0, size=array([1920, 1080]), stencilBits=0, stereo=False, title='PsychoPy', units='deg', useFBO=True, useRetina=False, viewOri=0.0, viewPos=None, viewScale=None, waitBlanking=True, winType='pyglet')","{'TR': 2.1, 'volumes': 5, 'sync': '5', 'skip': 0, 'sound': False}",<psychopy.clock.CountdownTimer object at 0x7fb8747db8b0>,"Rect(__class__=<class 'psychopy.visual.rect.Rect'>, anchor=('center', 'center'), autoDraw=True, autoLog=True, closeShape=True, color=method-wrapper(...), colorSpace='rgb', contrast=None, depth=0, draggable=False, fillColor=array([0.00392157, 0.00392157, 0.00392157]), fillColorSpace='rgb', fillRGB=array([0.00392157, 0.00392157, 0.00392157]), interpolate=True, lineColor=array([0., 0., 0.]), lineColorSpace='rgb', lineRGB=array([0, 0, 0]), lineWidth=1.5, name='unnamed Rect', opacity=0.5, ori=0.0, pos=array([0., 0.]), size=array([2., 2.]), units='norm', vertices=ndarray(...), win=Window(...))",2.1,[],8,0.75,"[<psychopy.visual.line.Line object at 0x7fb871723100>, <psychopy.visual.line.Line object at 0x7fb8717234f0>]",<psychopy.hardware.keyboard.Keyboard object at 0x7fb857592b80>,
0,pause,0.4,None,None,None,0,21,21,21,,,,,,,,,,,,,N006,visual,1,"['1', '2']","['3', '4']",1,/NOBACKUP2/USER/Jeong/experiment2,/NOBACKUP2/USER/Jeong/experiment2/logfiles/visual/N006_d-20240926,2023.2.3,harveyvisual,"Window(allowGUI=False, allowStencil=False, autoLog=True, backendConf=UNKNOWN, backgroundFit='cover', backgroundImage=None, bitsMode=UNKNOWN, blendMode='avg', bpc=(8, 8, 8), color=array([-1, -1, -1]), colorSpace='rgb', depthBits=8, fullscr=<method-wrapper '__getattribute__' of attributeSetter object at 0x7fb87b6d44f0>, gamma=None, gammaErrorPolicy='raise', lms=UNKNOWN, monitor=<psychopy.monitors.calibTools.Monitor object at 0x7fb8747fef10>, multiSample=False, name='stim_window', numSamples=2, pos=[0.0, 0.0], screen=0, size=array([1920, 1080]), stencilBits=0, stereo=False, title='PsychoPy', units='deg', useFBO=True, useRetina=False, viewOri=0.0, viewPos=None, viewScale=None, waitBlanking=True, winType='pyglet')","{'TR': 2.1, 'volumes': 5, 'sync': '5', 'skip': 0, 'sound': False}",<psychopy.clock.CountdownTimer object at 0x7fb8747db8b0>,"Rect(__class__=<class 'psychopy.visual.rect.Rect'>, anchor=('center', 'center'), autoDraw=True, autoLog=True, closeShape=True, color=method-wrapper(...), colorSpace='rgb', contrast=None, depth=0, draggable=False, fillColor=array([0.00392157, 0.00392157, 0.00392157]), fillColorSpace='rgb', fillRGB=array([0.00392157, 0.00392157, 0.00392157]), interpolate=True, lineColor=array([0., 0., 0.]), lineColorSpace='rgb', lineRGB=array([0, 0, 0]), lineWidth=1.5, name='unnamed Rect', opacity=0.5, ori=0.0, pos=array([0., 0.]), size=array([2., 2.]), units='norm', vertices=ndarray(...), win=Window(...))",2.1,[],8,0.75,"[<psychopy.visual.line.Line object at 0x7fb871723100>, <psychopy.visual.line.Line object at 0x7fb8717234f0>]",<psychopy.hardware.keyboard.Keyboard object at 0x7fb857592b80>,
2,dot,0.3,['dot'],['density'],black,0,22,22,22,,,9.80686092376709,10.123491048812866,dot,"[0.08, 0.1]","[[-0.09730612249650272, 0.4989075015380273], [-0.22752244688881013, 0.34485221713342457]]",density,black,true,correct,nan,N006,visual,1,"['1', '2']","['3', '4']",1,/NOBACKUP2/USER/Jeong/experiment2,/NOBACKUP2/USER/Jeong/experiment2/logfiles/visual/N006_d-20240926,2023.2.3,harveyvisual,"Window(allowGUI=False, allowStencil=False, autoLog=True, backendConf=UNKNOWN, backgroundFit='cover', backgroundImage=None, bitsMode=UNKNOWN, blendMode='avg', bpc=(8, 8, 8), color=array([-1, -1, -1]), colorSpace='rgb', depthBits=8, fullscr=<method-wrapper '__getattribute__' of attributeSetter object at 0x7fb87b6d44f0>, gamma=None, gammaErrorPolicy='raise', lms=UNKNOWN, monitor=<psychopy.monitors.calibTools.Monitor object at 0x7fb8747fef10>, multiSample=False, name='stim_window', numSamples=2, pos=[0.0, 0.0], screen=0, size=array([1920, 1080]), stencilBits=0, stereo=False, title='PsychoPy', units='deg', useFBO=True, useRetina=False, viewOri=0.0, viewPos=None, viewScale=None, waitBlanking=True, winType='pyglet')","{'TR': 2.1, 'volumes': 5, 'sync': '5', 'skip': 0, 'sound': False}",<psychopy.clock.CountdownTimer object at 0x7fb8747db8b0>,"Rect(__class__=<class 'psychopy.visual.rect.Rect'>, anchor=('center', 'center'), autoDraw=True, autoLog=True, closeShape=True, color=method-wrapper(...), colorSpace='rgb', contrast=None, depth=0, draggable=False, fillColor=array([0.00392157, 0.00392157, 0.00392157]), fillColorSpace='rgb', fillRGB=array([0.00392157, 0.00392157, 0.00392157]), interpolate=True, lineColor=array([0., 0., 0.]), lineColorSpace='rgb', lineRGB=array([0, 0, 0]), lineWidth=1.5, name='unnamed Rect', opacity=0.5, ori=0.0, pos=array([0., 0.]), size=array([2., 2.]), units='norm', vertices=ndarray(...), win=Window(...))",2.1,[],8,0.75,"[<psychopy.visual.line.Line object at 0x7fb871723100>, <psychopy.visual.line.Line object at 0x7fb8717234f0>]",<psychopy.hardware.keyboard.Keyboard object at 0x7fb857592b80>,
0,pause,0.4,None,None,None,0,23,23,23,,,,,,,,,,,,,N006,visual,1,"['1', '2']","['3', '4']",1,/NOBACKUP2/USER/Jeong/experiment2,/NOBACKUP2/USER/Jeong/experiment2/logfiles/visual/N006_d-20240926,2023.2.3,harveyvisual,"Window(allowGUI=False, allowStencil=False, autoLog=True, backendConf=UNKNOWN, backgroundFit='cover', backgroundImage=None, bitsMode=UNKNOWN, blendMode='avg', bpc=(8, 8, 8), color=array([-1, -1, -1]), colorSpace='rgb', depthBits=8, fullscr=<method-wrapper '__getattribute__' of attributeSetter object at 0x7fb87b6d44f0>, gamma=None, gammaErrorPolicy='raise', lms=UNKNOWN, monitor=<psychopy.monitors.calibTools.Monitor object at 0x7fb8747fef10>, multiSample=False, name='stim_window', numSamples=2, pos=[0.0, 0.0], screen=0, size=array([1920, 1080]), stencilBits=0, stereo=False, title='PsychoPy', units='deg', useFBO=True, useRetina=False, viewOri=0.0, viewPos=None, viewScale=None, waitBlanking=True, winType='pyglet')","{'TR': 2.1, 'volumes': 5, 'sync': '5', 'skip': 0, 'sound': False}",<psychopy.clock.CountdownTimer object at 0x7fb8747db8b0>,"Rect(__class__=<class 'psychopy.visual.rect.Rect'>, anchor=('center', 'center'), autoDraw=True, autoLog=True, closeShape=True, color=method-wrapper(...), colorSpace='rgb', contrast=None, depth=0, draggable=False, fillColor=array([0.00392157, 0.00392157, 0.00392157]), fillColorSpace='rgb', fillRGB=array([0.00392157, 0.00392157, 0.00392157]), interpolate=True, lineColor=array([0., 0., 0.]), lineColorSpace='rgb', lineRGB=array([0, 0, 0]), lineWidth=1.5, name='unnamed Rect', opacity=0.5, ori=0.0, pos=array([0., 0.]), size=array([2., 2.]), units='norm', vertices=ndarray(...), win=Window(...))",2.1,[],8,0.75,"[<psychopy.visual.line.Line object at 0x7fb871723100>, <psychopy.visual.line.Line object at 0x7fb8717234f0>]",<psychopy.hardware.keyboard.Keyboard object at 0x7fb857592b80>,
3,dot,0.3,['dot'],['density'],black,0,24,24,24,,,10.506824016571045,10.823503017425537,dot,"[0.06, 0.06, 0.06]","[[-0.5599668940784417, -0.1503624274944763], [-0.33715825845103314, -0.1742393560729378], [-0.447658281307079, 0.035586458508876644]]",density,black,false,wrong,nan,N006,visual,1,"['1', '2']","['3', '4']",1,/NOBACKUP2/USER/Jeong/experiment2,/NOBACKUP2/USER/Jeong/experiment2/logfiles/visual/N006_d-20240926,2023.2.3,harveyvisual,"Window(allowGUI=False, allowStencil=False, autoLog=True, backendConf=UNKNOWN, backgroundFit='cover', backgroundImage=None, bitsMode=UNKNOWN, blendMode='avg', bpc=(8, 8, 8), color=array([-1, -1, -1]), colorSpace='rgb', depthBits=8, fullscr=<method-wrapper '__getattribute__' of attributeSetter object at 0x7fb87b6d44f0>, gamma=None, gammaErrorPolicy='raise', lms=UNKNOWN, monitor=<psychopy.monitors.calibTools.Monitor object at 0x7fb8747fef10>, multiSample=False, name='stim_window', numSamples=2, pos=[0.0, 0.0], screen=0, size=array([1920, 1080]), stencilBits=0, stereo=False, title='PsychoPy', units='deg', useFBO=True, useRetina=False, viewOri=0.0, viewPos=None, viewScale=None, waitBlanking=True, winType='pyglet')","{'TR': 2.1, 'volumes': 5, 'sync': '5', 'skip': 0, 'sound': False}",<psychopy.clock.CountdownTimer object at 0x7fb8747db8b0>,"Rect(__class__=<class 'psychopy.visual.rect.Rect'>, anchor=('center', 'center'), autoDraw=True, autoLog=True, closeShape=True, color=method-wrapper(...), colorSpace='rgb', contrast=None, depth=0, draggable=False, fillColor=array([0.00392157, 0.00392157, 0.00392157]), fillColorSpace='rgb', fillRGB=array([0.00392157, 0.00392157, 0.00392157]), interpolate=True, lineColor=array([0., 0., 0.]), lineColorSpace='rgb', lineRGB=array([0, 0, 0]), lineWidth=1.5, name='unnamed Rect', opacity=0.5, ori=0.0, pos=array([0., 0.]), size=array([2., 2.]), units='norm', vertices=ndarray(...), win=Window(...))",2.1,[],8,0.75,"[<psychopy.visual.line.Line object at 0x7fb871723100>, <psychopy.visual.line.Line object at 0x7fb8717234f0>]",<psychopy.hardware.keyboard.Keyboard object at 0x7fb857592b80>,
0,pause,0.4,None,None,None,0,25,25,25,,,,,,,,,,,,,N006,visual,1,"['1', '2']","['3', '4']",1,/NOBACKUP2/USER/Jeong/experiment2,/NOBACKUP2/USER/Jeong/experiment2/logfiles/visual/N006_d-20240926,2023.2.3,harveyvisual,"Window(allowGUI=False, allowStencil=False, autoLog=True, backendConf=UNKNOWN, backgroundFit='cover', backgroundImage=None, bitsMode=UNKNOWN, blendMode='avg', bpc=(8, 8, 8), color=array([-1, -1, -1]), colorSpace='rgb', depthBits=8, fullscr=<method-wrapper '__getattribute__' of attributeSetter object at 0x7fb87b6d44f0>, gamma=None, gammaErrorPolicy='raise', lms=UNKNOWN, monitor=<psychopy.monitors.calibTools.Monitor object at 0x7fb8747fef10>, multiSample=False, name='stim_window', numSamples=2, pos=[0.0, 0.0], screen=0, size=array([1920, 1080]), stencilBits=0, stereo=False, title='PsychoPy', units='deg', useFBO=True, useRetina=False, viewOri=0.0, viewPos=None, viewScale=None, waitBlanking=True, winType='pyglet')","{'TR': 2.1, 'volumes': 5, 'sync': '5', 'skip': 0, 'sound': False}",<psychopy.clock.CountdownTimer object at 0x7fb8747db8b0>,"Rect(__class__=<class 'psychopy.visual.rect.Rect'>, anchor=('center', 'center'), autoDraw=True, autoLog=True, closeShape=True, color=method-wrapper(...), colorSpace='rgb', contrast=None, depth=0, draggable=False, fillColor=array([0.00392157, 0.00392157, 0.00392157]), fillColorSpace='rgb', fillRGB=array([0.00392157, 0.00392157, 0.00392157]), interpolate=True, lineColor=array([0., 0., 0.]), lineColorSpace='rgb', lineRGB=array([0, 0, 0]), lineWidth=1.5, name='unnamed Rect', opacity=0.5, ori=0.0, pos=array([0., 0.]), size=array([2., 2.]), units='norm', vertices=ndarray(...), win=Window(...))",2.1,[],8,0.75,"[<psychopy.visual.line.Line object at 0x7fb871723100>, <psychopy.visual.line.Line object at 0x7fb8717234f0>]",<psychopy.hardware.keyboard.Keyboard object at 0x7fb857592b80>,
3,dot,0.3,['dot'],['density'],black,0,26,26,26,,,11.206794023513794,11.52349305152893,dot,"[0.06, 0.08, 0.06]","[[0.023581383320217864, -0.14485493475327696], [-0.06776129410461201, 0.04872406380669356], [0.14236151446293968, 0.029671970014602284]]",density,black,true,correct,nan,N006,visual,1,"['1', '2']","['3', '4']",1,/NOBACKUP2/USER/Jeong/experiment2,/NOBACKUP2/USER/Jeong/experiment2/logfiles/visual/N006_d-20240926,2023.2.3,harveyvisual,"Window(allowGUI=False, allowStencil=False, autoLog=True, backendConf=UNKNOWN, backgroundFit='cover', backgroundImage=None, bitsMode=UNKNOWN, blendMode='avg', bpc=(8, 8, 8), color=array([-1, -1, -1]), colorSpace='rgb', depthBits=8, fullscr=<method-wrapper '__getattribute__' of attributeSetter object at 0x7fb87b6d44f0>, gamma=None, gammaErrorPolicy='raise', lms=UNKNOWN, monitor=<psychopy.monitors.calibTools.Monitor object at 0x7fb8747fef10>, multiSample=False, name='stim_window', numSamples=2, pos=[0.0, 0.0], screen=0, size=array([1920, 1080]), stencilBits=0, stereo=False, title='PsychoPy', units='deg', useFBO=True, useRetina=False, viewOri=0.0, viewPos=None, viewScale=None, waitBlanking=True, winType='pyglet')","{'TR': 2.1, 'volumes': 5, 'sync': '5', 'skip': 0, 'sound': False}",<psychopy.clock.CountdownTimer object at 0x7fb8747db8b0>,"Rect(__class__=<class 'psychopy.visual.rect.Rect'>, anchor=('center', 'center'), autoDraw=True, autoLog=True, closeShape=True, color=method-wrapper(...), colorSpace='rgb', contrast=None, depth=0, draggable=False, fillColor=array([0.00392157, 0.00392157, 0.00392157]), fillColorSpace='rgb', fillRGB=array([0.00392157, 0.00392157, 0.00392157]), interpolate=True, lineColor=array([0., 0., 0.]), lineColorSpace='rgb', lineRGB=array([0, 0, 0]), lineWidth=1.5, name='unnamed Rect', opacity=0.5, ori=0.0, pos=array([0., 0.]), size=array([2., 2.]), units='norm', vertices=ndarray(...), win=Window(...))",2.1,[],8,0.75,"[<psychopy.visual.line.Line object at 0x7fb871723100>, <psychopy.visual.line.Line object at 0x7fb8717234f0>]",<psychopy.hardware.keyboard.Keyboard object at 0x7fb857592b80>,
0,pause,0.4,None,None,None,0,27,27,27,,,,,,,,,,,,,N006,visual,1,"['1', '2']","['3', '4']",1,/NOBACKUP2/USER/Jeong/experiment2,/NOBACKUP2/USER/Jeong/experiment2/logfiles/visual/N006_d-20240926,2023.2.3,harveyvisual,"Window(allowGUI=False, allowStencil=False, autoLog=True, backendConf=UNKNOWN, backgroundFit='cover', backgroundImage=None, bitsMode=UNKNOWN, blendMode='avg', bpc=(8, 8, 8), color=array([-1, -1, -1]), colorSpace='rgb', depthBits=8, fullscr=<method-wrapper '__getattribute__' of attributeSetter object at 0x7fb87b6d44f0>, gamma=None, gammaErrorPolicy='raise', lms=UNKNOWN, monitor=<psychopy.monitors.calibTools.Monitor object at 0x7fb8747fef10>, multiSample=False, name='stim_window', numSamples=2, pos=[0.0, 0.0], screen=0, size=array([1920, 1080]), stencilBits=0, stereo=False, title='PsychoPy', units='deg', useFBO=True, useRetina=False, viewOri=0.0, viewPos=None, viewScale=None, waitBlanking=True, winType='pyglet')","{'TR': 2.1, 'volumes': 5, 'sync': '5', 'skip': 0, 'sound': False}",<psychopy.clock.CountdownTimer object at 0x7fb8747db8b0>,"Rect(__class__=<class 'psychopy.visual.rect.Rect'>, anchor=('center', 'center'), autoDraw=True, autoLog=True, closeShape=True, color=method-wrapper(...), colorSpace='rgb', contrast=None, depth=0, draggable=False, fillColor=array([0.00392157, 0.00392157, 0.00392157]), fillColorSpace='rgb', fillRGB=array([0.00392157, 0.00392157, 0.00392157]), interpolate=True, lineColor=array([0., 0., 0.]), lineColorSpace='rgb', lineRGB=array([0, 0, 0]), lineWidth=1.5, name='unnamed Rect', opacity=0.5, ori=0.0, pos=array([0., 0.]), size=array([2., 2.]), units='norm', vertices=ndarray(...), win=Window(...))",2.1,[],8,0.75,"[<psychopy.visual.line.Line object at 0x7fb871723100>, <psychopy.visual.line.Line object at 0x7fb8717234f0>]",<psychopy.hardware.keyboard.Keyboard object at 0x7fb857592b80>,
3,dot,0.3,['dot'],['density'],black,0,28,28,28,,,11.906770944595337,12.223443984985352,dot,"[0.06, 0.08, 0.06]","[[0.1555504186016049, 0.15532406847092056], [-0.0680535881648269, 0.26220909641571793], [0.08533315121688807, 0.39122308779032533]]",density,black,true,correct,nan,N006,visual,1,"['1', '2']","['3', '4']",1,/NOBACKUP2/USER/Jeong/experiment2,/NOBACKUP2/USER/Jeong/experiment2/logfiles/visual/N006_d-20240926,2023.2.3,harveyvisual,"Window(allowGUI=False, allowStencil=False, autoLog=True, backendConf=UNKNOWN, backgroundFit='cover', backgroundImage=None, bitsMode=UNKNOWN, blendMode='avg', bpc=(8, 8, 8), color=array([-1, -1, -1]), colorSpace='rgb', depthBits=8, fullscr=<method-wrapper '__getattribute__' of attributeSetter object at 0x7fb87b6d44f0>, gamma=None, gammaErrorPolicy='raise', lms=UNKNOWN, monitor=<psychopy.monitors.calibTools.Monitor object at 0x7fb8747fef10>, multiSample=False, name='stim_window', numSamples=2, pos=[0.0, 0.0], screen=0, size=array([1920, 1080]), stencilBits=0, stereo=False, title='PsychoPy', units='deg', useFBO=True, useRetina=False, viewOri=0.0, viewPos=None, viewScale=None, waitBlanking=True, winType='pyglet')","{'TR': 2.1, 'volumes': 5, 'sync': '5', 'skip': 0, 'sound': False}",<psychopy.clock.CountdownTimer object at 0x7fb8747db8b0>,"Rect(__class__=<class 'psychopy.visual.rect.Rect'>, anchor=('center', 'center'), autoDraw=True, autoLog=True, closeShape=True, color=method-wrapper(...), colorSpace='rgb', contrast=None, depth=0, draggable=False, fillColor=array([0.00392157, 0.00392157, 0.00392157]), fillColorSpace='rgb', fillRGB=array([0.00392157, 0.00392157, 0.00392157]), interpolate=True, lineColor=array([0., 0., 0.]), lineColorSpace='rgb', lineRGB=array([0, 0, 0]), lineWidth=1.5, name='unnamed Rect', opacity=0.5, ori=0.0, pos=array([0., 0.]), size=array([2., 2.]), units='norm', vertices=ndarray(...), win=Window(...))",2.1,[],8,0.75,"[<psychopy.visual.line.Line object at 0x7fb871723100>, <psychopy.visual.line.Line object at 0x7fb8717234f0>]",<psychopy.hardware.keyboard.Keyboard object at 0x7fb857592b80>,
0,pause,0.4,None,None,None,0,29,29,29,,,,,,,,,,,,,N006,visual,1,"['1', '2']","['3', '4']",1,/NOBACKUP2/USER/Jeong/experiment2,/NOBACKUP2/USER/Jeong/experiment2/logfiles/visual/N006_d-20240926,2023.2.3,harveyvisual,"Window(allowGUI=False, allowStencil=False, autoLog=True, backendConf=UNKNOWN, backgroundFit='cover', backgroundImage=None, bitsMode=UNKNOWN, blendMode='avg', bpc=(8, 8, 8), color=array([-1, -1, -1]), colorSpace='rgb', depthBits=8, fullscr=<method-wrapper '__getattribute__' of attributeSetter object at 0x7fb87b6d44f0>, gamma=None, gammaErrorPolicy='raise', lms=UNKNOWN, monitor=<psychopy.monitors.calibTools.Monitor object at 0x7fb8747fef10>, multiSample=False, name='stim_window', numSamples=2, pos=[0.0, 0.0], screen=0, size=array([1920, 1080]), stencilBits=0, stereo=False, title='PsychoPy', units='deg', useFBO=True, useRetina=False, viewOri=0.0, viewPos=None, viewScale=None, waitBlanking=True, winType='pyglet')","{'TR': 2.1, 'volumes': 5, 'sync': '5', 'skip': 0, 'sound': False}",<psychopy.clock.CountdownTimer object at 0x7fb8747db8b0>,"Rect(__class__=<class 'psychopy.visual.rect.Rect'>, anchor=('center', 'center'), autoDraw=True, autoLog=True, closeShape=True, color=method-wrapper(...), colorSpace='rgb', contrast=None, depth=0, draggable=False, fillColor=array([0.00392157, 0.00392157, 0.00392157]), fillColorSpace='rgb', fillRGB=array([0.00392157, 0.00392157, 0.00392157]), interpolate=True, lineColor=array([0., 0., 0.]), lineColorSpace='rgb', lineRGB=array([0, 0, 0]), lineWidth=1.5, name='unnamed Rect', opacity=0.5, ori=0.0, pos=array([0., 0.]), size=array([2., 2.]), units='norm', vertices=ndarray(...), win=Window(...))",2.1,[],8,0.75,"[<psychopy.visual.line.Line object at 0x7fb871723100>, <psychopy.visual.line.Line object at 0x7fb8717234f0>]",<psychopy.hardware.keyboard.Keyboard object at 0x7fb857592b80>,
3,dot,0.3,['dot'],['density'],black,0,30,30,30,,,12.606794118881226,12.923428058624268,dot,"[0.1, 0.08, 0.08]","[[-0.1599523582230929, -0.020289166781496174], [-0.3458010015304564, -0.14250622038001895], [-0.3538668896253721, 0.08903610231223419]]",density,black,true,correct,nan,N006,visual,1,"['1', '2']","['3', '4']",1,/NOBACKUP2/USER/Jeong/experiment2,/NOBACKUP2/USER/Jeong/experiment2/logfiles/visual/N006_d-20240926,2023.2.3,harveyvisual,"Window(allowGUI=False, allowStencil=False, autoLog=True, backendConf=UNKNOWN, backgroundFit='cover', backgroundImage=None, bitsMode=UNKNOWN, blendMode='avg', bpc=(8, 8, 8), color=array([-1, -1, -1]), colorSpace='rgb', depthBits=8, fullscr=<method-wrapper '__getattribute__' of attributeSetter object at 0x7fb87b6d44f0>, gamma=None, gammaErrorPolicy='raise', lms=UNKNOWN, monitor=<psychopy.monitors.calibTools.Monitor object at 0x7fb8747fef10>, multiSample=False, name='stim_window', numSamples=2, pos=[0.0, 0.0], screen=0, size=array([1920, 1080]), stencilBits=0, stereo=False, title='PsychoPy', units='deg', useFBO=True, useRetina=False, viewOri=0.0, viewPos=None, viewScale=None, waitBlanking=True, winType='pyglet')","{'TR': 2.1, 'volumes': 5, 'sync': '5', 'skip': 0, 'sound': False}",<psychopy.clock.CountdownTimer object at 0x7fb8747db8b0>,"Rect(__class__=<class 'psychopy.visual.rect.Rect'>, anchor=('center', 'center'), autoDraw=True, autoLog=True, closeShape=True, color=method-wrapper(...), colorSpace='rgb', contrast=None, depth=0, draggable=False, fillColor=array([0.00392157, 0.00392157, 0.00392157]), fillColorSpace='rgb', fillRGB=array([0.00392157, 0.00392157, 0.00392157]), interpolate=True, lineColor=array([0., 0., 0.]), lineColorSpace='rgb', lineRGB=array([0, 0, 0]), lineWidth=1.5, name='unnamed Rect', opacity=0.5, ori=0.0, pos=array([0., 0.]), size=array([2., 2.]), units='norm', vertices=ndarray(...), win=Window(...))",2.1,[],8,0.75,"[<psychopy.visual.line.Line object at 0x7fb871723100>, <psychopy.visual.line.Line object at 0x7fb8717234f0>]",<psychopy.hardware.keyboard.Keyboard object at 0x7fb857592b80>,
0,pause,0.4,None,None,None,0,31,31,31,,,,,,,,,,,,,N006,visual,1,"['1', '2']","['3', '4']",1,/NOBACKUP2/USER/Jeong/experiment2,/NOBACKUP2/USER/Jeong/experiment2/logfiles/visual/N006_d-20240926,2023.2.3,harveyvisual,"Window(allowGUI=False, allowStencil=False, autoLog=True, backendConf=UNKNOWN, backgroundFit='cover', backgroundImage=None, bitsMode=UNKNOWN, blendMode='avg', bpc=(8, 8, 8), color=array([-1, -1, -1]), colorSpace='rgb', depthBits=8, fullscr=<method-wrapper '__getattribute__' of attributeSetter object at 0x7fb87b6d44f0>, gamma=None, gammaErrorPolicy='raise', lms=UNKNOWN, monitor=<psychopy.monitors.calibTools.Monitor object at 0x7fb8747fef10>, multiSample=False, name='stim_window', numSamples=2, pos=[0.0, 0.0], screen=0, size=array([1920, 1080]), stencilBits=0, stereo=False, title='PsychoPy', units='deg', useFBO=True, useRetina=False, viewOri=0.0, viewPos=None, viewScale=None, waitBlanking=True, winType='pyglet')","{'TR': 2.1, 'volumes': 5, 'sync': '5', 'skip': 0, 'sound': False}",<psychopy.clock.CountdownTimer object at 0x7fb8747db8b0>,"Rect(__class__=<class 'psychopy.visual.rect.Rect'>, anchor=('center', 'center'), autoDraw=True, autoLog=True, closeShape=True, color=method-wrapper(...), colorSpace='rgb', contrast=None, depth=0, draggable=False, fillColor=array([0.00392157, 0.00392157, 0.00392157]), fillColorSpace='rgb', fillRGB=array([0.00392157, 0.00392157, 0.00392157]), interpolate=True, lineColor=array([0., 0., 0.]), lineColorSpace='rgb', lineRGB=array([0, 0, 0]), lineWidth=1.5, name='unnamed Rect', opacity=0.5, ori=0.0, pos=array([0., 0.]), size=array([2., 2.]), units='norm', vertices=ndarray(...), win=Window(...))",2.1,[],8,0.75,"[<psychopy.visual.line.Line object at 0x7fb871723100>, <psychopy.visual.line.Line object at 0x7fb8717234f0>]",<psychopy.hardware.keyboard.Keyboard object at 0x7fb857592b80>,
3,dot,0.3,['dot'],['density'],black,0,32,32,32,,,13.306780099868774,13.623395919799805,dot,"[0.06, 0.06, 0.08]","[[-0.1599523582230929, -0.020289166781496174], [-0.3458010015304564, -0.14250622038001895], [-0.3538668896253721, 0.08903610231223419]]",density,black,true,correct,nan,N006,visual,1,"['1', '2']","['3', '4']",1,/NOBACKUP2/USER/Jeong/experiment2,/NOBACKUP2/USER/Jeong/experiment2/logfiles/visual/N006_d-20240926,2023.2.3,harveyvisual,"Window(allowGUI=False, allowStencil=False, autoLog=True, backendConf=UNKNOWN, backgroundFit='cover', backgroundImage=None, bitsMode=UNKNOWN, blendMode='avg', bpc=(8, 8, 8), color=array([-1, -1, -1]), colorSpace='rgb', depthBits=8, fullscr=<method-wrapper '__getattribute__' of attributeSetter object at 0x7fb87b6d44f0>, gamma=None, gammaErrorPolicy='raise', lms=UNKNOWN, monitor=<psychopy.monitors.calibTools.Monitor object at 0x7fb8747fef10>, multiSample=False, name='stim_window', numSamples=2, pos=[0.0, 0.0], screen=0, size=array([1920, 1080]), stencilBits=0, stereo=False, title='PsychoPy', units='deg', useFBO=True, useRetina=False, viewOri=0.0, viewPos=None, viewScale=None, waitBlanking=True, winType='pyglet')","{'TR': 2.1, 'volumes': 5, 'sync': '5', 'skip': 0, 'sound': False}",<psychopy.clock.CountdownTimer object at 0x7fb8747db8b0>,"Rect(__class__=<class 'psychopy.visual.rect.Rect'>, anchor=('center', 'center'), autoDraw=True, autoLog=True, closeShape=True, color=method-wrapper(...), colorSpace='rgb', contrast=None, depth=0, draggable=False, fillColor=array([0.00392157, 0.00392157, 0.00392157]), fillColorSpace='rgb', fillRGB=array([0.00392157, 0.00392157, 0.00392157]), interpolate=True, lineColor=array([0., 0., 0.]), lineColorSpace='rgb', lineRGB=array([0, 0, 0]), lineWidth=1.5, name='unnamed Rect', opacity=0.5, ori=0.0, pos=array([0., 0.]), size=array([2., 2.]), units='norm', vertices=ndarray(...), win=Window(...))",2.1,[],8,0.75,"[<psychopy.visual.line.Line object at 0x7fb871723100>, <psychopy.visual.line.Line object at 0x7fb8717234f0>]",<psychopy.hardware.keyboard.Keyboard object at 0x7fb857592b80>,
0,pause,0.4,None,None,None,0,33,33,33,,,,,,,,,,,,,N006,visual,1,"['1', '2']","['3', '4']",1,/NOBACKUP2/USER/Jeong/experiment2,/NOBACKUP2/USER/Jeong/experiment2/logfiles/visual/N006_d-20240926,2023.2.3,harveyvisual,"Window(allowGUI=False, allowStencil=False, autoLog=True, backendConf=UNKNOWN, backgroundFit='cover', backgroundImage=None, bitsMode=UNKNOWN, blendMode='avg', bpc=(8, 8, 8), color=array([-1, -1, -1]), colorSpace='rgb', depthBits=8, fullscr=<method-wrapper '__getattribute__' of attributeSetter object at 0x7fb87b6d44f0>, gamma=None, gammaErrorPolicy='raise', lms=UNKNOWN, monitor=<psychopy.monitors.calibTools.Monitor object at 0x7fb8747fef10>, multiSample=False, name='stim_window', numSamples=2, pos=[0.0, 0.0], screen=0, size=array([1920, 1080]), stencilBits=0, stereo=False, title='PsychoPy', units='deg', useFBO=True, useRetina=False, viewOri=0.0, viewPos=None, viewScale=None, waitBlanking=True, winType='pyglet')","{'TR': 2.1, 'volumes': 5, 'sync': '5', 'skip': 0, 'sound': False}",<psychopy.clock.CountdownTimer object at 0x7fb8747db8b0>,"Rect(__class__=<class 'psychopy.visual.rect.Rect'>, anchor=('center', 'center'), autoDraw=True, autoLog=True, closeShape=True, color=method-wrapper(...), colorSpace='rgb', contrast=None, depth=0, draggable=False, fillColor=array([0.00392157, 0.00392157, 0.00392157]), fillColorSpace='rgb', fillRGB=array([0.00392157, 0.00392157, 0.00392157]), interpolate=True, lineColor=array([0., 0., 0.]), lineColorSpace='rgb', lineRGB=array([0, 0, 0]), lineWidth=1.5, name='unnamed Rect', opacity=0.5, ori=0.0, pos=array([0., 0.]), size=array([2., 2.]), units='norm', vertices=ndarray(...), win=Window(...))",2.1,[],8,0.75,"[<psychopy.visual.line.Line object at 0x7fb871723100>, <psychopy.visual.line.Line object at 0x7fb8717234f0>]",<psychopy.hardware.keyboard.Keyboard object at 0x7fb857592b80>,
3,dot,0.3,['dot'],['density'],black,0,34,34,34,,,14.006731986999512,14.323380947113037,dot,"[0.08, 0.08, 0.06]","[[0.2656832518280197, 0.0014864193765316018], [0.3503107158811183, -0.1826455867164705], [0.5188928509039705, -0.04177453376365527]]",density,black,true,correct,nan,N006,visual,1,"['1', '2']","['3', '4']",1,/NOBACKUP2/USER/Jeong/experiment2,/NOBACKUP2/USER/Jeong/experiment2/logfiles/visual/N006_d-20240926,2023.2.3,harveyvisual,"Window(allowGUI=False, allowStencil=False, autoLog=True, backendConf=UNKNOWN, backgroundFit='cover', backgroundImage=None, bitsMode=UNKNOWN, blendMode='avg', bpc=(8, 8, 8), color=array([-1, -1, -1]), colorSpace='rgb', depthBits=8, fullscr=<method-wrapper '__getattribute__' of attributeSetter object at 0x7fb87b6d44f0>, gamma=None, gammaErrorPolicy='raise', lms=UNKNOWN, monitor=<psychopy.monitors.calibTools.Monitor object at 0x7fb8747fef10>, multiSample=False, name='stim_window', numSamples=2, pos=[0.0, 0.0], screen=0, size=array([1920, 1080]), stencilBits=0, stereo=False, title='PsychoPy', units='deg', useFBO=True, useRetina=False, viewOri=0.0, viewPos=None, viewScale=None, waitBlanking=True, winType='pyglet')","{'TR': 2.1, 'volumes': 5, 'sync': '5', 'skip': 0, 'sound': False}",<psychopy.clock.CountdownTimer object at 0x7fb8747db8b0>,"Rect(__class__=<class 'psychopy.visual.rect.Rect'>, anchor=('center', 'center'), autoDraw=True, autoLog=True, closeShape=True, color=method-wrapper(...), colorSpace='rgb', contrast=None, depth=0, draggable=False, fillColor=array([0.00392157, 0.00392157, 0.00392157]), fillColorSpace='rgb', fillRGB=array([0.00392157, 0.00392157, 0.00392157]), interpolate=True, lineColor=array([0., 0., 0.]), lineColorSpace='rgb', lineRGB=array([0, 0, 0]), lineWidth=1.5, name='unnamed Rect', opacity=0.5, ori=0.0, pos=array([0., 0.]), size=array([2., 2.]), units='norm', vertices=ndarray(...), win=Window(...))",2.1,[],8,0.75,"[<psychopy.visual.line.Line object at 0x7fb871723100>, <psychopy.visual.line.Line object at 0x7fb8717234f0>]",<psychopy.hardware.keyboard.Keyboard object at 0x7fb857592b80>,
0,pause,0.4,None,None,None,0,35,35,35,,,,,,,,,,,,,N006,visual,1,"['1', '2']","['3', '4']",1,/NOBACKUP2/USER/Jeong/experiment2,/NOBACKUP2/USER/Jeong/experiment2/logfiles/visual/N006_d-20240926,2023.2.3,harveyvisual,"Window(allowGUI=False, allowStencil=False, autoLog=True, backendConf=UNKNOWN, backgroundFit='cover', backgroundImage=None, bitsMode=UNKNOWN, blendMode='avg', bpc=(8, 8, 8), color=array([-1, -1, -1]), colorSpace='rgb', depthBits=8, fullscr=<method-wrapper '__getattribute__' of attributeSetter object at 0x7fb87b6d44f0>, gamma=None, gammaErrorPolicy='raise', lms=UNKNOWN, monitor=<psychopy.monitors.calibTools.Monitor object at 0x7fb8747fef10>, multiSample=False, name='stim_window', numSamples=2, pos=[0.0, 0.0], screen=0, size=array([1920, 1080]), stencilBits=0, stereo=False, title='PsychoPy', units='deg', useFBO=True, useRetina=False, viewOri=0.0, viewPos=None, viewScale=None, waitBlanking=True, winType='pyglet')","{'TR': 2.1, 'volumes': 5, 'sync': '5', 'skip': 0, 'sound': False}",<psychopy.clock.CountdownTimer object at 0x7fb8747db8b0>,"Rect(__class__=<class 'psychopy.visual.rect.Rect'>, anchor=('center', 'center'), autoDraw=True, autoLog=True, closeShape=True, color=method-wrapper(...), colorSpace='rgb', contrast=None, depth=0, draggable=False, fillColor=array([0.00392157, 0.00392157, 0.00392157]), fillColorSpace='rgb', fillRGB=array([0.00392157, 0.00392157, 0.00392157]), interpolate=True, lineColor=array([0., 0., 0.]), lineColorSpace='rgb', lineRGB=array([0, 0, 0]), lineWidth=1.5, name='unnamed Rect', opacity=0.5, ori=0.0, pos=array([0., 0.]), size=array([2., 2.]), units='norm', vertices=ndarray(...), win=Window(...))",2.1,[],8,0.75,"[<psychopy.visual.line.Line object at 0x7fb871723100>, <psychopy.visual.line.Line object at 0x7fb8717234f0>]",<psychopy.hardware.keyboard.Keyboard object at 0x7fb857592b80>,
4,dot,0.3,['dot'],['density'],black,0,36,36,36,,,14.7067289352417,15.023380041122437,dot,"[0.06, 0.06, 0.08, 0.06]","[[-0.4771446773377139, 0.25157103962592786], [-0.4259846000875058, -0.15982147080050188], [-0.5514119563937664, 0.017569371675289724], [-0.3400083930451492, 0.09263869595453958]]",density,black,false,wrong,nan,N006,visual,1,"['1', '2']","['3', '4']",1,/NOBACKUP2/USER/Jeong/experiment2,/NOBACKUP2/USER/Jeong/experiment2/logfiles/visual/N006_d-20240926,2023.2.3,harveyvisual,"Window(allowGUI=False, allowStencil=False, autoLog=True, backendConf=UNKNOWN, backgroundFit='cover', backgroundImage=None, bitsMode=UNKNOWN, blendMode='avg', bpc=(8, 8, 8), color=array([-1, -1, -1]), colorSpace='rgb', depthBits=8, fullscr=<method-wrapper '__getattribute__' of attributeSetter object at 0x7fb87b6d44f0>, gamma=None, gammaErrorPolicy='raise', lms=UNKNOWN, monitor=<psychopy.monitors.calibTools.Monitor object at 0x7fb8747fef10>, multiSample=False, name='stim_window', numSamples=2, pos=[0.0, 0.0], screen=0, size=array([1920, 1080]), stencilBits=0, stereo=False, title='PsychoPy', units='deg', useFBO=True, useRetina=False, viewOri=0.0, viewPos=None, viewScale=None, waitBlanking=True, winType='pyglet')","{'TR': 2.1, 'volumes': 5, 'sync': '5', 'skip': 0, 'sound': False}",<psychopy.clock.CountdownTimer object at 0x7fb8747db8b0>,"Rect(__class__=<class 'psychopy.visual.rect.Rect'>, anchor=('center', 'center'), autoDraw=True, autoLog=True, closeShape=True, color=method-wrapper(...), colorSpace='rgb', contrast=None, depth=0, draggable=False, fillColor=array([0.00392157, 0.00392157, 0.00392157]), fillColorSpace='rgb', fillRGB=array([0.00392157, 0.00392157, 0.00392157]), interpolate=True, lineColor=array([0., 0., 0.]), lineColorSpace='rgb', lineRGB=array([0, 0, 0]), lineWidth=1.5, name='unnamed Rect', opacity=0.5, ori=0.0, pos=array([0., 0.]), size=array([2., 2.]), units='norm', vertices=ndarray(...), win=Window(...))",2.1,[],8,0.75,"[<psychopy.visual.line.Line object at 0x7fb871723100>, <psychopy.visual.line.Line object at 0x7fb8717234f0>]",<psychopy.hardware.keyboard.Keyboard object at 0x7fb857592b80>,
0,pause,0.4,None,None,None,0,37,37,37,,,,,,,,,,,,,N006,visual,1,"['1', '2']","['3', '4']",1,/NOBACKUP2/USER/Jeong/experiment2,/NOBACKUP2/USER/Jeong/experiment2/logfiles/visual/N006_d-20240926,2023.2.3,harveyvisual,"Window(allowGUI=False, allowStencil=False, autoLog=True, backendConf=UNKNOWN, backgroundFit='cover', backgroundImage=None, bitsMode=UNKNOWN, blendMode='avg', bpc=(8, 8, 8), color=array([-1, -1, -1]), colorSpace='rgb', depthBits=8, fullscr=<method-wrapper '__getattribute__' of attributeSetter object at 0x7fb87b6d44f0>, gamma=None, gammaErrorPolicy='raise', lms=UNKNOWN, monitor=<psychopy.monitors.calibTools.Monitor object at 0x7fb8747fef10>, multiSample=False, name='stim_window', numSamples=2, pos=[0.0, 0.0], screen=0, size=array([1920, 1080]), stencilBits=0, stereo=False, title='PsychoPy', units='deg', useFBO=True, useRetina=False, viewOri=0.0, viewPos=None, viewScale=None, waitBlanking=True, winType='pyglet')","{'TR': 2.1, 'volumes': 5, 'sync': '5', 'skip': 0, 'sound': False}",<psychopy.clock.CountdownTimer object at 0x7fb8747db8b0>,"Rect(__class__=<class 'psychopy.visual.rect.Rect'>, anchor=('center', 'center'), autoDraw=True, autoLog=True, closeShape=True, color=method-wrapper(...), colorSpace='rgb', contrast=None, depth=0, draggable=False, fillColor=array([0.00392157, 0.00392157, 0.00392157]), fillColorSpace='rgb', fillRGB=array([0.00392157, 0.00392157, 0.00392157]), interpolate=True, lineColor=array([0., 0., 0.]), lineColorSpace='rgb', lineRGB=array([0, 0, 0]), lineWidth=1.5, name='unnamed Rect', opacity=0.5, ori=0.0, pos=array([0., 0.]), size=array([2., 2.]), units='norm', vertices=ndarray(...), win=Window(...))",2.1,[],8,0.75,"[<psychopy.visual.line.Line object at 0x7fb871723100>, <psychopy.visual.line.Line object at 0x7fb8717234f0>]",<psychopy.hardware.keyboard.Keyboard object at 0x7fb857592b80>,
4,dot,0.3,['dot'],['density'],black,0,38,38,38,,,15.406722068786621,15.723360061645508,dot,"[0.1, 0.1, 0.1, 0.06]","[[0.107131415583101, 0.03171316484874249], [0.3330877778846877, 0.14211400081541528], [0.23058747141838212, -0.24340322486593785], [0.3173726134345681, -0.05921806988573682]]",density,black,true,correct,nan,N006,visual,1,"['1', '2']","['3', '4']",1,/NOBACKUP2/USER/Jeong/experiment2,/NOBACKUP2/USER/Jeong/experiment2/logfiles/visual/N006_d-20240926,2023.2.3,harveyvisual,"Window(allowGUI=False, allowStencil=False, autoLog=True, backendConf=UNKNOWN, backgroundFit='cover', backgroundImage=None, bitsMode=UNKNOWN, blendMode='avg', bpc=(8, 8, 8), color=array([-1, -1, -1]), colorSpace='rgb', depthBits=8, fullscr=<method-wrapper '__getattribute__' of attributeSetter object at 0x7fb87b6d44f0>, gamma=None, gammaErrorPolicy='raise', lms=UNKNOWN, monitor=<psychopy.monitors.calibTools.Monitor object at 0x7fb8747fef10>, multiSample=False, name='stim_window', numSamples=2, pos=[0.0, 0.0], screen=0, size=array([1920, 1080]), stencilBits=0, stereo=False, title='PsychoPy', units='deg', useFBO=True, useRetina=False, viewOri=0.0, viewPos=None, viewScale=None, waitBlanking=True, winType='pyglet')","{'TR': 2.1, 'volumes': 5, 'sync': '5', 'skip': 0, 'sound': False}",<psychopy.clock.CountdownTimer object at 0x7fb8747db8b0>,"Rect(__class__=<class 'psychopy.visual.rect.Rect'>, anchor=('center', 'center'), autoDraw=True, autoLog=True, closeShape=True, color=method-wrapper(...), colorSpace='rgb', contrast=None, depth=0, draggable=False, fillColor=array([0.00392157, 0.00392157, 0.00392157]), fillColorSpace='rgb', fillRGB=array([0.00392157, 0.00392157, 0.00392157]), interpolate=True, lineColor=array([0., 0., 0.]), lineColorSpace='rgb', lineRGB=array([0, 0, 0]), lineWidth=1.5, name='unnamed Rect', opacity=0.5, ori=0.0, pos=array([0., 0.]), size=array([2., 2.]), units='norm', vertices=ndarray(...), win=Window(...))",2.1,[],8,0.75,"[<psychopy.visual.line.Line object at 0x7fb871723100>, <psychopy.visual.line.Line object at 0x7fb8717234f0>]",<psychopy.hardware.keyboard.Keyboard object at 0x7fb857592b80>,
0,pause,0.4,None,None,None,0,39,39,39,,,,,,,,,,,,,N006,visual,1,"['1', '2']","['3', '4']",1,/NOBACKUP2/USER/Jeong/experiment2,/NOBACKUP2/USER/Jeong/experiment2/logfiles/visual/N006_d-20240926,2023.2.3,harveyvisual,"Window(allowGUI=False, allowStencil=False, autoLog=True, backendConf=UNKNOWN, backgroundFit='cover', backgroundImage=None, bitsMode=UNKNOWN, blendMode='avg', bpc=(8, 8, 8), color=array([-1, -1, -1]), colorSpace='rgb', depthBits=8, fullscr=<method-wrapper '__getattribute__' of attributeSetter object at 0x7fb87b6d44f0>, gamma=None, gammaErrorPolicy='raise', lms=UNKNOWN, monitor=<psychopy.monitors.calibTools.Monitor object at 0x7fb8747fef10>, multiSample=False, name='stim_window', numSamples=2, pos=[0.0, 0.0], screen=0, size=array([1920, 1080]), stencilBits=0, stereo=False, title='PsychoPy', units='deg', useFBO=True, useRetina=False, viewOri=0.0, viewPos=None, viewScale=None, waitBlanking=True, winType='pyglet')","{'TR': 2.1, 'volumes': 5, 'sync': '5', 'skip': 0, 'sound': False}",<psychopy.clock.CountdownTimer object at 0x7fb8747db8b0>,"Rect(__class__=<class 'psychopy.visual.rect.Rect'>, anchor=('center', 'center'), autoDraw=True, autoLog=True, closeShape=True, color=method-wrapper(...), colorSpace='rgb', contrast=None, depth=0, draggable=False, fillColor=array([0.00392157, 0.00392157, 0.00392157]), fillColorSpace='rgb', fillRGB=array([0.00392157, 0.00392157, 0.00392157]), interpolate=True, lineColor=array([0., 0., 0.]), lineColorSpace='rgb', lineRGB=array([0, 0, 0]), lineWidth=1.5, name='unnamed Rect', opacity=0.5, ori=0.0, pos=array([0., 0.]), size=array([2., 2.]), units='norm', vertices=ndarray(...), win=Window(...))",2.1,[],8,0.75,"[<psychopy.visual.line.Line object at 0x7fb871723100>, <psychopy.visual.line.Line object at 0x7fb8717234f0>]",<psychopy.hardware.keyboard.Keyboard object at 0x7fb857592b80>,
4,dot,0.3,['dot'],['density'],black,0,40,40,40,,,16.106702089309692,16.42338800430298,dot,"[0.06, 0.1, 0.1, 0.08]","[[-0.24231220575667195, -0.22966258239168486], [-0.5136420973432148, -0.13696856920477488], [-0.4300726721285167, 0.13088957628356482], [-0.3148289313469241, -0.03851715211982174]]",density,black,true,correct,nan,N006,visual,1,"['1', '2']","['3', '4']",1,/NOBACKUP2/USER/Jeong/experiment2,/NOBACKUP2/USER/Jeong/experiment2/logfiles/visual/N006_d-20240926,2023.2.3,harveyvisual,"Window(allowGUI=False, allowStencil=False, autoLog=True, backendConf=UNKNOWN, backgroundFit='cover', backgroundImage=None, bitsMode=UNKNOWN, blendMode='avg', bpc=(8, 8, 8), color=array([-1, -1, -1]), colorSpace='rgb', depthBits=8, fullscr=<method-wrapper '__getattribute__' of attributeSetter object at 0x7fb87b6d44f0>, gamma=None, gammaErrorPolicy='raise', lms=UNKNOWN, monitor=<psychopy.monitors.calibTools.Monitor object at 0x7fb8747fef10>, multiSample=False, name='stim_window', numSamples=2, pos=[0.0, 0.0], screen=0, size=array([1920, 1080]), stencilBits=0, stereo=False, title='PsychoPy', units='deg', useFBO=True, useRetina=False, viewOri=0.0, viewPos=None, viewScale=None, waitBlanking=True, winType='pyglet')","{'TR': 2.1, 'volumes': 5, 'sync': '5', 'skip': 0, 'sound': False}",<psychopy.clock.CountdownTimer object at 0x7fb8747db8b0>,"Rect(__class__=<class 'psychopy.visual.rect.Rect'>, anchor=('center', 'center'), autoDraw=True, autoLog=True, closeShape=True, color=method-wrapper(...), colorSpace='rgb', contrast=None, depth=0, draggable=False, fillColor=array([0.00392157, 0.00392157, 0.00392157]), fillColorSpace='rgb', fillRGB=array([0.00392157, 0.00392157, 0.00392157]), interpolate=True, lineColor=array([0., 0., 0.]), lineColorSpace='rgb', lineRGB=array([0, 0, 0]), lineWidth=1.5, name='unnamed Rect', opacity=0.5, ori=0.0, pos=array([0., 0.]), size=array([2., 2.]), units='norm', vertices=ndarray(...), win=Window(...))",2.1,[],8,0.75,"[<psychopy.visual.line.Line object at 0x7fb871723100>, <psychopy.visual.line.Line object at 0x7fb8717234f0>]",<psychopy.hardware.keyboard.Keyboard object at 0x7fb857592b80>,
0,pause,0.4,None,None,None,0,41,41,41,,,,,,,,,,,,,N006,visual,1,"['1', '2']","['3', '4']",1,/NOBACKUP2/USER/Jeong/experiment2,/NOBACKUP2/USER/Jeong/experiment2/logfiles/visual/N006_d-20240926,2023.2.3,harveyvisual,"Window(allowGUI=False, allowStencil=False, autoLog=True, backendConf=UNKNOWN, backgroundFit='cover', backgroundImage=None, bitsMode=UNKNOWN, blendMode='avg', bpc=(8, 8, 8), color=array([-1, -1, -1]), colorSpace='rgb', depthBits=8, fullscr=<method-wrapper '__getattribute__' of attributeSetter object at 0x7fb87b6d44f0>, gamma=None, gammaErrorPolicy='raise', lms=UNKNOWN, monitor=<psychopy.monitors.calibTools.Monitor object at 0x7fb8747fef10>, multiSample=False, name='stim_window', numSamples=2, pos=[0.0, 0.0], screen=0, size=array([1920, 1080]), stencilBits=0, stereo=False, title='PsychoPy', units='deg', useFBO=True, useRetina=False, viewOri=0.0, viewPos=None, viewScale=None, waitBlanking=True, winType='pyglet')","{'TR': 2.1, 'volumes': 5, 'sync': '5', 'skip': 0, 'sound': False}",<psychopy.clock.CountdownTimer object at 0x7fb8747db8b0>,"Rect(__class__=<class 'psychopy.visual.rect.Rect'>, anchor=('center', 'center'), autoDraw=True, autoLog=True, closeShape=True, color=method-wrapper(...), colorSpace='rgb', contrast=None, depth=0, draggable=False, fillColor=array([0.00392157, 0.00392157, 0.00392157]), fillColorSpace='rgb', fillRGB=array([0.00392157, 0.00392157, 0.00392157]), interpolate=True, lineColor=array([0., 0., 0.]), lineColorSpace='rgb', lineRGB=array([0, 0, 0]), lineWidth=1.5, name='unnamed Rect', opacity=0.5, ori=0.0, pos=array([0., 0.]), size=array([2., 2.]), units='norm', vertices=ndarray(...), win=Window(...))",2.1,[],8,0.75,"[<psychopy.visual.line.Line object at 0x7fb871723100>, <psychopy.visual.line.Line object at 0x7fb8717234f0>]",<psychopy.hardware.keyboard.Keyboard object at 0x7fb857592b80>,
4,dot,0.3,['dot'],['density'],black,0,42,42,42,,,16.80699896812439,17.12335515022278,dot,"[0.1, 0.1, 0.1, 0.06]","[[-0.045256114861740894, 0.2798656300268403], [-0.02131053084637037, 0.4849425601475732], [0.17666180860848907, 0.34430389164600056], [0.0747630441556118, 0.10387908342824508]]",density,black,true,correct,nan,N006,visual,1,"['1', '2']","['3', '4']",1,/NOBACKUP2/USER/Jeong/experiment2,/NOBACKUP2/USER/Jeong/experiment2/logfiles/visual/N006_d-20240926,2023.2.3,harveyvisual,"Window(allowGUI=False, allowStencil=False, autoLog=True, backendConf=UNKNOWN, backgroundFit='cover', backgroundImage=None, bitsMode=UNKNOWN, blendMode='avg', bpc=(8, 8, 8), color=array([-1, -1, -1]), colorSpace='rgb', depthBits=8, fullscr=<method-wrapper '__getattribute__' of attributeSetter object at 0x7fb87b6d44f0>, gamma=None, gammaErrorPolicy='raise', lms=UNKNOWN, monitor=<psychopy.monitors.calibTools.Monitor object at 0x7fb8747fef10>, multiSample=False, name='stim_window', numSamples=2, pos=[0.0, 0.0], screen=0, size=array([1920, 1080]), stencilBits=0, stereo=False, title='PsychoPy', units='deg', useFBO=True, useRetina=False, viewOri=0.0, viewPos=None, viewScale=None, waitBlanking=True, winType='pyglet')","{'TR': 2.1, 'volumes': 5, 'sync': '5', 'skip': 0, 'sound': False}",<psychopy.clock.CountdownTimer object at 0x7fb8747db8b0>,"Rect(__class__=<class 'psychopy.visual.rect.Rect'>, anchor=('center', 'center'), autoDraw=True, autoLog=True, closeShape=True, color=method-wrapper(...), colorSpace='rgb', contrast=None, depth=0, draggable=False, fillColor=array([0.00392157, 0.00392157, 0.00392157]), fillColorSpace='rgb', fillRGB=array([0.00392157, 0.00392157, 0.00392157]), interpolate=True, lineColor=array([0., 0., 0.]), lineColorSpace='rgb', lineRGB=array([0, 0, 0]), lineWidth=1.5, name='unnamed Rect', opacity=0.5, ori=0.0, pos=array([0., 0.]), size=array([2., 2.]), units='norm', vertices=ndarray(...), win=Window(...))",2.1,[],8,0.75,"[<psychopy.visual.line.Line object at 0x7fb871723100>, <psychopy.visual.line.Line object at 0x7fb8717234f0>]",<psychopy.hardware.keyboard.Keyboard object at 0x7fb857592b80>,
0,pause,0.4,None,None,None,0,43,43,43,,,,,,,,,,,,,N006,visual,1,"['1', '2']","['3', '4']",1,/NOBACKUP2/USER/Jeong/experiment2,/NOBACKUP2/USER/Jeong/experiment2/logfiles/visual/N006_d-20240926,2023.2.3,harveyvisual,"Window(allowGUI=False, allowStencil=False, autoLog=True, backendConf=UNKNOWN, backgroundFit='cover', backgroundImage=None, bitsMode=UNKNOWN, blendMode='avg', bpc=(8, 8, 8), color=array([-1, -1, -1]), colorSpace='rgb', depthBits=8, fullscr=<method-wrapper '__getattribute__' of attributeSetter object at 0x7fb87b6d44f0>, gamma=None, gammaErrorPolicy='raise', lms=UNKNOWN, monitor=<psychopy.monitors.calibTools.Monitor object at 0x7fb8747fef10>, multiSample=False, name='stim_window', numSamples=2, pos=[0.0, 0.0], screen=0, size=array([1920, 1080]), stencilBits=0, stereo=False, title='PsychoPy', units='deg', useFBO=True, useRetina=False, viewOri=0.0, viewPos=None, viewScale=None, waitBlanking=True, winType='pyglet')","{'TR': 2.1, 'volumes': 5, 'sync': '5', 'skip': 0, 'sound': False}",<psychopy.clock.CountdownTimer object at 0x7fb8747db8b0>,"Rect(__class__=<class 'psychopy.visual.rect.Rect'>, anchor=('center', 'center'), autoDraw=True, autoLog=True, closeShape=True, color=method-wrapper(...), colorSpace='rgb', contrast=None, depth=0, draggable=False, fillColor=array([0.00392157, 0.00392157, 0.00392157]), fillColorSpace='rgb', fillRGB=array([0.00392157, 0.00392157, 0.00392157]), interpolate=True, lineColor=array([0., 0., 0.]), lineColorSpace='rgb', lineRGB=array([0, 0, 0]), lineWidth=1.5, name='unnamed Rect', opacity=0.5, ori=0.0, pos=array([0., 0.]), size=array([2., 2.]), units='norm', vertices=ndarray(...), win=Window(...))",2.1,[],8,0.75,"[<psychopy.visual.line.Line object at 0x7fb871723100>, <psychopy.visual.line.Line object at 0x7fb8717234f0>]",<psychopy.hardware.keyboard.Keyboard object at 0x7fb857592b80>,
4,dot,0.3,['dot'],['density'],black,0,44,44,44,,,17.506822109222412,17.823293924331665,dot,"[0.1, 0.06, 0.06, 0.1]","[[0.0015408600658227804, 0.35051751062746694], [-0.20674122870780898, 0.3211588031025307], [-0.08430622538187964, 0.13383917563087117], [0.1780252705082131, 0.19175915241248492]]",density,black,true,correct,nan,N006,visual,1,"['1', '2']","['3', '4']",1,/NOBACKUP2/USER/Jeong/experiment2,/NOBACKUP2/USER/Jeong/experiment2/logfiles/visual/N006_d-20240926,2023.2.3,harveyvisual,"Window(allowGUI=False, allowStencil=False, autoLog=True, backendConf=UNKNOWN, backgroundFit='cover', backgroundImage=None, bitsMode=UNKNOWN, blendMode='avg', bpc=(8, 8, 8), color=array([-1, -1, -1]), colorSpace='rgb', depthBits=8, fullscr=<method-wrapper '__getattribute__' of attributeSetter object at 0x7fb87b6d44f0>, gamma=None, gammaErrorPolicy='raise', lms=UNKNOWN, monitor=<psychopy.monitors.calibTools.Monitor object at 0x7fb8747fef10>, multiSample=False, name='stim_window', numSamples=2, pos=[0.0, 0.0], screen=0, size=array([1920, 1080]), stencilBits=0, stereo=False, title='PsychoPy', units='deg', useFBO=True, useRetina=False, viewOri=0.0, viewPos=None, viewScale=None, waitBlanking=True, winType='pyglet')","{'TR': 2.1, 'volumes': 5, 'sync': '5', 'skip': 0, 'sound': False}",<psychopy.clock.CountdownTimer object at 0x7fb8747db8b0>,"Rect(__class__=<class 'psychopy.visual.rect.Rect'>, anchor=('center', 'center'), autoDraw=True, autoLog=True, closeShape=True, color=method-wrapper(...), colorSpace='rgb', contrast=None, depth=0, draggable=False, fillColor=array([0.00392157, 0.00392157, 0.00392157]), fillColorSpace='rgb', fillRGB=array([0.00392157, 0.00392157, 0.00392157]), interpolate=True, lineColor=array([0., 0., 0.]), lineColorSpace='rgb', lineRGB=array([0, 0, 0]), lineWidth=1.5, name='unnamed Rect', opacity=0.5, ori=0.0, pos=array([0., 0.]), size=array([2., 2.]), units='norm', vertices=ndarray(...), win=Window(...))",2.1,[],8,0.75,"[<psychopy.visual.line.Line object at 0x7fb871723100>, <psychopy.visual.line.Line object at 0x7fb8717234f0>]",<psychopy.hardware.keyboard.Keyboard object at 0x7fb857592b80>,
0,pause,0.4,None,None,None,0,45,45,45,,,,,,,,,,,,,N006,visual,1,"['1', '2']","['3', '4']",1,/NOBACKUP2/USER/Jeong/experiment2,/NOBACKUP2/USER/Jeong/experiment2/logfiles/visual/N006_d-20240926,2023.2.3,harveyvisual,"Window(allowGUI=False, allowStencil=False, autoLog=True, backendConf=UNKNOWN, backgroundFit='cover', backgroundImage=None, bitsMode=UNKNOWN, blendMode='avg', bpc=(8, 8, 8), color=array([-1, -1, -1]), colorSpace='rgb', depthBits=8, fullscr=<method-wrapper '__getattribute__' of attributeSetter object at 0x7fb87b6d44f0>, gamma=None, gammaErrorPolicy='raise', lms=UNKNOWN, monitor=<psychopy.monitors.calibTools.Monitor object at 0x7fb8747fef10>, multiSample=False, name='stim_window', numSamples=2, pos=[0.0, 0.0], screen=0, size=array([1920, 1080]), stencilBits=0, stereo=False, title='PsychoPy', units='deg', useFBO=True, useRetina=False, viewOri=0.0, viewPos=None, viewScale=None, waitBlanking=True, winType='pyglet')","{'TR': 2.1, 'volumes': 5, 'sync': '5', 'skip': 0, 'sound': False}",<psychopy.clock.CountdownTimer object at 0x7fb8747db8b0>,"Rect(__class__=<class 'psychopy.visual.rect.Rect'>, anchor=('center', 'center'), autoDraw=True, autoLog=True, closeShape=True, color=method-wrapper(...), colorSpace='rgb', contrast=None, depth=0, draggable=False, fillColor=array([0.00392157, 0.00392157, 0.00392157]), fillColorSpace='rgb', fillRGB=array([0.00392157, 0.00392157, 0.00392157]), interpolate=True, lineColor=array([0., 0., 0.]), lineColorSpace='rgb', lineRGB=array([0, 0, 0]), lineWidth=1.5, name='unnamed Rect', opacity=0.5, ori=0.0, pos=array([0., 0.]), size=array([2., 2.]), units='norm', vertices=ndarray(...), win=Window(...))",2.1,[],8,0.75,"[<psychopy.visual.line.Line object at 0x7fb871723100>, <psychopy.visual.line.Line object at 0x7fb8717234f0>]",<psychopy.hardware.keyboard.Keyboard object at 0x7fb857592b80>,
4,dot,0.3,['dot'],['density'],black,0,46,46,46,,,18.206620931625366,18.523290157318115,dot,"[0.08, 0.1, 0.08, 0.1]","[[0.06241226843583792, -0.3147100539198924], [0.2553405417111816, -0.24584579293690137], [0.0027514156828475403, -0.09786489187307437], [0.1660279615748852, 0.026007470517245626]]",density,black,true,correct,nan,N006,visual,1,"['1', '2']","['3', '4']",1,/NOBACKUP2/USER/Jeong/experiment2,/NOBACKUP2/USER/Jeong/experiment2/logfiles/visual/N006_d-20240926,2023.2.3,harveyvisual,"Window(allowGUI=False, allowStencil=False, autoLog=True, backendConf=UNKNOWN, backgroundFit='cover', backgroundImage=None, bitsMode=UNKNOWN, blendMode='avg', bpc=(8, 8, 8), color=array([-1, -1, -1]), colorSpace='rgb', depthBits=8, fullscr=<method-wrapper '__getattribute__' of attributeSetter object at 0x7fb87b6d44f0>, gamma=None, gammaErrorPolicy='raise', lms=UNKNOWN, monitor=<psychopy.monitors.calibTools.Monitor object at 0x7fb8747fef10>, multiSample=False, name='stim_window', numSamples=2, pos=[0.0, 0.0], screen=0, size=array([1920, 1080]), stencilBits=0, stereo=False, title='PsychoPy', units='deg', useFBO=True, useRetina=False, viewOri=0.0, viewPos=None, viewScale=None, waitBlanking=True, winType='pyglet')","{'TR': 2.1, 'volumes': 5, 'sync': '5', 'skip': 0, 'sound': False}",<psychopy.clock.CountdownTimer object at 0x7fb8747db8b0>,"Rect(__class__=<class 'psychopy.visual.rect.Rect'>, anchor=('center', 'center'), autoDraw=True, autoLog=True, closeShape=True, color=method-wrapper(...), colorSpace='rgb', contrast=None, depth=0, draggable=False, fillColor=array([0.00392157, 0.00392157, 0.00392157]), fillColorSpace='rgb', fillRGB=array([0.00392157, 0.00392157, 0.00392157]), interpolate=True, lineColor=array([0., 0., 0.]), lineColorSpace='rgb', lineRGB=array([0, 0, 0]), lineWidth=1.5, name='unnamed Rect', opacity=0.5, ori=0.0, pos=array([0., 0.]), size=array([2., 2.]), units='norm', vertices=ndarray(...), win=Window(...))",2.1,[],8,0.75,"[<psychopy.visual.line.Line object at 0x7fb871723100>, <psychopy.visual.line.Line object at 0x7fb8717234f0>]",<psychopy.hardware.keyboard.Keyboard object at 0x7fb857592b80>,
0,pause,0.4,None,None,None,0,47,47,47,,,,,,,,,,,,,N006,visual,1,"['1', '2']","['3', '4']",1,/NOBACKUP2/USER/Jeong/experiment2,/NOBACKUP2/USER/Jeong/experiment2/logfiles/visual/N006_d-20240926,2023.2.3,harveyvisual,"Window(allowGUI=False, allowStencil=False, autoLog=True, backendConf=UNKNOWN, backgroundFit='cover', backgroundImage=None, bitsMode=UNKNOWN, blendMode='avg', bpc=(8, 8, 8), color=array([-1, -1, -1]), colorSpace='rgb', depthBits=8, fullscr=<method-wrapper '__getattribute__' of attributeSetter object at 0x7fb87b6d44f0>, gamma=None, gammaErrorPolicy='raise', lms=UNKNOWN, monitor=<psychopy.monitors.calibTools.Monitor object at 0x7fb8747fef10>, multiSample=False, name='stim_window', numSamples=2, pos=[0.0, 0.0], screen=0, size=array([1920, 1080]), stencilBits=0, stereo=False, title='PsychoPy', units='deg', useFBO=True, useRetina=False, viewOri=0.0, viewPos=None, viewScale=None, waitBlanking=True, winType='pyglet')","{'TR': 2.1, 'volumes': 5, 'sync': '5', 'skip': 0, 'sound': False}",<psychopy.clock.CountdownTimer object at 0x7fb8747db8b0>,"Rect(__class__=<class 'psychopy.visual.rect.Rect'>, anchor=('center', 'center'), autoDraw=True, autoLog=True, closeShape=True, color=method-wrapper(...), colorSpace='rgb', contrast=None, depth=0, draggable=False, fillColor=array([0.00392157, 0.00392157, 0.00392157]), fillColorSpace='rgb', fillRGB=array([0.00392157, 0.00392157, 0.00392157]), interpolate=True, lineColor=array([0., 0., 0.]), lineColorSpace='rgb', lineRGB=array([0, 0, 0]), lineWidth=1.5, name='unnamed Rect', opacity=0.5, ori=0.0, pos=array([0., 0.]), size=array([2., 2.]), units='norm', vertices=ndarray(...), win=Window(...))",2.1,[],8,0.75,"[<psychopy.visual.line.Line object at 0x7fb871723100>, <psychopy.visual.line.Line object at 0x7fb8717234f0>]",<psychopy.hardware.keyboard.Keyboard object at 0x7fb857592b80>,
5,dot,0.3,['dot'],['density'],black,0,48,48,48,,,18.906610012054443,19.223262071609497,dot,"[0.08, 0.06, 0.1, 0.08, 0.08]","[[-0.11834215492801986, 0.412508379109845], [0.31881799646300274, 0.30859303438359803], [-0.06368743078099719, 0.10105058071702504], [0.1133485112468387, 0.46262203184429457], [0.11957051434631445, 0.24197418837926052]]",density,black,false,wrong,nan,N006,visual,1,"['1', '2']","['3', '4']",1,/NOBACKUP2/USER/Jeong/experiment2,/NOBACKUP2/USER/Jeong/experiment2/logfiles/visual/N006_d-20240926,2023.2.3,harveyvisual,"Window(allowGUI=False, allowStencil=False, autoLog=True, backendConf=UNKNOWN, backgroundFit='cover', backgroundImage=None, bitsMode=UNKNOWN, blendMode='avg', bpc=(8, 8, 8), color=array([-1, -1, -1]), colorSpace='rgb', depthBits=8, fullscr=<method-wrapper '__getattribute__' of attributeSetter object at 0x7fb87b6d44f0>, gamma=None, gammaErrorPolicy='raise', lms=UNKNOWN, monitor=<psychopy.monitors.calibTools.Monitor object at 0x7fb8747fef10>, multiSample=False, name='stim_window', numSamples=2, pos=[0.0, 0.0], screen=0, size=array([1920, 1080]), stencilBits=0, stereo=False, title='PsychoPy', units='deg', useFBO=True, useRetina=False, viewOri=0.0, viewPos=None, viewScale=None, waitBlanking=True, winType='pyglet')","{'TR': 2.1, 'volumes': 5, 'sync': '5', 'skip': 0, 'sound': False}",<psychopy.clock.CountdownTimer object at 0x7fb8747db8b0>,"Rect(__class__=<class 'psychopy.visual.rect.Rect'>, anchor=('center', 'center'), autoDraw=True, autoLog=True, closeShape=True, color=method-wrapper(...), colorSpace='rgb', contrast=None, depth=0, draggable=False, fillColor=array([0.00392157, 0.00392157, 0.00392157]), fillColorSpace='rgb', fillRGB=array([0.00392157, 0.00392157, 0.00392157]), interpolate=True, lineColor=array([0., 0., 0.]), lineColorSpace='rgb', lineRGB=array([0, 0, 0]), lineWidth=1.5, name='unnamed Rect', opacity=0.5, ori=0.0, pos=array([0., 0.]), size=array([2., 2.]), units='norm', vertices=ndarray(...), win=Window(...))",2.1,[],8,0.75,"[<psychopy.visual.line.Line object at 0x7fb871723100>, <psychopy.visual.line.Line object at 0x7fb8717234f0>]",<psychopy.hardware.keyboard.Keyboard object at 0x7fb857592b80>,
0,pause,0.4,None,None,None,0,49,49,49,,,,,,,,,,,,,N006,visual,1,"['1', '2']","['3', '4']",1,/NOBACKUP2/USER/Jeong/experiment2,/NOBACKUP2/USER/Jeong/experiment2/logfiles/visual/N006_d-20240926,2023.2.3,harveyvisual,"Window(allowGUI=False, allowStencil=False, autoLog=True, backendConf=UNKNOWN, backgroundFit='cover', backgroundImage=None, bitsMode=UNKNOWN, blendMode='avg', bpc=(8, 8, 8), color=array([-1, -1, -1]), colorSpace='rgb', depthBits=8, fullscr=<method-wrapper '__getattribute__' of attributeSetter object at 0x7fb87b6d44f0>, gamma=None, gammaErrorPolicy='raise', lms=UNKNOWN, monitor=<psychopy.monitors.calibTools.Monitor object at 0x7fb8747fef10>, multiSample=False, name='stim_window', numSamples=2, pos=[0.0, 0.0], screen=0, size=array([1920, 1080]), stencilBits=0, stereo=False, title='PsychoPy', units='deg', useFBO=True, useRetina=False, viewOri=0.0, viewPos=None, viewScale=None, waitBlanking=True, winType='pyglet')","{'TR': 2.1, 'volumes': 5, 'sync': '5', 'skip': 0, 'sound': False}",<psychopy.clock.CountdownTimer object at 0x7fb8747db8b0>,"Rect(__class__=<class 'psychopy.visual.rect.Rect'>, anchor=('center', 'center'), autoDraw=True, autoLog=True, closeShape=True, color=method-wrapper(...), colorSpace='rgb', contrast=None, depth=0, draggable=False, fillColor=array([0.00392157, 0.00392157, 0.00392157]), fillColorSpace='rgb', fillRGB=array([0.00392157, 0.00392157, 0.00392157]), interpolate=True, lineColor=array([0., 0., 0.]), lineColorSpace='rgb', lineRGB=array([0, 0, 0]), lineWidth=1.5, name='unnamed Rect', opacity=0.5, ori=0.0, pos=array([0., 0.]), size=array([2., 2.]), units='norm', vertices=ndarray(...), win=Window(...))",2.1,[],8,0.75,"[<psychopy.visual.line.Line object at 0x7fb871723100>, <psychopy.visual.line.Line object at 0x7fb8717234f0>]",<psychopy.hardware.keyboard.Keyboard object at 0x7fb857592b80>,
5,dot,0.3,['dot'],['density'],black,0,50,50,50,,,19.606588125228882,19.9232439994812,dot,"[0.08, 0.1, 0.08, 0.1, 0.06]","[[-0.13667773294397823, -0.4810836359727921], [0.22435054442879343, -0.38211739689247126], [0.18745946747878278, -0.17039478388844306], [0.024239655080151325, -0.29759851870815907], [0.08919077751561523, -0.5300131723353856]]",density,black,true,correct,nan,N006,visual,1,"['1', '2']","['3', '4']",1,/NOBACKUP2/USER/Jeong/experiment2,/NOBACKUP2/USER/Jeong/experiment2/logfiles/visual/N006_d-20240926,2023.2.3,harveyvisual,"Window(allowGUI=False, allowStencil=False, autoLog=True, backendConf=UNKNOWN, backgroundFit='cover', backgroundImage=None, bitsMode=UNKNOWN, blendMode='avg', bpc=(8, 8, 8), color=array([-1, -1, -1]), colorSpace='rgb', depthBits=8, fullscr=<method-wrapper '__getattribute__' of attributeSetter object at 0x7fb87b6d44f0>, gamma=None, gammaErrorPolicy='raise', lms=UNKNOWN, monitor=<psychopy.monitors.calibTools.Monitor object at 0x7fb8747fef10>, multiSample=False, name='stim_window', numSamples=2, pos=[0.0, 0.0], screen=0, size=array([1920, 1080]), stencilBits=0, stereo=False, title='PsychoPy', units='deg', useFBO=True, useRetina=False, viewOri=0.0, viewPos=None, viewScale=None, waitBlanking=True, winType='pyglet')","{'TR': 2.1, 'volumes': 5, 'sync': '5', 'skip': 0, 'sound': False}",<psychopy.clock.CountdownTimer object at 0x7fb8747db8b0>,"Rect(__class__=<class 'psychopy.visual.rect.Rect'>, anchor=('center', 'center'), autoDraw=True, autoLog=True, closeShape=True, color=method-wrapper(...), colorSpace='rgb', contrast=None, depth=0, draggable=False, fillColor=array([0.00392157, 0.00392157, 0.00392157]), fillColorSpace='rgb', fillRGB=array([0.00392157, 0.00392157, 0.00392157]), interpolate=True, lineColor=array([0., 0., 0.]), lineColorSpace='rgb', lineRGB=array([0, 0, 0]), lineWidth=1.5, name='unnamed Rect', opacity=0.5, ori=0.0, pos=array([0., 0.]), size=array([2., 2.]), units='norm', vertices=ndarray(...), win=Window(...))",2.1,[],8,0.75,"[<psychopy.visual.line.Line object at 0x7fb871723100>, <psychopy.visual.line.Line object at 0x7fb8717234f0>]",<psychopy.hardware.keyboard.Keyboard object at 0x7fb857592b80>,
