num,mod,duration,shape,ll_cond,colors,.thisRepN,.thisTrialN,.thisN,.thisIndex,thisRow.t,notes,raw_global_time,t_start,t_stop,shapes,size,pos,cond,color,button,RT,participant,session,starting_run,left button (match/odd),right button (non-match/even),samples_per_block,psychopy version,expName,offset,audio,number_runs,radius,
1,dot,0.3,['dot'],['density'],black,0,0,0,0,,,2.400209903717041,2.1055150032043457,2.4055299758911133,dot,[0.06],"[-0.30422713965878023, 0.0739284850406325]",density,black,,,D001,visual,4,[],"['1', '2', '3', '4']",1,2023.2.3,harveyvisual,2.1,[],8,0.75,
0,pause,0.4,None,None,None,0,1,1,1,,,,,,,,,,,,,D001,visual,4,[],"['1', '2', '3', '4']",1,2023.2.3,harveyvisual,2.1,[],8,0.75,
1,dot,0.3,['dot'],['density'],black,0,2,2,2,,,3.1002039909362793,2.8054559230804443,3.1059579849243164,dot,[0.08],"[0.5286010678554951, -0.2554598500704326]",density,black,,,D001,visual,4,[],"['1', '2', '3', '4']",1,2023.2.3,harveyvisual,2.1,[],8,0.75,
0,pause,0.4,None,None,None,0,3,3,3,,,,,,,,,,,,,D001,visual,4,[],"['1', '2', '3', '4']",1,2023.2.3,harveyvisual,2.1,[],8,0.75,
1,dot,0.3,['dot'],['density'],black,0,4,4,4,,,3.800200939178467,3.5060009956359863,3.8059239387512207,dot,[0.08],"[-0.13294789447644317, -0.0050084293737640015]",density,black,,,D001,visual,4,[],"['1', '2', '3', '4']",1,2023.2.3,harveyvisual,2.1,[],8,0.75,
0,pause,0.4,None,None,None,0,5,5,5,,,,,,,,,,,,,D001,visual,4,[],"['1', '2', '3', '4']",1,2023.2.3,harveyvisual,2.1,[],8,0.75,
1,dot,0.3,['dot'],['density'],white,0,6,6,6,,,4.500204086303711,4.205915927886963,4.505911111831665,dot,[0.06],"[0.2830289625583117, -0.03026882548871228]",density,white,,,D001,visual,4,[],"['1', '2', '3', '4']",1,2023.2.3,harveyvisual,2.1,[],8,0.75,
0,pause,0.4,None,None,None,0,7,7,7,,,,,,,,,,,1,4.658740043640137,D001,visual,4,[],"['1', '2', '3', '4']",1,2023.2.3,harveyvisual,2.1,[],8,0.75,
1,dot,0.3,['dot'],['density'],black,0,8,8,8,,,5.200204133987427,4.905904054641724,5.205894947052002,dot,[0.08],"[-0.43400380483721984, 0.10531265887229962]",density,black,,,D001,visual,4,[],"['1', '2', '3', '4']",1,2023.2.3,harveyvisual,2.1,[],8,0.75,
0,pause,0.4,None,None,None,0,9,9,9,,,,,,,,,,,,,D001,visual,4,[],"['1', '2', '3', '4']",1,2023.2.3,harveyvisual,2.1,[],8,0.75,
1,dot,0.3,['dot'],['density'],black,0,10,10,10,,,5.90020489692688,5.608206033706665,5.908205986022949,dot,[0.08],"[0.2830289625583117, -0.03026882548871228]",density,black,,,D001,visual,4,[],"['1', '2', '3', '4']",1,2023.2.3,harveyvisual,2.1,[],8,0.75,
0,pause,0.4,None,None,None,0,11,11,11,,,,,,,,,,,,,D001,visual,4,[],"['1', '2', '3', '4']",1,2023.2.3,harveyvisual,2.1,[],8,0.75,
2,dot,0.3,['dot'],['density'],white,0,12,12,12,,,6.600214004516602,6.3081769943237305,6.6081719398498535,dot,"[0.1, 0.08]","[[0.21195259569903124, -0.4986433684978455], [0.023877440871594643, -0.42921284787985464]]",density,white,,,D001,visual,4,[],"['1', '2', '3', '4']",1,2023.2.3,harveyvisual,2.1,[],8,0.75,
0,pause,0.4,None,None,None,0,13,13,13,,,,,,,,,,,1,6.780781030654907,D001,visual,4,[],"['1', '2', '3', '4']",1,2023.2.3,harveyvisual,2.1,[],8,0.75,
2,dot,0.3,['dot'],['density'],black,0,14,14,14,,,7.300205945968628,7.008168935775757,7.3082170486450195,dot,"[0.08, 0.08]","[[-0.1809096912417549, 0.4542701565657042], [0.018526046348631375, 0.4698330185089162]]",density,black,,,D001,visual,4,[],"['1', '2', '3', '4']",1,2023.2.3,harveyvisual,2.1,[],8,0.75,
0,pause,0.4,None,None,None,0,15,15,15,,,,,,,,,,,,,D001,visual,4,[],"['1', '2', '3', '4']",1,2023.2.3,harveyvisual,2.1,[],8,0.75,
2,dot,0.3,['dot'],['density'],black,0,16,16,16,,,8.000216960906982,7.7081499099731445,8.008126974105835,dot,"[0.1, 0.1]","[[0.5590929928249944, 0.05901985638302875], [0.5065513741473344, -0.13409141480534237]]",density,black,,,D001,visual,4,[],"['1', '2', '3', '4']",1,2023.2.3,harveyvisual,2.1,[],8,0.75,
0,pause,0.4,None,None,None,0,17,17,17,,,,,,,,,,,,,D001,visual,4,[],"['1', '2', '3', '4']",1,2023.2.3,harveyvisual,2.1,[],8,0.75,
2,dot,0.3,['dot'],['density'],black,0,18,18,18,,,8.700207948684692,8.40814995765686,8.708143949508667,dot,"[0.08, 0.08]","[[0.038501021189721846, -0.3380528513692932], [0.2360793696083702, -0.306423538752856]]",density,black,,,D001,visual,4,[],"['1', '2', '3', '4']",1,2023.2.3,harveyvisual,2.1,[],8,0.75,
0,pause,0.4,None,None,None,0,19,19,19,,,,,,,,,,,,,D001,visual,4,[],"['1', '2', '3', '4']",1,2023.2.3,harveyvisual,2.1,[],8,0.75,
2,dot,0.3,['dot'],['density'],black,0,20,20,20,,,9.400195121765137,9.108123064041138,9.408112049102783,dot,"[0.1, 0.1]","[[0.500151128333041, 0.1656925720118866], [0.3771979967144504, 0.3235340638115745]]",density,black,,,D001,visual,4,[],"['1', '2', '3', '4']",1,2023.2.3,harveyvisual,2.1,[],8,0.75,
0,pause,0.4,None,None,None,0,21,21,21,,,,,,,,,,,,,D001,visual,4,[],"['1', '2', '3', '4']",1,2023.2.3,harveyvisual,2.1,[],8,0.75,
2,dot,0.3,['dot'],['density'],black,0,22,22,22,,,10.100197076797485,9.808088064193726,10.108093023300171,dot,"[0.06, 0.08]","[[-0.3970652553054307, 0.36151140161898554], [-0.22306532646831484, 0.26288994227005946]]",density,black,,,D001,visual,4,[],"['1', '2', '3', '4']",1,2023.2.3,harveyvisual,2.1,[],8,0.75,
0,pause,0.4,None,None,None,0,23,23,23,,,,,,,,,,,,,D001,visual,4,[],"['1', '2', '3', '4']",1,2023.2.3,harveyvisual,2.1,[],8,0.75,
3,dot,0.3,['dot'],['density'],black,0,24,24,24,,,10.800195932388306,10.508075952529907,10.808063983917236,dot,"[0.08, 0.08, 0.08]","[[-0.18534860244577742, 0.5145019772121514], [0.05660586421610542, 0.42456432010350276], [-0.11463700911578348, 0.31489985189225056]]",density,black,,,D001,visual,4,[],"['1', '2', '3', '4']",1,2023.2.3,harveyvisual,2.1,[],8,0.75,
0,pause,0.4,None,None,None,0,25,25,25,,,,,,,,,,,,,D001,visual,4,[],"['1', '2', '3', '4']",1,2023.2.3,harveyvisual,2.1,[],8,0.75,
3,dot,0.3,['dot'],['density'],white,0,26,26,26,,,11.500205993652344,11.208091020584106,11.508055925369263,dot,"[0.06, 0.06, 0.06]","[[0.3935061822875672, 0.2255916562549388], [0.5507663609445765, 0.05974239467682067], [0.33737455125106675, -0.013318187219183488]]",density,white,,,D001,visual,4,[],"['1', '2', '3', '4']",1,2023.2.3,harveyvisual,2.1,[],8,0.75,
0,pause,0.4,None,None,None,0,27,27,27,,,,,,,,,,,1,11.634405851364136,D001,visual,4,[],"['1', '2', '3', '4']",1,2023.2.3,harveyvisual,2.1,[],8,0.75,
3,dot,0.3,['dot'],['density'],black,0,28,28,28,,,12.20021104812622,11.908041000366211,12.20802903175354,dot,"[0.06, 0.06, 0.06]","[[-0.15674404860239688, -0.25078459247658497], [0.006578924124220241, -0.41324131210186005], [0.06959682433872849, -0.20549031443856539]]",density,black,,,D001,visual,4,[],"['1', '2', '3', '4']",1,2023.2.3,harveyvisual,2.1,[],8,0.75,
0,pause,0.4,None,None,None,0,29,29,29,,,,,,,,,,,,,D001,visual,4,[],"['1', '2', '3', '4']",1,2023.2.3,harveyvisual,2.1,[],8,0.75,
3,dot,0.3,['dot'],['density'],black,0,30,30,30,,,12.900231122970581,12.608098983764648,12.92477297782898,dot,"[0.06, 0.1, 0.06]","[[-0.36641147837046456, 0.28339849123565264], [-0.19108570342652328, 0.4628134959899303], [-0.16564092668537764, 0.24926372681875647]]",density,black,,,D001,visual,4,[],"['1', '2', '3', '4']",1,2023.2.3,harveyvisual,2.1,[],8,0.75,
0,pause,0.4,None,None,None,0,31,31,31,,,,,,,,,,,,,D001,visual,4,[],"['1', '2', '3', '4']",1,2023.2.3,harveyvisual,2.1,[],8,0.75,
3,dot,0.3,['dot'],['density'],black,0,32,32,32,,,13.60020899772644,13.308099031448364,13.608087062835693,dot,"[0.1, 0.1, 0.08]","[[0.13574725429899362, -0.5423283227425341], [-0.036793286563257144, -0.3768814925557267], [0.16175487704753985, -0.3348017255345844]]",density,black,,,D001,visual,4,[],"['1', '2', '3', '4']",1,2023.2.3,harveyvisual,2.1,[],8,0.75,
0,pause,0.4,None,None,None,0,33,33,33,,,,,,,,,,,,,D001,visual,4,[],"['1', '2', '3', '4']",1,2023.2.3,harveyvisual,2.1,[],8,0.75,
3,dot,0.3,['dot'],['density'],black,0,34,34,34,,,14.300213098526001,14.008103132247925,14.308068990707397,dot,"[0.1, 0.06, 0.08]","[[-0.1591938184585166, 0.2573970255855866], [-0.049574382916532336, 0.44031337398050124], [0.08264166875933507, 0.262381570646859]]",density,black,,,D001,visual,4,[],"['1', '2', '3', '4']",1,2023.2.3,harveyvisual,2.1,[],8,0.75,
0,pause,0.4,None,None,None,0,35,35,35,,,,,,,,,,,,,D001,visual,4,[],"['1', '2', '3', '4']",1,2023.2.3,harveyvisual,2.1,[],8,0.75,
4,dot,0.3,['dot'],['density'],black,0,36,36,36,,,15.000198125839233,14.708070039749146,15.007988929748535,dot,"[0.1, 0.06, 0.08, 0.1]","[[-0.3884818304242726, 0.11421243679268873], [-0.11472928134965246, -0.13141119473891247], [-0.1657593024508462, 0.13368900033666462], [-0.36655717599886073, -0.10387254737714131]]",density,black,,,D001,visual,4,[],"['1', '2', '3', '4']",1,2023.2.3,harveyvisual,2.1,[],8,0.75,
0,pause,0.4,None,None,None,0,37,37,37,,,,,,,,,,,,,D001,visual,4,[],"['1', '2', '3', '4']",1,2023.2.3,harveyvisual,2.1,[],8,0.75,
4,dot,0.3,['dot'],['density'],black,0,38,38,38,,,15.700205087661743,15.40800404548645,15.70815896987915,dot,"[0.06, 0.08, 0.06, 0.06]","[[-0.5133923796685119, -0.13567638448558317], [-0.3102378593599109, -0.17790160316510653], [-0.5338837235738882, 0.07316730980410076], [-0.255286731521037, 0.022123457211080083]]",density,black,,,D001,visual,4,[],"['1', '2', '3', '4']",1,2023.2.3,harveyvisual,2.1,[],8,0.75,
0,pause,0.4,None,None,None,0,39,39,39,,,,,,,,,,,,,D001,visual,4,[],"['1', '2', '3', '4']",1,2023.2.3,harveyvisual,2.1,[],8,0.75,
4,dot,0.3,['dot'],['density'],black,0,40,40,40,,,16.400218963623047,16.108137130737305,16.408090114593506,dot,"[0.1, 0.06, 0.1, 0.08]","[[0.0015408600658227804, 0.35051751062746694], [-0.20674122870780898, 0.3211588031025307], [-0.08430622538187964, 0.13383917563087117], [0.1780252705082131, 0.19175915241248492]]",density,black,,,D001,visual,4,[],"['1', '2', '3', '4']",1,2023.2.3,harveyvisual,2.1,[],8,0.75,
0,pause,0.4,None,None,None,0,41,41,41,,,,,,,,,,,,,D001,visual,4,[],"['1', '2', '3', '4']",1,2023.2.3,harveyvisual,2.1,[],8,0.75,
4,dot,0.3,['dot'],['density'],black,0,42,42,42,,,17.100208044052124,16.80796790122986,17.108092069625854,dot,"[0.06, 0.1, 0.1, 0.1]","[[-0.22375678750486633, 0.16938766720995918], [-0.03438308412182927, 0.2632029670309489], [0.15312837370161694, 0.1265605786946886], [-0.035433382102469414, 0.014828983441921377]]",density,black,,,D001,visual,4,[],"['1', '2', '3', '4']",1,2023.2.3,harveyvisual,2.1,[],8,0.75,
0,pause,0.4,None,None,None,0,43,43,43,,,,,,,,,,,,,D001,visual,4,[],"['1', '2', '3', '4']",1,2023.2.3,harveyvisual,2.1,[],8,0.75,
4,dot,0.3,['dot'],['density'],black,0,44,44,44,,,17.800220012664795,17.507959127426147,17.808114051818848,dot,"[0.1, 0.08, 0.1, 0.08]","[[0.041567121943163726, -0.05225384285034155], [-0.0805660347394345, -0.3501797602382367], [-0.1695568067340664, -0.0700859275369407], [0.1361950610904954, -0.2628340353233457]]",density,black,,,D001,visual,4,[],"['1', '2', '3', '4']",1,2023.2.3,harveyvisual,2.1,[],8,0.75,
0,pause,0.4,None,None,None,0,45,45,45,,,,,,,,,,,,,D001,visual,4,[],"['1', '2', '3', '4']",1,2023.2.3,harveyvisual,2.1,[],8,0.75,
4,dot,0.3,['dot'],['density'],black,0,46,46,46,,,18.500200986862183,18.208137035369873,18.50792407989502,dot,"[0.1, 0.06, 0.1, 0.1]","[[0.15462156444594843, 0.0379601134824338], [-0.046642739949193296, 0.06510400621286498], [0.12320708371464141, 0.2499967514902957], [-0.13279798436850673, 0.2624558601457805]]",density,black,,,D001,visual,4,[],"['1', '2', '3', '4']",1,2023.2.3,harveyvisual,2.1,[],8,0.75,
0,pause,0.4,None,None,None,0,47,47,47,,,,,,,,,,,,,D001,visual,4,[],"['1', '2', '3', '4']",1,2023.2.3,harveyvisual,2.1,[],8,0.75,
5,dot,0.3,['dot'],['density'],black,0,48,48,48,,,19.200212955474854,18.907889127731323,19.207956075668335,dot,"[0.08, 0.08, 0.08, 0.06, 0.1]","[[-0.0036269740154891753, 0.5431219823242713], [-0.2646325594942043, 0.5073179604697073], [-0.41902475937036154, 0.37311436690984484], [-0.007163214206743488, 0.2887893175302695], [-0.2156098228659233, 0.2684642371109035]]",density,black,,,D001,visual,4,[],"['1', '2', '3', '4']",1,2023.2.3,harveyvisual,2.1,[],8,0.75,
0,pause,0.4,None,None,None,0,49,49,49,,,,,,,,,,,,,D001,visual,4,[],"['1', '2', '3', '4']",1,2023.2.3,harveyvisual,2.1,[],8,0.75,
5,dot,0.3,['dot'],['density'],black,0,50,50,50,,,19.900207996368408,19.6078999042511,19.90785813331604,dot,"[0.1, 0.08, 0.1, 0.06, 0.1]","[[-0.0036269740154891753, 0.5431219823242713], [-0.2646325594942043, 0.5073179604697073], [-0.41902475937036154, 0.37311436690984484], [-0.007163214206743488, 0.2887893175302695], [-0.2156098228659233, 0.2684642371109035]]",density,black,,,D001,visual,4,[],"['1', '2', '3', '4']",1,2023.2.3,harveyvisual,2.1,[],8,0.75,
0,pause,0.4,None,None,None,0,51,51,51,,,,,,,,,,,,,D001,visual,4,[],"['1', '2', '3', '4']",1,2023.2.3,harveyvisual,2.1,[],8,0.75,
5,dot,0.3,['dot'],['density'],black,0,52,52,52,,,20.600204944610596,20.307850122451782,20.607875108718872,dot,"[0.06, 0.08, 0.06, 0.06, 0.1]","[[-0.47409275164437775, -0.17842554437930905], [-0.28800513042966097, -0.4059597382025641], [-0.20075697267214665, 0.008887320625593834], [-0.2708677629513771, -0.1868162154653106], [-0.0886924353013077, -0.2820475711339636]]",density,black,,,D001,visual,4,[],"['1', '2', '3', '4']",1,2023.2.3,harveyvisual,2.1,[],8,0.75,
0,pause,0.4,None,None,None,0,53,53,53,,,,,,,,,,,,,D001,visual,4,[],"['1', '2', '3', '4']",1,2023.2.3,harveyvisual,2.1,[],8,0.75,
5,dot,0.3,['dot'],['density'],black,0,54,54,54,,,21.300211906433105,21.007832050323486,21.30773401260376,dot,"[0.06, 0.1, 0.08, 0.06, 0.06]","[[0.45108699871130137, 0.12052648913612102], [0.3120839015871755, -0.055344110322042436], [0.5361186937318446, -0.08608482415671545], [0.24926945818158194, 0.15209517992691748], [0.3855135356736719, -0.25840400127360613]]",density,black,,,D001,visual,4,[],"['1', '2', '3', '4']",1,2023.2.3,harveyvisual,2.1,[],8,0.75,
0,pause,0.4,None,None,None,0,55,55,55,,,,,,,,,,,,,D001,visual,4,[],"['1', '2', '3', '4']",1,2023.2.3,harveyvisual,2.1,[],8,0.75,
5,dot,0.3,['dot'],['density'],black,0,56,56,56,,,22.000221014022827,21.707881927490234,22.00784993171692,dot,"[0.1, 0.08, 0.08, 0.1, 0.06]","[[0.2947939438731228, -0.23060267152592065], [-0.16069394766121817, -0.3416383267983795], [0.17571447256805817, -0.04795497140357211], [-0.06398416024856234, -0.043165972544212804], [0.046845399773749824, -0.2436216536023896]]",density,black,,,D001,visual,4,[],"['1', '2', '3', '4']",1,2023.2.3,harveyvisual,2.1,[],8,0.75,
0,pause,0.4,None,None,None,0,57,57,57,,,,,,,,,,,,,D001,visual,4,[],"['1', '2', '3', '4']",1,2023.2.3,harveyvisual,2.1,[],8,0.75,
5,dot,0.3,['dot'],['density'],black,0,58,58,58,,,22.700217962265015,22.407865047454834,22.707854986190796,dot,"[0.1, 0.06, 0.1, 0.1, 0.08]","[[0.14370466841446422, -0.4636309982806098], [0.2961807471193908, -0.30487684838795487], [-0.08083516471444438, -0.49823911181902014], [0.057429843216129074, -0.22123310288296744], [-0.1653320673045236, -0.3160671692815837]]",density,black,,,D001,visual,4,[],"['1', '2', '3', '4']",1,2023.2.3,harveyvisual,2.1,[],8,0.75,
0,pause,0.4,None,None,None,0,59,59,59,,,,,,,,,,,,,D001,visual,4,[],"['1', '2', '3', '4']",1,2023.2.3,harveyvisual,2.1,[],8,0.75,
6,dot,0.3,['dot'],['density'],black,0,60,60,60,,,23.400216102600098,23.10784602165222,23.407752990722656,dot,"[0.08, 0.06, 0.06, 0.08, 0.06, 0.08]","[[-0.25052904509636076, -0.46440103658729176], [-0.12772535636451293, 0.010821502090106766], [-0.031043743050516784, -0.3649555915866845], [-0.3754529733759062, -0.18839395716731677], [0.07378414788444272, -0.15062955699655364], [-0.17220243018048728, -0.20498996683935267]]",density,black,,,D001,visual,4,[],"['1', '2', '3', '4']",1,2023.2.3,harveyvisual,2.1,[],8,0.75,
0,pause,0.4,None,None,None,0,61,61,61,,,,,,,,,,,,,D001,visual,4,[],"['1', '2', '3', '4']",1,2023.2.3,harveyvisual,2.1,[],8,0.75,
6,dot,0.3,['dot'],['density'],black,0,62,62,62,,,24.100198984146118,23.80779790878296,24.10767102241516,dot,"[0.1, 0.1, 0.1, 0.1, 0.1, 0.08]","[[0.1344939073868, 0.11682503965153783], [0.2622842826516073, -0.1576809643807538], [0.491422654665352, 0.2653315688189552], [0.5669231994484553, 0.0667155191364867], [0.2299276458131091, 0.29835232047215776], [0.3356420801536577, 0.10517090915368521]]",density,black,,,D001,visual,4,[],"['1', '2', '3', '4']",1,2023.2.3,harveyvisual,2.1,[],8,0.75,
0,pause,0.4,None,None,None,0,63,63,63,,,,,,,,,,,,,D001,visual,4,[],"['1', '2', '3', '4']",1,2023.2.3,harveyvisual,2.1,[],8,0.75,
6,dot,0.3,['dot'],['density'],white,0,64,64,64,,,24.800218105316162,24.507745027542114,24.807658910751343,dot,"[0.08, 0.06, 0.1, 0.1, 0.06, 0.06]","[[-0.5379788740814003, -0.011730333491669416], [-0.1820890739253136, -0.27973544868684425], [-0.07809457889047756, -0.09124846264896269], [-0.30616251401069866, -0.45101817852416426], [-0.44200878281119743, -0.26991620184617166], [-0.3315938551005316, -0.08696624632848979]]",density,white,,,D001,visual,4,[],"['1', '2', '3', '4']",1,2023.2.3,harveyvisual,2.1,[],8,0.75,
0,pause,0.4,None,None,None,0,65,65,65,,,,,,,,,,,1,24.97105598449707,D001,visual,4,[],"['1', '2', '3', '4']",1,2023.2.3,harveyvisual,2.1,[],8,0.75,
6,dot,0.3,['dot'],['density'],white,0,66,66,66,,,25.500212907791138,25.207792043685913,25.507630109786987,dot,"[0.08, 0.1, 0.1, 0.1, 0.06, 0.08]","[[-0.4836161913484198, -0.3187453071493452], [-0.26471688047626735, -0.2860523134109648], [-0.41762950244179403, 0.08668289631298715], [-0.3878484475239729, -0.1200129628316565], [-0.19654931186518254, -0.017200237521102193], [-0.07523945320955261, -0.19429752312200124]]",density,white,,,D001,visual,4,[],"['1', '2', '3', '4']",1,2023.2.3,harveyvisual,2.1,[],8,0.75,
0,pause,0.4,None,None,None,0,67,67,67,,,,,,,,,,,,,D001,visual,4,[],"['1', '2', '3', '4']",1,2023.2.3,harveyvisual,2.1,[],8,0.75,
6,dot,0.3,['dot'],['density'],black,0,68,68,68,,,26.20024299621582,25.907701015472412,26.207786083221436,dot,"[0.1, 0.08, 0.06, 0.1, 0.1, 0.08]","[[-0.36904347190091025, 0.2789229011504548], [-0.01038079434194998, 0.053649704929766846], [-0.08735338951653393, 0.578282782753283], [5.153534382930422e-05, 0.38446941554394387], [-0.22753401468201206, 0.43210907521897474], [-0.14647282530567177, 0.24517240432070728]]",density,black,1,25.962211847305298,D001,visual,4,[],"['1', '2', '3', '4']",1,2023.2.3,harveyvisual,2.1,[],8,0.75,
0,pause,0.4,None,None,None,0,69,69,69,,,,,,,,,,,,,D001,visual,4,[],"['1', '2', '3', '4']",1,2023.2.3,harveyvisual,2.1,[],8,0.75,
6,dot,0.3,['dot'],['density'],black,0,70,70,70,,,26.900214910507202,26.60772395133972,26.90788507461548,dot,"[0.1, 0.08, 0.1, 0.06, 0.08, 0.1]","[[-0.362545063880459, -0.421860962952156], [-0.24010638466002518, -0.0327569241266412], [-0.22622339336134992, -0.23590116153186103], [-0.41823503972227205, -0.14060420183103206], [-0.028992295722001654, -0.1293578273409096], [-0.1459617666416116, -0.4591052827033254]]",density,black,,,D001,visual,4,[],"['1', '2', '3', '4']",1,2023.2.3,harveyvisual,2.1,[],8,0.75,
0,pause,0.4,None,None,None,0,71,71,71,,,,,,,,,,,,,D001,visual,4,[],"['1', '2', '3', '4']",1,2023.2.3,harveyvisual,2.1,[],8,0.75,
7,dot,0.3,['dot'],['density'],black,0,72,72,72,,,27.6001980304718,27.30784296989441,27.607614040374756,dot,"[0.1, 0.06, 0.1, 0.1, 0.06, 0.08, 0.1]","[[-0.03978284138183809, -0.43963729991580147], [0.2770736023028816, -0.4460091285183096], [0.4264240077257641, -0.26124456405115876], [0.04351789842027954, -0.004572294527936195], [0.08491707485555088, -0.26540219852266356], [0.2274622265833728, -0.10044916879814345], [0.4232844185721205, -0.050742783717769746]]",density,black,,,D001,visual,4,[],"['1', '2', '3', '4']",1,2023.2.3,harveyvisual,2.1,[],8,0.75,
0,pause,0.4,None,None,None,0,73,73,73,,,,,,,,,,,,,D001,visual,4,[],"['1', '2', '3', '4']",1,2023.2.3,harveyvisual,2.1,[],8,0.75,
7,dot,0.3,['dot'],['density'],black,0,74,74,74,,,28.300214052200317,28.007699012756348,28.307853937149048,dot,"[0.08, 0.1, 0.06, 0.1, 0.1, 0.08, 0.1]","[[-0.23895008888738212, 0.05027357720500052], [0.04847041368780161, 0.3376116924566045], [0.007425979130163878, -0.07582657330311053], [-0.16109724709992976, 0.33554312732420544], [-0.17199436159673825, -0.1887904434853683], [0.1858169564317131, 0.14031933770952934], [-0.038655615351801086, 0.15226176997737048]]",density,black,,,D001,visual,4,[],"['1', '2', '3', '4']",1,2023.2.3,harveyvisual,2.1,[],8,0.75,
0,pause,0.4,None,None,None,0,75,75,75,,,,,,,,,,,,,D001,visual,4,[],"['1', '2', '3', '4']",1,2023.2.3,harveyvisual,2.1,[],8,0.75,
7,dot,0.3,['dot'],['density'],black,0,76,76,76,,,29.0002179145813,28.707828044891357,29.024478912353516,dot,"[0.08, 0.08, 0.1, 0.1, 0.06, 0.08, 0.1]","[[0.21536278937261513, -0.01733091677764761], [-0.08931035591216824, -0.05246349631749078], [0.21870610454298933, 0.21067491250041093], [-0.1587576617113587, 0.26068369883413384], [0.04623079518225047, 0.4568527369480977], [0.022942391481424712, 0.13939122930077608], [-0.27674911739568203, 0.09730719745121558]]",density,black,,,D001,visual,4,[],"['1', '2', '3', '4']",1,2023.2.3,harveyvisual,2.1,[],8,0.75,
0,pause,0.4,None,None,None,0,77,77,77,,,,,,,,,,,,,D001,visual,4,[],"['1', '2', '3', '4']",1,2023.2.3,harveyvisual,2.1,[],8,0.75,
7,dot,0.3,['dot'],['density'],black,0,78,78,78,,,29.700210094451904,29.407642126083374,29.7242751121521,dot,"[0.08, 0.1, 0.08, 0.08, 0.06, 0.08, 0.08]","[[-0.1639205104410485, 0.5375336320852997], [0.13665370749938832, 0.21910895384688228], [-0.33778978147358674, 0.04597826141406851], [-0.2268593015261854, 0.22000868921510455], [-0.39586497221419475, 0.3389169711393182], [-0.023188047053822363, 0.08417042442854547], [-0.025005414605345992, 0.38521147685537843]]",density,black,,,D001,visual,4,[],"['1', '2', '3', '4']",1,2023.2.3,harveyvisual,2.1,[],8,0.75,
0,pause,0.4,None,None,None,0,79,79,79,,,,,,,,,,,,,D001,visual,4,[],"['1', '2', '3', '4']",1,2023.2.3,harveyvisual,2.1,[],8,0.75,
7,dot,0.3,['dot'],['density'],black,0,80,80,80,,,30.400223970413208,30.107609033584595,30.42427110671997,dot,"[0.06, 0.06, 0.06, 0.1, 0.1, 0.06, 0.1]","[[-0.026372969700101213, 0.05085620782211805], [-0.16304282038196347, -0.3616501386780019], [-0.013762327205412121, -0.14910430285435466], [0.14729449770710015, -0.3647544547161306], [-0.22494517313234175, -0.12035103032643314], [-0.36514670174418407, -0.33057163197754225], [0.21417125919861074, -0.06627923590771367]]",density,black,,,D001,visual,4,[],"['1', '2', '3', '4']",1,2023.2.3,harveyvisual,2.1,[],8,0.75,
0,pause,0.4,None,None,None,0,81,81,81,,,,,,,,,,,,,D001,visual,4,[],"['1', '2', '3', '4']",1,2023.2.3,harveyvisual,2.1,[],8,0.75,
7,dot,0.3,['dot'],['density'],black,0,82,82,82,,,31.10021996498108,30.807605981826782,31.124300003051758,dot,"[0.06, 0.1, 0.08, 0.08, 0.1, 0.1, 0.06]","[[-0.4123410031792677, -0.32555807737620884], [-0.11281232420725038, -0.2658066965482441], [-0.16970574590124413, 0.10972852905085191], [-0.380148642061964, 0.19816541478521793], [-0.49975943015608576, -0.10400723965324657], [-0.30003386022098844, -0.09340949099572564], [-0.0679185705411078, -0.06780919729272472]]",density,black,,,D001,visual,4,[],"['1', '2', '3', '4']",1,2023.2.3,harveyvisual,2.1,[],8,0.75,
0,pause,0.4,None,None,None,0,83,83,83,,,,,,,,,,,,,D001,visual,4,[],"['1', '2', '3', '4']",1,2023.2.3,harveyvisual,2.1,[],8,0.75,
8,dot,0.3,['dot'],['density'],black,0,84,84,84,,,31.80022096633911,31.507589101791382,31.8242290019989,dot,"[0.1, 0.1, 0.1, 0.08, 0.1, 0.08, 0.08, 0.06]","[[0.3364035831170529, 0.12390393923093283], [0.4336864367158133, 0.35981147627037974], [0.06743640335689947, 0.0759148581953004], [-0.079559988999742, 0.39531058321326396], [0.21309668101319243, 0.48855257098982907], [0.23478258025928536, -0.08446837776908474], [-0.12854716397353463, 0.17339976512773136], [0.14965136140762586, 0.26897313353206964]]",density,black,,,D001,visual,4,[],"['1', '2', '3', '4']",1,2023.2.3,harveyvisual,2.1,[],8,0.75,
0,pause,0.4,None,None,None,0,85,85,85,,,,,,,,,,,,,D001,visual,4,[],"['1', '2', '3', '4']",1,2023.2.3,harveyvisual,2.1,[],8,0.75,
8,dot,0.3,['dot'],['density'],black,0,86,86,86,,,32.500219106674194,32.207561016082764,32.52421307563782,dot,"[0.08, 0.08, 0.08, 0.06, 0.06, 0.06, 0.06, 0.08]","[[0.2695774744445919, -0.006239189610034271], [0.562582848369008, 0.10338967896652898], [0.24075709842543627, 0.2415297589697605], [0.16944247952526825, 0.43473569867318385], [0.009973801462114143, 0.2622623098226203], [0.4378981685404615, 0.30984992123658367], [0.345623627049791, -0.19390063473497438], [0.01218861403819752, 6.35764658527089e-05]]",density,black,,,D001,visual,4,[],"['1', '2', '3', '4']",1,2023.2.3,harveyvisual,2.1,[],8,0.75,
0,pause,0.4,None,None,None,0,87,87,87,,,,,,,,,,,,,D001,visual,4,[],"['1', '2', '3', '4']",1,2023.2.3,harveyvisual,2.1,[],8,0.75,
8,dot,0.3,['dot'],['density'],black,0,88,88,88,,,33.20020794868469,32.90754008293152,33.22420310974121,dot,"[0.08, 0.1, 0.08, 0.1, 0.08, 0.08, 0.08, 0.08]","[[0.48529715144174124, -0.2697678579736521], [0.37309741842769656, 0.0699077870123373], [0.051182379473491794, 0.02141531407813483], [0.5234917469593858, 0.26578075419350655], [0.558201411832675, -0.037120345964853765], [0.22738215197141995, 0.24608732841731215], [0.3038957292845804, -0.12934366054116395], [0.024689158081869923, 0.25216756052328354]]",density,black,,,D001,visual,4,[],"['1', '2', '3', '4']",1,2023.2.3,harveyvisual,2.1,[],8,0.75,
0,pause,0.4,None,None,None,0,89,89,89,,,,,,,,,,,,,D001,visual,4,[],"['1', '2', '3', '4']",1,2023.2.3,harveyvisual,2.1,[],8,0.75,
8,dot,0.3,['dot'],['density'],black,0,90,90,90,,,33.90022301673889,33.60752201080322,33.92417907714844,dot,"[0.1, 0.08, 0.06, 0.08, 0.08, 0.06, 0.08, 0.1]","[[-0.08486713456805763, -0.4233549652310786], [-0.34121661687321897, 0.009931669871959016], [0.06179899905610707, -0.01287726204627424], [-0.01080387642187049, -0.20774715314808884], [-0.2259787915635077, -0.2257096572683263], [-0.31087639520469923, -0.4457762681120083], [-0.07938707884489006, 0.17996906985975966], [-0.13919465900414296, -0.03133413505419433]]",density,black,,,D001,visual,4,[],"['1', '2', '3', '4']",1,2023.2.3,harveyvisual,2.1,[],8,0.75,
0,pause,0.4,None,None,None,0,91,91,91,,,,,,,,,,,,,D001,visual,4,[],"['1', '2', '3', '4']",1,2023.2.3,harveyvisual,2.1,[],8,0.75,
8,dot,0.3,['dot'],['density'],black,0,92,92,92,,,34.60022306442261,34.307547092437744,34.62417507171631,dot,"[0.06, 0.08, 0.06, 0.06, 0.08, 0.08, 0.08, 0.06]","[[-0.16499387414028463, -0.418455346753131], [0.031011941373623824, -0.006148034068666969], [-0.4150712424924157, -0.28668557629476243], [-0.199054958380199, -0.21375968732837633], [-0.4870789535587041, 0.00515905815181239], [-0.198479811208303, 0.006815000109153054], [-0.3273741662815474, 0.19008037141614484], [0.04340096687518584, -0.25044408321713213]]",density,black,,,D001,visual,4,[],"['1', '2', '3', '4']",1,2023.2.3,harveyvisual,2.1,[],8,0.75,
0,pause,0.4,None,None,None,0,93,93,93,,,,,,,,,,,,,D001,visual,4,[],"['1', '2', '3', '4']",1,2023.2.3,harveyvisual,2.1,[],8,0.75,
8,dot,0.3,['dot'],['density'],black,0,94,94,94,,,35.300209045410156,35.00750494003296,35.3241651058197,dot,"[0.06, 0.1, 0.1, 0.1, 0.1, 0.06, 0.08, 0.1]","[[0.3364035831170529, 0.12390393923093283], [0.4336864367158133, 0.35981147627037974], [0.06743640335689947, 0.0759148581953004], [-0.079559988999742, 0.39531058321326396], [0.21309668101319243, 0.48855257098982907], [0.23478258025928536, -0.08446837776908474], [-0.12854716397353463, 0.17339976512773136], [0.14965136140762586, 0.26897313353206964]]",density,black,,,D001,visual,4,[],"['1', '2', '3', '4']",1,2023.2.3,harveyvisual,2.1,[],8,0.75,
0,pause,0.4,None,None,None,0,95,95,95,,,,,,,,,,,,,D001,visual,4,[],"['1', '2', '3', '4']",1,2023.2.3,harveyvisual,2.1,[],8,0.75,
9,dot,0.3,['dot'],['density'],black,0,96,96,96,,,36.00022006034851,35.70750713348389,36.02413511276245,dot,"[0.1, 0.08, 0.06, 0.08, 0.08, 0.06, 0.06, 0.1, 0.08]","[[0.005765111513037631, -0.143111035787845], [-0.396275933094447, -0.3321437400526764], [0.037546025436095476, -0.5612590109297682], [-0.23561619682408028, -0.19372599185683617], [-0.24582953746203298, -0.47553838121684505], [-0.07047609790874906, -0.3562711323606942], [-0.09403038697424164, 0.06164574472317626], [0.13577280496850042, -0.3868547356250126], [0.15608206217807025, 0.06264253907795621]]",density,black,,,D001,visual,4,[],"['1', '2', '3', '4']",1,2023.2.3,harveyvisual,2.1,[],8,0.75,
0,pause,0.4,None,None,None,0,97,97,97,,,,,,,,,,,,,D001,visual,4,[],"['1', '2', '3', '4']",1,2023.2.3,harveyvisual,2.1,[],8,0.75,
9,dot,0.3,['dot'],['density'],black,0,98,98,98,,,36.70020794868469,36.407530069351196,36.724200963974,dot,"[0.1, 0.06, 0.06, 0.06, 0.06, 0.06, 0.08, 0.1, 0.06]","[[-0.15654783233563613, 0.5456880468186037], [-0.24757731968740795, 0.34117179271889175], [0.237608115185398, 0.5379153628426676], [0.0469559873873498, 0.0609843963705915], [0.17872629641391088, 0.30721368784738284], [-0.014663874177430473, 0.385293302856951], [-0.1034840675008618, 0.1993866575147459], [0.37552485507684036, 0.26074226948317425], [-0.1631567374159006, -0.0021534685146951615]]",density,black,,,D001,visual,4,[],"['1', '2', '3', '4']",1,2023.2.3,harveyvisual,2.1,[],8,0.75,
0,pause,0.4,None,None,None,0,99,99,99,,,,,,,,,,,,,D001,visual,4,[],"['1', '2', '3', '4']",1,2023.2.3,harveyvisual,2.1,[],8,0.75,
9,dot,0.3,['dot'],['density'],black,0,100,100,100,,,37.400213956832886,37.10747408866882,37.42415404319763,dot,"[0.06, 0.06, 0.06, 0.06, 0.08, 0.08, 0.06, 0.1, 0.06]","[[-0.1410632352740557, -0.317905811010377], [-0.01624442214728049, 0.1794094022286925], [0.09468404279643694, -0.24727132108451297], [-0.2758455249254349, -0.14491344886434532], [-0.07397021974914944, -0.09933967896750957], [-0.3580751224104431, 0.12641846535160695], [0.3672464474339042, -0.09947208873420914], [0.14679994141956812, -0.049441009882571184], [0.20049431506903384, 0.1443691092520585]]",density,black,,,D001,visual,4,[],"['1', '2', '3', '4']",1,2023.2.3,harveyvisual,2.1,[],8,0.75,
0,pause,0.4,None,None,None,0,101,101,101,,,,,,,,,,,,,D001,visual,4,[],"['1', '2', '3', '4']",1,2023.2.3,harveyvisual,2.1,[],8,0.75,
9,dot,0.3,['dot'],['density'],black,0,102,102,102,,,38.100208044052124,37.807589054107666,38.124342918395996,dot,"[0.06, 0.06, 0.08, 0.08, 0.06, 0.08, 0.1, 0.06, 0.06]","[[0.005765111513037631, -0.143111035787845], [-0.396275933094447, -0.3321437400526764], [0.037546025436095476, -0.5612590109297682], [-0.23561619682408028, -0.19372599185683617], [-0.24582953746203298, -0.47553838121684505], [-0.07047609790874906, -0.3562711323606942], [-0.09403038697424164, 0.06164574472317626], [0.13577280496850042, -0.3868547356250126], [0.15608206217807025, 0.06264253907795621]]",density,black,,,D001,visual,4,[],"['1', '2', '3', '4']",1,2023.2.3,harveyvisual,2.1,[],8,0.75,
0,pause,0.4,None,None,None,0,103,103,103,,,,,,,,,,,,,D001,visual,4,[],"['1', '2', '3', '4']",1,2023.2.3,harveyvisual,2.1,[],8,0.75,
9,dot,0.3,['dot'],['density'],black,0,104,104,104,,,38.80019998550415,38.50758504867554,38.82413291931152,dot,"[0.06, 0.08, 0.1, 0.1, 0.08, 0.06, 0.06, 0.08, 0.06]","[[-0.06218673389315922, -0.4689115343027075], [0.3660477402554353, -0.15396192139437054], [0.1401329754895462, -0.14262156541192547], [0.12293598154832706, -0.38779640022673934], [0.42645158233284447, -0.3607859009111275], [-0.06238477126329685, -0.2564764349502154], [-0.2584688277182379, -0.29964401945706215], [-0.11312192996032899, -0.05439345917292958], [0.19096873654163896, 0.1321853744035435]]",density,black,,,D001,visual,4,[],"['1', '2', '3', '4']",1,2023.2.3,harveyvisual,2.1,[],8,0.75,
0,pause,0.4,None,None,None,0,105,105,105,,,,,,,,,,,,,D001,visual,4,[],"['1', '2', '3', '4']",1,2023.2.3,harveyvisual,2.1,[],8,0.75,
9,dot,0.3,['dot'],['density'],black,0,106,106,106,,,39.500200033187866,39.2075629234314,39.524101972579956,dot,"[0.06, 0.1, 0.08, 0.1, 0.08, 0.06, 0.06, 0.06, 0.1]","[[-0.4219467838066047, -0.18114019941065054], [-0.2081543488995217, -0.4860059455967178], [-0.008274735502094755, -0.3457533902190916], [0.02376323820852766, -0.0891001390581758], [-0.4116277839025775, 0.058108040724694845], [-0.18144554169200455, -0.05292133149533743], [0.21944315682242976, -0.26450239569476724], [0.11466821484809545, 0.13327019789913197], [-0.2288148866166432, -0.2599929378926301]]",density,black,,,D001,visual,4,[],"['1', '2', '3', '4']",1,2023.2.3,harveyvisual,2.1,[],8,0.75,
0,pause,0.4,None,None,None,0,107,107,107,,,,,,,,,,,,,D001,visual,4,[],"['1', '2', '3', '4']",1,2023.2.3,harveyvisual,2.1,[],8,0.75,
20,dot,0.3,['dot'],['density'],black,0,108,108,108,,,40.200215101242065,39.92422699928284,40.22411394119263,dot,"[0.06, 0.1, 0.1, 0.1, 0.06, 0.08, 0.08, 0.08, 0.1, 0.06, 0.1, 0.08, 0.06, 0.06, 0.06, 0.06, 0.06, 0.1, 0.1, 0.08]","[[-0.549225063144962, 0.0711759897245613], [0.19187385220560216, 0.4615547804943282], [0.3643100412773642, -0.4452227631654371], [0.39060729086908563, 0.11286714692673572], [0.5401809187208232, -0.16762269150448467], [-0.1263286383292926, 0.5132638645177241], [0.3119560290938529, -0.15169643776177527], [-0.4268596428120075, -0.35607779939259193], [-0.4381661244976117, 0.3200981567875078], [0.11862976434967187, -0.060575995125531246], [0.3647288901463487, 0.37221921052508306], [0.1315407644331278, -0.35506445702778144], [-0.41936207901142036, -0.11279832556746006], [-0.17135837529940273, 0.13184284283993797], [-0.18794214347935306, -0.26286508179902524], [0.17781267976971948, -0.5760032881542408], [-0.20439452246605844, -0.4516923509565647], [0.1611960138930889, 0.2116554507299655], [-0.054958527520963085, 0.33490798357295404], [-0.2452576063265809, 0.3220769772240696]]",density,black,,,D001,visual,4,[],"['1', '2', '3', '4']",1,2023.2.3,harveyvisual,2.1,[],8,0.75,
0,pause,0.4,None,None,None,0,109,109,109,,,,,,,,,,,,,D001,visual,4,[],"['1', '2', '3', '4']",1,2023.2.3,harveyvisual,2.1,[],8,0.75,
20,dot,0.3,['dot'],['density'],black,0,110,110,110,,,40.90020704269409,40.62422013282776,40.92404508590698,dot,"[0.06, 0.06, 0.1, 0.06, 0.06, 0.1, 0.06, 0.08, 0.08, 0.06, 0.06, 0.08, 0.06, 0.1, 0.06, 0.06, 0.1, 0.06, 0.06, 0.1]","[[0.24242951934206503, 0.16363739723522497], [0.09157853035823826, -0.5105879262074646], [-0.015562647613530212, -0.13014290044526355], [-0.12172644579851488, 0.5103311219515274], [-0.3194617570473921, 0.2247046891541188], [0.3749854333975664, -0.29479532669702546], [-0.5560629517381485, -0.16220014743735675], [-0.35980614982718817, -0.04853846300873749], [0.48273925397527917, 0.31507457429098934], [0.5098714949329805, -0.05769110915385173], [-0.3834310077591521, -0.26341106218153154], [-0.5378652518959135, 0.07959891630324256], [0.054263077804143856, 0.12078361404752147], [0.07736040852913029, 0.3856428661958521], [-0.4651854356667986, 0.3855505046525503], [-0.1812148615539258, -0.46063238121165734], [0.25513225473251555, 0.45887134861590484], [0.18483176634277598, -0.16777551023306964], [-0.1592400327890266, -0.2542406428551142], [-0.17184037546332254, 0.07578519845581388]]",density,black,,,D001,visual,4,[],"['1', '2', '3', '4']",1,2023.2.3,harveyvisual,2.1,[],8,0.75,
0,pause,0.4,None,None,None,0,111,111,111,,,,,,,,,,,,,D001,visual,4,[],"['1', '2', '3', '4']",1,2023.2.3,harveyvisual,2.1,[],8,0.75,
20,dot,0.3,['dot'],['density'],black,0,112,112,112,,,41.60022306442261,41.32403492927551,41.624035120010376,dot,"[0.06, 0.08, 0.08, 0.08, 0.06, 0.08, 0.1, 0.08, 0.08, 0.06, 0.06, 0.08, 0.06, 0.08, 0.08, 0.1, 0.1, 0.1, 0.08, 0.1]","[[0.2236808072796157, 0.15118512306778575], [0.15748762005233097, -0.2771165116661305], [-0.28875908831763414, -0.1632684302769316], [-0.41676978717678514, 0.40044150935345885], [0.5677462473387932, -0.10168534089681151], [-0.10468050650321092, -0.21414901020809834], [0.09544175620269668, 0.5237394491002331], [0.5288721837731846, 0.15976743798701443], [-0.5176807478949617, -0.1654075967182402], [-0.17774898257566069, 0.20758252764936935], [-0.4249736245502894, 0.14315746818437886], [0.028677280701115304, 0.09785464591402937], [-0.1276702093144817, -0.46234557901493517], [0.427821922966907, 0.41661991690303135], [0.35018389777893344, -0.4911161492693142], [0.4279843463291021, -0.3097933038841613], [0.06768117334112289, 0.30022238660979017], [-0.3266211067413388, -0.3842587446077379], [0.3740055421267743, -0.09158113949150637], [0.12060131060071522, -0.0900640367673774]]",density,black,,,D001,visual,4,[],"['1', '2', '3', '4']",1,2023.2.3,harveyvisual,2.1,[],8,0.75,
0,pause,0.4,None,None,None,0,113,113,113,,,,,,,,,,,,,D001,visual,4,[],"['1', '2', '3', '4']",1,2023.2.3,harveyvisual,2.1,[],8,0.75,
20,dot,0.3,['dot'],['density'],black,0,114,114,114,,,42.30022192001343,42.02402400970459,42.324021100997925,dot,"[0.08, 0.08, 0.1, 0.06, 0.06, 0.08, 0.08, 0.08, 0.06, 0.08, 0.08, 0.06, 0.06, 0.1, 0.1, 0.08, 0.08, 0.06, 0.08, 0.06]","[[0.07824600857095354, 0.39846017411092616], [0.4943031692048666, -0.3132572039707909], [-0.08503798702679322, -0.004477996248440808], [-0.15959845456228577, 0.33367446483911367], [0.2175383300416588, 0.22650406236941367], [0.586799890188412, 0.07034567078484119], [0.2660565601829371, -0.01554009785802668], [-0.4821245406430875, -0.14980742152233176], [-0.41826056842615456, 0.37525425647037797], [0.23907536278387687, -0.4238312025644474], [-0.37940747172773004, 0.014287871005313146], [-0.5817379767736408, 0.05932265924764091], [0.49215067397870305, -0.10118165152091196], [-0.47223310609119606, -0.34177473742787406], [0.5321674319768926, 0.28102539692561535], [-0.14184456275821944, -0.25690589218305643], [0.26866582221066304, 0.44300917999784184], [-0.11691889344357426, -0.5761749376957945], [0.07035247875033435, -0.2684009137267729], [0.012896588063550984, 0.19556121228013001]]",density,black,,,D001,visual,4,[],"['1', '2', '3', '4']",1,2023.2.3,harveyvisual,2.1,[],8,0.75,
0,pause,0.4,None,None,None,0,115,115,115,,,,,,,,,,,,,D001,visual,4,[],"['1', '2', '3', '4']",1,2023.2.3,harveyvisual,2.1,[],8,0.75,
20,dot,0.3,['dot'],['density'],black,0,116,116,116,,,43.00022101402283,42.72406506538391,43.024044036865234,dot,"[0.06, 0.1, 0.06, 0.06, 0.1, 0.06, 0.08, 0.06, 0.06, 0.06, 0.1, 0.1, 0.1, 0.06, 0.06, 0.06, 0.06, 0.06, 0.06, 0.06]","[[-0.4525141184205024, -0.2599136168607752], [-0.4053984963551345, 0.19551299315249987], [0.08061395807320126, 0.09136967283514019], [-0.1759985359285131, -0.4634815355236151], [-0.004576034065546186, 0.5943283317333691], [0.39597045812325693, 0.24077059444741622], [0.13053272547122952, -0.2875545255456457], [0.5312968348638133, -0.2312267346269454], [-0.313398266298682, -0.09328031784377111], [0.3453074382983904, -0.03470193043977321], [0.2202089893868504, 0.38561334615962084], [-0.5989699390797553, -0.0032050202831627045], [0.5974784163491212, 0.03492467398576338], [0.3956221793008424, -0.3872952348044762], [0.09128237228222158, -0.4979999933736955], [-0.26953501491044457, 0.5362159920053311], [-0.13122409502720023, 0.22936188656999956], [-0.42384858998298747, 0.42209719441935556], [-0.09617002024319754, -0.19805894886076575], [-0.15175076977331842, 0.005588836738906755]]",density,black,,,D001,visual,4,[],"['1', '2', '3', '4']",1,2023.2.3,harveyvisual,2.1,[],8,0.75,
0,pause,0.4,None,None,None,0,117,117,117,,,,,,,,,,,,,D001,visual,4,[],"['1', '2', '3', '4']",1,2023.2.3,harveyvisual,2.1,[],8,0.75,
20,dot,0.3,['dot'],['density'],black,0,118,118,118,,,43.70022106170654,43.42404103279114,43.724043130874634,dot,"[0.06, 0.06, 0.1, 0.06, 0.06, 0.08, 0.06, 0.1, 0.06, 0.08, 0.08, 0.1, 0.08, 0.1, 0.1, 0.08, 0.06, 0.06, 0.06, 0.1]","[[0.10010361263670109, -0.49684915287934533], [0.5267685085209143, 0.08968947169870378], [-0.16097748237176573, 0.572457728804058], [0.3419877534333511, -0.30398932319412325], [-0.423667734319654, -0.04693613792746992], [0.32642846950289195, 0.40753281071560354], [-0.5632734773066301, 0.12460034483506605], [-0.35252041997702954, 0.44216570298491126], [-0.20563486843530454, 0.04452481602355518], [-0.35358995956786676, -0.27838350980131904], [-0.10251183828351329, 0.3560612352119378], [-0.13501728867761814, -0.18221743097368182], [-0.0748892600720712, -0.42330792823153496], [0.2571840088467271, -0.015734708926564922], [0.022974308982210312, 0.5233330001419423], [0.2374293973817495, 0.23563281885599363], [0.054775516023639725, -0.18565053052390346], [0.5069140106463285, 0.3057269331399957], [-0.316937342590882, -0.4806067634203113], [0.4599871986469849, -0.1479522166895594]]",density,black,,,D001,visual,4,[],"['1', '2', '3', '4']",1,2023.2.3,harveyvisual,2.1,[],8,0.75,
0,pause,0.4,None,None,None,0,119,119,119,,,,,,,,,,,,,D001,visual,4,[],"['1', '2', '3', '4']",1,2023.2.3,harveyvisual,2.1,[],8,0.75,
20,dot,0.3,['dot'],['density'],black,0,120,120,120,,,44.400217056274414,44.12394404411316,44.42396807670593,dot,"[0.08, 0.08, 0.1, 0.06, 0.08, 0.1, 0.08, 0.08, 0.08, 0.08, 0.08, 0.1, 0.06, 0.08, 0.1, 0.08, 0.08, 0.06, 0.08, 0.08]","[[-0.40530765530769164, -0.38817474765197607], [0.3350313571607483, 0.12305141012143495], [0.4749693700346692, -0.13826248777790848], [0.39912070675336986, 0.37994579563785286], [-0.5916385616517469, -0.0016675604723618287], [0.22686470117267665, -0.5547949023394605], [-0.26384256299983966, 0.19215055368347822], [0.015262846192421131, 0.42559731049526084], [0.14093231909871085, -0.10649180017904614], [-0.22075449506342393, -0.15879285888652478], [0.04700607853744143, -0.3574918218697316], [-0.09109583153547696, -0.5601251356443697], [0.4367644178293345, -0.3597560194816251], [0.150990490073162, 0.2373474317882157], [-0.1944225804115931, 0.5699817986147314], [0.5504235817626005, 0.04417445716669954], [-0.565026472855842, 0.20883287675205003], [0.28960220316955865, -0.23434481920852385], [-0.3934578472001147, 0.044047024403829016], [0.23208589706896898, 0.4736433426386859]]",density,black,,,D001,visual,4,[],"['1', '2', '3', '4']",1,2023.2.3,harveyvisual,2.1,[],8,0.75,
0,pause,0.4,None,None,None,0,121,121,121,,,,,,,,,,,,,D001,visual,4,[],"['1', '2', '3', '4']",1,2023.2.3,harveyvisual,2.1,[],8,0.75,
20,dot,0.3,['dot'],['density'],black,0,122,122,122,,,45.1002140045166,44.8239541053772,45.123953104019165,dot,"[0.08, 0.08, 0.08, 0.06, 0.08, 0.1, 0.06, 0.1, 0.06, 0.08, 0.06, 0.1, 0.06, 0.1, 0.08, 0.08, 0.08, 0.1, 0.08, 0.1]","[[-0.5815327045095728, -0.07486044585155317], [0.41382615387222155, -0.04174682593552137], [-0.15492188088131686, -0.16191403149147943], [0.0997813199017783, -0.11727288372336214], [-0.4128388381363881, -0.17027647613159597], [-0.26755061353939963, 0.12202543319894443], [-0.3989332098717086, -0.4012773933027929], [0.032099630594105144, -0.6023326829137096], [0.5294431545509163, 0.23554516758102068], [0.07761284049489237, -0.33906161644587673], [0.21174721257547857, 0.301192477011358], [-0.1457617980874798, -0.43277619975560444], [-0.07648595709718353, 0.02469498535115], [0.33453134874463786, 0.476466315587482], [-0.3325253449548634, 0.49282803131630615], [0.5496096741447959, -0.2076364391808992], [0.0025397866612140163, 0.3428901326080357], [-0.5279086339239717, 0.25001716151560704], [0.2918522679535924, -0.2708815650805241], [0.0955190780834736, 0.5817964094697143]]",density,black,,,D001,visual,4,[],"['1', '2', '3', '4']",1,2023.2.3,harveyvisual,2.1,[],8,0.75,
0,pause,0.4,None,None,None,0,123,123,123,,,,,,,,,,,,,D001,visual,4,[],"['1', '2', '3', '4']",1,2023.2.3,harveyvisual,2.1,[],8,0.75,
20,dot,0.3,['dot'],['density'],black,0,124,124,124,,,45.80021691322327,45.52392506599426,45.82391595840454,dot,"[0.1, 0.08, 0.1, 0.1, 0.06, 0.06, 0.1, 0.1, 0.1, 0.06, 0.06, 0.08, 0.08, 0.1, 0.08, 0.06, 0.08, 0.06, 0.1, 0.08]","[[0.5236664959139702, 0.03412459588815253], [-0.22829430387901384, 0.5578726968846489], [-0.5006905910975809, 0.18604352239725008], [-0.09339187686418271, 0.15929158641009267], [-0.34498610355725273, -0.1400725721791532], [0.2633658275722346, -0.5240705078992637], [-0.11230410651551159, -0.566601364621296], [-0.4998203264136736, -0.3360889875688943], [0.1880574280105709, -0.2155571834156817], [-0.13372718271451434, -0.37306531310519747], [-0.13660911389188868, 0.38311311752343147], [0.07851832777465462, -0.40206404659862904], [-0.33052526294729084, 0.08756437343473333], [0.33079615588958056, 0.25941255138867503], [0.09466291617018519, -0.006863061619201916], [0.07348121649262496, 0.2770514685873503], [-0.5613370762821793, -0.08129111326617111], [0.15859894710756994, 0.5315714458977766], [0.47752410972763626, -0.23102386338240874], [-0.3418243793840022, -0.4442533898408669]]",density,black,,,D001,visual,4,[],"['1', '2', '3', '4']",1,2023.2.3,harveyvisual,2.1,[],8,0.75,
0,pause,0.4,None,None,None,0,125,125,125,,,,,,,,,,,,,D001,visual,4,[],"['1', '2', '3', '4']",1,2023.2.3,harveyvisual,2.1,[],8,0.75,
20,dot,0.3,['dot'],['density'],black,0,126,126,126,,,46.500211000442505,46.22392702102661,46.523910999298096,dot,"[0.1, 0.06, 0.06, 0.06, 0.1, 0.08, 0.08, 0.1, 0.06, 0.06, 0.06, 0.08, 0.06, 0.08, 0.06, 0.1, 0.06, 0.1, 0.1, 0.08]","[[-0.10707410012690244, 0.48944519638369566], [0.1376248207522376, 0.3946603724268689], [-0.5753378398493281, -0.16059258302101564], [-0.1324574656057939, 0.16601698984562696], [-0.26376377089256736, -0.12322087579788565], [0.399798238340629, 0.05145742589023533], [0.5796495149047717, -0.13663173355521316], [-0.35852976588736896, -0.30878249802274393], [0.16201429941134649, -0.4637766577359589], [-0.08946239378367316, -0.0456331140141204], [-0.34167785238485726, 0.3196664113205016], [0.1618693513731284, -0.22424052938999028], [0.44064789131239956, -0.3077854243618602], [0.13178179085723285, 0.09298511496054018], [0.34983201864178515, 0.23894729243550467], [-0.02261796422285145, -0.5408318449914364], [-0.4322562982933321, 0.11434344307382704], [-0.07194408272836339, -0.2687232070517073], [0.1082641576368174, 0.5924330960373039], [-0.21235331304159616, -0.53086295988625]]",density,black,,,D001,visual,4,[],"['1', '2', '3', '4']",1,2023.2.3,harveyvisual,2.1,[],8,0.75,
0,pause,0.4,None,None,None,0,127,127,127,,,,,,,,,,,,,D001,visual,4,[],"['1', '2', '3', '4']",1,2023.2.3,harveyvisual,2.1,[],8,0.75,
20,dot,0.3,['dot'],['density'],black,0,128,128,128,,,47.20022511482239,46.92397689819336,47.223872900009155,dot,"[0.1, 0.1, 0.06, 0.1, 0.1, 0.06, 0.1, 0.06, 0.06, 0.06, 0.1, 0.08, 0.1, 0.1, 0.06, 0.06, 0.06, 0.1, 0.1, 0.08]","[[-0.13383553778505292, 0.2592834333296228], [0.550127212594241, -0.04827943205214691], [-0.5846294364239937, -0.07598552363870958], [-0.26459870507765054, -0.057979115499325384], [-0.539098374430818, 0.19625042787627234], [0.09706613922156782, -0.483672339105282], [-0.22914039491039512, -0.444810631766122], [0.55859269622438, 0.15480612941438693], [0.28417177462938636, 0.09332255867210337], [0.30553353160325214, 0.4475504649768255], [-0.44173418239561424, 0.40160869499424506], [-0.023928325182041243, 0.08311237259122606], [-0.40868858066928465, -0.25880432433918205], [0.4576082812729668, -0.2630119567172891], [-0.2671317244552457, 0.49594152889943643], [0.38495876951175645, 0.2720729230463508], [-0.04652427061691844, -0.1706819932747426], [0.2477839104942673, -0.17882478616577369], [0.06875845069168507, 0.4584051509617001], [0.3078989237854791, -0.3793793813445061]]",density,black,,,D001,visual,4,[],"['1', '2', '3', '4']",1,2023.2.3,harveyvisual,2.1,[],8,0.75,
0,pause,0.4,None,None,None,0,129,129,129,,,,,,,,,,,,,D001,visual,4,[],"['1', '2', '3', '4']",1,2023.2.3,harveyvisual,2.1,[],8,0.75,
20,dot,0.3,['dot'],['density'],black,0,130,130,130,,,47.90020203590393,47.62386989593506,47.923861026763916,dot,"[0.06, 0.1, 0.08, 0.1, 0.1, 0.06, 0.08, 0.1, 0.08, 0.06, 0.08, 0.08, 0.1, 0.06, 0.08, 0.06, 0.1, 0.06, 0.08, 0.1]","[[0.3427288352556368, -0.48979592052790116], [0.17093823090695315, 0.5665030539992044], [-0.44567327407968294, -0.14625728168956836], [0.43040937312748995, -0.19075578670814333], [0.3611357675788047, 0.2541784000936234], [-0.5607442450007797, 0.1638145437795035], [-0.2821531583772931, 0.31093393990614104], [0.06539477313577857, -0.4943268305304092], [-0.17885645190675648, -0.4680240326314028], [0.04879114234300996, -0.16615586310817199], [-0.14373821345068566, 0.5139828975214197], [0.5128714861623557, 0.033551284594539765], [-0.3634448869424718, -0.4174908197550456], [-0.1772636052005903, -0.11807084452108402], [0.01053964404691543, 0.2576644508305861], [0.031227900304302447, 0.033881197105169236], [0.2639480927775357, -0.28782004280891815], [0.22247779086932917, -0.0814379308098061], [-0.20210298532004028, 0.07857101927802235], [-0.46973214395517354, 0.35230258334491327]]",density,black,,,D001,visual,4,[],"['1', '2', '3', '4']",1,2023.2.3,harveyvisual,2.1,[],8,0.75,
0,pause,0.4,None,None,None,0,131,131,131,,,,,,,,,,,,,D001,visual,4,[],"['1', '2', '3', '4']",1,2023.2.3,harveyvisual,2.1,[],8,0.75,
20,dot,0.3,['dot'],['density'],black,0,132,132,132,,,48.60021901130676,48.32384705543518,48.62384104728699,dot,"[0.1, 0.06, 0.1, 0.1, 0.1, 0.06, 0.06, 0.08, 0.06, 0.06, 0.1, 0.06, 0.08, 0.08, 0.08, 0.08, 0.08, 0.1, 0.1, 0.06]","[[-0.5404234145532474, 0.046879061535554156], [0.26687985607526166, 0.3591893950656422], [0.4697206533492505, -0.11188449454552157], [-0.17212500614238918, -0.5701451448614256], [0.021336856779866964, -0.43085336479783787], [-0.29441708888728313, -0.08856562505226628], [0.008453997664404023, 0.4238574122923888], [0.4485400891160404, -0.34863373805726006], [0.17678321983576184, -0.023608583695405416], [-0.1868414124846839, 0.5083768991014137], [0.2096838127894859, -0.30047043258853123], [0.40730508859310743, 0.13844831593876777], [-0.39746815682216186, 0.24468191214127338], [-0.4924909569210575, -0.31741381721554257], [0.5979439726591252, 0.06006213272455835], [-0.02877667898320857, -0.04239198825134993], [0.09098092787188383, 0.14728718668094654], [0.4594128606511717, 0.3348275328892749], [-0.12188577007048929, 0.18394547360588442], [-0.23395918762020845, -0.2770500426697309]]",density,black,,,D001,visual,4,[],"['1', '2', '3', '4']",1,2023.2.3,harveyvisual,2.1,[],8,0.75,
0,pause,0.4,None,None,None,0,133,133,133,,,,,,,,,,,,,D001,visual,4,[],"['1', '2', '3', '4']",1,2023.2.3,harveyvisual,2.1,[],8,0.75,
20,dot,0.3,['dot'],['density'],black,0,134,134,134,,,49.30022311210632,49.02382707595825,49.323843002319336,dot,"[0.08, 0.08, 0.08, 0.1, 0.1, 0.08, 0.1, 0.06, 0.1, 0.06, 0.08, 0.1, 0.1, 0.06, 0.1, 0.06, 0.08, 0.1, 0.08, 0.06]","[[0.39706957436391777, 0.08959397598980412], [0.5077954152708847, -0.11833618012495742], [0.057142422377884805, 0.4116169186231782], [-0.5516037843585524, -0.23858911794553833], [-0.46557728801573844, 0.3808318711459152], [-0.10170787879425236, -0.3809196173405932], [0.3316436255343004, -0.4934999939042244], [-0.5939601722343821, -0.001523241290045746], [0.24756017059826485, 0.4483251962037047], [-0.18753355067998095, 0.540194597946962], [0.10524568513865062, -0.5181007770586591], [0.10259542958402146, 0.19009303744382078], [0.17024737154572078, -0.19017373918011055], [-0.42093743450037074, 0.08869100128172408], [-0.17716051813753458, 0.2557809400747396], [-0.3849812600236292, -0.42603560668609514], [0.6025246842534994, 0.052253967270586336], [-0.24467826929540193, -0.22629340812933763], [-0.11380955408160554, -0.022405125559859074], [0.48226838313782683, -0.352649341054586]]",density,black,,,D001,visual,4,[],"['1', '2', '3', '4']",1,2023.2.3,harveyvisual,2.1,[],8,0.75,
0,pause,0.4,None,None,None,0,135,135,135,,,,,,,,,,,,,D001,visual,4,[],"['1', '2', '3', '4']",1,2023.2.3,harveyvisual,2.1,[],8,0.75,
20,dot,0.3,['dot'],['density'],black,0,136,136,136,,,50.000221967697144,49.72383999824524,50.023826122283936,dot,"[0.06, 0.1, 0.1, 0.08, 0.06, 0.1, 0.06, 0.06, 0.06, 0.08, 0.06, 0.08, 0.1, 0.08, 0.06, 0.08, 0.08, 0.1, 0.1, 0.1]","[[0.3478103200871808, 0.2447472358688204], [0.06963689468566592, 0.2794281042517326], [0.11323389844361498, -0.40322004096532005], [-0.33249399080283093, -0.17116036761911713], [0.24146817278980415, -0.13758999297169444], [0.6044401388730846, 0.02440904620338054], [-0.1405556775936055, -0.32008945185651716], [-0.25503565391629657, 0.44238524195806195], [-0.5699635127351554, 0.06830601854785023], [-0.42666764448543587, 0.20958267126508429], [-0.25283499041012647, 0.10735990217739744], [0.3008026656076178, 0.4352877916362483], [0.16903918775240578, 0.5721772070428554], [-0.5281059217721775, -0.1398063144920074], [0.41458341681615984, -0.43683653592982796], [0.21468047581112237, 0.07453632856452097], [-0.3239914628512654, -0.42263618882474924], [-0.026541243485189825, -0.015477879576675013], [-0.15441592167308898, -0.5513544971250436], [0.5334103686234654, -0.16459531025540985]]",density,black,,,D001,visual,4,[],"['1', '2', '3', '4']",1,2023.2.3,harveyvisual,2.1,[],8,0.75,
0,pause,0.4,None,None,None,0,137,137,137,,,,,,,,,,,,,D001,visual,4,[],"['1', '2', '3', '4']",1,2023.2.3,harveyvisual,2.1,[],8,0.75,
20,dot,0.3,['dot'],['density'],black,0,138,138,138,,,50.70022392272949,50.423808097839355,50.72380805015564,dot,"[0.06, 0.08, 0.08, 0.08, 0.06, 0.08, 0.08, 0.1, 0.08, 0.08, 0.06, 0.1, 0.06, 0.1, 0.06, 0.06, 0.08, 0.1, 0.08, 0.06]","[[-0.26077262412692365, 0.4084754884678399], [0.5687938403655243, 0.034345239457915094], [0.23797798074184884, -0.49061572094202927], [-0.37575048212802986, -0.06982510820084925], [-0.49916616015025916, 0.3413929934696748], [-0.45614609343359724, -0.3978326986796525], [-0.20812588659906095, -0.5115420301276733], [0.2313787146644264, -0.054512050053938554], [-0.528316132555491, 0.11244783395660468], [0.22560130092479247, 0.15319488462456166], [0.3574093599000182, 0.426334587066591], [0.008416797409437793, -0.22109157470290902], [-0.048148566410523674, 0.3516991729285385], [0.35817724055845224, -0.2496187635790811], [0.5688042479283483, -0.18519427269450256], [-0.5674252940366815, -0.1951639489558871], [-0.13144483584384653, 0.04989237763039123], [-0.02542317987355447, -0.5890571715775752], [0.14713490758822279, 0.5409059166115344], [0.42367943459257906, 0.17245624636593515]]",density,black,,,D001,visual,4,[],"['1', '2', '3', '4']",1,2023.2.3,harveyvisual,2.1,[],8,0.75,
0,pause,0.4,None,None,None,0,139,139,139,,,,,,,,,,,,,D001,visual,4,[],"['1', '2', '3', '4']",1,2023.2.3,harveyvisual,2.1,[],8,0.75,
20,dot,0.3,['dot'],['density'],black,0,140,140,140,,,51.400224924087524,51.12382102012634,51.42381000518799,dot,"[0.06, 0.06, 0.1, 0.1, 0.1, 0.06, 0.1, 0.08, 0.08, 0.1, 0.08, 0.06, 0.08, 0.06, 0.1, 0.08, 0.1, 0.06, 0.1, 0.06]","[[0.11606531013990784, 0.17970308585028827], [0.579842630375483, 0.16106772875163972], [-0.3702123834708213, -0.3631841478867439], [0.28338416049453063, -0.1667654570653369], [0.5025071751995817, -0.15756953252808462], [-0.5664862219497139, 0.10419765993883076], [0.032951326680989435, -0.4300453438317479], [-0.09933665844828754, 0.23814265812944246], [-0.34881304219659787, 0.4095817204971108], [0.009956349370928042, 0.44345330631109303], [0.35998034260807976, 0.3016349564908606], [-0.2662957284812883, 0.07560215172622642], [0.32571691176406536, 0.08253733795144913], [-0.4874118600711098, -0.20362461614813732], [-0.0574797255559657, -0.03448321178788882], [0.28701387178264315, -0.3764090876445204], [-0.30999413037614243, -0.12848282082052226], [-0.20033827995842995, -0.4788184599111254], [0.03444351339433693, -0.2030896547363371], [-0.14844805307869763, 0.5653984252346027]]",density,black,,,D001,visual,4,[],"['1', '2', '3', '4']",1,2023.2.3,harveyvisual,2.1,[],8,0.75,
0,pause,0.4,None,None,None,0,141,141,141,,,,,,,,,,,,,D001,visual,4,[],"['1', '2', '3', '4']",1,2023.2.3,harveyvisual,2.1,[],8,0.75,
20,dot,0.3,['dot'],['density'],black,0,142,142,142,,,52.100208044052124,51.82378911972046,52.123740911483765,dot,"[0.06, 0.06, 0.08, 0.1, 0.08, 0.08, 0.08, 0.1, 0.06, 0.08, 0.1, 0.08, 0.08, 0.1, 0.1, 0.06, 0.08, 0.06, 0.1, 0.06]","[[-0.03255681974865854, 0.1952579559257066], [0.004260853052654778, 0.39525438486114584], [0.38763642770254514, -0.40573595119796546], [-0.31948339250466684, 0.2281237790901296], [0.0631965776646286, -0.3527774963428132], [0.5092041143720888, 0.09762752627980253], [-0.5599511018114681, -0.047528671676512424], [0.22609854739358748, 0.08426414924902115], [-0.22971025916504856, 0.4819453898719791], [-0.17131948992377455, -0.1790560637112355], [-0.3988928765364757, -0.16741844426329366], [0.5171314377868298, -0.15279043983384374], [-0.19766747770436377, 0.0669004844744856], [0.2171091712639972, 0.3438915831116973], [0.052981977754600895, -0.09887824253447208], [-0.22063001852844882, -0.45486235829948385], [-0.405419504424792, -0.40436357704188103], [-0.048835769027672615, 0.595002050888209], [0.23802704712208878, -0.15242980808935308], [-0.5698976276266922, 0.14707692653110227]]",density,black,,,D001,visual,4,[],"['1', '2', '3', '4']",1,2023.2.3,harveyvisual,2.1,[],8,0.75,
0,pause,0.4,None,None,None,0,143,143,143,,,,,,,,,,,,,D001,visual,4,[],"['1', '2', '3', '4']",1,2023.2.3,harveyvisual,2.1,[],8,0.75,
20,dot,0.3,['dot'],['density'],white,0,144,144,144,,,52.800204038619995,52.52373003959656,52.82373404502869,dot,"[0.1, 0.08, 0.08, 0.08, 0.1, 0.1, 0.1, 0.06, 0.1, 0.08, 0.1, 0.08, 0.06, 0.08, 0.1, 0.1, 0.1, 0.06, 0.1, 0.1]","[[-0.07658469609007412, 0.0767158238012694], [-0.2195548371170874, -0.4524379392471358], [0.6019893680496836, 0.024127988401609887], [-0.4722932061662269, 0.3207721270828896], [-0.5834640288011861, 0.14929447784170957], [-0.5168050458385223, -0.12070607773029346], [0.1762861528970422, 0.1593589406422662], [0.0876408472548953, -0.3383696040340436], [0.2774403546295092, 0.5289785505076572], [0.2829011577663574, -0.15040353865374545], [-0.32343990424905833, 0.09983565996398969], [-0.01719633175748969, 0.3765722225012965], [-0.3960605950149365, -0.2690361386396158], [-0.20557281111201553, 0.25244110290198796], [0.40875232714878706, -0.35990865976991987], [-0.13058650572085578, -0.24456955044937934], [0.44777627069398107, 0.3556611639812857], [0.2556806791533144, -0.5183934328612007], [-0.23244075070100617, 0.4596817702671364], [0.3881888880303249, 0.09496286539617982]]",density,white,,,D001,visual,4,[],"['1', '2', '3', '4']",1,2023.2.3,harveyvisual,2.1,[],8,0.75,
0,pause,0.4,None,None,None,0,145,145,145,,,,,,,,,,,1,52.91355800628662,D001,visual,4,[],"['1', '2', '3', '4']",1,2023.2.3,harveyvisual,2.1,[],8,0.75,
20,dot,0.3,['dot'],['density'],black,0,146,146,146,,,53.50022506713867,53.22371292114258,53.52381205558777,dot,"[0.08, 0.1, 0.1, 0.1, 0.1, 0.1, 0.08, 0.08, 0.1, 0.08, 0.06, 0.06, 0.08, 0.08, 0.06, 0.06, 0.06, 0.08, 0.06, 0.08]","[[0.03877670897569374, -0.5657777318759433], [-0.5012218432445567, 0.12127724653322097], [0.2059257966404553, -0.3775819191965013], [0.38610989652078653, -0.16862758912583103], [0.13162902746010818, 0.4701536733213235], [-0.6023231576824112, -0.05121970132004553], [-0.3174502975350075, -0.05681902363687891], [-0.36921895379257763, 0.3251154495534753], [-0.07201283922380675, 0.4947075755031861], [-0.0670279532855208, -0.20056612703299687], [0.2556485740704437, 0.1537709894663596], [-0.16239041204772686, -0.5465485079949196], [0.36273718625691165, 0.44241935373690316], [0.5711135316151538, -0.03066662647842175], [0.5521275320531728, 0.19827870115932025], [-0.3681927289134226, -0.29633997140318863], [-0.05560687009958487, 0.08021238801075947], [0.026783662087513038, 0.2985511531351276], [0.442625496226419, -0.4065643466552005], [-0.27666975091415885, 0.1302537275373853]]",density,black,,,D001,visual,4,[],"['1', '2', '3', '4']",1,2023.2.3,harveyvisual,2.1,[],8,0.75,
0,pause,0.4,None,None,None,0,147,147,147,,,,,,,,,,,,,D001,visual,4,[],"['1', '2', '3', '4']",1,2023.2.3,harveyvisual,2.1,[],8,0.75,
20,dot,0.3,['dot'],['density'],black,0,148,148,148,,,54.20022106170654,53.92374110221863,54.22381401062012,dot,"[0.08, 0.1, 0.08, 0.08, 0.1, 0.08, 0.1, 0.1, 0.08, 0.1, 0.1, 0.06, 0.06, 0.06, 0.08, 0.06, 0.06, 0.08, 0.1, 0.1]","[[0.03683077958863834, -0.14047671339338075], [0.47650893417421913, -0.04237903666725018], [0.4670269603240268, -0.37452602646994737], [-0.5350930441443594, -0.1856809238137534], [0.3249669728953679, 0.21160463236698923], [-0.056771148779857894, 0.3568812612491782], [0.19470297470665643, -0.2861493272276391], [-0.24062909611855843, -0.4396642204599126], [-0.40975929610734874, 0.15574652358233232], [0.5799933326273407, 0.16528406857406272], [0.07289344447931101, 0.5789080278932653], [-0.4613688480927948, -0.3669441089650143], [-0.0290444246211935, -0.4149754630503567], [-0.1950947692957109, 0.06861123835932104], [-0.5649298093904278, 0.046498294023608555], [-0.180707020041391, -0.2540772907463271], [-0.3441764590335914, -0.09697477404810023], [0.01930574630729598, 0.12845891347252525], [0.2478380806861532, -0.0014966027964606887], [-0.37976365256420985, 0.4177196504447619]]",density,black,,,D001,visual,4,[],"['1', '2', '3', '4']",1,2023.2.3,harveyvisual,2.1,[],8,0.75,
0,pause,0.4,None,None,None,0,149,149,149,,,,,,,,,,,,,D001,visual,4,[],"['1', '2', '3', '4']",1,2023.2.3,harveyvisual,2.1,[],8,0.75,
20,dot,0.3,['dot'],['density'],black,0,150,150,150,,,54.90022897720337,54.62384510040283,54.92385196685791,dot,"[0.08, 0.06, 0.06, 0.08, 0.08, 0.08, 0.06, 0.06, 0.1, 0.08, 0.08, 0.06, 0.08, 0.1, 0.08, 0.06, 0.1, 0.1, 0.08, 0.08]","[[-0.17487697778996714, 0.1365421229059477], [-0.49200676690918776, -0.022246956930330686], [-0.47013190945322847, 0.2485590786458628], [-0.20865017145635634, -0.16501153540980545], [0.014815894754739656, -0.49338576819220015], [0.4834653725236301, 0.09578323811224382], [0.2773166901754268, -0.4844005127246379], [0.4087282993739446, -0.20782301441855797], [0.3289906418051084, 0.5018181798440405], [-0.2388407461467576, -0.4526349225212646], [0.32229399992794017, -0.022859627397974924], [0.34636054952760287, 0.2347874018403447], [0.0444638290889261, 0.01860717244674559], [-0.009135768312680481, -0.22171957636560102], [-0.16003807191610397, 0.39874601212399197], [-0.4544957875750625, -0.27151623671996006], [0.08710837377723557, 0.5678262604799371], [0.005096288152586448, 0.20937375045418316], [0.5660286127031903, -0.09315130031984181], [0.10230550554248197, 0.3766072149297738]]",density,black,,,D001,visual,4,[],"['1', '2', '3', '4']",1,2023.2.3,harveyvisual,2.1,[],8,0.75,
0,pause,0.4,None,None,None,0,151,151,151,,,,,,,,,,,,,D001,visual,4,[],"['1', '2', '3', '4']",1,2023.2.3,harveyvisual,2.1,[],8,0.75,
20,dot,0.3,['dot'],['density'],black,0,152,152,152,,,55.60021090507507,55.32374095916748,55.62368297576904,dot,"[0.08, 0.06, 0.06, 0.08, 0.1, 0.06, 0.1, 0.08, 0.08, 0.1, 0.08, 0.1, 0.06, 0.1, 0.06, 0.06, 0.06, 0.08, 0.06, 0.08]","[[-0.0757747221905073, 0.27012525317044556], [-0.39253665458794323, 0.24156658410019194], [0.026165532913152045, -0.08423556823099454], [0.25175572281428626, -0.06504291291752873], [0.028895911212680203, -0.55408325741465], [0.23000098650714618, 0.3149873919345926], [0.4937180495454051, 0.000982699707105461], [-0.4843290979837986, -0.17532424093509286], [0.3820549706429792, -0.335495540918992], [0.0020416998605233827, -0.31591422138339886], [0.41509284358966003, 0.2333026880583811], [-0.4348451840431855, -0.3815935744911344], [-0.299411850097116, -0.020049311555769722], [-0.008992638632644434, 0.4732334146794269], [0.1045617771569125, 0.12159680214905455], [-0.2432074223746245, -0.4120292195668357], [-0.3521204392163743, 0.47610857980231003], [-0.572740154927452, 0.04627067183591957], [0.20266730168709213, 0.5335923819852724], [0.5516935841846943, -0.2474300342745192]]",density,black,,,D001,visual,4,[],"['1', '2', '3', '4']",1,2023.2.3,harveyvisual,2.1,[],8,0.75,
0,pause,0.4,None,None,None,0,153,153,153,,,,,,,,,,,,,D001,visual,4,[],"['1', '2', '3', '4']",1,2023.2.3,harveyvisual,2.1,[],8,0.75,
20,dot,0.3,['dot'],['density'],white,0,154,154,154,,,56.30022406578064,56.02367401123047,56.323662996292114,dot,"[0.06, 0.08, 0.1, 0.08, 0.06, 0.1, 0.08, 0.1, 0.1, 0.06, 0.1, 0.06, 0.1, 0.08, 0.06, 0.1, 0.08, 0.06, 0.08, 0.1]","[[-0.22135594406594017, -0.4375955184867927], [-0.11075643767560917, -0.1349725204236421], [-0.5148172344290175, -0.024188829131809753], [0.4484010029061628, -0.1325165952043017], [0.6047494508580452, -0.015852237759690378], [0.37727839926983175, 0.4086792216292942], [0.015537919371355957, -0.5842760565215508], [-0.028339636437480165, 0.5629690078076663], [-0.2964785738910154, 0.33502500025649706], [-0.05362374310778506, -0.31788925299354576], [-0.0981706540069528, 0.11657055661410942], [-0.4582475602206115, 0.22553130150005707], [0.20302794618469233, 0.2522608429080555], [0.15457410688101458, -0.06255047783749756], [-0.4341286645993386, -0.27022089914898884], [0.30407394812763777, -0.3579627084839444], [0.5772329073520882, 0.1752137338118838], [-0.2852899025319844, 0.036843197258085825], [0.05506950857334991, 0.39087136890671426], [0.34561338502373906, 0.0276584632760562]]",density,white,,,D001,visual,4,[],"['1', '2', '3', '4']",1,2023.2.3,harveyvisual,2.1,[],8,0.75,
0,pause,0.4,None,None,None,0,155,155,155,,,,,,,,,,,1,56.3809609413147,D001,visual,4,[],"['1', '2', '3', '4']",1,2023.2.3,harveyvisual,2.1,[],8,0.75,
9,dot,0.3,['dot'],['density'],black,0,156,156,156,,,57.00023007392883,56.70697903633118,57.023638010025024,dot,"[0.06, 0.1, 0.08, 0.08, 0.06, 0.1, 0.08, 0.06, 0.08]","[[0.005765111513037631, -0.143111035787845], [-0.396275933094447, -0.3321437400526764], [0.037546025436095476, -0.5612590109297682], [-0.23561619682408028, -0.19372599185683617], [-0.24582953746203298, -0.47553838121684505], [-0.07047609790874906, -0.3562711323606942], [-0.09403038697424164, 0.06164574472317626], [0.13577280496850042, -0.3868547356250126], [0.15608206217807025, 0.06264253907795621]]",density,black,,,D001,visual,4,[],"['1', '2', '3', '4']",1,2023.2.3,harveyvisual,2.1,[],8,0.75,
0,pause,0.4,None,None,None,0,157,157,157,,,,,,,,,,,,,D001,visual,4,[],"['1', '2', '3', '4']",1,2023.2.3,harveyvisual,2.1,[],8,0.75,
9,dot,0.3,['dot'],['density'],white,0,158,158,158,,,57.70020794868469,57.40696907043457,57.72364807128906,dot,"[0.1, 0.1, 0.08, 0.06, 0.1, 0.08, 0.08, 0.06, 0.08]","[[-0.5242180236495622, 0.2097960018926228], [-0.2671382220306689, 0.3003190330968159], [-0.06183693718886379, 0.22592490829479475], [-0.2001015593906042, -0.14641750634996328], [-0.09246193223873551, 0.43765994221656135], [-0.29330373087767303, 0.05285487614136386], [0.007094383220706952, 0.008748553761596398], [0.1465325421295601, 0.294910430799518], [0.04425292235957525, -0.2230758375085622]]",density,white,,,D001,visual,4,[],"['1', '2', '3', '4']",1,2023.2.3,harveyvisual,2.1,[],8,0.75,
0,pause,0.4,None,None,None,0,159,159,159,,,,,,,,,,,1,57.78713798522949,D001,visual,4,[],"['1', '2', '3', '4']",1,2023.2.3,harveyvisual,2.1,[],8,0.75,
9,dot,0.3,['dot'],['density'],black,0,160,160,160,,,58.40023112297058,58.10694193840027,58.42359209060669,dot,"[0.06, 0.08, 0.1, 0.08, 0.08, 0.08, 0.06, 0.06, 0.06]","[[0.27429149071172837, 0.34251676390746333], [0.46797507249945486, 0.005491811463162166], [0.21235580877939833, 0.08757146436558581], [0.046223583492975936, 0.2932249054251131], [0.07051592556679111, -0.0704922843318231], [0.30438918969270623, -0.13028831600800136], [0.11534598117609637, 0.5236829685630697], [-0.06673610159464062, 0.12515255452502297], [-0.14439101605953233, -0.1332028051536465]]",density,black,,,D001,visual,4,[],"['1', '2', '3', '4']",1,2023.2.3,harveyvisual,2.1,[],8,0.75,
0,pause,0.4,None,None,None,0,161,161,161,,,,,,,,,,,,,D001,visual,4,[],"['1', '2', '3', '4']",1,2023.2.3,harveyvisual,2.1,[],8,0.75,
9,dot,0.3,['dot'],['density'],black,0,162,162,162,,,59.10022211074829,58.80693197250366,59.12359690666199,dot,"[0.06, 0.1, 0.1, 0.08, 0.06, 0.1, 0.08, 0.06, 0.08]","[[0.31750259908069645, 0.09103062301409195], [-0.10814993995151222, -0.14883262012051235], [0.2615101699546999, -0.13245952524223892], [0.014531427323725789, 0.3887544696515085], [-0.1117096847062306, 0.09593752649312724], [0.07810272484559946, -0.019955638642360052], [-0.26173373106631487, 0.2840804484106463], [0.4370020372247476, 0.2669512546191977], [0.11115841416421544, 0.18722161068425575]]",density,black,,,D001,visual,4,[],"['1', '2', '3', '4']",1,2023.2.3,harveyvisual,2.1,[],8,0.75,
0,pause,0.4,None,None,None,0,163,163,163,,,,,,,,,,,,,D001,visual,4,[],"['1', '2', '3', '4']",1,2023.2.3,harveyvisual,2.1,[],8,0.75,
9,dot,0.3,['dot'],['density'],black,0,164,164,164,,,59.800204038619995,59.50692701339722,59.823599100112915,dot,"[0.08, 0.06, 0.08, 0.08, 0.08, 0.08, 0.1, 0.06, 0.08]","[[-0.4007656520072294, -0.25517300445391483], [-0.002534053661406415, -0.03841937385778563], [0.03867088550537559, -0.37109058839216275], [0.14298263539714814, -0.19121790068267305], [-0.18592892280395246, 0.09800459324165622], [-0.17114407793371844, -0.47763389460370764], [0.20594417137152282, 0.033112046987541804], [-0.3669302527083935, -0.010624696365658668], [-0.20182203610849478, -0.19970173151634407]]",density,black,,,D001,visual,4,[],"['1', '2', '3', '4']",1,2023.2.3,harveyvisual,2.1,[],8,0.75,
0,pause,0.4,None,None,None,0,165,165,165,,,,,,,,,,,,,D001,visual,4,[],"['1', '2', '3', '4']",1,2023.2.3,harveyvisual,2.1,[],8,0.75,
9,dot,0.3,['dot'],['density'],black,0,166,166,166,,,60.500203132629395,60.20693492889404,60.5235869884491,dot,"[0.08, 0.08, 0.1, 0.08, 0.08, 0.1, 0.06, 0.06, 0.06]","[[-0.2844843713072754, 0.22325415166673976], [-0.1819235275981482, -0.2724209396165719], [-0.4663757242286994, 0.0951888680112534], [-0.002662519752874684, 0.12526046944360225], [-0.2804516333182533, -0.07461618094684651], [-0.06266188203573825, -0.10246171469469513], [0.05562179911838863, -0.3774952117829348], [-0.29777175193284133, -0.43797360937606633], [-0.44596842075831894, -0.24145786298940805]]",density,black,,,D001,visual,4,[],"['1', '2', '3', '4']",1,2023.2.3,harveyvisual,2.1,[],8,0.75,
0,pause,0.4,None,None,None,0,167,167,167,,,,,,,,,,,,,D001,visual,4,[],"['1', '2', '3', '4']",1,2023.2.3,harveyvisual,2.1,[],8,0.75,
8,dot,0.3,['dot'],['density'],black,0,168,168,168,,,61.20023012161255,60.906875133514404,61.223541021347046,dot,"[0.1, 0.06, 0.06, 0.06, 0.08, 0.08, 0.06, 0.1]","[[-0.3167478768396544, -0.2124469325344782], [0.11150510454677101, -0.25361932254341324], [0.17657050060311263, -0.496926349220185], [0.20833757931744315, -0.0002320808252021913], [-0.0015234955214533466, 0.034722119540356526], [-0.10690598217119997, -0.19846612199298916], [0.32498422138424443, -0.23444872628509345], [-0.054741640541526956, -0.4230750989992696]]",density,black,,,D001,visual,4,[],"['1', '2', '3', '4']",1,2023.2.3,harveyvisual,2.1,[],8,0.75,
0,pause,0.4,None,None,None,0,169,169,169,,,,,,,,,,,,,D001,visual,4,[],"['1', '2', '3', '4']",1,2023.2.3,harveyvisual,2.1,[],8,0.75,
8,dot,0.3,['dot'],['density'],black,0,170,170,170,,,61.900213956832886,61.60687494277954,61.923521995544434,dot,"[0.1, 0.06, 0.06, 0.1, 0.08, 0.06, 0.06, 0.1]","[[0.32983457944800887, -0.09988122376634187], [0.002544499336209532, 0.05447162498302279], [0.49322357980250997, 0.04173156098678792], [0.3398992085464782, -0.3241559212022164], [0.12656458423521935, -0.36323236959635974], [0.5072737450674915, -0.19500703868861743], [0.06482113683766944, -0.1422911224505784], [0.25865538318477954, 0.20042726536108785]]",density,black,,,D001,visual,4,[],"['1', '2', '3', '4']",1,2023.2.3,harveyvisual,2.1,[],8,0.75,
0,pause,0.4,None,None,None,0,171,171,171,,,,,,,,,,,,,D001,visual,4,[],"['1', '2', '3', '4']",1,2023.2.3,harveyvisual,2.1,[],8,0.75,
8,dot,0.3,['dot'],['density'],black,0,172,172,172,,,62.60020589828491,62.30683612823486,62.623486042022705,dot,"[0.08, 0.1, 0.06, 0.08, 0.08, 0.08, 0.08, 0.06]","[[-0.012034279999911439, 0.06556808781241986], [-0.3446774290598954, 0.11122635080299646], [0.22428040003470762, 0.1796687910302273], [-0.037221971777983635, 0.5300244249381355], [-0.1456717336157172, 0.2672263832914442], [0.040508406505222534, 0.3412803201140432], [-0.26975617824218623, 0.48628578621654683], [0.24128509790231628, 0.4122343446782376]]",density,black,,,D001,visual,4,[],"['1', '2', '3', '4']",1,2023.2.3,harveyvisual,2.1,[],8,0.75,
0,pause,0.4,None,None,None,0,173,173,173,,,,,,,,,,,,,D001,visual,4,[],"['1', '2', '3', '4']",1,2023.2.3,harveyvisual,2.1,[],8,0.75,
8,dot,0.3,['dot'],['density'],black,0,174,174,174,,,63.30020999908447,63.00684595108032,63.32348394393921,dot,"[0.08, 0.1, 0.06, 0.06, 0.06, 0.06, 0.06, 0.06]","[[-0.16499387414028463, -0.418455346753131], [0.031011941373623824, -0.006148034068666969], [-0.4150712424924157, -0.28668557629476243], [-0.199054958380199, -0.21375968732837633], [-0.4870789535587041, 0.00515905815181239], [-0.198479811208303, 0.006815000109153054], [-0.3273741662815474, 0.19008037141614484], [0.04340096687518584, -0.25044408321713213]]",density,black,,,D001,visual,4,[],"['1', '2', '3', '4']",1,2023.2.3,harveyvisual,2.1,[],8,0.75,
0,pause,0.4,None,None,None,0,175,175,175,,,,,,,,,,,,,D001,visual,4,[],"['1', '2', '3', '4']",1,2023.2.3,harveyvisual,2.1,[],8,0.75,
8,dot,0.3,['dot'],['density'],white,0,176,176,176,,,64.00022792816162,63.706835985183716,64.02349305152893,dot,"[0.06, 0.06, 0.08, 0.06, 0.1, 0.06, 0.08, 0.1]","[[-0.13214754069031825, -0.5402677255150703], [0.1288984478000013, -0.5519726475135984], [0.27401725229332, -0.34994268047279037], [-0.052680844420756816, 0.006786609240531098], [0.03557367748195712, -0.3699094958310016], [-0.23170140006741713, -0.18198058676873416], [-0.33504621301322857, -0.3611685350886627], [0.0760940577115827, -0.14857148175569432]]",density,white,,,D001,visual,4,[],"['1', '2', '3', '4']",1,2023.2.3,harveyvisual,2.1,[],8,0.75,
0,pause,0.4,None,None,None,0,177,177,177,,,,,,,,,,,1,64.10298299789429,D001,visual,4,[],"['1', '2', '3', '4']",1,2023.2.3,harveyvisual,2.1,[],8,0.75,
8,dot,0.3,['dot'],['density'],black,0,178,178,178,,,64.70022892951965,64.40681409835815,64.7234799861908,dot,"[0.1, 0.06, 0.06, 0.08, 0.1, 0.06, 0.1, 0.08]","[[-0.4462313073918426, 0.10595449025715867], [0.022923871415176152, 0.06290918987699953], [-0.12461589820496316, 0.4830175517012745], [-0.29730306390741434, 0.2752084497958106], [-0.2195410516364439, 0.056871795648565045], [0.008916049516666445, 0.2907399105306955], [-0.08256048209355603, -0.11638226771844133], [-0.4106304257826301, -0.09222594144079917]]",density,black,,,D001,visual,4,[],"['1', '2', '3', '4']",1,2023.2.3,harveyvisual,2.1,[],8,0.75,
0,pause,0.4,None,None,None,0,179,179,179,,,,,,,,,,,,,D001,visual,4,[],"['1', '2', '3', '4']",1,2023.2.3,harveyvisual,2.1,[],8,0.75,
7,dot,0.3,['dot'],['density'],black,0,180,180,180,,,65.40021395683289,65.10681509971619,65.42345595359802,dot,"[0.08, 0.08, 0.06, 0.06, 0.06, 0.08, 0.08]","[[0.4852053974746821, 0.2414638673891567], [0.4489127705046299, 0.011725618337583463], [0.18065050592779294, 0.3526250807613559], [0.03625639584007868, 0.1261309995663498], [0.1794309074695897, -0.0624577020416761], [0.2856641480650803, 0.17770493422509798], [0.3124387752689665, -0.21816880331392838]]",density,black,,,D001,visual,4,[],"['1', '2', '3', '4']",1,2023.2.3,harveyvisual,2.1,[],8,0.75,
0,pause,0.4,None,None,None,0,181,181,181,,,,,,,,,,,,,D001,visual,4,[],"['1', '2', '3', '4']",1,2023.2.3,harveyvisual,2.1,[],8,0.75,
7,dot,0.3,['dot'],['density'],black,0,182,182,182,,,66.10020709037781,65.80677795410156,66.12344598770142,dot,"[0.06, 0.06, 0.08, 0.1, 0.08, 0.08, 0.1]","[[0.21536278937261513, -0.01733091677764761], [-0.08931035591216824, -0.05246349631749078], [0.21870610454298933, 0.21067491250041093], [-0.1587576617113587, 0.26068369883413384], [0.04623079518225047, 0.4568527369480977], [0.022942391481424712, 0.13939122930077608], [-0.27674911739568203, 0.09730719745121558]]",density,black,,,D001,visual,4,[],"['1', '2', '3', '4']",1,2023.2.3,harveyvisual,2.1,[],8,0.75,
0,pause,0.4,None,None,None,0,183,183,183,,,,,,,,,,,,,D001,visual,4,[],"['1', '2', '3', '4']",1,2023.2.3,harveyvisual,2.1,[],8,0.75,
7,dot,0.3,['dot'],['density'],black,0,184,184,184,,,66.80022406578064,66.50673294067383,66.82339692115784,dot,"[0.08, 0.08, 0.1, 0.1, 0.06, 0.06, 0.08]","[[0.373835093542847, 0.13553027784675922], [0.025265531087721685, -0.15487691700731251], [0.38086488534306906, -0.0720131222026176], [0.4315741710459581, -0.28075472739566504], [0.18097069018870113, 0.01647246612045595], [0.1962900518120967, -0.2624101628120604], [0.08955660480178401, 0.2127528718980948]]",density,black,,,D001,visual,4,[],"['1', '2', '3', '4']",1,2023.2.3,harveyvisual,2.1,[],8,0.75,
0,pause,0.4,None,None,None,0,185,185,185,,,,,,,,,,,,,D001,visual,4,[],"['1', '2', '3', '4']",1,2023.2.3,harveyvisual,2.1,[],8,0.75,
7,dot,0.3,['dot'],['density'],black,0,186,186,186,,,67.5002269744873,67.20672297477722,67.52339506149292,dot,"[0.08, 0.08, 0.06, 0.06, 0.08, 0.1, 0.08]","[[-0.4260259763687212, 0.0015611622021723967], [-0.003169876971998007, 0.13415651360788267], [-0.2586764037849864, 0.4417783913692737], [-0.4397986643511286, 0.306274470342183], [-0.0069778791964768315, 0.3653924841843964], [-0.25662591460159173, 0.21046748777052526], [-0.17930648864359452, 0.007725268650954965]]",density,black,,,D001,visual,4,[],"['1', '2', '3', '4']",1,2023.2.3,harveyvisual,2.1,[],8,0.75,
0,pause,0.4,None,None,None,0,187,187,187,,,,,,,,,,,,,D001,visual,4,[],"['1', '2', '3', '4']",1,2023.2.3,harveyvisual,2.1,[],8,0.75,
7,dot,0.3,['dot'],['density'],black,0,188,188,188,,,68.2002260684967,67.90670800209045,68.22336411476135,dot,"[0.08, 0.06, 0.1, 0.06, 0.08, 0.06, 0.1]","[[-0.16635260996794698, 0.28084462036912], [-0.40218122969076125, -0.17991686156932815], [-0.0845402480451966, 0.09445086570213204], [-0.12722724135381816, -0.176029296145206], [-0.3668576348978093, 0.24153552923633032], [-0.5374975881789634, 0.10465170418994485], [-0.31219932221879926, 0.029177302383891702]]",density,black,,,D001,visual,4,[],"['1', '2', '3', '4']",1,2023.2.3,harveyvisual,2.1,[],8,0.75,
0,pause,0.4,None,None,None,0,189,189,189,,,,,,,,,,,,,D001,visual,4,[],"['1', '2', '3', '4']",1,2023.2.3,harveyvisual,2.1,[],8,0.75,
7,dot,0.3,['dot'],['density'],black,0,190,190,190,,,68.90022611618042,68.60669708251953,68.92334389686584,dot,"[0.06, 0.08, 0.06, 0.08, 0.1, 0.08, 0.1]","[[-0.0009033409944170771, 0.42006327366100915], [0.07504475251916, -0.022201311189229547], [-0.3616170585675141, 0.16750883091546095], [0.025412283732210435, 0.18669523424894663], [-0.17132175432412022, 0.2677160973152203], [-0.13541388111710323, 0.00927786556165188], [-0.3032959001003911, -0.13806764794565113]]",density,black,,,D001,visual,4,[],"['1', '2', '3', '4']",1,2023.2.3,harveyvisual,2.1,[],8,0.75,
0,pause,0.4,None,None,None,0,191,191,191,,,,,,,,,,,,,D001,visual,4,[],"['1', '2', '3', '4']",1,2023.2.3,harveyvisual,2.1,[],8,0.75,
6,dot,0.3,['dot'],['density'],black,0,192,192,192,,,69.60022401809692,69.3066759109497,69.62333607673645,dot,"[0.1, 0.06, 0.1, 0.08, 0.06, 0.08]","[[-0.5416753121247185, 0.020803147184574915], [-0.3232269173664433, -0.07161231053200118], [-0.3008479376061402, -0.286480119217458], [-0.22299540496279888, 0.12470258063391813], [-0.10776740766186912, -0.19554033341247495], [-0.5165544979209102, -0.21376225914528924]]",density,black,,,D001,visual,4,[],"['1', '2', '3', '4']",1,2023.2.3,harveyvisual,2.1,[],8,0.75,
0,pause,0.4,None,None,None,0,193,193,193,,,,,,,,,,,,,D001,visual,4,[],"['1', '2', '3', '4']",1,2023.2.3,harveyvisual,2.1,[],8,0.75,
6,dot,0.3,['dot'],['density'],black,0,194,194,194,,,70.30020809173584,70.00664901733398,70.32334589958191,dot,"[0.08, 0.08, 0.1, 0.06, 0.1, 0.06]","[[-0.24492162854676555, 0.16704436901929823], [-0.3861886513150086, 0.35601694661450933], [-0.48514013682315105, 0.15596888098880124], [-0.5451465436738104, -0.12931683943359434], [-0.11772959853104834, 0.007676420150436517], [-0.35755989064212684, -0.03355234579502648]]",density,black,,,D001,visual,4,[],"['1', '2', '3', '4']",1,2023.2.3,harveyvisual,2.1,[],8,0.75,
0,pause,0.4,None,None,None,0,195,195,195,,,,,,,,,,,,,D001,visual,4,[],"['1', '2', '3', '4']",1,2023.2.3,harveyvisual,2.1,[],8,0.75,
6,dot,0.3,['dot'],['density'],white,0,196,196,196,,,71.00023102760315,70.70666694641113,71.02333211898804,dot,"[0.1, 0.06, 0.06, 0.08, 0.08, 0.1]","[[-0.36874454135919904, -0.07559312273534534], [-0.010504004432700158, -0.20559114413973084], [-0.17044584652251332, 0.17221059634863578], [-0.26251446752681207, -0.3074850979938877], [0.06633568674208327, -0.020893677029436595], [-0.1538914639536258, -0.02772778393149798]]",density,white,,,D001,visual,4,[],"['1', '2', '3', '4']",1,2023.2.3,harveyvisual,2.1,[],8,0.75,
0,pause,0.4,None,None,None,0,197,197,197,,,,,,,,,,,1,71.12778186798096,D001,visual,4,[],"['1', '2', '3', '4']",1,2023.2.3,harveyvisual,2.1,[],8,0.75,
6,dot,0.3,['dot'],['density'],black,0,198,198,198,,,71.70021104812622,71.4066550731659,71.72334098815918,dot,"[0.06, 0.1, 0.08, 0.1, 0.1, 0.06]","[[-0.31609589870198396, -0.31007670116123803], [-0.4478311917512715, 0.10082722748193511], [-0.2864981571692688, -0.05140390439239721], [-0.09675803094031296, -0.12021517342888931], [-0.4941273593136662, -0.13098935533792763], [-0.1300426850498692, 0.1160403058404222]]",density,black,,,D001,visual,4,[],"['1', '2', '3', '4']",1,2023.2.3,harveyvisual,2.1,[],8,0.75,
0,pause,0.4,None,None,None,0,199,199,199,,,,,,,,,,,,,D001,visual,4,[],"['1', '2', '3', '4']",1,2023.2.3,harveyvisual,2.1,[],8,0.75,
6,dot,0.3,['dot'],['density'],black,0,200,200,200,,,72.40023303031921,72.10682702064514,72.42330598831177,dot,"[0.08, 0.1, 0.1, 0.06, 0.08, 0.06]","[[-0.11553075830627273, 0.47698778124428043], [-0.1112787518129194, 0.10456141670764223], [-0.48855705683845824, 0.21494657582805063], [-0.2538299919008863, 0.2532006538804931], [-0.3271837865365474, 0.4662148945367939], [0.006792750312598743, 0.27345996435494924]]",density,black,,,D001,visual,4,[],"['1', '2', '3', '4']",1,2023.2.3,harveyvisual,2.1,[],8,0.75,
0,pause,0.4,None,None,None,0,201,201,201,,,,,,,,,,,,,D001,visual,4,[],"['1', '2', '3', '4']",1,2023.2.3,harveyvisual,2.1,[],8,0.75,
6,dot,0.3,['dot'],['density'],black,0,202,202,202,,,73.10021495819092,72.80681300163269,73.12328600883484,dot,"[0.08, 0.1, 0.1, 0.08, 0.1, 0.06]","[[0.1382403832049451, 0.0462086450304607], [-0.07534018949214154, -0.3274433807795599], [0.3332171610134826, -0.14895102818546319], [0.22614943412716124, -0.3322834867125916], [-0.0756450994425101, -0.005640117700353421], [0.0938048843888254, -0.16909843217532775]]",density,black,,,D001,visual,4,[],"['1', '2', '3', '4']",1,2023.2.3,harveyvisual,2.1,[],8,0.75,
0,pause,0.4,None,None,None,0,203,203,203,,,,,,,,,,,,,D001,visual,4,[],"['1', '2', '3', '4']",1,2023.2.3,harveyvisual,2.1,[],8,0.75,
5,dot,0.3,['dot'],['density'],black,0,204,204,204,,,73.80023002624512,73.5067720413208,73.82327103614807,dot,"[0.1, 0.06, 0.06, 0.06, 0.06]","[[-0.47409275164437775, -0.17842554437930905], [-0.28800513042966097, -0.4059597382025641], [-0.20075697267214665, 0.008887320625593834], [-0.2708677629513771, -0.1868162154653106], [-0.0886924353013077, -0.2820475711339636]]",density,black,,,D001,visual,4,[],"['1', '2', '3', '4']",1,2023.2.3,harveyvisual,2.1,[],8,0.75,
0,pause,0.4,None,None,None,0,205,205,205,,,,,,,,,,,,,D001,visual,4,[],"['1', '2', '3', '4']",1,2023.2.3,harveyvisual,2.1,[],8,0.75,
5,dot,0.3,['dot'],['density'],white,0,206,206,206,,,74.50022912025452,74.2066171169281,74.52326011657715,dot,"[0.1, 0.08, 0.1, 0.1, 0.1]","[[0.05896558140131438, -0.5342250951568444], [0.41924064092593105, -0.38742881471212404], [0.0789485457987589, -0.15857793529431863], [0.19859038409043042, -0.3300393182504279], [-0.04229804568701367, -0.31959008629620334]]",density,white,,,D001,visual,4,[],"['1', '2', '3', '4']",1,2023.2.3,harveyvisual,2.1,[],8,0.75,
0,pause,0.4,None,None,None,0,207,207,207,,,,,,,,,,,1,74.50420784950256,D001,visual,4,[],"['1', '2', '3', '4']",1,2023.2.3,harveyvisual,2.1,[],8,0.75,
5,dot,0.3,['dot'],['density'],black,0,208,208,208,,,75.20023202896118,74.90673303604126,75.22325897216797,dot,"[0.1, 0.1, 0.08, 0.1, 0.1]","[[-0.20882687658313398, 0.05979685123170853], [0.07709165915785691, 0.33819008637117026], [0.02323578322535992, 0.12175330968231063], [0.02522363087913582, -0.08718927316059993], [-0.12152044988768049, 0.28453648995279207]]",density,black,,,D001,visual,4,[],"['1', '2', '3', '4']",1,2023.2.3,harveyvisual,2.1,[],8,0.75,
0,pause,0.4,None,None,None,0,209,209,209,,,,,,,,,,,,,D001,visual,4,[],"['1', '2', '3', '4']",1,2023.2.3,harveyvisual,2.1,[],8,0.75,
5,dot,0.3,['dot'],['density'],black,0,210,210,210,,,75.9002149105072,75.60674500465393,75.92323112487793,dot,"[0.1, 0.08, 0.06, 0.1, 0.1]","[[0.14370466841446422, -0.4636309982806098], [0.2961807471193908, -0.30487684838795487], [-0.08083516471444438, -0.49823911181902014], [0.057429843216129074, -0.22123310288296744], [-0.1653320673045236, -0.3160671692815837]]",density,black,,,D001,visual,4,[],"['1', '2', '3', '4']",1,2023.2.3,harveyvisual,2.1,[],8,0.75,
0,pause,0.4,None,None,None,0,211,211,211,,,,,,,,,,,,,D001,visual,4,[],"['1', '2', '3', '4']",1,2023.2.3,harveyvisual,2.1,[],8,0.75,
5,dot,0.3,['dot'],['density'],black,0,212,212,212,,,76.60022902488708,76.30653595924377,76.6232099533081,dot,"[0.08, 0.06, 0.1, 0.08, 0.08]","[[-0.4709100701083565, 0.02189337908226187], [-0.29145525575644754, 0.3795081276742083], [-0.23690205020139254, 0.016868774910060797], [-0.4278442329265702, 0.22919645259494104], [-0.09991604659712162, 0.23043195716445664]]",density,black,,,D001,visual,4,[],"['1', '2', '3', '4']",1,2023.2.3,harveyvisual,2.1,[],8,0.75,
0,pause,0.4,None,None,None,0,213,213,213,,,,,,,,,,,,,D001,visual,4,[],"['1', '2', '3', '4']",1,2023.2.3,harveyvisual,2.1,[],8,0.75,
5,dot,0.3,['dot'],['density'],black,0,214,214,214,,,77.30020999908447,77.00651693344116,77.32319712638855,dot,"[0.08, 0.06, 0.06, 0.06, 0.1]","[[-0.08906257038347729, 0.3326351968500321], [0.2173987091792188, 0.026220721131276364], [0.07996259445097068, 0.4821024141609844], [0.14345365083950706, 0.2501481494916038], [-0.03323208063638199, 0.08804517681276208]]",density,black,,,D001,visual,4,[],"['1', '2', '3', '4']",1,2023.2.3,harveyvisual,2.1,[],8,0.75,
0,pause,0.4,None,None,None,0,215,215,215,,,,,,,,,,,,,D001,visual,4,[],"['1', '2', '3', '4']",1,2023.2.3,harveyvisual,2.1,[],8,0.75,
4,dot,0.3,['dot'],['density'],black,0,216,216,216,,,78.00021600723267,77.70649909973145,78.02317810058594,dot,"[0.06, 0.06, 0.1, 0.08]","[[-0.47693618450386616, -0.1525114564248906], [-0.12413069550496705, 0.03327587270375396], [-0.32964510574757994, -0.012304557788591533], [-0.22851041427491325, -0.22018408257550984]]",density,black,,,D001,visual,4,[],"['1', '2', '3', '4']",1,2023.2.3,harveyvisual,2.1,[],8,0.75,
0,pause,0.4,None,None,None,0,217,217,217,,,,,,,,,,,,,D001,visual,4,[],"['1', '2', '3', '4']",1,2023.2.3,harveyvisual,2.1,[],8,0.75,
4,dot,0.3,['dot'],['density'],black,0,218,218,218,,,78.70020699501038,78.40648293495178,78.72316002845764,dot,"[0.1, 0.08, 0.06, 0.06]","[[-0.5372831058023291, 0.07679305146548565], [-0.47746952625478134, -0.11455356156484316], [-0.2888199447118168, 0.02804534169422597], [-0.3317661241759115, -0.2533775510137967]]",density,black,,,D001,visual,4,[],"['1', '2', '3', '4']",1,2023.2.3,harveyvisual,2.1,[],8,0.75,
0,pause,0.4,None,None,None,0,219,219,219,,,,,,,,,,,,,D001,visual,4,[],"['1', '2', '3', '4']",1,2023.2.3,harveyvisual,2.1,[],8,0.75,
4,dot,0.3,['dot'],['density'],black,0,220,220,220,,,79.40021204948425,79.10647201538086,79.42311596870422,dot,"[0.06, 0.1, 0.1, 0.06]","[[0.2472118047986834, -0.10298318101898082], [0.5832669122255578, -0.0503561045998346], [0.411076479450662, -0.2641061246578253], [0.42907679660555237, 0.09101913809416001]]",density,black,,,D001,visual,4,[],"['1', '2', '3', '4']",1,2023.2.3,harveyvisual,2.1,[],8,0.75,
0,pause,0.4,None,None,None,0,221,221,221,,,,,,,,,,,,,D001,visual,4,[],"['1', '2', '3', '4']",1,2023.2.3,harveyvisual,2.1,[],8,0.75,
4,dot,0.3,['dot'],['density'],black,0,222,222,222,,,80.10023403167725,79.80645990371704,80.12311697006226,dot,"[0.08, 0.06, 0.08, 0.08]","[[0.0004228548582206217, 0.4437421379736539], [0.24572762857664815, 0.2260868474052859], [0.007756854070108054, 0.1846819218217072], [0.22099789303306372, 0.4278063517398125]]",density,black,,,D001,visual,4,[],"['1', '2', '3', '4']",1,2023.2.3,harveyvisual,2.1,[],8,0.75,
0,pause,0.4,None,None,None,0,223,223,223,,,,,,,,,,,,,D001,visual,4,[],"['1', '2', '3', '4']",1,2023.2.3,harveyvisual,2.1,[],8,0.75,
4,dot,0.3,['dot'],['density'],black,0,224,224,224,,,80.80023407936096,80.50662398338318,80.8232319355011,dot,"[0.1, 0.08, 0.06, 0.08]","[[-0.43942495523079517, -0.22401056498097033], [-0.009260832099230759, -0.1633376679159051], [-0.21598309108097546, -0.10172603009605206], [-0.2278206133413005, -0.33154874685782076]]",density,black,,,D001,visual,4,[],"['1', '2', '3', '4']",1,2023.2.3,harveyvisual,2.1,[],8,0.75,
0,pause,0.4,None,None,None,0,225,225,225,,,,,,,,,,,,,D001,visual,4,[],"['1', '2', '3', '4']",1,2023.2.3,harveyvisual,2.1,[],8,0.75,
4,dot,0.3,['dot'],['density'],black,0,226,226,226,,,81.500235080719,81.20639300346375,81.52320909500122,dot,"[0.08, 0.08, 0.08, 0.08]","[[-0.24855901342904946, 0.4326179111294549], [-0.33066739519925503, 0.24314919490711104], [-0.015728317870896572, 0.5189617074191414], [-0.09686463175319387, 0.28200212383687606]]",density,black,,,D001,visual,4,[],"['1', '2', '3', '4']",1,2023.2.3,harveyvisual,2.1,[],8,0.75,
0,pause,0.4,None,None,None,0,227,227,227,,,,,,,,,,,,,D001,visual,4,[],"['1', '2', '3', '4']",1,2023.2.3,harveyvisual,2.1,[],8,0.75,
3,dot,0.3,['dot'],['density'],black,0,228,228,228,,,82.20022702217102,81.90663290023804,82.2231969833374,dot,"[0.08, 0.08, 0.06]","[[-0.42255820389626353, 0.35871945956833473], [-0.19896656331745483, 0.3032224324013186], [-0.25553590712368324, 0.5056038804507684]]",density,black,,,D001,visual,4,[],"['1', '2', '3', '4']",1,2023.2.3,harveyvisual,2.1,[],8,0.75,
0,pause,0.4,None,None,None,0,229,229,229,,,,,,,,,,,,,D001,visual,4,[],"['1', '2', '3', '4']",1,2023.2.3,harveyvisual,2.1,[],8,0.75,
3,dot,0.3,['dot'],['density'],black,0,230,230,230,,,82.90022110939026,82.60652589797974,82.9231870174408,dot,"[0.1, 0.1, 0.06]","[[0.07700183490032705, -0.35627018624379625], [-0.11838355721398923, -0.41989981358322065], [0.04553884901650391, -0.5822363694770394]]",density,black,,,D001,visual,4,[],"['1', '2', '3', '4']",1,2023.2.3,harveyvisual,2.1,[],8,0.75,
0,pause,0.4,None,None,None,0,231,231,231,,,,,,,,,,,,,D001,visual,4,[],"['1', '2', '3', '4']",1,2023.2.3,harveyvisual,2.1,[],8,0.75,
3,dot,0.3,['dot'],['density'],black,0,232,232,232,,,83.60021901130676,83.3063759803772,83.62301898002625,dot,"[0.08, 0.1, 0.06]","[[-0.1827482077423914, 0.13189758396693702], [0.006935645283384683, 0.04732296079382947], [-0.049709858873230685, 0.28599666368451326]]",density,black,,,D001,visual,4,[],"['1', '2', '3', '4']",1,2023.2.3,harveyvisual,2.1,[],8,0.75,
0,pause,0.4,None,None,None,0,233,233,233,,,,,,,,,,,,,D001,visual,4,[],"['1', '2', '3', '4']",1,2023.2.3,harveyvisual,2.1,[],8,0.75,
3,dot,0.3,['dot'],['density'],black,0,234,234,234,,,84.30022597312927,84.00635099411011,84.32308101654053,dot,"[0.06, 0.1, 0.1]","[[-0.1599523582230929, -0.020289166781496174], [-0.3458010015304564, -0.14250622038001895], [-0.3538668896253721, 0.08903610231223419]]",density,black,,,D001,visual,4,[],"['1', '2', '3', '4']",1,2023.2.3,harveyvisual,2.1,[],8,0.75,
0,pause,0.4,None,None,None,0,235,235,235,,,,,,,,,,,,,D001,visual,4,[],"['1', '2', '3', '4']",1,2023.2.3,harveyvisual,2.1,[],8,0.75,
3,dot,0.3,['dot'],['density'],black,0,236,236,236,,,85.00021600723267,84.70631003379822,85.02296495437622,dot,"[0.1, 0.08, 0.08]","[[-0.15188894406744968, -0.195193050272512], [6.772800145782267e-05, -0.040844811103836635], [-0.2045693439875358, 0.0038115475482788236]]",density,black,,,D001,visual,4,[],"['1', '2', '3', '4']",1,2023.2.3,harveyvisual,2.1,[],8,0.75,
0,pause,0.4,None,None,None,0,237,237,237,,,,,,,,,,,,,D001,visual,4,[],"['1', '2', '3', '4']",1,2023.2.3,harveyvisual,2.1,[],8,0.75,
3,dot,0.3,['dot'],['density'],black,0,238,238,238,,,85.70021390914917,85.40629291534424,85.72298407554626,dot,"[0.08, 0.06, 0.1]","[[-0.32624451712468355, -0.43854848545497693], [-0.39409142490376414, -0.22516425170789148], [-0.152352104904091, -0.33204091051628687]]",density,black,,,D001,visual,4,[],"['1', '2', '3', '4']",1,2023.2.3,harveyvisual,2.1,[],8,0.75,
0,pause,0.4,None,None,None,0,239,239,239,,,,,,,,,,,,,D001,visual,4,[],"['1', '2', '3', '4']",1,2023.2.3,harveyvisual,2.1,[],8,0.75,
2,dot,0.3,['dot'],['density'],black,0,240,240,240,,,86.40020799636841,86.10644006729126,86.42293500900269,dot,"[0.06, 0.08]","[[0.11437717294043931, -0.408092871188616], [0.012734947149558614, -0.23578585574018435]]",density,black,,,D001,visual,4,[],"['1', '2', '3', '4']",1,2023.2.3,harveyvisual,2.1,[],8,0.75,
0,pause,0.4,None,None,None,0,241,241,241,,,,,,,,,,,,,D001,visual,4,[],"['1', '2', '3', '4']",1,2023.2.3,harveyvisual,2.1,[],8,0.75,
2,dot,0.3,['dot'],['density'],black,0,242,242,242,,,87.10022497177124,86.80625009536743,87.12295794487,dot,"[0.06, 0.06]","[[0.1652621768884792, -0.40183218801656556], [-0.03337249546828684, -0.4281924369736378]]",density,black,,,D001,visual,4,[],"['1', '2', '3', '4']",1,2023.2.3,harveyvisual,2.1,[],8,0.75,
0,pause,0.4,None,None,None,0,243,243,243,,,,,,,,,,,,,D001,visual,4,[],"['1', '2', '3', '4']",1,2023.2.3,harveyvisual,2.1,[],8,0.75,
2,dot,0.3,['dot'],['density'],black,0,244,244,244,,,87.80022597312927,87.50632309913635,87.82293200492859,dot,"[0.1, 0.08]","[[-0.4579128382498026, -0.013317831223324628], [-0.28624676016543393, -0.11681778735554697]]",density,black,,,D001,visual,4,[],"['1', '2', '3', '4']",1,2023.2.3,harveyvisual,2.1,[],8,0.75,
0,pause,0.4,None,None,None,0,245,245,245,,,,,,,,,,,,,D001,visual,4,[],"['1', '2', '3', '4']",1,2023.2.3,harveyvisual,2.1,[],8,0.75,
2,dot,0.3,['dot'],['density'],black,0,246,246,246,,,88.500235080719,88.20622205734253,88.52288007736206,dot,"[0.1, 0.1]","[[0.2713647219188039, -0.029235290058335472], [0.46697437826705046, 0.014145112521712659]]",density,black,,,D001,visual,4,[],"['1', '2', '3', '4']",1,2023.2.3,harveyvisual,2.1,[],8,0.75,
0,pause,0.4,None,None,None,0,247,247,247,,,,,,,,,,,,,D001,visual,4,[],"['1', '2', '3', '4']",1,2023.2.3,harveyvisual,2.1,[],8,0.75,
2,dot,0.3,['dot'],['density'],black,0,248,248,248,,,89.20021796226501,88.90622997283936,89.22287201881409,dot,"[0.1, 0.08]","[[-0.03288134563171543, -0.4238564918242606], [-0.10611641736664675, -0.2370354775439666]]",density,black,,,D001,visual,4,[],"['1', '2', '3', '4']",1,2023.2.3,harveyvisual,2.1,[],8,0.75,
0,pause,0.4,None,None,None,0,249,249,249,,,,,,,,,,,,,D001,visual,4,[],"['1', '2', '3', '4']",1,2023.2.3,harveyvisual,2.1,[],8,0.75,
2,dot,0.3,['dot'],['density'],black,0,250,250,250,,,89.9002320766449,89.60637092590332,89.92285013198853,dot,"[0.06, 0.1]","[[0.24265818653156754, -0.3775895252336694], [0.4224299169789366, -0.289759305909148]]",density,black,,,D001,visual,4,[],"['1', '2', '3', '4']",1,2023.2.3,harveyvisual,2.1,[],8,0.75,
0,pause,0.4,None,None,None,0,251,251,251,,,,,,,,,,,,,D001,visual,4,[],"['1', '2', '3', '4']",1,2023.2.3,harveyvisual,2.1,[],8,0.75,
1,dot,0.3,['dot'],['density'],black,0,252,252,252,,,90.60020899772644,90.30626201629639,90.62282609939575,dot,[0.08],"[0.31457923939875737, -0.4122609730770665]",density,black,,,D001,visual,4,[],"['1', '2', '3', '4']",1,2023.2.3,harveyvisual,2.1,[],8,0.75,
0,pause,0.4,None,None,None,0,253,253,253,,,,,,,,,,,,,D001,visual,4,[],"['1', '2', '3', '4']",1,2023.2.3,harveyvisual,2.1,[],8,0.75,
1,dot,0.3,['dot'],['density'],black,0,254,254,254,,,91.3002119064331,91.00615906715393,91.32284998893738,dot,[0.1],"[-0.31757534052014, 0.30709612076893067]",density,black,,,D001,visual,4,[],"['1', '2', '3', '4']",1,2023.2.3,harveyvisual,2.1,[],8,0.75,
0,pause,0.4,None,None,None,0,255,255,255,,,,,,,,,,,,,D001,visual,4,[],"['1', '2', '3', '4']",1,2023.2.3,harveyvisual,2.1,[],8,0.75,
1,dot,0.3,['dot'],['density'],black,0,256,256,256,,,92.0002269744873,91.70616698265076,92.02281498908997,dot,[0.1],"[0.43730911014729085, 0.38068286015665653]",density,black,,,D001,visual,4,[],"['1', '2', '3', '4']",1,2023.2.3,harveyvisual,2.1,[],8,0.75,
0,pause,0.4,None,None,None,0,257,257,257,,,,,,,,,,,,,D001,visual,4,[],"['1', '2', '3', '4']",1,2023.2.3,harveyvisual,2.1,[],8,0.75,
1,dot,0.3,['dot'],['density'],black,0,258,258,258,,,92.70020890235901,92.40614199638367,92.72281193733215,dot,[0.1],"[-0.43105706563061386, -0.18359692062194616]",density,black,,,D001,visual,4,[],"['1', '2', '3', '4']",1,2023.2.3,harveyvisual,2.1,[],8,0.75,
0,pause,0.4,None,None,None,0,259,259,259,,,,,,,,,,,,,D001,visual,4,[],"['1', '2', '3', '4']",1,2023.2.3,harveyvisual,2.1,[],8,0.75,
1,dot,0.3,['dot'],['density'],black,0,260,260,260,,,93.40022397041321,93.10613989830017,93.42279291152954,dot,[0.08],"[-0.30422713965878023, 0.0739284850406325]",density,black,,,D001,visual,4,[],"['1', '2', '3', '4']",1,2023.2.3,harveyvisual,2.1,[],8,0.75,
0,pause,0.4,None,None,None,0,261,261,261,,,,,,,,,,,,,D001,visual,4,[],"['1', '2', '3', '4']",1,2023.2.3,harveyvisual,2.1,[],8,0.75,
1,dot,0.3,['dot'],['density'],black,0,262,262,262,,,94.10023093223572,93.8061249256134,94.12274193763733,dot,[0.08],"[-0.4913090862596544, 0.31587628757091063]",density,black,,,D001,visual,4,[],"['1', '2', '3', '4']",1,2023.2.3,harveyvisual,2.1,[],8,0.75,
0,pause,0.4,None,None,None,0,263,263,263,,,,,,,,,,,,,D001,visual,4,[],"['1', '2', '3', '4']",1,2023.2.3,harveyvisual,2.1,[],8,0.75,
20,dot,0.3,['dot'],['density'],black,0,264,264,264,,,94.80023694038391,94.52272295951843,94.82272696495056,dot,"[0.06, 0.08, 0.08, 0.1, 0.06, 0.08, 0.08, 0.06, 0.1, 0.08, 0.1, 0.1, 0.1, 0.08, 0.08, 0.1, 0.06, 0.08, 0.1, 0.06]","[[-0.3206399706311315, -0.36411776728447465], [0.40785982813244603, 0.21160572677073042], [-0.48951303283086367, -0.00015254119899271723], [0.5320202550317924, -0.1411491787769026], [-0.22680826942944277, -0.11166633782710383], [0.10073752654757451, -0.5851273377630879], [0.06335943560437529, 0.07840705449944307], [-0.016342863338993152, 0.49536240806521437], [-0.021439682845043162, -0.28160126506251715], [-0.2110997424498952, 0.13834380673075297], [0.32870836386869895, 0.38915005421894033], [0.38913363126124, -0.013162841790062718], [-0.37563486133696933, 0.4429562162454249], [0.3395039463371483, -0.40760601429553966], [0.1558100076693858, -0.1630346275129736], [-0.028589645193752622, 0.24985930292814762], [0.13686793493647675, 0.36831774027049], [-0.5587927962751678, -0.20877251275521705], [-0.5300899535021855, 0.19940778131850284], [-0.09196840407853746, -0.5845338282027032]]",density,black,,,D001,visual,4,[],"['1', '2', '3', '4']",1,2023.2.3,harveyvisual,2.1,[],8,0.75,
0,pause,0.4,None,None,None,0,265,265,265,,,,,,,,,,,,,D001,visual,4,[],"['1', '2', '3', '4']",1,2023.2.3,harveyvisual,2.1,[],8,0.75,
20,dot,0.3,['dot'],['density'],black,0,266,266,266,,,95.50021696090698,95.22274804115295,95.52271294593811,dot,"[0.06, 0.1, 0.08, 0.06, 0.08, 0.1, 0.08, 0.08, 0.06, 0.06, 0.08, 0.06, 0.1, 0.08, 0.1, 0.08, 0.06, 0.1, 0.06, 0.08]","[[0.48033276993777696, -0.01744741504031916], [0.5431200915389068, 0.16469343887180582], [-0.3902579115037084, 0.031676406083382846], [0.06259872178251236, -0.1523786231727623], [-0.4932803023774398, 0.31105029863084305], [-0.5003202486539082, -0.19505358434029516], [0.3057534681545808, -0.23897989992281687], [0.006890374087367701, 0.41502500182505175], [0.09496379699177693, -0.48719164592017095], [-0.10900993671307613, 0.024447144963522516], [-0.2988163130031026, -0.4787876841246306], [0.5752879507772349, -0.18228913352630524], [0.20394218594380675, -0.008947287366185441], [0.15064730442559948, 0.5809056376135665], [-0.152880505836419, -0.33646167109483105], [0.22948029981500517, 0.22271066937837924], [-0.1869702499141046, 0.2514199512280353], [-0.10354076081055519, -0.5841840783261639], [0.3326192988512059, 0.3911019070562025], [-0.578872941205813, 0.06890112104603874]]",density,black,,,D001,visual,4,[],"['1', '2', '3', '4']",1,2023.2.3,harveyvisual,2.1,[],8,0.75,
0,pause,0.4,None,None,None,0,267,267,267,,,,,,,,,,,,,D001,visual,4,[],"['1', '2', '3', '4']",1,2023.2.3,harveyvisual,2.1,[],8,0.75,
