num,mod,duration,shape,ll_cond,colors,.thisRepN,.thisTrialN,.thisN,.thisIndex,thisRow.t,notes,raw_global_time,t_start,t_stop,shapes,size,pos,cond,color,button,RT,participant,session,starting_run,left button (match/odd),right button (non-match/even),samples_per_block,psychopy version,expName,offset,audio,number_runs,radius,
1,dot,0.3,['dot'],['density'],black,0,0,0,0,,,2.400214195251465,2.1142570972442627,2.4141921997070312,dot,[0.1],"[-0.06064478149429028, 0.10204082006191012]",density,black,,,D001,visual,4,[],"['1', '2', '3', '4']",1,2023.2.3,harveyvisual,2.1,[],8,0.75,
0,pause,0.4,None,None,None,0,1,1,1,,,,,,,,,,,,,D001,visual,4,[],"['1', '2', '3', '4']",1,2023.2.3,harveyvisual,2.1,[],8,0.75,
1,dot,0.3,['dot'],['density'],black,0,2,2,2,,,3.100198984146118,2.8141841888427734,3.1142220497131348,dot,[0.1],"[0.31457923939875737, -0.4122609730770665]",density,black,,,D001,visual,4,[],"['1', '2', '3', '4']",1,2023.2.3,harveyvisual,2.1,[],8,0.75,
0,pause,0.4,None,None,None,0,3,3,3,,,,,,,,,,,,,D001,visual,4,[],"['1', '2', '3', '4']",1,2023.2.3,harveyvisual,2.1,[],8,0.75,
1,dot,0.3,['dot'],['density'],black,0,4,4,4,,,3.8001961708068848,3.514207124710083,3.814202070236206,dot,[0.08],"[-0.045934412585722416, -0.12236734128406912]",density,black,,,D001,visual,4,[],"['1', '2', '3', '4']",1,2023.2.3,harveyvisual,2.1,[],8,0.75,
0,pause,0.4,None,None,None,0,5,5,5,,,,,,,,,,,,,D001,visual,4,[],"['1', '2', '3', '4']",1,2023.2.3,harveyvisual,2.1,[],8,0.75,
1,dot,0.3,['dot'],['density'],black,0,6,6,6,,,4.500207185745239,4.214629173278809,4.514747142791748,dot,[0.08],"[0.1600937909388646, -0.5041032805904762]",density,black,,,D001,visual,4,[],"['1', '2', '3', '4']",1,2023.2.3,harveyvisual,2.1,[],8,0.75,
0,pause,0.4,None,None,None,0,7,7,7,,,,,,,,,,,,,D001,visual,4,[],"['1', '2', '3', '4']",1,2023.2.3,harveyvisual,2.1,[],8,0.75,
1,dot,0.3,['dot'],['density'],white,0,8,8,8,,,5.200213193893433,4.914738178253174,5.215046167373657,dot,[0.06],"[-0.4913090862596544, 0.31587628757091063]",density,white,,,D001,visual,4,[],"['1', '2', '3', '4']",1,2023.2.3,harveyvisual,2.1,[],8,0.75,
0,pause,0.4,None,None,None,0,9,9,9,,,,,,,,,,,1,5.072038173675537,D001,visual,4,[],"['1', '2', '3', '4']",1,2023.2.3,harveyvisual,2.1,[],8,0.75,
1,dot,0.3,['dot'],['density'],black,0,10,10,10,,,5.900212049484253,5.61466908454895,5.914679050445557,dot,[0.06],"[0.5286010678554951, -0.2554598500704326]",density,black,,,D001,visual,4,[],"['1', '2', '3', '4']",1,2023.2.3,harveyvisual,2.1,[],8,0.75,
0,pause,0.4,None,None,None,0,11,11,11,,,,,,,,,,,,,D001,visual,4,[],"['1', '2', '3', '4']",1,2023.2.3,harveyvisual,2.1,[],8,0.75,
2,dot,0.3,['dot'],['density'],black,0,12,12,12,,,6.600196123123169,6.314993143081665,6.615317106246948,dot,"[0.1, 0.1]","[[0.11437717294043931, -0.408092871188616], [0.012734947149558614, -0.23578585574018435]]",density,black,,,D001,visual,4,[],"['1', '2', '3', '4']",1,2023.2.3,harveyvisual,2.1,[],8,0.75,
0,pause,0.4,None,None,None,0,13,13,13,,,,,,,,,,,,,D001,visual,4,[],"['1', '2', '3', '4']",1,2023.2.3,harveyvisual,2.1,[],8,0.75,
2,dot,0.3,['dot'],['density'],black,0,14,14,14,,,7.300206184387207,7.016808032989502,7.319067001342773,dot,"[0.08, 0.1]","[[0.4298854344354601, 0.24556028782034023], [0.23727674624932948, 0.18886586315459258]]",density,black,,,D001,visual,4,[],"['1', '2', '3', '4']",1,2023.2.3,harveyvisual,2.1,[],8,0.75,
0,pause,0.4,None,None,None,0,15,15,15,,,,,,,,,,,,,D001,visual,4,[],"['1', '2', '3', '4']",1,2023.2.3,harveyvisual,2.1,[],8,0.75,
2,dot,0.3,['dot'],['density'],black,0,16,16,16,,,8.000197172164917,7.716790199279785,8.016754150390625,dot,"[0.08, 0.06]","[[0.21195259569903124, -0.4986433684978455], [0.023877440871594643, -0.42921284787985464]]",density,black,,,D001,visual,4,[],"['1', '2', '3', '4']",1,2023.2.3,harveyvisual,2.1,[],8,0.75,
0,pause,0.4,None,None,None,0,17,17,17,,,,,,,,,,,,,D001,visual,4,[],"['1', '2', '3', '4']",1,2023.2.3,harveyvisual,2.1,[],8,0.75,
2,dot,0.3,['dot'],['density'],black,0,18,18,18,,,8.700199127197266,8.416771173477173,8.716760158538818,dot,"[0.1, 0.08]","[[0.500151128333041, 0.1656925720118866], [0.3771979967144504, 0.3235340638115745]]",density,black,,,D001,visual,4,[],"['1', '2', '3', '4']",1,2023.2.3,harveyvisual,2.1,[],8,0.75,
0,pause,0.4,None,None,None,0,19,19,19,,,,,,,,,,,,,D001,visual,4,[],"['1', '2', '3', '4']",1,2023.2.3,harveyvisual,2.1,[],8,0.75,
2,dot,0.3,['dot'],['density'],black,0,20,20,20,,,9.400207042694092,9.117801189422607,9.416707038879395,dot,"[0.08, 0.1]","[[0.1652621768884792, -0.40183218801656556], [-0.03337249546828684, -0.4281924369736378]]",density,black,,,D001,visual,4,[],"['1', '2', '3', '4']",1,2023.2.3,harveyvisual,2.1,[],8,0.75,
0,pause,0.4,None,None,None,0,21,21,21,,,,,,,,,,,,,D001,visual,4,[],"['1', '2', '3', '4']",1,2023.2.3,harveyvisual,2.1,[],8,0.75,
2,dot,0.3,['dot'],['density'],black,0,22,22,22,,,10.100200176239014,9.816853046417236,10.118128061294556,dot,"[0.06, 0.06]","[[0.19540278997321237, -0.319457995891214], [0.34462774624387493, -0.4544903302695001]]",density,black,,,D001,visual,4,[],"['1', '2', '3', '4']",1,2023.2.3,harveyvisual,2.1,[],8,0.75,
0,pause,0.4,None,None,None,0,23,23,23,,,,,,,,,,,,,D001,visual,4,[],"['1', '2', '3', '4']",1,2023.2.3,harveyvisual,2.1,[],8,0.75,
3,dot,0.3,['dot'],['density'],black,0,24,24,24,,,10.800215005874634,10.517742156982422,10.816833019256592,dot,"[0.08, 0.08, 0.06]","[[0.5267872668145167, -0.16137547842759675], [0.3420119191573968, -0.036920749927643534], [0.3185462880061428, -0.2399114968218526]]",density,black,,,D001,visual,4,[],"['1', '2', '3', '4']",1,2023.2.3,harveyvisual,2.1,[],8,0.75,
0,pause,0.4,None,None,None,0,25,25,25,,,,,,,,,,,,,D001,visual,4,[],"['1', '2', '3', '4']",1,2023.2.3,harveyvisual,2.1,[],8,0.75,
3,dot,0.3,['dot'],['density'],black,0,26,26,26,,,11.500217199325562,11.21678113937378,11.516789197921753,dot,"[0.1, 0.06, 0.08]","[[-0.32624451712468355, -0.43854848545497693], [-0.39409142490376414, -0.22516425170789148], [-0.152352104904091, -0.33204091051628687]]",density,black,,,D001,visual,4,[],"['1', '2', '3', '4']",1,2023.2.3,harveyvisual,2.1,[],8,0.75,
0,pause,0.4,None,None,None,0,27,27,27,,,,,,,,,,,,,D001,visual,4,[],"['1', '2', '3', '4']",1,2023.2.3,harveyvisual,2.1,[],8,0.75,
3,dot,0.3,['dot'],['density'],black,0,28,28,28,,,12.200192213058472,11.916797161102295,12.216755151748657,dot,"[0.1, 0.06, 0.08]","[[0.5383732683216915, 0.24050044654635605], [0.337973319445641, 0.36292363064724675], [0.3422154310588786, 0.14570949010333048]]",density,black,,,D001,visual,4,[],"['1', '2', '3', '4']",1,2023.2.3,harveyvisual,2.1,[],8,0.75,
0,pause,0.4,None,None,None,0,29,29,29,,,,,,,,,,,,,D001,visual,4,[],"['1', '2', '3', '4']",1,2023.2.3,harveyvisual,2.1,[],8,0.75,
3,dot,0.3,['dot'],['density'],black,0,30,30,30,,,12.900196075439453,12.616786003112793,12.91676115989685,dot,"[0.08, 0.08, 0.06]","[[-0.476501853024302, 0.3110516410681161], [-0.26865065753742645, 0.4732574608261889], [-0.2772428868380306, 0.2516539537451065]]",density,black,,,D001,visual,4,[],"['1', '2', '3', '4']",1,2023.2.3,harveyvisual,2.1,[],8,0.75,
0,pause,0.4,None,None,None,0,31,31,31,,,,,,,,,,,,,D001,visual,4,[],"['1', '2', '3', '4']",1,2023.2.3,harveyvisual,2.1,[],8,0.75,
3,dot,0.3,['dot'],['density'],white,0,32,32,32,,,13.600195169448853,13.316739082336426,13.6167151927948,dot,"[0.1, 0.1, 0.08]","[[-0.3082868261871679, -0.3137599619928766], [-0.14816041357862977, -0.19371393562593295], [-0.35304767783039576, -0.10610354059871957]]",density,white,,,D001,visual,4,[],"['1', '2', '3', '4']",1,2023.2.3,harveyvisual,2.1,[],8,0.75,
0,pause,0.4,None,None,None,0,33,33,33,,,,,,,,,,,1,13.332799196243286,D001,visual,4,[],"['1', '2', '3', '4']",1,2023.2.3,harveyvisual,2.1,[],8,0.75,
3,dot,0.3,['dot'],['density'],black,0,34,34,34,,,14.300206184387207,14.016714096069336,14.316703081130981,dot,"[0.08, 0.06, 0.06]","[[0.5383732683216915, 0.24050044654635605], [0.337973319445641, 0.36292363064724675], [0.3422154310588786, 0.14570949010333048]]",density,black,,,D001,visual,4,[],"['1', '2', '3', '4']",1,2023.2.3,harveyvisual,2.1,[],8,0.75,
0,pause,0.4,None,None,None,0,35,35,35,,,,,,,,,,,,,D001,visual,4,[],"['1', '2', '3', '4']",1,2023.2.3,harveyvisual,2.1,[],8,0.75,
4,dot,0.3,['dot'],['density'],black,0,36,36,36,,,15.00021505355835,14.716734170913696,15.016686201095581,dot,"[0.06, 0.1, 0.1, 0.06]","[[0.012521055699324385, 0.11356654047594222], [0.23234191260135498, 0.08597184236642744], [-0.1711309036876675, 0.020891973622313913], [0.11376048882462075, -0.09104804463782627]]",density,black,,,D001,visual,4,[],"['1', '2', '3', '4']",1,2023.2.3,harveyvisual,2.1,[],8,0.75,
0,pause,0.4,None,None,None,0,37,37,37,,,,,,,,,,,,,D001,visual,4,[],"['1', '2', '3', '4']",1,2023.2.3,harveyvisual,2.1,[],8,0.75,
4,dot,0.3,['dot'],['density'],black,0,38,38,38,,,15.700216054916382,15.417749166488647,15.716665983200073,dot,"[0.1, 0.08, 0.08, 0.1]","[[-0.4116264312708952, 0.16775371224632304], [-0.5618780911112883, -0.04134114392370045], [-0.3363713887364365, -0.04915619770205748], [-0.48212301157369764, -0.2249233832905235]]",density,black,,,D001,visual,4,[],"['1', '2', '3', '4']",1,2023.2.3,harveyvisual,2.1,[],8,0.75,
0,pause,0.4,None,None,None,0,39,39,39,,,,,,,,,,,,,D001,visual,4,[],"['1', '2', '3', '4']",1,2023.2.3,harveyvisual,2.1,[],8,0.75,
4,dot,0.3,['dot'],['density'],black,0,40,40,40,,,16.400207042694092,16.116669178009033,16.41664719581604,dot,"[0.1, 0.1, 0.1, 0.1]","[[-0.4771446773377139, 0.25157103962592786], [-0.4259846000875058, -0.15982147080050188], [-0.5514119563937664, 0.017569371675289724], [-0.3400083930451492, 0.09263869595453958]]",density,black,,,D001,visual,4,[],"['1', '2', '3', '4']",1,2023.2.3,harveyvisual,2.1,[],8,0.75,
0,pause,0.4,None,None,None,0,41,41,41,,,,,,,,,,,,,D001,visual,4,[],"['1', '2', '3', '4']",1,2023.2.3,harveyvisual,2.1,[],8,0.75,
4,dot,0.3,['dot'],['density'],black,0,42,42,42,,,17.10019612312317,16.816671133041382,17.116634130477905,dot,"[0.06, 0.06, 0.08, 0.06]","[[0.28769160010247724, 0.4706884012140322], [0.03735362687931127, 0.4645781312677133], [0.33102019499247487, 0.1847810932959147], [0.1685132699603264, 0.30497059043407926]]",density,black,,,D001,visual,4,[],"['1', '2', '3', '4']",1,2023.2.3,harveyvisual,2.1,[],8,0.75,
0,pause,0.4,None,None,None,0,43,43,43,,,,,,,,,,,,,D001,visual,4,[],"['1', '2', '3', '4']",1,2023.2.3,harveyvisual,2.1,[],8,0.75,
4,dot,0.3,['dot'],['density'],white,0,44,44,44,,,17.800215005874634,17.516661167144775,17.816652059555054,dot,"[0.08, 0.06, 0.06, 0.08]","[[-0.264878088602857, 0.22906395790450432], [0.07239228809704809, 0.2615492699427171], [0.10034738543262733, 0.4676118263175188], [-0.09637524959065707, 0.3769302803343899]]",density,white,,,D001,visual,4,[],"['1', '2', '3', '4']",1,2023.2.3,harveyvisual,2.1,[],8,0.75,
0,pause,0.4,None,None,None,0,45,45,45,,,,,,,,,,,1,17.607365131378174,D001,visual,4,[],"['1', '2', '3', '4']",1,2023.2.3,harveyvisual,2.1,[],8,0.75,
4,dot,0.3,['dot'],['density'],black,0,46,46,46,,,18.50021719932556,18.217727184295654,18.516674041748047,dot,"[0.08, 0.1, 0.1, 0.1]","[[-0.5372831058023291, 0.07679305146548565], [-0.47746952625478134, -0.11455356156484316], [-0.2888199447118168, 0.02804534169422597], [-0.3317661241759115, -0.2533775510137967]]",density,black,,,D001,visual,4,[],"['1', '2', '3', '4']",1,2023.2.3,harveyvisual,2.1,[],8,0.75,
0,pause,0.4,None,None,None,0,47,47,47,,,,,,,,,,,,,D001,visual,4,[],"['1', '2', '3', '4']",1,2023.2.3,harveyvisual,2.1,[],8,0.75,
5,dot,0.3,['dot'],['density'],black,0,48,48,48,,,19.200194120407104,18.917160987854004,19.219593048095703,dot,"[0.08, 0.08, 0.08, 0.06, 0.06]","[[-0.08906257038347729, 0.3326351968500321], [0.2173987091792188, 0.026220721131276364], [0.07996259445097068, 0.4821024141609844], [0.14345365083950706, 0.2501481494916038], [-0.03323208063638199, 0.08804517681276208]]",density,black,,,D001,visual,4,[],"['1', '2', '3', '4']",1,2023.2.3,harveyvisual,2.1,[],8,0.75,
0,pause,0.4,None,None,None,0,49,49,49,,,,,,,,,,,,,D001,visual,4,[],"['1', '2', '3', '4']",1,2023.2.3,harveyvisual,2.1,[],8,0.75,
5,dot,0.3,['dot'],['density'],black,0,50,50,50,,,19.900209188461304,19.616618156433105,19.916606187820435,dot,"[0.06, 0.08, 0.06, 0.08, 0.06]","[[0.4409169755572007, 0.017856988789309493], [0.10933872532765951, -0.20637645515835812], [0.27728831588229885, 0.198954967346464], [0.3100556643305453, -0.16532657838491105], [0.11148968869271939, 0.006469487304542018]]",density,black,,,D001,visual,4,[],"['1', '2', '3', '4']",1,2023.2.3,harveyvisual,2.1,[],8,0.75,
0,pause,0.4,None,None,None,0,51,51,51,,,,,,,,,,,,,D001,visual,4,[],"['1', '2', '3', '4']",1,2023.2.3,harveyvisual,2.1,[],8,0.75,
5,dot,0.3,['dot'],['density'],black,0,52,52,52,,,20.600195169448853,20.316582202911377,20.617048025131226,dot,"[0.06, 0.06, 0.08, 0.08, 0.06]","[[0.10558973120531606, -0.20428866875977839], [-0.0893225412758366, 0.16524926947551877], [-0.05793580974794309, -0.07826743033729393], [0.11130747138107101, 0.10875249109580729], [0.28035132100960686, -0.09064984251937742]]",density,black,,,D001,visual,4,[],"['1', '2', '3', '4']",1,2023.2.3,harveyvisual,2.1,[],8,0.75,
0,pause,0.4,None,None,None,0,53,53,53,,,,,,,,,,,,,D001,visual,4,[],"['1', '2', '3', '4']",1,2023.2.3,harveyvisual,2.1,[],8,0.75,
5,dot,0.3,['dot'],['density'],black,0,54,54,54,,,21.300204038619995,21.01658821105957,21.316527128219604,dot,"[0.08, 0.08, 0.08, 0.08, 0.06]","[[-0.082153098152829, -0.06894165798345762], [0.016766770742065788, -0.42680196676869325], [0.2961099764235258, -0.14925166127785872], [-0.1456021726000032, -0.26669195071034546], [0.10213220283607832, -0.23321095001989858]]",density,black,,,D001,visual,4,[],"['1', '2', '3', '4']",1,2023.2.3,harveyvisual,2.1,[],8,0.75,
0,pause,0.4,None,None,None,0,55,55,55,,,,,,,,,,,,,D001,visual,4,[],"['1', '2', '3', '4']",1,2023.2.3,harveyvisual,2.1,[],8,0.75,
5,dot,0.3,['dot'],['density'],black,0,56,56,56,,,22.000213146209717,21.71659517288208,22.01655101776123,dot,"[0.08, 0.1, 0.06, 0.1, 0.06]","[[-0.11834215492801986, 0.412508379109845], [0.31881799646300274, 0.30859303438359803], [-0.06368743078099719, 0.10105058071702504], [0.1133485112468387, 0.46262203184429457], [0.11957051434631445, 0.24197418837926052]]",density,black,,,D001,visual,4,[],"['1', '2', '3', '4']",1,2023.2.3,harveyvisual,2.1,[],8,0.75,
0,pause,0.4,None,None,None,0,57,57,57,,,,,,,,,,,,,D001,visual,4,[],"['1', '2', '3', '4']",1,2023.2.3,harveyvisual,2.1,[],8,0.75,
5,dot,0.3,['dot'],['density'],black,0,58,58,58,,,22.70021104812622,22.419175148010254,22.716544151306152,dot,"[0.1, 0.06, 0.1, 0.08, 0.1]","[[-0.3593586909609717, -0.014123405231526708], [-0.016214713675271986, 0.25764317450247104], [-0.14180258575993823, 0.0328893580167688], [-0.4739301778776912, 0.15719809156630632], [-0.2718601341595813, 0.23222304362681612]]",density,black,,,D001,visual,4,[],"['1', '2', '3', '4']",1,2023.2.3,harveyvisual,2.1,[],8,0.75,
0,pause,0.4,None,None,None,0,59,59,59,,,,,,,,,,,,,D001,visual,4,[],"['1', '2', '3', '4']",1,2023.2.3,harveyvisual,2.1,[],8,0.75,
6,dot,0.3,['dot'],['density'],black,0,60,60,60,,,23.400206089019775,23.11876606941223,23.417620182037354,dot,"[0.1, 0.08, 0.1, 0.06, 0.08, 0.06]","[[0.2333794889108542, 0.5108688068097712], [0.17720399199515413, 0.06488002481085814], [0.3526024925964592, 0.16961020277143707], [0.1596713132306006, 0.321837067503818], [0.0007438407140586783, 0.18344495120876914], [0.42757463853404776, 0.37786691715169374]]",density,black,,,D001,visual,4,[],"['1', '2', '3', '4']",1,2023.2.3,harveyvisual,2.1,[],8,0.75,
0,pause,0.4,None,None,None,0,61,61,61,,,,,,,,,,,,,D001,visual,4,[],"['1', '2', '3', '4']",1,2023.2.3,harveyvisual,2.1,[],8,0.75,
6,dot,0.3,['dot'],['density'],white,0,62,62,62,,,24.100218057632446,23.81647801399231,24.118977069854736,dot,"[0.1, 0.1, 0.08, 0.08, 0.1, 0.1]","[[0.3299424372810393, 0.4114780133894161], [0.051944887288218326, -0.03233758374135307], [0.4337222981537534, -0.07578498258626121], [0.10477943773033714, 0.1703675017914044], [0.3400878522727408, 0.20016066552806494], [0.2510029109880425, 0.01747244452819591]]",density,white,,,D001,visual,4,[],"['1', '2', '3', '4']",1,2023.2.3,harveyvisual,2.1,[],8,0.75,
0,pause,0.4,None,None,None,0,63,63,63,,,,,,,,,,,1,23.912098169326782,D001,visual,4,[],"['1', '2', '3', '4']",1,2023.2.3,harveyvisual,2.1,[],8,0.75,
6,dot,0.3,['dot'],['density'],black,0,64,64,64,,,24.80019521713257,24.51655101776123,24.816522121429443,dot,"[0.1, 0.1, 0.06, 0.08, 0.1, 0.06]","[[0.4536033237290603, -0.10703390074252807], [0.4090862681261178, 0.14156446515860444], [0.3446070222150913, -0.333203595144996], [0.1541486512624917, 0.13839280063469406], [0.16833114318264894, -0.23068973514796048], [0.2520001164899556, -0.04323865486760776]]",density,black,,,D001,visual,4,[],"['1', '2', '3', '4']",1,2023.2.3,harveyvisual,2.1,[],8,0.75,
0,pause,0.4,None,None,None,0,65,65,65,,,,,,,,,,,,,D001,visual,4,[],"['1', '2', '3', '4']",1,2023.2.3,harveyvisual,2.1,[],8,0.75,
6,dot,0.3,['dot'],['density'],black,0,66,66,66,,,25.500205039978027,25.218278169631958,25.516525983810425,dot,"[0.08, 0.06, 0.08, 0.06, 0.1, 0.08]","[[-0.560843418842529, -0.11752527585456686], [-0.31277608783648175, 0.04003545118838376], [-0.18207900664359264, -0.3652956678781814], [-0.41442909117718774, -0.4038021739217259], [-0.14446849917993246, -0.07035639226176245], [-0.3420415871796019, -0.1631057353810994]]",density,black,,,D001,visual,4,[],"['1', '2', '3', '4']",1,2023.2.3,harveyvisual,2.1,[],8,0.75,
0,pause,0.4,None,None,None,0,67,67,67,,,,,,,,,,,,,D001,visual,4,[],"['1', '2', '3', '4']",1,2023.2.3,harveyvisual,2.1,[],8,0.75,
6,dot,0.3,['dot'],['density'],white,0,68,68,68,,,26.200221061706543,25.917428016662598,26.216423988342285,dot,"[0.08, 0.1, 0.08, 0.08, 0.06, 0.06]","[[-0.12151555870586603, -0.4812968000001843], [0.16790488833295267, -0.2471088416996458], [0.27214716196035416, -0.49820278546509117], [-0.038147587524033764, -0.29309333197091036], [0.014949188681413147, -0.08915939926713055], [0.06798063624072649, -0.5852336971646088]]",density,white,,,D001,visual,4,[],"['1', '2', '3', '4']",1,2023.2.3,harveyvisual,2.1,[],8,0.75,
0,pause,0.4,None,None,None,0,69,69,69,,,,,,,,,,,1,26.03932213783264,D001,visual,4,[],"['1', '2', '3', '4']",1,2023.2.3,harveyvisual,2.1,[],8,0.75,
6,dot,0.3,['dot'],['density'],black,0,70,70,70,,,26.900200128555298,26.616425037384033,26.916429042816162,dot,"[0.06, 0.08, 0.06, 0.06, 0.08, 0.06]","[[0.4536033237290603, -0.10703390074252807], [0.4090862681261178, 0.14156446515860444], [0.3446070222150913, -0.333203595144996], [0.1541486512624917, 0.13839280063469406], [0.16833114318264894, -0.23068973514796048], [0.2520001164899556, -0.04323865486760776]]",density,black,,,D001,visual,4,[],"['1', '2', '3', '4']",1,2023.2.3,harveyvisual,2.1,[],8,0.75,
0,pause,0.4,None,None,None,0,71,71,71,,,,,,,,,,,,,D001,visual,4,[],"['1', '2', '3', '4']",1,2023.2.3,harveyvisual,2.1,[],8,0.75,
7,dot,0.3,['dot'],['density'],black,0,72,72,72,,,27.600213050842285,27.317355155944824,27.617509126663208,dot,"[0.08, 0.08, 0.1, 0.1, 0.06, 0.08, 0.1]","[[0.3032073476866497, 0.39528308644852606], [0.12977480624643314, 0.5338553612741447], [-0.07830532742558233, 0.5277294273979773], [0.000705909343175084, 0.04538848857330666], [-0.11442247498636825, 0.3203087976624053], [0.11424952152856681, 0.31372813630522095], [0.2743618672110132, 0.19233036806743029]]",density,black,,,D001,visual,4,[],"['1', '2', '3', '4']",1,2023.2.3,harveyvisual,2.1,[],8,0.75,
0,pause,0.4,None,None,None,0,73,73,73,,,,,,,,,,,,,D001,visual,4,[],"['1', '2', '3', '4']",1,2023.2.3,harveyvisual,2.1,[],8,0.75,
7,dot,0.3,['dot'],['density'],black,0,74,74,74,,,28.30019998550415,28.016447067260742,28.316431999206543,dot,"[0.06, 0.1, 0.1, 0.1, 0.08, 0.1, 0.06]","[[0.06935229908748385, 0.4911641494940837], [-0.19266199922505295, 0.07836852906048222], [0.055274369019684175, 0.020452523162812593], [0.26239471350362015, 0.1001529216481179], [-0.06036973858781391, 0.3360513952533211], [-0.2638544135394649, 0.29089327984911306], [0.14813816713374972, 0.28344041791591096]]",density,black,,,D001,visual,4,[],"['1', '2', '3', '4']",1,2023.2.3,harveyvisual,2.1,[],8,0.75,
0,pause,0.4,None,None,None,0,75,75,75,,,,,,,,,,,,,D001,visual,4,[],"['1', '2', '3', '4']",1,2023.2.3,harveyvisual,2.1,[],8,0.75,
7,dot,0.3,['dot'],['density'],black,0,76,76,76,,,29.000214099884033,28.718419075012207,29.016346216201782,dot,"[0.1, 0.06, 0.1, 0.1, 0.1, 0.1, 0.06]","[[-0.026372969700101213, 0.05085620782211805], [-0.16304282038196347, -0.3616501386780019], [-0.013762327205412121, -0.14910430285435466], [0.14729449770710015, -0.3647544547161306], [-0.22494517313234175, -0.12035103032643314], [-0.36514670174418407, -0.33057163197754225], [0.21417125919861074, -0.06627923590771367]]",density,black,,,D001,visual,4,[],"['1', '2', '3', '4']",1,2023.2.3,harveyvisual,2.1,[],8,0.75,
0,pause,0.4,None,None,None,0,77,77,77,,,,,,,,,,,,,D001,visual,4,[],"['1', '2', '3', '4']",1,2023.2.3,harveyvisual,2.1,[],8,0.75,
7,dot,0.3,['dot'],['density'],black,0,78,78,78,,,29.700213193893433,29.416340112686157,29.718135118484497,dot,"[0.1, 0.06, 0.08, 0.08, 0.06, 0.08, 0.1]","[[-0.23895008888738212, 0.05027357720500052], [0.04847041368780161, 0.3376116924566045], [0.007425979130163878, -0.07582657330311053], [-0.16109724709992976, 0.33554312732420544], [-0.17199436159673825, -0.1887904434853683], [0.1858169564317131, 0.14031933770952934], [-0.038655615351801086, 0.15226176997737048]]",density,black,,,D001,visual,4,[],"['1', '2', '3', '4']",1,2023.2.3,harveyvisual,2.1,[],8,0.75,
0,pause,0.4,None,None,None,0,79,79,79,,,,,,,,,,,,,D001,visual,4,[],"['1', '2', '3', '4']",1,2023.2.3,harveyvisual,2.1,[],8,0.75,
7,dot,0.3,['dot'],['density'],black,0,80,80,80,,,30.40021800994873,30.116322994232178,30.417217016220093,dot,"[0.08, 0.08, 0.1, 0.1, 0.08, 0.1, 0.06]","[[0.2037857981676222, -0.1815971672986122], [0.4890839798603071, 0.25295445478885614], [0.1294833597440532, 0.050421522491765555], [0.5249724357971474, 0.014331621614536631], [0.4084294087299191, -0.1546943519977724], [0.31356179590401956, 0.13415696527685209], [-0.016262925640377804, -0.1588315022511765]]",density,black,,,D001,visual,4,[],"['1', '2', '3', '4']",1,2023.2.3,harveyvisual,2.1,[],8,0.75,
0,pause,0.4,None,None,None,0,81,81,81,,,,,,,,,,,,,D001,visual,4,[],"['1', '2', '3', '4']",1,2023.2.3,harveyvisual,2.1,[],8,0.75,
7,dot,0.3,['dot'],['density'],black,0,82,82,82,,,31.100208044052124,30.816307067871094,31.117425203323364,dot,"[0.1, 0.08, 0.08, 0.1, 0.08, 0.1, 0.08]","[[-0.2822174821233986, 0.002117056236134186], [-0.10673242512413421, 0.4781556216085482], [-0.18432519539246728, 0.19072201575640843], [-0.4524596318479574, 0.13966285650530724], [0.06907010423411483, 0.2912708813513049], [-0.07412436007020941, -0.021022205933558278], [-0.3208835015251209, 0.3986768431743725]]",density,black,,,D001,visual,4,[],"['1', '2', '3', '4']",1,2023.2.3,harveyvisual,2.1,[],8,0.75,
0,pause,0.4,None,None,None,0,83,83,83,,,,,,,,,,,,,D001,visual,4,[],"['1', '2', '3', '4']",1,2023.2.3,harveyvisual,2.1,[],8,0.75,
8,dot,0.3,['dot'],['density'],black,0,84,84,84,,,31.800217151641846,31.51634120941162,31.81632709503174,dot,"[0.1, 0.08, 0.08, 0.06, 0.06, 0.06, 0.06, 0.08]","[[-0.2395708272612018, -0.3613018167456044], [-0.39529086986423073, -0.13116056396528103], [0.016143118738118, -0.3000453801144436], [-0.10247857353615338, 0.12176090555598315], [0.11784264820349834, -0.12422453235794288], [-0.1468533202112338, -0.18280007972172757], [-0.31504288856899026, 0.06147683711297207], [0.2614313121475242, -0.33215718180641224]]",density,black,,,D001,visual,4,[],"['1', '2', '3', '4']",1,2023.2.3,harveyvisual,2.1,[],8,0.75,
0,pause,0.4,None,None,None,0,85,85,85,,,,,,,,,,,,,D001,visual,4,[],"['1', '2', '3', '4']",1,2023.2.3,harveyvisual,2.1,[],8,0.75,
8,dot,0.3,['dot'],['density'],white,0,86,86,86,,,32.50021409988403,32.21629500389099,32.517399072647095,dot,"[0.1, 0.06, 0.06, 0.1, 0.06, 0.08, 0.1, 0.08]","[[-0.0012777187897950197, 0.3966007492927722], [-0.28447363834021117, 0.3159852715582059], [0.19942587273623266, 0.5530929527666414], [0.21318140018031628, 0.35154814550636243], [0.2022184519229619, 0.1402347591191321], [-0.03399167273692697, 0.18426518172063944], [0.09045107803968953, -0.0428478536761596], [-0.13826990130262626, -0.021750669296841257]]",density,white,,,D001,visual,4,[],"['1', '2', '3', '4']",1,2023.2.3,harveyvisual,2.1,[],8,0.75,
0,pause,0.4,None,None,None,0,87,87,87,,,,,,,,,,,1,32.24810600280762,D001,visual,4,[],"['1', '2', '3', '4']",1,2023.2.3,harveyvisual,2.1,[],8,0.75,
8,dot,0.3,['dot'],['density'],black,0,88,88,88,,,33.2002010345459,32.91628313064575,33.2162721157074,dot,"[0.06, 0.08, 0.1, 0.06, 0.08, 0.1, 0.08, 0.06]","[[-0.20800618360187478, -0.297823595680997], [0.0208603014005115, -0.46570844314230314], [-0.33947416747489917, -0.46414587466331364], [-0.2657502487478435, -0.0024929956194721667], [-0.07971030345085922, -0.1368829558420488], [0.12327021606192319, -0.12614842517591618], [-0.10944837079043952, 0.12795643756026515], [-0.4050023469846894, -0.16101207847090707]]",density,black,,,D001,visual,4,[],"['1', '2', '3', '4']",1,2023.2.3,harveyvisual,2.1,[],8,0.75,
0,pause,0.4,None,None,None,0,89,89,89,,,,,,,,,,,,,D001,visual,4,[],"['1', '2', '3', '4']",1,2023.2.3,harveyvisual,2.1,[],8,0.75,
8,dot,0.3,['dot'],['density'],black,0,90,90,90,,,33.90021109580994,33.616260051727295,33.916258096694946,dot,"[0.08, 0.08, 0.06, 0.1, 0.08, 0.08, 0.06, 0.06]","[[-0.17001050475317317, -0.17367687575201368], [0.3600613666554234, 0.010096468830953859], [-0.08326222131596324, 0.04242117989324811], [0.04296950773068638, 0.29875887990525135], [0.04919814700692566, -0.23206276490508926], [0.2733682510361541, 0.19343137942482672], [0.15974695196996483, -0.02827404827190698], [-0.2919014881818027, 0.0006738684867251376]]",density,black,,,D001,visual,4,[],"['1', '2', '3', '4']",1,2023.2.3,harveyvisual,2.1,[],8,0.75,
0,pause,0.4,None,None,None,0,91,91,91,,,,,,,,,,,,,D001,visual,4,[],"['1', '2', '3', '4']",1,2023.2.3,harveyvisual,2.1,[],8,0.75,
8,dot,0.3,['dot'],['density'],black,0,92,92,92,,,34.60019898414612,34.31627011299133,34.61748909950256,dot,"[0.06, 0.06, 0.06, 0.06, 0.06, 0.1, 0.06, 0.08]","[[-0.503192831713878, 0.2818759502405315], [-0.1851508851951268, 0.5121570681976513], [-0.3428391331654375, 0.06336275884690255], [-0.2620893383019587, 0.2653373399092269], [-0.09201493982796581, 0.138249408295409], [-0.14188251758679749, -0.08598668861617832], [-0.5391716430792404, 0.01870596234549803], [-0.2779852747659758, -0.23950462846526258]]",density,black,,,D001,visual,4,[],"['1', '2', '3', '4']",1,2023.2.3,harveyvisual,2.1,[],8,0.75,
0,pause,0.4,None,None,None,0,93,93,93,,,,,,,,,,,,,D001,visual,4,[],"['1', '2', '3', '4']",1,2023.2.3,harveyvisual,2.1,[],8,0.75,
8,dot,0.3,['dot'],['density'],black,0,94,94,94,,,35.30021619796753,35.016239166259766,35.318634033203125,dot,"[0.08, 0.1, 0.08, 0.08, 0.08, 0.06, 0.06, 0.1]","[[0.4359105889063985, -0.17362457700912998], [-0.10421753759268779, -0.0599030042764737], [0.3870326705858601, 0.24174009796940588], [0.2566713073165989, 0.014561377540278508], [0.2306797840234149, -0.3263374489921181], [0.47690301692068965, 0.04601699051563034], [0.08674944532705724, -0.15383855565976665], [0.03609124925759635, 0.09790267139194009]]",density,black,,,D001,visual,4,[],"['1', '2', '3', '4']",1,2023.2.3,harveyvisual,2.1,[],8,0.75,
0,pause,0.4,None,None,None,0,95,95,95,,,,,,,,,,,,,D001,visual,4,[],"['1', '2', '3', '4']",1,2023.2.3,harveyvisual,2.1,[],8,0.75,
9,dot,0.3,['dot'],['density'],black,0,96,96,96,,,36.00019907951355,35.717175006866455,36.016247034072876,dot,"[0.08, 0.1, 0.1, 0.1, 0.06, 0.06, 0.1, 0.08, 0.08]","[[-0.4219467838066047, -0.18114019941065054], [-0.2081543488995217, -0.4860059455967178], [-0.008274735502094755, -0.3457533902190916], [0.02376323820852766, -0.0891001390581758], [-0.4116277839025775, 0.058108040724694845], [-0.18144554169200455, -0.05292133149533743], [0.21944315682242976, -0.26450239569476724], [0.11466821484809545, 0.13327019789913197], [-0.2288148866166432, -0.2599929378926301]]",density,black,,,D001,visual,4,[],"['1', '2', '3', '4']",1,2023.2.3,harveyvisual,2.1,[],8,0.75,
0,pause,0.4,None,None,None,0,97,97,97,,,,,,,,,,,,,D001,visual,4,[],"['1', '2', '3', '4']",1,2023.2.3,harveyvisual,2.1,[],8,0.75,
9,dot,0.3,['dot'],['density'],black,0,98,98,98,,,36.70020318031311,36.416237115859985,36.71618413925171,dot,"[0.06, 0.08, 0.1, 0.06, 0.08, 0.1, 0.06, 0.06, 0.08]","[[-0.03413633707233166, 0.539775862693792], [0.03045342777742709, 0.14881397110038386], [0.3968101769942594, 0.3516381959676015], [-0.12464897846505978, 0.27513009849494485], [0.24828272947848068, 0.13372878599656182], [0.1825630446668698, 0.5466865974155928], [-0.40057775338259505, 0.3148646888607764], [0.06988801613907401, -0.06658504348068199], [0.07277149512897427, 0.3699912437376705]]",density,black,,,D001,visual,4,[],"['1', '2', '3', '4']",1,2023.2.3,harveyvisual,2.1,[],8,0.75,
0,pause,0.4,None,None,None,0,99,99,99,,,,,,,,,,,,,D001,visual,4,[],"['1', '2', '3', '4']",1,2023.2.3,harveyvisual,2.1,[],8,0.75,
9,dot,0.3,['dot'],['density'],black,0,100,100,100,,,37.40019702911377,37.11620116233826,37.41620898246765,dot,"[0.08, 0.1, 0.08, 0.08, 0.1, 0.06, 0.08, 0.08, 0.06]","[[-0.01550530976013749, -0.4685693709261764], [-0.18673980358629047, -0.03677939788938074], [-0.492500386343057, -0.31631588298646995], [-0.31211872613566405, -0.49615226168915794], [-0.29213402726227655, -0.2779210730957987], [-0.48141959868665407, -0.11483975315711048], [0.2805727548720413, -0.20550850813502752], [-0.0662162642732561, -0.2200496541038322], [0.06776853683421198, -0.046300179137656175]]",density,black,,,D001,visual,4,[],"['1', '2', '3', '4']",1,2023.2.3,harveyvisual,2.1,[],8,0.75,
0,pause,0.4,None,None,None,0,101,101,101,,,,,,,,,,,,,D001,visual,4,[],"['1', '2', '3', '4']",1,2023.2.3,harveyvisual,2.1,[],8,0.75,
9,dot,0.3,['dot'],['density'],white,0,102,102,102,,,38.1002140045166,37.816227197647095,38.117258071899414,dot,"[0.06, 0.1, 0.1, 0.1, 0.06, 0.08, 0.1, 0.1, 0.1]","[[-0.08830733675648182, -0.32541118850070216], [0.2573655446525002, -0.0029570100823114536], [0.27547652153196345, -0.34332263321768475], [-0.10322368112243578, -0.12113330350182801], [-0.09512634339583304, 0.07974184968350245], [0.1087639633701519, -0.14934854126711464], [-0.2976800736237512, -0.022953619774800198], [0.014308470788770018, -0.5004438889851849], [-0.3557422450128242, -0.24953541402881954]]",density,white,,,D001,visual,4,[],"['1', '2', '3', '4']",1,2023.2.3,harveyvisual,2.1,[],8,0.75,
0,pause,0.4,None,None,None,0,103,103,103,,,,,,,,,,,1,37.901769161224365,D001,visual,4,[],"['1', '2', '3', '4']",1,2023.2.3,harveyvisual,2.1,[],8,0.75,
9,dot,0.3,['dot'],['density'],black,0,104,104,104,,,38.80022120475769,38.51640605926514,38.8184711933136,dot,"[0.08, 0.1, 0.08, 0.06, 0.08, 0.08, 0.08, 0.08, 0.06]","[[0.22829877875946783, -0.39640994854570016], [0.3366371496270161, 0.05839125036393789], [-0.11436045239834208, -0.12024221759915668], [-0.02100147820737577, -0.3824026009196371], [0.08479146627654295, 0.024089629435920912], [0.16206374850784472, -0.16075841177209507], [0.38495438842944835, -0.24810596019115372], [-0.23418047716532614, 0.09565997955556291], [0.2111996426858246, 0.23215637940447356]]",density,black,,,D001,visual,4,[],"['1', '2', '3', '4']",1,2023.2.3,harveyvisual,2.1,[],8,0.75,
0,pause,0.4,None,None,None,0,105,105,105,,,,,,,,,,,,,D001,visual,4,[],"['1', '2', '3', '4']",1,2023.2.3,harveyvisual,2.1,[],8,0.75,
9,dot,0.3,['dot'],['density'],white,0,106,106,106,,,39.50021314620972,39.216116189956665,39.51609706878662,dot,"[0.06, 0.1, 0.08, 0.1, 0.06, 0.08, 0.06, 0.08, 0.1]","[[0.27429149071172837, 0.34251676390746333], [0.46797507249945486, 0.005491811463162166], [0.21235580877939833, 0.08757146436558581], [0.046223583492975936, 0.2932249054251131], [0.07051592556679111, -0.0704922843318231], [0.30438918969270623, -0.13028831600800136], [0.11534598117609637, 0.5236829685630697], [-0.06673610159464062, 0.12515255452502297], [-0.14439101605953233, -0.1332028051536465]]",density,white,,,D001,visual,4,[],"['1', '2', '3', '4']",1,2023.2.3,harveyvisual,2.1,[],8,0.75,
0,pause,0.4,None,None,None,0,107,107,107,,,,,,,,,,,1,39.25495219230652,D001,visual,4,[],"['1', '2', '3', '4']",1,2023.2.3,harveyvisual,2.1,[],8,0.75,
20,dot,0.3,['dot'],['density'],black,0,108,108,108,,,40.200201988220215,39.91611099243164,40.21608304977417,dot,"[0.06, 0.1, 0.1, 0.06, 0.08, 0.1, 0.08, 0.1, 0.1, 0.1, 0.1, 0.08, 0.1, 0.1, 0.08, 0.1, 0.1, 0.08, 0.06, 0.08]","[[0.5012573375807464, 0.03334987602138739], [-0.39320733100349226, -0.03550630827403106], [-0.03306830559948648, -0.598827476162871], [0.09356658945632967, 0.21486002172073493], [-0.3340845027450323, -0.3308017112089649], [-0.5814034632999443, 0.09159645518168621], [-0.13896880919070026, -0.23170088092108726], [-0.5173043843206941, -0.2448565573001936], [0.2109519077121531, -0.5279409335980296], [-0.030286856226460546, -0.011220281197843796], [-0.2401415530031174, 0.2317657263708005], [0.4137192149674783, 0.4048737633494821], [-0.016389090773313186, 0.40673286006499765], [0.4253730258831073, -0.42809529516736966], [-0.25702893794824927, 0.46071855456814204], [0.177833551818659, -0.15540843665313026], [0.05393136366389217, -0.37389389497032227], [0.16406919905281236, 0.5104392129804866], [-0.16075761391581306, -0.44499531126324776], [0.297309988061096, 0.1070033164729246]]",density,black,,,D001,visual,4,[],"['1', '2', '3', '4']",1,2023.2.3,harveyvisual,2.1,[],8,0.75,
0,pause,0.4,None,None,None,0,109,109,109,,,,,,,,,,,,,D001,visual,4,[],"['1', '2', '3', '4']",1,2023.2.3,harveyvisual,2.1,[],8,0.75,
20,dot,0.3,['dot'],['density'],black,0,110,110,110,,,40.90022420883179,40.61612510681152,40.916094064712524,dot,"[0.1, 0.1, 0.08, 0.06, 0.08, 0.06, 0.08, 0.06, 0.06, 0.06, 0.1, 0.1, 0.06, 0.08, 0.06, 0.08, 0.06, 0.06, 0.06, 0.08]","[[0.13744505431604592, 0.43795433376888815], [0.4716338739440996, -0.08970600512147603], [-0.3616369591487917, 0.0019203377869218552], [0.13567375143321914, -0.039719116067430504], [-0.18070801792346458, -0.39960037798558334], [-0.5350192750755646, 0.1916399725646506], [0.27778957299921647, -0.2974050547572805], [0.44345342837332724, 0.1349365832564166], [-0.28658725824613884, 0.17973957702783117], [-0.5947589928546719, -0.09578838506097201], [0.06412046815412842, 0.19818346724327707], [0.2621503711270845, 0.28295965903145437], [0.05870528638482997, -0.44876914961896386], [-0.32148031367089236, 0.43511362284844635], [0.26043471190248335, -0.49805440436535925], [-0.4173121439654742, -0.2863283092737743], [-0.061317841447512955, 0.4976423321487887], [-0.16754320587649402, -0.0008890020613278038], [-0.20300231486465953, -0.19776349946610283], [0.4422981196859336, 0.3828886599426705]]",density,black,,,D001,visual,4,[],"['1', '2', '3', '4']",1,2023.2.3,harveyvisual,2.1,[],8,0.75,
0,pause,0.4,None,None,None,0,111,111,111,,,,,,,,,,,,,D001,visual,4,[],"['1', '2', '3', '4']",1,2023.2.3,harveyvisual,2.1,[],8,0.75,
20,dot,0.3,['dot'],['density'],black,0,112,112,112,,,41.600205183029175,41.317190170288086,41.61606216430664,dot,"[0.1, 0.1, 0.06, 0.06, 0.06, 0.1, 0.1, 0.06, 0.08, 0.08, 0.1, 0.06, 0.08, 0.08, 0.08, 0.06, 0.08, 0.1, 0.06, 0.06]","[[0.022415691535965898, 0.5953921122426129], [-0.07046048348882472, -0.14729136259250797], [0.19995230116962814, 0.42064617609348487], [-0.4485540650157154, 0.03406196508432985], [0.45385033802329555, -0.3223962932135815], [-0.03489268868051787, 0.15067137899698324], [0.3440728167084144, -0.12638874937422606], [-0.11563273016789466, -0.4455753572093938], [0.12966650274717184, 0.010796269812620274], [-0.4594464809693476, 0.267787512918953], [0.5529010521036662, 0.20971557295806753], [-0.3130518607966642, -0.19101471323294045], [-0.5813442289398462, -0.14044463527841028], [0.19213354817115869, -0.3237060317406454], [0.4452241549634267, 0.40263450470240625], [-0.27023053443581524, 0.1806167405123783], [0.57449561386505, -0.06699568714546945], [0.2958311019277359, 0.19135356881856946], [-0.38706939201931445, -0.4014033852632502], [-0.20246334629313872, 0.4220912604818565]]",density,black,,,D001,visual,4,[],"['1', '2', '3', '4']",1,2023.2.3,harveyvisual,2.1,[],8,0.75,
0,pause,0.4,None,None,None,0,113,113,113,,,,,,,,,,,,,D001,visual,4,[],"['1', '2', '3', '4']",1,2023.2.3,harveyvisual,2.1,[],8,0.75,
20,dot,0.3,['dot'],['density'],white,0,114,114,114,,,42.30019998550415,42.01604914665222,42.31716203689575,dot,"[0.08, 0.1, 0.08, 0.08, 0.06, 0.06, 0.08, 0.06, 0.1, 0.1, 0.1, 0.08, 0.06, 0.06, 0.08, 0.08, 0.1, 0.08, 0.1, 0.08]","[[0.20145856223074776, 0.5234217192613845], [0.25467593298070434, -0.5349376741712323], [-0.1874568859911347, -0.5308255574437929], [-0.3521677875069952, -0.4076972257459792], [-0.5954239168409751, 0.016067430507331004], [-0.47982132648316167, 0.2813794564106179], [0.07076184455928147, -0.4290309282147906], [0.24502767144193083, -0.10854140193804379], [-0.33279403278103314, 0.09072703736617871], [0.5378610741205129, -0.24135477953177512], [-0.08198065455421721, 0.3678887563176224], [-0.043082292181260695, 0.1327069187048482], [0.05655863625802626, -0.03310298849731952], [-0.5220889574639191, -0.18492971254834648], [0.4478219357479304, 0.05718283708334704], [-0.30339662443164134, -0.21815968696050697], [0.4599135355008187, 0.36657817275723864], [0.39915346449438516, -0.3835048582341057], [0.14827812978048371, 0.2558423692953631], [-0.30021046004665236, 0.3541586847829271]]",density,white,,,D001,visual,4,[],"['1', '2', '3', '4']",1,2023.2.3,harveyvisual,2.1,[],8,0.75,
0,pause,0.4,None,None,None,0,115,115,115,,,,,,,,,,,1,42.086292028427124,D001,visual,4,[],"['1', '2', '3', '4']",1,2023.2.3,harveyvisual,2.1,[],8,0.75,
20,dot,0.3,['dot'],['density'],black,0,116,116,116,,,43.00020718574524,42.71605205535889,43.0160551071167,dot,"[0.06, 0.1, 0.08, 0.1, 0.08, 0.06, 0.08, 0.08, 0.06, 0.1, 0.1, 0.08, 0.06, 0.1, 0.08, 0.08, 0.06, 0.08, 0.1, 0.08]","[[-0.37575951525497864, 0.0929695193256101], [-0.59217752078557, -0.05142947275541736], [-0.0093066169079008, -0.11958914911964025], [0.2143486287137497, 0.11146025307068796], [0.043085798581545376, -0.4568911422936356], [0.40311549857522533, -0.2634896271751968], [0.5477349492888482, -0.08412040851950897], [-0.3895718335243462, -0.19365177793999505], [0.3790718172899278, 0.42281824360268233], [-0.2746465448262673, -0.3837048556419522], [0.51481192351056, 0.23354898478783703], [0.24805760014935585, -0.4137791344690305], [-0.1057650662828587, 0.15739291695367164], [-0.15932807784487585, 0.5183004153039958], [-0.44932157693802055, 0.3265658625518759], [0.01571615803008808, 0.3919919883862347], [-0.2154355397568703, 0.316912174076306], [0.28029486634572087, -0.06807481038879698], [-0.2202107285063134, -0.08718905928243753], [0.15569912961696342, -0.2308651442851995]]",density,black,,,D001,visual,4,[],"['1', '2', '3', '4']",1,2023.2.3,harveyvisual,2.1,[],8,0.75,
0,pause,0.4,None,None,None,0,117,117,117,,,,,,,,,,,,,D001,visual,4,[],"['1', '2', '3', '4']",1,2023.2.3,harveyvisual,2.1,[],8,0.75,
20,dot,0.3,['dot'],['density'],black,0,118,118,118,,,43.70020508766174,43.416041135787964,43.71601700782776,dot,"[0.06, 0.06, 0.1, 0.1, 0.08, 0.06, 0.08, 0.1, 0.08, 0.06, 0.08, 0.1, 0.1, 0.1, 0.06, 0.1, 0.06, 0.06, 0.06, 0.06]","[[0.10997030346945791, 0.0014131998718301952], [-0.10739480004664836, 0.13573234498934683], [0.3027821740885258, 0.4532396726829281], [-0.35942973473764706, 0.1983857694647888], [-0.5098747612014236, -0.2748540751737091], [0.08376020717770594, 0.334022615648766], [-0.5589705459244055, -0.04768388526026543], [0.04213570710619041, -0.49218025172664187], [-0.16163774747305565, -0.28430177604932994], [0.33921516745833147, -0.08391317414000454], [0.6045612052783821, -0.005107587267367198], [0.07847574380457689, 0.578939459039221], [-0.3426117053183949, -0.4849975559400797], [0.3681504373255561, -0.4798678966177834], [-0.16006112031846054, -0.5817893274998075], [-0.3630225418136387, -0.15099005236413826], [0.4525826016914595, -0.2931954678293809], [0.20082213665342818, -0.25509602156839917], [-0.42464133344868504, 0.42491953960817425], [0.2649591733240636, 0.2547603453626741]]",density,black,,,D001,visual,4,[],"['1', '2', '3', '4']",1,2023.2.3,harveyvisual,2.1,[],8,0.75,
0,pause,0.4,None,None,None,0,119,119,119,,,,,,,,,,,,,D001,visual,4,[],"['1', '2', '3', '4']",1,2023.2.3,harveyvisual,2.1,[],8,0.75,
20,dot,0.3,['dot'],['density'],black,0,120,120,120,,,44.4002001285553,44.116016149520874,44.41599798202515,dot,"[0.08, 0.06, 0.08, 0.1, 0.06, 0.1, 0.06, 0.1, 0.06, 0.08, 0.1, 0.1, 0.08, 0.1, 0.06, 0.08, 0.06, 0.08, 0.1, 0.06]","[[-0.1353305370881167, -0.5710149260118614], [-0.3010425937464042, 0.11312000262027921], [-0.5393412975787898, 0.19795444238915821], [0.09486919438159747, 0.5509934655852248], [0.5622927311759957, 0.06968980329644581], [0.08799689790022247, -0.5575037682175157], [-0.25429968379383744, 0.3832152523064314], [0.39430139991024604, 0.20644060608483655], [-0.4933608645209562, -0.19717649722054886], [-0.27557155536444816, -0.4091798231417742], [-0.0031140068297923484, -0.22051059208184337], [0.3992378743899566, -0.1754908554347676], [0.10332353246883796, 0.3216774021934915], [0.5852544393991862, -0.12225521625079927], [0.21182498329123867, 0.042682239249955845], [-0.2680364329878084, -0.0892502705552381], [-0.06801705041162898, 0.13679297935270518], [0.40361977742440047, 0.44578479339723187], [0.431695669375347, -0.4041868790299568], [0.2476517051727497, -0.32651626297072184]]",density,black,,,D001,visual,4,[],"['1', '2', '3', '4']",1,2023.2.3,harveyvisual,2.1,[],8,0.75,
0,pause,0.4,None,None,None,0,121,121,121,,,,,,,,,,,,,D001,visual,4,[],"['1', '2', '3', '4']",1,2023.2.3,harveyvisual,2.1,[],8,0.75,
20,dot,0.3,['dot'],['density'],white,0,122,122,122,,,45.100226163864136,44.81602120399475,45.11603403091431,dot,"[0.08, 0.08, 0.1, 0.06, 0.06, 0.1, 0.06, 0.1, 0.06, 0.1, 0.08, 0.06, 0.1, 0.1, 0.1, 0.1, 0.08, 0.08, 0.08, 0.06]","[[-0.24015750094193467, 0.03458230659957018], [-0.5930622407171154, -0.11912847430372993], [-0.3811507382135484, 0.3895004901673739], [0.2469114428316257, -0.4756962742088187], [0.07952302977418557, 0.3099573099533369], [0.41328826274130337, 0.04254770267097918], [-0.2914850006606568, -0.23296683846562322], [0.0946016482444535, 0.08239141496444358], [-0.1259563833731125, 0.24220538078480391], [0.3129526129578899, 0.3242153560398605], [0.5297173169080468, -0.1554158250134137], [0.05722715780679799, -0.1336242940690981], [0.5010968636699108, 0.2921387218635301], [0.3566923169347246, -0.24112888051295123], [-0.25892033169905415, -0.5463693860953238], [-0.09021714245187451, 0.5771675027529656], [0.017913952710169934, -0.4571206929645599], [-0.516758374065607, -0.29927986118638167], [0.14289110994536747, 0.5222611241508658], [0.24535972607840784, -0.056821404977245527]]",density,white,,,D001,visual,4,[],"['1', '2', '3', '4']",1,2023.2.3,harveyvisual,2.1,[],8,0.75,
0,pause,0.4,None,None,None,0,123,123,123,,,,,,,,,,,1,44.79470109939575,D001,visual,4,[],"['1', '2', '3', '4']",1,2023.2.3,harveyvisual,2.1,[],8,0.75,
20,dot,0.3,['dot'],['density'],black,0,124,124,124,,,45.80021405220032,45.51601505279541,45.81600904464722,dot,"[0.08, 0.06, 0.1, 0.06, 0.08, 0.08, 0.06, 0.06, 0.08, 0.1, 0.06, 0.08, 0.1, 0.1, 0.1, 0.08, 0.08, 0.1, 0.1, 0.08]","[[0.24322922132625946, 0.3207903673432265], [-0.24977325505314707, 0.28934486740951615], [0.4367989496327732, -0.20928705924369334], [-0.021885991273413063, 0.5757299619564189], [-0.5110017495980173, -0.0047232487776767695], [-0.2798634060589965, -0.5242650093930677], [0.6009747080971121, -0.0712019572460036], [0.5012235815511082, 0.11913776318719588], [-0.4533747927189854, 0.2571231555637583], [-0.21954974174730374, -0.2551215289023232], [-0.28807761165675394, 0.08585855260988207], [0.24766080197785878, -0.27423514190551557], [0.30024254878669, -0.0630716556586911], [-0.05646385206159099, -0.5798480536700437], [0.3601172956262676, 0.48040945434715626], [-0.06530849888165557, 0.3863321742451059], [-0.4492572325924848, -0.3027385831453909], [-0.12028993424964635, -0.08539680882317613], [0.053962095402247834, -0.3807401076037979], [-0.21601630152084927, 0.5316720516511838]]",density,black,,,D001,visual,4,[],"['1', '2', '3', '4']",1,2023.2.3,harveyvisual,2.1,[],8,0.75,
0,pause,0.4,None,None,None,0,125,125,125,,,,,,,,,,,,,D001,visual,4,[],"['1', '2', '3', '4']",1,2023.2.3,harveyvisual,2.1,[],8,0.75,
20,dot,0.3,['dot'],['density'],black,0,126,126,126,,,46.50022220611572,46.216001987457275,46.51598811149597,dot,"[0.1, 0.06, 0.08, 0.1, 0.08, 0.06, 0.08, 0.08, 0.08, 0.06, 0.06, 0.08, 0.1, 0.06, 0.1, 0.08, 0.06, 0.06, 0.1, 0.06]","[[-0.47154867453422444, -0.11347462235183953], [-0.45868762857005774, 0.17134789613908885], [0.08466858498333918, 0.008945209615399796], [-0.053969642566901066, 0.5414123384828337], [-0.2137691861023917, 0.2525420000951085], [0.11530318218393676, -0.21882499963059981], [-0.07966739211566065, -0.3262971501305403], [-0.28226551107298703, 0.45155844443690496], [0.24478877307141345, 0.24380820450621965], [0.4909996207203756, -0.28055323470010124], [0.6000617179014768, 0.01124689961185979], [-0.053315943525316545, -0.5308734716842992], [0.3384972004847199, -0.4335761306934669], [-0.33788764794355125, -0.43134964955841404], [0.35995445428007045, 0.4080245488595967], [0.41197830890157505, 0.04485895160444531], [-0.23384858511811418, -0.14638116114246824], [0.542803247937976, 0.20524859785593502], [0.08548075401396871, 0.4110931996612681], [-0.022917995049897333, 0.20002553676798362]]",density,black,,,D001,visual,4,[],"['1', '2', '3', '4']",1,2023.2.3,harveyvisual,2.1,[],8,0.75,
0,pause,0.4,None,None,None,0,127,127,127,,,,,,,,,,,,,D001,visual,4,[],"['1', '2', '3', '4']",1,2023.2.3,harveyvisual,2.1,[],8,0.75,
20,dot,0.3,['dot'],['density'],black,0,128,128,128,,,47.200218200683594,46.91772699356079,47.21592402458191,dot,"[0.1, 0.06, 0.08, 0.08, 0.08, 0.06, 0.08, 0.06, 0.06, 0.06, 0.08, 0.06, 0.08, 0.06, 0.1, 0.08, 0.08, 0.06, 0.1, 0.1]","[[0.04678737394223953, 0.10496759385706822], [-0.10214752291849305, -0.1796256966141181], [0.4391159167861626, -0.30473628048729556], [-0.22798684410989306, -0.5334686558159838], [0.4697966548272984, 0.24026199245137653], [0.2239108560148939, 0.4206976227956173], [0.36754687273614495, 0.0402386009347967], [-0.3927582188753505, 0.36718669097625994], [-0.5899466637478977, 0.11278012854274053], [-0.35975942348236856, -0.04181552475090544], [-0.017392411271529462, 0.29539531064309765], [0.0810517425671583, -0.5354537519464262], [-0.532550574088319, -0.28609362477007383], [-0.18774529300710097, 0.5010538426531819], [-0.2373215384273839, 0.20795408696034667], [0.5764563921114724, 0.05441112214235244], [0.29515471162010654, -0.45445310003606065], [-0.2647805484761746, -0.3009031428776451], [-0.5984506663124162, -0.08385180315123818], [0.12268328925193206, -0.3444057690838337]]",density,black,,,D001,visual,4,[],"['1', '2', '3', '4']",1,2023.2.3,harveyvisual,2.1,[],8,0.75,
0,pause,0.4,None,None,None,0,129,129,129,,,,,,,,,,,,,D001,visual,4,[],"['1', '2', '3', '4']",1,2023.2.3,harveyvisual,2.1,[],8,0.75,
20,dot,0.3,['dot'],['density'],black,0,130,130,130,,,47.90021014213562,47.615920066833496,47.9159619808197,dot,"[0.06, 0.1, 0.06, 0.08, 0.06, 0.06, 0.06, 0.08, 0.1, 0.08, 0.08, 0.08, 0.1, 0.06, 0.08, 0.08, 0.06, 0.1, 0.06, 0.06]","[[-0.37197915928213865, -0.01961425727534244], [0.4032917309424052, 0.38815363383441037], [-0.14387772532132775, 0.4084480684341453], [0.5426380689837623, 0.05555635121104957], [0.33745181059973195, 0.15870097937623773], [0.23365465257499662, 0.5473025674804781], [0.38392679695565723, -0.2162814877617676], [0.3828573846688659, -0.43696561559548325], [-0.23690404469474186, -0.18730881523962872], [0.0718875710944834, 0.2769123151978984], [-0.5574214996913197, 0.165940493364271], [-0.1896903697357386, 0.1073422833955403], [-0.30346539931391486, -0.3977508648441643], [-0.41669112496227084, 0.35256956093018915], [0.22012425097666055, -0.016692997558626854], [0.17038832888870847, -0.2461546371682165], [-0.519564296836443, -0.2965216762615775], [0.007312094528433177, 0.0868062896150057], [-0.09684671467040251, -0.3271307095977893], [0.044450550523991494, 0.5272226948592488]]",density,black,,,D001,visual,4,[],"['1', '2', '3', '4']",1,2023.2.3,harveyvisual,2.1,[],8,0.75,
0,pause,0.4,None,None,None,0,131,131,131,,,,,,,,,,,,,D001,visual,4,[],"['1', '2', '3', '4']",1,2023.2.3,harveyvisual,2.1,[],8,0.75,
20,dot,0.3,['dot'],['density'],black,0,132,132,132,,,48.60020303726196,48.31592512130737,48.61594104766846,dot,"[0.08, 0.06, 0.08, 0.1, 0.1, 0.1, 0.08, 0.08, 0.1, 0.1, 0.08, 0.08, 0.1, 0.1, 0.1, 0.1, 0.08, 0.06, 0.06, 0.06]","[[0.061726231002624754, 0.3366607006796205], [-0.16561701562474446, -0.5081106923130917], [-0.55411327492374, -0.12559528166625206], [0.05141000487135461, -0.001549711268031162], [-0.45030900443320043, 0.16697388088767728], [-0.1936797958963773, -0.024269784899308422], [-0.10698637140495165, 0.2118984594564417], [0.48762926993814004, -0.31136218259418363], [-0.3784925482561559, 0.4360976275377153], [-0.29612733344902015, -0.2246824133993024], [0.5715797150753174, 0.0714267230022558], [0.08772043022058784, -0.3340810999947883], [0.263564020513959, -0.5159782710624469], [0.46166076462214545, 0.23175783408913037], [-0.06554851045677046, -0.16801448575972744], [0.3233389477497204, 0.39903088388627617], [0.07245705269706748, 0.5634125101547159], [0.3856472202796385, -0.07461389153984738], [0.16619238649704793, 0.16728211257487335], [0.06459215341046842, -0.5437898532785851]]",density,black,,,D001,visual,4,[],"['1', '2', '3', '4']",1,2023.2.3,harveyvisual,2.1,[],8,0.75,
0,pause,0.4,None,None,None,0,133,133,133,,,,,,,,,,,,,D001,visual,4,[],"['1', '2', '3', '4']",1,2023.2.3,harveyvisual,2.1,[],8,0.75,
20,dot,0.3,['dot'],['density'],black,0,134,134,134,,,49.30021619796753,49.01771116256714,49.31699204444885,dot,"[0.06, 0.1, 0.06, 0.1, 0.08, 0.08, 0.1, 0.06, 0.06, 0.06, 0.1, 0.08, 0.08, 0.1, 0.08, 0.1, 0.06, 0.06, 0.08, 0.1]","[[-0.016997152446034947, -0.05582499188298151], [0.07050704381192563, 0.28536603575691755], [-0.1792211878843692, -0.31615583455553536], [-0.588649314811515, -0.12981572003873623], [-0.2782051979040629, 0.17024396166579658], [-0.20173155754096284, 0.5402605643279558], [0.5098568310780692, -0.3102961166262519], [0.3639124194764507, -0.45433012601986683], [0.14122335943928144, 0.5532472859204122], [0.5786923230071087, 0.026343903271868863], [0.08766179678634234, -0.47306419405766476], [-0.43465083588481523, 0.36152649793703057], [0.380484405069057, 0.3462844267832429], [0.3580932693026292, 0.06985158883842801], [-0.5581232617899646, 0.11437794868987372], [-0.08136956227088643, 0.1593185094078029], [0.18591186533381243, -0.14967820855988223], [-0.37422930737332555, -0.41709191661179784], [-0.2967213764618635, -0.037105122288060344], [0.5539496926596977, 0.22461343663757696]]",density,black,,,D001,visual,4,[],"['1', '2', '3', '4']",1,2023.2.3,harveyvisual,2.1,[],8,0.75,
0,pause,0.4,None,None,None,0,135,135,135,,,,,,,,,,,,,D001,visual,4,[],"['1', '2', '3', '4']",1,2023.2.3,harveyvisual,2.1,[],8,0.75,
20,dot,0.3,['dot'],['density'],black,0,136,136,136,,,50.000200033187866,49.716992139816284,50.015852212905884,dot,"[0.08, 0.06, 0.06, 0.1, 0.08, 0.1, 0.08, 0.08, 0.08, 0.1, 0.06, 0.06, 0.06, 0.1, 0.06, 0.08, 0.1, 0.1, 0.06, 0.06]","[[-0.08379370225452887, 0.24970073358504186], [0.10657271850573002, 0.1566296671369113], [-0.5771734085041317, -0.017465353402032258], [0.38961628549157623, 0.24187935258234877], [-0.29880249657998337, 0.08673601420200894], [0.37331305660817427, -0.4489277572661528], [0.5177361116488052, -0.003159760895893371], [0.32218602997830914, -0.025993773575953116], [-0.33661827057789134, -0.11379373009847127], [-0.06125330873674195, -0.4153138724552534], [0.08385887576071338, -0.5714441660892691], [-0.1476269145266489, -0.18795680006912874], [-0.5335416533617681, 0.23098247941165256], [-0.14813176498919084, 0.5319943213701994], [-0.27583613143550134, 0.35442938829682147], [0.14405422682815694, 0.42240422522284915], [0.24151149323721977, -0.2926501271904861], [-0.46992611495265035, -0.3655446139480378], [0.5636172851538294, -0.19034377328008656], [0.02082395769831835, -0.09624070054855383]]",density,black,,,D001,visual,4,[],"['1', '2', '3', '4']",1,2023.2.3,harveyvisual,2.1,[],8,0.75,
0,pause,0.4,None,None,None,0,137,137,137,,,,,,,,,,,,,D001,visual,4,[],"['1', '2', '3', '4']",1,2023.2.3,harveyvisual,2.1,[],8,0.75,
20,dot,0.3,['dot'],['density'],white,0,138,138,138,,,50.70021414756775,50.41586518287659,50.715896129608154,dot,"[0.1, 0.08, 0.08, 0.06, 0.1, 0.1, 0.08, 0.08, 0.06, 0.08, 0.06, 0.08, 0.08, 0.08, 0.08, 0.06, 0.1, 0.08, 0.1, 0.1]","[[0.5475611884285941, -0.2386344892350289], [0.1755493543326727, -0.33605964330597626], [0.14632404517872177, 0.36269733640577506], [0.31380870703588337, 0.18529658633613222], [-0.23788198389023157, -0.44434843304234306], [-0.05370087114970323, -0.0700159613047564], [0.28203226080707955, 0.5129316026924939], [-0.39403948814454764, 0.41736743429267953], [0.10441994791289255, 0.591601203331783], [-0.2196535295449502, 0.31602321593257443], [-0.44106733563369527, 0.18211375284238562], [0.41808398239562183, 0.005786910773442178], [-0.3970565052716085, -0.26255418022704363], [-0.5992808173410422, 0.06428777610582981], [-0.016847826195567905, 0.2096884847512347], [0.4425911957758949, -0.3986044807824576], [0.03518813646201335, -0.5138059096501832], [-0.2801384121093926, 0.017101693417634567], [-0.17199645210124637, 0.5435322037063434], [-0.06512623392076655, -0.32007519072318513]]",density,white,,,D001,visual,4,[],"['1', '2', '3', '4']",1,2023.2.3,harveyvisual,2.1,[],8,0.75,
0,pause,0.4,None,None,None,0,139,139,139,,,,,,,,,,,1,50.444332122802734,D001,visual,4,[],"['1', '2', '3', '4']",1,2023.2.3,harveyvisual,2.1,[],8,0.75,
20,dot,0.3,['dot'],['density'],black,0,140,140,140,,,51.400209188461304,51.11821913719177,51.416829109191895,dot,"[0.06, 0.06, 0.08, 0.08, 0.06, 0.06, 0.1, 0.06, 0.06, 0.08, 0.1, 0.1, 0.1, 0.08, 0.06, 0.1, 0.08, 0.06, 0.08, 0.08]","[[-0.03572465535409286, 0.00021999403898120828], [0.4917677356645459, 0.0601559630676507], [0.19991942443782185, -0.08434069333206307], [0.15627857944736712, 0.4550088640341582], [-0.3973321009152695, -0.028860661052186265], [-0.12334441683914943, 0.4589346078074522], [-0.19344738337449363, -0.20097904237454256], [-0.387939033243138, 0.294477868184927], [0.014313307319636204, -0.5952541780350871], [0.010151453551364598, 0.24978037815903376], [0.3700474264214726, 0.3755679065826322], [-0.4019059650470898, -0.31697318571660604], [0.4261626723551478, -0.2736203846862967], [-0.18173523744540637, 0.1799374285080818], [0.10287513152828387, -0.2950810112399506], [0.28919145906227817, 0.13913398436628654], [-0.5744160151664282, -0.1159791962257109], [-0.5261303177099765, 0.1500681048301955], [-0.22850800746393063, -0.40563388406334744], [0.2648157690051337, -0.41563102835908194]]",density,black,,,D001,visual,4,[],"['1', '2', '3', '4']",1,2023.2.3,harveyvisual,2.1,[],8,0.75,
0,pause,0.4,None,None,None,0,141,141,141,,,,,,,,,,,,,D001,visual,4,[],"['1', '2', '3', '4']",1,2023.2.3,harveyvisual,2.1,[],8,0.75,
20,dot,0.3,['dot'],['density'],black,0,142,142,142,,,52.10021209716797,51.815805196762085,52.115790128707886,dot,"[0.06, 0.06, 0.08, 0.1, 0.06, 0.08, 0.06, 0.06, 0.06, 0.06, 0.1, 0.08, 0.1, 0.06, 0.08, 0.1, 0.08, 0.08, 0.1, 0.06]","[[0.23267172413834603, 0.0255578969109993], [0.4534162160428884, -0.24341898456723599], [-0.10623049530902723, -0.33866616135646377], [-0.09511613790630957, -0.5735944390593548], [-0.2137687022249849, 0.48822511838824423], [-0.28713829628983256, -0.2062093991127678], [0.2572319437384004, 0.3773345984787584], [-0.27416003635091835, 0.16988491804197403], [0.1180568544921008, -0.488805278309107], [0.4204493443565974, 0.10881628106403507], [-0.5952918899385305, 0.003498630807745415], [0.11282602441867562, 0.18449262093970964], [-0.3001178858115747, -0.4524340473245398], [0.03545531571539362, 0.00339404493589901], [0.15363488008379622, -0.2807410009973025], [-0.4918929278753068, 0.24427006803801604], [-0.5316626044609589, -0.17570019343934867], [0.057971148459047495, 0.5432915470750357], [-0.3868385398100809, -0.02225839216220854], [-0.12137188319397785, -0.11036168316876227]]",density,black,,,D001,visual,4,[],"['1', '2', '3', '4']",1,2023.2.3,harveyvisual,2.1,[],8,0.75,
0,pause,0.4,None,None,None,0,143,143,143,,,,,,,,,,,,,D001,visual,4,[],"['1', '2', '3', '4']",1,2023.2.3,harveyvisual,2.1,[],8,0.75,
20,dot,0.3,['dot'],['density'],black,0,144,144,144,,,52.800228118896484,52.51582598686218,52.81581115722656,dot,"[0.1, 0.08, 0.1, 0.06, 0.08, 0.06, 0.08, 0.06, 0.06, 0.1, 0.1, 0.08, 0.06, 0.1, 0.08, 0.1, 0.08, 0.1, 0.1, 0.06]","[[-0.38925786705887566, -0.10735709750447597], [-0.3669662162871502, 0.19759737702989416], [-0.05602748637991872, -0.5711451772471345], [0.3975912011735695, 0.07707590822092097], [0.49923212428283026, -0.25951990845835476], [0.08486190719700759, 0.0197854521508396], [-0.22947244507120923, 0.43215669242290067], [0.22235641572178944, -0.4817411922934219], [-0.5888756140527734, 0.09713464685102591], [-0.02899875438133026, 0.48892467884890023], [-0.15612549152455263, 0.12845574302454044], [0.12168586887417598, -0.25538033708465635], [-0.16819389172870064, -0.23686023728314132], [-0.3667918344057481, -0.30345799320529443], [0.4533087900727958, 0.29981340214333574], [0.2942618620939328, -0.16798725532222536], [0.3136136459666796, 0.4661618352291841], [0.15358540614434513, 0.3544647372612598], [-0.24190544355091897, -0.4886379542170776], [0.5614726150640154, -0.0360210133250887]]",density,black,,,D001,visual,4,[],"['1', '2', '3', '4']",1,2023.2.3,harveyvisual,2.1,[],8,0.75,
0,pause,0.4,None,None,None,0,145,145,145,,,,,,,,,,,,,D001,visual,4,[],"['1', '2', '3', '4']",1,2023.2.3,harveyvisual,2.1,[],8,0.75,
20,dot,0.3,['dot'],['density'],black,0,146,146,146,,,53.500219106674194,53.215782165527344,53.51578211784363,dot,"[0.06, 0.1, 0.06, 0.06, 0.08, 0.06, 0.1, 0.1, 0.1, 0.08, 0.1, 0.1, 0.06, 0.08, 0.1, 0.08, 0.06, 0.08, 0.06, 0.1]","[[0.0116631034122755, 0.4723977835689722], [-0.41032401018988157, 0.33417091048438136], [-0.00044107470954635186, -0.11764968324635805], [-0.23583933746648622, -0.2819996236480921], [-0.5472099629159253, -0.08788106613094437], [-0.2707173924131204, 0.08195539744381097], [0.44038094900710456, 0.047301211218981676], [-0.48138580520826285, 0.14096673339682497], [0.3585786183654853, 0.2652658133964317], [0.040966582840054055, -0.4968038821778412], [0.5279306690465825, -0.14809947816271285], [-0.24792965801981648, -0.5482803076177761], [0.23533510869758312, 0.5053725456390208], [-0.49996384919111125, -0.27741404700489675], [0.2806153505388981, -0.2834829908623157], [-0.03458862275423191, -0.3226765810523692], [0.12800049646570544, 0.11374262118955147], [0.4913959404624345, -0.350233886299158], [-0.1871135822458504, 0.32310712214969795], [-0.06256760179317766, 0.10220386900046208]]",density,black,,,D001,visual,4,[],"['1', '2', '3', '4']",1,2023.2.3,harveyvisual,2.1,[],8,0.75,
0,pause,0.4,None,None,None,0,147,147,147,,,,,,,,,,,,,D001,visual,4,[],"['1', '2', '3', '4']",1,2023.2.3,harveyvisual,2.1,[],8,0.75,
20,dot,0.3,['dot'],['density'],black,0,148,148,148,,,54.20022702217102,53.91576409339905,54.215763092041016,dot,"[0.06, 0.08, 0.1, 0.06, 0.06, 0.1, 0.06, 0.06, 0.08, 0.1, 0.1, 0.1, 0.1, 0.1, 0.06, 0.1, 0.08, 0.06, 0.06, 0.08]","[[0.4761482083773708, 0.13447623178477708], [0.034015307457674115, -0.1338873064668949], [0.12039281307796412, 0.5522707618767407], [-0.19642570585598707, 0.22401093693080076], [-0.42364136547853704, 0.07157868095076908], [-0.39088849468456877, -0.20034669520684473], [0.002146295234167761, -0.39341175434101283], [0.07445252373139777, 0.2314492562292394], [-0.2586739308580615, 0.4035274003403293], [0.33926766961517274, -0.4287028827359214], [0.23011323362332226, 0.35408936335241803], [-0.2764118201725823, -0.4594246346549412], [-0.4916944095778346, 0.3408190366810381], [-0.5864724415495386, -0.13488762610547445], [0.24158559016931702, 0.10589192431713268], [0.45820370064342064, -0.17743983772720137], [-0.15657898068437082, -0.07260567199796386], [0.43945000669426093, 0.36897128268155965], [0.5965226040709591, -0.014574468801868759], [0.11317523312463451, -0.5945379208856022]]",density,black,,,D001,visual,4,[],"['1', '2', '3', '4']",1,2023.2.3,harveyvisual,2.1,[],8,0.75,
0,pause,0.4,None,None,None,0,149,149,149,,,,,,,,,,,,,D001,visual,4,[],"['1', '2', '3', '4']",1,2023.2.3,harveyvisual,2.1,[],8,0.75,
20,dot,0.3,['dot'],['density'],black,0,150,150,150,,,54.90020704269409,54.615727186203,54.91575312614441,dot,"[0.1, 0.08, 0.06, 0.1, 0.1, 0.1, 0.08, 0.08, 0.1, 0.08, 0.06, 0.08, 0.1, 0.06, 0.1, 0.1, 0.08, 0.08, 0.08, 0.08]","[[-0.41723010444890274, 0.11386834389841166], [0.3183640712728194, -0.3751146114714847], [0.09129072414265627, -0.02605594839916625], [0.6042656657667645, -0.014088866270122572], [0.5106983710080782, 0.18890654889809738], [-0.14640951746063102, -0.04551491811362385], [-0.24848503071986094, 0.2466929331554244], [0.035206779272189404, 0.3257971429363108], [-0.3337127000486684, -0.22347735889475917], [0.2773935423868674, 0.4751329667069848], [-0.4460005895347358, -0.3959479543175312], [0.5317274924381851, -0.23645981184887674], [-0.02060900576659952, -0.5168656644213694], [-0.04820450110406682, -0.2724130515232756], [-0.07129024986992194, 0.13270138819849742], [0.24307267009748146, -0.18893326983347009], [-0.5628243694188306, -0.036073012902730545], [0.31728612303368364, 0.1468409728893948], [-0.25973920638807907, -0.462371772266536], [0.07913834003513065, 0.5501281001714847]]",density,black,,,D001,visual,4,[],"['1', '2', '3', '4']",1,2023.2.3,harveyvisual,2.1,[],8,0.75,
0,pause,0.4,None,None,None,0,151,151,151,,,,,,,,,,,,,D001,visual,4,[],"['1', '2', '3', '4']",1,2023.2.3,harveyvisual,2.1,[],8,0.75,
20,dot,0.3,['dot'],['density'],black,0,152,152,152,,,55.60022020339966,55.31572103500366,55.61570501327515,dot,"[0.1, 0.08, 0.1, 0.06, 0.06, 0.06, 0.06, 0.1, 0.08, 0.08, 0.1, 0.08, 0.08, 0.06, 0.1, 0.1, 0.06, 0.1, 0.1, 0.08]","[[0.5610625953919169, 0.11628023273770058], [0.376995120112085, 0.16750125754499573], [0.25767078591781833, 0.39574321396358825], [-0.034063764041491695, 0.1384843666476797], [-0.05663740927465866, 0.4882265433625146], [-0.370528719577487, 0.0919002635864038], [-0.4769323851948939, -0.1880342231480656], [-0.03963307439013164, -0.4768392060961424], [0.09217074177977291, -0.15861844825316285], [0.5023025391577981, -0.09858737742436305], [-0.26371012571338714, -0.13359773965619776], [0.4218702757865481, -0.36540485490494606], [-0.33383625718098564, 0.48015169957589354], [0.26882946241826955, -0.5131882346158916], [0.12316910682559346, 0.5608292046107367], [-0.2597915963747869, 0.2843045681129611], [-0.4033485437863601, -0.414397308345778], [-0.11591691542006466, -0.2604695296241048], [-0.4984368678113891, 0.2863028590678071], [0.1966806725354533, 0.10021794256792427]]",density,black,,,D001,visual,4,[],"['1', '2', '3', '4']",1,2023.2.3,harveyvisual,2.1,[],8,0.75,
0,pause,0.4,None,None,None,0,153,153,153,,,,,,,,,,,,,D001,visual,4,[],"['1', '2', '3', '4']",1,2023.2.3,harveyvisual,2.1,[],8,0.75,
20,dot,0.3,['dot'],['density'],black,0,154,154,154,,,56.300217151641846,56.01661205291748,56.315696001052856,dot,"[0.06, 0.1, 0.06, 0.08, 0.1, 0.1, 0.08, 0.1, 0.06, 0.1, 0.08, 0.1, 0.1, 0.1, 0.08, 0.06, 0.1, 0.06, 0.06, 0.08]","[[0.34718461053815974, 0.18998676857753527], [-0.3011695658655018, 0.4596973123578648], [-0.3232478336266192, 0.010038620800138509], [-0.06999118049314912, -0.2878934351057309], [-0.2249367171583263, 0.26956312255765613], [0.5643286205797814, -0.023825091040962088], [-0.5287797340913393, 0.1525275576459063], [0.33588164960702804, 0.43354150405660274], [-0.47744457259026246, -0.19749549307283581], [0.03145196042717546, 0.11210500000408663], [-0.04789691691404496, -0.5576659211862812], [-0.056130929950194086, 0.5889357527205338], [0.15626632325845613, -0.03332231200897884], [0.14282452314174277, 0.5614130145512721], [-0.5988270415895907, -0.038404747896556984], [-0.25057008322428015, -0.1824810234899168], [0.41163334776615057, -0.3936040859142912], [0.03749975125514482, 0.39816887605594986], [-0.2813049486685779, -0.38990138403136454], [0.29863800572428567, -0.16401512989597228]]",density,black,,,D001,visual,4,[],"['1', '2', '3', '4']",1,2023.2.3,harveyvisual,2.1,[],8,0.75,
0,pause,0.4,None,None,None,0,155,155,155,,,,,,,,,,,,,D001,visual,4,[],"['1', '2', '3', '4']",1,2023.2.3,harveyvisual,2.1,[],8,0.75,
9,dot,0.3,['dot'],['density'],black,0,156,156,156,,,57.00022506713867,56.71573519706726,57.01567101478577,dot,"[0.06, 0.06, 0.08, 0.08, 0.06, 0.1, 0.1, 0.08, 0.1]","[[-0.1410632352740557, -0.317905811010377], [-0.01624442214728049, 0.1794094022286925], [0.09468404279643694, -0.24727132108451297], [-0.2758455249254349, -0.14491344886434532], [-0.07397021974914944, -0.09933967896750957], [-0.3580751224104431, 0.12641846535160695], [0.3672464474339042, -0.09947208873420914], [0.14679994141956812, -0.049441009882571184], [0.20049431506903384, 0.1443691092520585]]",density,black,,,D001,visual,4,[],"['1', '2', '3', '4']",1,2023.2.3,harveyvisual,2.1,[],8,0.75,
0,pause,0.4,None,None,None,0,157,157,157,,,,,,,,,,,,,D001,visual,4,[],"['1', '2', '3', '4']",1,2023.2.3,harveyvisual,2.1,[],8,0.75,
9,dot,0.3,['dot'],['density'],black,0,158,158,158,,,57.70020914077759,57.415680170059204,57.715654134750366,dot,"[0.08, 0.08, 0.06, 0.08, 0.1, 0.1, 0.08, 0.1, 0.08]","[[0.5176022259896301, 0.07013652950073157], [0.29073914382076843, 0.49095716113391286], [0.25755010907869064, 0.10321661572421419], [0.11549350267606502, 0.37871636325142816], [-0.040248060121338324, 0.07603447111469516], [0.35733910828644905, -0.07238149579930037], [0.09184169877402729, -0.10424630849328012], [-0.10934901156313583, -0.14911132891814113], [0.4158094160330474, 0.26019999263529187]]",density,black,,,D001,visual,4,[],"['1', '2', '3', '4']",1,2023.2.3,harveyvisual,2.1,[],8,0.75,
0,pause,0.4,None,None,None,0,159,159,159,,,,,,,,,,,,,D001,visual,4,[],"['1', '2', '3', '4']",1,2023.2.3,harveyvisual,2.1,[],8,0.75,
9,dot,0.3,['dot'],['density'],black,0,160,160,160,,,58.40020799636841,58.115655183792114,58.415640115737915,dot,"[0.1, 0.1, 0.1, 0.06, 0.06, 0.1, 0.08, 0.06, 0.08]","[[-0.01550530976013749, -0.4685693709261764], [-0.18673980358629047, -0.03677939788938074], [-0.492500386343057, -0.31631588298646995], [-0.31211872613566405, -0.49615226168915794], [-0.29213402726227655, -0.2779210730957987], [-0.48141959868665407, -0.11483975315711048], [0.2805727548720413, -0.20550850813502752], [-0.0662162642732561, -0.2200496541038322], [0.06776853683421198, -0.046300179137656175]]",density,black,,,D001,visual,4,[],"['1', '2', '3', '4']",1,2023.2.3,harveyvisual,2.1,[],8,0.75,
0,pause,0.4,None,None,None,0,161,161,161,,,,,,,,,,,,,D001,visual,4,[],"['1', '2', '3', '4']",1,2023.2.3,harveyvisual,2.1,[],8,0.75,
9,dot,0.3,['dot'],['density'],black,0,162,162,162,,,59.100213050842285,58.81562304496765,59.11564302444458,dot,"[0.06, 0.1, 0.08, 0.08, 0.1, 0.06, 0.1, 0.1, 0.08]","[[0.08964926938552661, 0.05394775442474662], [0.013667798857315082, 0.3651287039276397], [-0.3518235196438996, 0.4482863301015001], [0.0843039828244993, 0.5528122926054443], [-0.16049547673848438, 0.0730005648255046], [-0.2144141911430125, 0.27623828598157274], [0.3465547907671387, 0.0307758660088046], [-0.13596480001028877, 0.5242376261272882], [0.2304522598158348, 0.3521277948761275]]",density,black,,,D001,visual,4,[],"['1', '2', '3', '4']",1,2023.2.3,harveyvisual,2.1,[],8,0.75,
0,pause,0.4,None,None,None,0,163,163,163,,,,,,,,,,,,,D001,visual,4,[],"['1', '2', '3', '4']",1,2023.2.3,harveyvisual,2.1,[],8,0.75,
9,dot,0.3,['dot'],['density'],black,0,164,164,164,,,59.800201177597046,59.51734900474548,59.816532135009766,dot,"[0.06, 0.1, 0.08, 0.06, 0.1, 0.08, 0.1, 0.08, 0.1]","[[-0.08858128315591524, -0.3480052213079807], [0.37291707470974605, -0.0809562497479422], [-0.04311872097798103, 0.23152249840731254], [0.1734412630875083, -0.16491363602164627], [-0.024044713080900382, -0.04824256513196188], [0.126438571592319, 0.09122014985587756], [-0.2168202887682383, 0.11190421567656858], [-0.23215605484234547, -0.20356583507002532], [0.291417597339289, 0.24351333182926893]]",density,black,,,D001,visual,4,[],"['1', '2', '3', '4']",1,2023.2.3,harveyvisual,2.1,[],8,0.75,
0,pause,0.4,None,None,None,0,165,165,165,,,,,,,,,,,,,D001,visual,4,[],"['1', '2', '3', '4']",1,2023.2.3,harveyvisual,2.1,[],8,0.75,
9,dot,0.3,['dot'],['density'],black,0,166,166,166,,,60.50021505355835,60.21805715560913,60.515753984451294,dot,"[0.08, 0.06, 0.06, 0.06, 0.08, 0.1, 0.06, 0.1, 0.06]","[[-0.25982930089867384, 0.41046177320377714], [0.2391912210628672, 0.4152301159030731], [-0.011899047454085643, 0.5103750441914148], [0.15826907621474634, 0.20577518054892585], [-0.29033424199965224, 0.2058356795488901], [-0.056026696670660174, 0.08152775180209879], [-0.32571421803823364, -0.002973879155612714], [0.39820859476685, 0.29236875228581105], [-0.06367065787951752, 0.28966088639372295]]",density,black,,,D001,visual,4,[],"['1', '2', '3', '4']",1,2023.2.3,harveyvisual,2.1,[],8,0.75,
0,pause,0.4,None,None,None,0,167,167,167,,,,,,,,,,,,,D001,visual,4,[],"['1', '2', '3', '4']",1,2023.2.3,harveyvisual,2.1,[],8,0.75,
8,dot,0.3,['dot'],['density'],black,0,168,168,168,,,61.20020508766174,60.91557717323303,61.21558213233948,dot,"[0.06, 0.1, 0.08, 0.06, 0.1, 0.08, 0.06, 0.06]","[[-0.24177141476747963, 0.37227001522147646], [0.022885153928237218, 0.26973630011126315], [-0.028424808126663318, 0.474031493095366], [-0.14677856605916886, 0.1510981622513803], [-0.33541894344674456, 0.07730913931898181], [0.10840621230513336, 0.04997884008138209], [0.30094222783758756, 0.17024461371702543], [-0.056701880949321645, -0.08542646800774611]]",density,black,,,D001,visual,4,[],"['1', '2', '3', '4']",1,2023.2.3,harveyvisual,2.1,[],8,0.75,
0,pause,0.4,None,None,None,0,169,169,169,,,,,,,,,,,,,D001,visual,4,[],"['1', '2', '3', '4']",1,2023.2.3,harveyvisual,2.1,[],8,0.75,
8,dot,0.3,['dot'],['density'],black,0,170,170,170,,,61.90020513534546,61.61559510231018,61.915549993515015,dot,"[0.1, 0.08, 0.08, 0.08, 0.06, 0.06, 0.06, 0.08]","[[-0.43120034012996816, -0.3965796075128045], [0.1478983624034229, -0.46770986256388064], [-0.23058307999139557, -0.3238539366063682], [-0.07988642296593639, -0.13993938361429092], [-0.08664795903044427, -0.5418074813242995], [0.11879255589163208, -0.1637425359681226], [-0.09873641234556067, 0.08705286872936738], [-0.025120016651009644, -0.34045580780112095]]",density,black,,,D001,visual,4,[],"['1', '2', '3', '4']",1,2023.2.3,harveyvisual,2.1,[],8,0.75,
0,pause,0.4,None,None,None,0,171,171,171,,,,,,,,,,,,,D001,visual,4,[],"['1', '2', '3', '4']",1,2023.2.3,harveyvisual,2.1,[],8,0.75,
8,dot,0.3,['dot'],['density'],white,0,172,172,172,,,62.6002140045166,62.317097187042236,62.6155481338501,dot,"[0.06, 0.06, 0.06, 0.1, 0.1, 0.06, 0.08, 0.06]","[[0.2715518471235014, -0.4245138665073026], [0.03602391524707561, -0.40638782213015096], [0.4828297141312073, -0.09119901312376678], [0.02835794216237903, 0.028275321652194735], [-0.0895445032969687, -0.19822740391127236], [0.3178997883629752, 0.08245100984997318], [0.21920060966397442, -0.22342839817001514], [0.46807969757011175, -0.32427319705723295]]",density,white,,,D001,visual,4,[],"['1', '2', '3', '4']",1,2023.2.3,harveyvisual,2.1,[],8,0.75,
0,pause,0.4,None,None,None,0,173,173,173,,,,,,,,,,,1,62.39377808570862,D001,visual,4,[],"['1', '2', '3', '4']",1,2023.2.3,harveyvisual,2.1,[],8,0.75,
8,dot,0.3,['dot'],['density'],black,0,174,174,174,,,63.300228118896484,63.015592098236084,63.31551814079285,dot,"[0.08, 0.06, 0.08, 0.08, 0.06, 0.08, 0.1, 0.06]","[[-0.30918623351354413, -0.2762980118811315], [0.03442122464869854, -0.32944299641312663], [0.20656618624830034, -0.4515266663928406], [0.20458815773351877, -0.002924552385479317], [-0.054765695239429084, -0.14491701700869716], [-0.0008776159608741382, 0.05441634750414142], [0.19975410704164612, -0.21252729673777132], [-0.19330391669800595, 0.14377227853430027]]",density,black,,,D001,visual,4,[],"['1', '2', '3', '4']",1,2023.2.3,harveyvisual,2.1,[],8,0.75,
0,pause,0.4,None,None,None,0,175,175,175,,,,,,,,,,,,,D001,visual,4,[],"['1', '2', '3', '4']",1,2023.2.3,harveyvisual,2.1,[],8,0.75,
8,dot,0.3,['dot'],['density'],black,0,176,176,176,,,64.00020813941956,63.715596199035645,64.01795506477356,dot,"[0.06, 0.06, 0.06, 0.08, 0.08, 0.1, 0.1, 0.08]","[[-0.08486713456805763, -0.4233549652310786], [-0.34121661687321897, 0.009931669871959016], [0.06179899905610707, -0.01287726204627424], [-0.01080387642187049, -0.20774715314808884], [-0.2259787915635077, -0.2257096572683263], [-0.31087639520469923, -0.4457762681120083], [-0.07938707884489006, 0.17996906985975966], [-0.13919465900414296, -0.03133413505419433]]",density,black,,,D001,visual,4,[],"['1', '2', '3', '4']",1,2023.2.3,harveyvisual,2.1,[],8,0.75,
0,pause,0.4,None,None,None,0,177,177,177,,,,,,,,,,,,,D001,visual,4,[],"['1', '2', '3', '4']",1,2023.2.3,harveyvisual,2.1,[],8,0.75,
8,dot,0.3,['dot'],['density'],black,0,178,178,178,,,64.7002100944519,64.4155662059784,64.71657800674438,dot,"[0.08, 0.1, 0.1, 0.1, 0.1, 0.1, 0.1, 0.08]","[[-0.3290570048964025, 0.45712517183014534], [-0.12351728740192595, 0.19722326774196852], [-0.44617383739254307, -0.0315435053038489], [0.05824565693526591, 0.08769012542188236], [-0.4904255353169048, 0.31423420558286136], [-0.32491150822629034, 0.16696319418744587], [-0.12614658653380179, 0.4043789036591275], [0.10044097339982726, 0.3130264767685494]]",density,black,,,D001,visual,4,[],"['1', '2', '3', '4']",1,2023.2.3,harveyvisual,2.1,[],8,0.75,
0,pause,0.4,None,None,None,0,179,179,179,,,,,,,,,,,,,D001,visual,4,[],"['1', '2', '3', '4']",1,2023.2.3,harveyvisual,2.1,[],8,0.75,
7,dot,0.3,['dot'],['density'],black,0,180,180,180,,,65.40020418167114,65.11550617218018,65.4154760837555,dot,"[0.08, 0.06, 0.08, 0.06, 0.06, 0.08, 0.1]","[[-0.0009033409944170771, 0.42006327366100915], [0.07504475251916, -0.022201311189229547], [-0.3616170585675141, 0.16750883091546095], [0.025412283732210435, 0.18669523424894663], [-0.17132175432412022, 0.2677160973152203], [-0.13541388111710323, 0.00927786556165188], [-0.3032959001003911, -0.13806764794565113]]",density,black,,,D001,visual,4,[],"['1', '2', '3', '4']",1,2023.2.3,harveyvisual,2.1,[],8,0.75,
0,pause,0.4,None,None,None,0,181,181,181,,,,,,,,,,,,,D001,visual,4,[],"['1', '2', '3', '4']",1,2023.2.3,harveyvisual,2.1,[],8,0.75,
7,dot,0.3,['dot'],['density'],black,0,182,182,182,,,66.10022020339966,65.81549620628357,66.11547708511353,dot,"[0.06, 0.08, 0.06, 0.08, 0.1, 0.06, 0.08]","[[-0.4260259763687212, 0.0015611622021723967], [-0.003169876971998007, 0.13415651360788267], [-0.2586764037849864, 0.4417783913692737], [-0.4397986643511286, 0.306274470342183], [-0.0069778791964768315, 0.3653924841843964], [-0.25662591460159173, 0.21046748777052526], [-0.17930648864359452, 0.007725268650954965]]",density,black,,,D001,visual,4,[],"['1', '2', '3', '4']",1,2023.2.3,harveyvisual,2.1,[],8,0.75,
0,pause,0.4,None,None,None,0,183,183,183,,,,,,,,,,,,,D001,visual,4,[],"['1', '2', '3', '4']",1,2023.2.3,harveyvisual,2.1,[],8,0.75,
7,dot,0.3,['dot'],['density'],white,0,184,184,184,,,66.80020403862,66.51545000076294,66.81547212600708,dot,"[0.08, 0.06, 0.08, 0.08, 0.08, 0.08, 0.06]","[[0.27964692832129656, -0.15500474148311624], [0.48019533028943556, 0.09933774746227163], [0.08203545767143021, 0.28019381302663365], [0.05572057582720619, -0.1426303369841539], [0.31711281236335803, 0.2944831276535668], [-0.041479771322150735, 0.11885700406191958], [0.21045310206912196, 0.07075003364957701]]",density,white,,,D001,visual,4,[],"['1', '2', '3', '4']",1,2023.2.3,harveyvisual,2.1,[],8,0.75,
0,pause,0.4,None,None,None,0,185,185,185,,,,,,,,,,,1,66.5802891254425,D001,visual,4,[],"['1', '2', '3', '4']",1,2023.2.3,harveyvisual,2.1,[],8,0.75,
7,dot,0.3,['dot'],['density'],black,0,186,186,186,,,67.5002191066742,67.21648406982422,67.51543521881104,dot,"[0.06, 0.08, 0.06, 0.1, 0.06, 0.08, 0.08]","[[-0.0015444251822213466, 0.17452400993182896], [-0.3864233363803332, 0.3856338194384884], [-0.45841970572989144, 0.11901701190004808], [-0.23552014845846486, 0.11986313412455778], [-0.06694767956243396, -0.029831379541550785], [-0.3576154478026905, -0.11072010138878656], [-0.17113735677840214, 0.37123035181888253]]",density,black,,,D001,visual,4,[],"['1', '2', '3', '4']",1,2023.2.3,harveyvisual,2.1,[],8,0.75,
0,pause,0.4,None,None,None,0,187,187,187,,,,,,,,,,,,,D001,visual,4,[],"['1', '2', '3', '4']",1,2023.2.3,harveyvisual,2.1,[],8,0.75,
7,dot,0.3,['dot'],['density'],black,0,188,188,188,,,68.20023012161255,67.91547298431396,68.21547818183899,dot,"[0.08, 0.06, 0.1, 0.08, 0.06, 0.06, 0.1]","[[0.23608374802607182, -0.42864299173344095], [-0.09209027036414452, -0.12416238309953632], [0.2788105912293623, 0.0033410667889120396], [0.04539289310230788, 0.08875296613859053], [0.036272769320452085, -0.32980830156280494], [-0.23317126701056543, -0.2895908304292693], [0.15392952834370008, -0.16140965755482034]]",density,black,,,D001,visual,4,[],"['1', '2', '3', '4']",1,2023.2.3,harveyvisual,2.1,[],8,0.75,
0,pause,0.4,None,None,None,0,189,189,189,,,,,,,,,,,,,D001,visual,4,[],"['1', '2', '3', '4']",1,2023.2.3,harveyvisual,2.1,[],8,0.75,
7,dot,0.3,['dot'],['density'],black,0,190,190,190,,,68.90022802352905,68.61547017097473,68.91547107696533,dot,"[0.1, 0.08, 0.1, 0.08, 0.08, 0.06, 0.06]","[[-0.0009033409944170771, 0.42006327366100915], [0.07504475251916, -0.022201311189229547], [-0.3616170585675141, 0.16750883091546095], [0.025412283732210435, 0.18669523424894663], [-0.17132175432412022, 0.2677160973152203], [-0.13541388111710323, 0.00927786556165188], [-0.3032959001003911, -0.13806764794565113]]",density,black,,,D001,visual,4,[],"['1', '2', '3', '4']",1,2023.2.3,harveyvisual,2.1,[],8,0.75,
0,pause,0.4,None,None,None,0,191,191,191,,,,,,,,,,,,,D001,visual,4,[],"['1', '2', '3', '4']",1,2023.2.3,harveyvisual,2.1,[],8,0.75,
6,dot,0.3,['dot'],['density'],black,0,192,192,192,,,69.60021114349365,69.31538414955139,69.61538600921631,dot,"[0.1, 0.08, 0.1, 0.06, 0.08, 0.06]","[[-0.2094991805307552, 0.08302354111181451], [0.09557258300728075, 0.3458622669714129], [0.22056408800171526, -0.017094369341425636], [0.026601936584830878, 0.1297564650757722], [-0.11681768564656844, 0.2726391152528644], [-0.03570146891163527, -0.09222923444939024]]",density,black,,,D001,visual,4,[],"['1', '2', '3', '4']",1,2023.2.3,harveyvisual,2.1,[],8,0.75,
0,pause,0.4,None,None,None,0,193,193,193,,,,,,,,,,,,,D001,visual,4,[],"['1', '2', '3', '4']",1,2023.2.3,harveyvisual,2.1,[],8,0.75,
6,dot,0.3,['dot'],['density'],black,0,194,194,194,,,70.30021119117737,70.01535701751709,70.31537413597107,dot,"[0.1, 0.06, 0.06, 0.08, 0.08, 0.06]","[[-0.4130096743352808, -0.09152271377164663], [-0.19778223104980006, -0.03862987845790588], [-0.5782793278508197, 0.04067119283421001], [-0.2942915267906656, -0.3673297053134895], [-0.33560074172492643, 0.119885218799542], [-0.5263932498355091, -0.25924495598585295]]",density,black,,,D001,visual,4,[],"['1', '2', '3', '4']",1,2023.2.3,harveyvisual,2.1,[],8,0.75,
0,pause,0.4,None,None,None,0,195,195,195,,,,,,,,,,,,,D001,visual,4,[],"['1', '2', '3', '4']",1,2023.2.3,harveyvisual,2.1,[],8,0.75,
6,dot,0.3,['dot'],['density'],black,0,196,196,196,,,71.00023102760315,70.71538209915161,71.01537704467773,dot,"[0.06, 0.08, 0.1, 0.08, 0.1, 0.1]","[[-0.4718675517483807, -0.080313523620691], [-0.31247550484642445, -0.23218356379105512], [-0.2575593735283343, 0.24158811959194182], [-0.2948669609652105, 0.017652028830845004], [-0.0883702388727292, 0.027494606567874856], [-0.45154527444290743, 0.17691331155056722]]",density,black,,,D001,visual,4,[],"['1', '2', '3', '4']",1,2023.2.3,harveyvisual,2.1,[],8,0.75,
0,pause,0.4,None,None,None,0,197,197,197,,,,,,,,,,,,,D001,visual,4,[],"['1', '2', '3', '4']",1,2023.2.3,harveyvisual,2.1,[],8,0.75,
6,dot,0.3,['dot'],['density'],black,0,198,198,198,,,71.70022320747375,71.41533017158508,71.71530103683472,dot,"[0.1, 0.08, 0.1, 0.08, 0.08, 0.08]","[[-0.3495133471434448, -0.27378397825191725], [-0.13100446626766318, 0.13866361521721876], [-0.5155090776439144, 0.11776884681908774], [-0.4780287848267884, -0.11588239978167382], [-0.11897161770401087, -0.0933943475842369], [-0.303431097341306, -0.010759678588622423]]",density,black,,,D001,visual,4,[],"['1', '2', '3', '4']",1,2023.2.3,harveyvisual,2.1,[],8,0.75,
0,pause,0.4,None,None,None,0,199,199,199,,,,,,,,,,,,,D001,visual,4,[],"['1', '2', '3', '4']",1,2023.2.3,harveyvisual,2.1,[],8,0.75,
6,dot,0.3,['dot'],['density'],black,0,200,200,200,,,72.40021300315857,72.11534714698792,72.4153380393982,dot,"[0.08, 0.08, 0.1, 0.06, 0.06, 0.1]","[[-0.2715212558254698, 0.2586056842756752], [-0.41011716394998093, -0.23288273174477314], [-0.4259032553852052, 0.02963770343160952], [-0.037696467485790364, -0.07921729390734374], [-0.19058944014171011, 0.07565381115733183], [-0.22931220879523878, -0.14417898787482208]]",density,black,,,D001,visual,4,[],"['1', '2', '3', '4']",1,2023.2.3,harveyvisual,2.1,[],8,0.75,
0,pause,0.4,None,None,None,0,201,201,201,,,,,,,,,,,,,D001,visual,4,[],"['1', '2', '3', '4']",1,2023.2.3,harveyvisual,2.1,[],8,0.75,
6,dot,0.3,['dot'],['density'],black,0,202,202,202,,,73.10022521018982,72.81532001495361,73.11635303497314,dot,"[0.08, 0.08, 0.06, 0.06, 0.08, 0.1]","[[0.5108460974500976, 0.10904555526594768], [0.5033362887342737, -0.29902707163897635], [0.3062164979741722, 0.05793810054487639], [0.22849736264613016, -0.28041776899433873], [0.12909977445373055, -0.06500178518750158], [0.41889526300287094, -0.11616960582105396]]",density,black,,,D001,visual,4,[],"['1', '2', '3', '4']",1,2023.2.3,harveyvisual,2.1,[],8,0.75,
0,pause,0.4,None,None,None,0,203,203,203,,,,,,,,,,,,,D001,visual,4,[],"['1', '2', '3', '4']",1,2023.2.3,harveyvisual,2.1,[],8,0.75,
5,dot,0.3,['dot'],['density'],white,0,204,204,204,,,73.80022120475769,73.51528406143188,73.81528210639954,dot,"[0.1, 0.08, 0.1, 0.1, 0.1]","[[-0.5348211864270219, -0.08335004612931018], [-0.428892633085643, 0.14758700623805307], [-0.3277098387322906, -0.27887202276080253], [-0.29687101947458117, -0.03792463078145938], [-0.23363771935579355, 0.21194794904782605]]",density,white,,,D001,visual,4,[],"['1', '2', '3', '4']",1,2023.2.3,harveyvisual,2.1,[],8,0.75,
0,pause,0.4,None,None,None,0,205,205,205,,,,,,,,,,,1,73.54517817497253,D001,visual,4,[],"['1', '2', '3', '4']",1,2023.2.3,harveyvisual,2.1,[],8,0.75,
5,dot,0.3,['dot'],['density'],black,0,206,206,206,,,74.50020718574524,74.21532106399536,74.51530814170837,dot,"[0.08, 0.08, 0.06, 0.06, 0.08]","[[-0.13667773294397823, -0.4810836359727921], [0.22435054442879343, -0.38211739689247126], [0.18745946747878278, -0.17039478388844306], [0.024239655080151325, -0.29759851870815907], [0.08919077751561523, -0.5300131723353856]]",density,black,,,D001,visual,4,[],"['1', '2', '3', '4']",1,2023.2.3,harveyvisual,2.1,[],8,0.75,
0,pause,0.4,None,None,None,0,207,207,207,,,,,,,,,,,,,D001,visual,4,[],"['1', '2', '3', '4']",1,2023.2.3,harveyvisual,2.1,[],8,0.75,
5,dot,0.3,['dot'],['density'],white,0,208,208,208,,,75.20022916793823,74.91528105735779,75.21635413169861,dot,"[0.1, 0.1, 0.1, 0.08, 0.08]","[[0.34746533592570195, 0.16118282603596082], [0.14457128296481445, 0.28865621170929245], [0.4549189851861922, 0.34228556952890804], [0.008483415068308318, 0.44103246018778014], [0.27150044131742485, 0.4621652121832405]]",density,white,,,D001,visual,4,[],"['1', '2', '3', '4']",1,2023.2.3,harveyvisual,2.1,[],8,0.75,
0,pause,0.4,None,None,None,0,209,209,209,,,,,,,,,,,1,75.01233315467834,D001,visual,4,[],"['1', '2', '3', '4']",1,2023.2.3,harveyvisual,2.1,[],8,0.75,
5,dot,0.3,['dot'],['density'],black,0,210,210,210,,,75.9002161026001,75.61756014823914,75.91523003578186,dot,"[0.08, 0.08, 0.08, 0.1, 0.08]","[[0.05896558140131438, -0.5342250951568444], [0.41924064092593105, -0.38742881471212404], [0.0789485457987589, -0.15857793529431863], [0.19859038409043042, -0.3300393182504279], [-0.04229804568701367, -0.31959008629620334]]",density,black,,,D001,visual,4,[],"['1', '2', '3', '4']",1,2023.2.3,harveyvisual,2.1,[],8,0.75,
0,pause,0.4,None,None,None,0,211,211,211,,,,,,,,,,,,,D001,visual,4,[],"['1', '2', '3', '4']",1,2023.2.3,harveyvisual,2.1,[],8,0.75,
5,dot,0.3,['dot'],['density'],black,0,212,212,212,,,76.60022521018982,76.31522011756897,76.61519408226013,dot,"[0.06, 0.1, 0.1, 0.1, 0.06]","[[0.05896558140131438, -0.5342250951568444], [0.41924064092593105, -0.38742881471212404], [0.0789485457987589, -0.15857793529431863], [0.19859038409043042, -0.3300393182504279], [-0.04229804568701367, -0.31959008629620334]]",density,black,,,D001,visual,4,[],"['1', '2', '3', '4']",1,2023.2.3,harveyvisual,2.1,[],8,0.75,
0,pause,0.4,None,None,None,0,213,213,213,,,,,,,,,,,,,D001,visual,4,[],"['1', '2', '3', '4']",1,2023.2.3,harveyvisual,2.1,[],8,0.75,
5,dot,0.3,['dot'],['density'],black,0,214,214,214,,,77.30022120475769,77.0152280330658,77.3152391910553,dot,"[0.06, 0.1, 0.06, 0.08, 0.1]","[[0.11182935554897071, 0.3084500478813638], [0.20284409002608467, 0.5199666233992849], [0.31882748915707354, 0.1252782162051447], [0.39083404861423326, 0.3494221689807338], [0.1196046891632849, 0.10173499350566408]]",density,black,,,D001,visual,4,[],"['1', '2', '3', '4']",1,2023.2.3,harveyvisual,2.1,[],8,0.75,
0,pause,0.4,None,None,None,0,215,215,215,,,,,,,,,,,,,D001,visual,4,[],"['1', '2', '3', '4']",1,2023.2.3,harveyvisual,2.1,[],8,0.75,
4,dot,0.3,['dot'],['density'],black,0,216,216,216,,,78.00020503997803,77.71526598930359,78.01518201828003,dot,"[0.1, 0.1, 0.06, 0.08]","[[-0.22375678750486633, 0.16938766720995918], [-0.03438308412182927, 0.2632029670309489], [0.15312837370161694, 0.1265605786946886], [-0.035433382102469414, 0.014828983441921377]]",density,black,,,D001,visual,4,[],"['1', '2', '3', '4']",1,2023.2.3,harveyvisual,2.1,[],8,0.75,
0,pause,0.4,None,None,None,0,217,217,217,,,,,,,,,,,,,D001,visual,4,[],"['1', '2', '3', '4']",1,2023.2.3,harveyvisual,2.1,[],8,0.75,
4,dot,0.3,['dot'],['density'],black,0,218,218,218,,,78.70021605491638,78.41523098945618,78.71522307395935,dot,"[0.06, 0.1, 0.1, 0.1]","[[-0.035956560563939345, -0.32709283091503677], [-0.2190429995428959, -0.2035699502326352], [-0.06992348234594314, -0.5664776463754845], [-0.220471277594294, -0.41208836036752056]]",density,black,,,D001,visual,4,[],"['1', '2', '3', '4']",1,2023.2.3,harveyvisual,2.1,[],8,0.75,
0,pause,0.4,None,None,None,0,219,219,219,,,,,,,,,,,,,D001,visual,4,[],"['1', '2', '3', '4']",1,2023.2.3,harveyvisual,2.1,[],8,0.75,
4,dot,0.3,['dot'],['density'],black,0,220,220,220,,,79.40021109580994,79.1151762008667,79.41515803337097,dot,"[0.08, 0.08, 0.06, 0.06]","[[0.3510671072586959, 0.39105757673094776], [0.13754249634966464, 0.24690230999823115], [0.2791454519284172, 0.028997379515453933], [0.42442503262497266, 0.18132357243737673]]",density,black,,,D001,visual,4,[],"['1', '2', '3', '4']",1,2023.2.3,harveyvisual,2.1,[],8,0.75,
0,pause,0.4,None,None,None,0,221,221,221,,,,,,,,,,,,,D001,visual,4,[],"['1', '2', '3', '4']",1,2023.2.3,harveyvisual,2.1,[],8,0.75,
4,dot,0.3,['dot'],['density'],white,0,222,222,222,,,80.10020899772644,79.81521511077881,80.11519408226013,dot,"[0.1, 0.1, 0.08, 0.06]","[[-0.22711054503220823, -0.5144049053218714], [-0.016307770745122817, -0.5558659767831347], [-0.26432457165568224, -0.2824025039497699], [-0.026303944553407815, -0.34464361634901186]]",density,white,,,D001,visual,4,[],"['1', '2', '3', '4']",1,2023.2.3,harveyvisual,2.1,[],8,0.75,
0,pause,0.4,None,None,None,0,223,223,223,,,,,,,,,,,1,79.9699501991272,D001,visual,4,[],"['1', '2', '3', '4']",1,2023.2.3,harveyvisual,2.1,[],8,0.75,
4,dot,0.3,['dot'],['density'],black,0,224,224,224,,,80.80023217201233,80.51519298553467,80.81515121459961,dot,"[0.06, 0.08, 0.1, 0.06]","[[0.0015408600658227804, 0.35051751062746694], [-0.20674122870780898, 0.3211588031025307], [-0.08430622538187964, 0.13383917563087117], [0.1780252705082131, 0.19175915241248492]]",density,black,,,D001,visual,4,[],"['1', '2', '3', '4']",1,2023.2.3,harveyvisual,2.1,[],8,0.75,
0,pause,0.4,None,None,None,0,225,225,225,,,,,,,,,,,,,D001,visual,4,[],"['1', '2', '3', '4']",1,2023.2.3,harveyvisual,2.1,[],8,0.75,
4,dot,0.3,['dot'],['density'],black,0,226,226,226,,,81.50021815299988,81.21515107154846,81.51508021354675,dot,"[0.1, 0.1, 0.06, 0.06]","[[0.2593869086993074, -0.26887741013308497], [0.09674879007849839, -0.39609983087723066], [-0.011093693993988496, -0.14004324908426333], [0.28630805459639813, -0.4681830009867555]]",density,black,,,D001,visual,4,[],"['1', '2', '3', '4']",1,2023.2.3,harveyvisual,2.1,[],8,0.75,
0,pause,0.4,None,None,None,0,227,227,227,,,,,,,,,,,,,D001,visual,4,[],"['1', '2', '3', '4']",1,2023.2.3,harveyvisual,2.1,[],8,0.75,
3,dot,0.3,['dot'],['density'],black,0,228,228,228,,,82.20021915435791,81.91506719589233,82.21508002281189,dot,"[0.06, 0.08, 0.1]","[[-0.5081709494874314, 0.1572673197774781], [-0.37009835501087307, 0.006965763417246156], [-0.5707172634768017, -0.07177594851347295]]",density,black,,,D001,visual,4,[],"['1', '2', '3', '4']",1,2023.2.3,harveyvisual,2.1,[],8,0.75,
0,pause,0.4,None,None,None,0,229,229,229,,,,,,,,,,,,,D001,visual,4,[],"['1', '2', '3', '4']",1,2023.2.3,harveyvisual,2.1,[],8,0.75,
3,dot,0.3,['dot'],['density'],black,0,230,230,230,,,82.90021300315857,82.61509203910828,82.91503310203552,dot,"[0.1, 0.08, 0.08]","[[0.2656832518280197, 0.0014864193765316018], [0.3503107158811183, -0.1826455867164705], [0.5188928509039705, -0.04177453376365527]]",density,black,,,D001,visual,4,[],"['1', '2', '3', '4']",1,2023.2.3,harveyvisual,2.1,[],8,0.75,
0,pause,0.4,None,None,None,0,231,231,231,,,,,,,,,,,,,D001,visual,4,[],"['1', '2', '3', '4']",1,2023.2.3,harveyvisual,2.1,[],8,0.75,
3,dot,0.3,['dot'],['density'],black,0,232,232,232,,,83.60022807121277,83.31502509117126,83.6150541305542,dot,"[0.08, 0.08, 0.06]","[[-0.15188894406744968, -0.195193050272512], [6.772800145782267e-05, -0.040844811103836635], [-0.2045693439875358, 0.0038115475482788236]]",density,black,,,D001,visual,4,[],"['1', '2', '3', '4']",1,2023.2.3,harveyvisual,2.1,[],8,0.75,
0,pause,0.4,None,None,None,0,233,233,233,,,,,,,,,,,,,D001,visual,4,[],"['1', '2', '3', '4']",1,2023.2.3,harveyvisual,2.1,[],8,0.75,
3,dot,0.3,['dot'],['density'],black,0,234,234,234,,,84.30021405220032,84.01505708694458,84.31503319740295,dot,"[0.06, 0.08, 0.06]","[[-0.3082868261871679, -0.3137599619928766], [-0.14816041357862977, -0.19371393562593295], [-0.35304767783039576, -0.10610354059871957]]",density,black,,,D001,visual,4,[],"['1', '2', '3', '4']",1,2023.2.3,harveyvisual,2.1,[],8,0.75,
0,pause,0.4,None,None,None,0,235,235,235,,,,,,,,,,,,,D001,visual,4,[],"['1', '2', '3', '4']",1,2023.2.3,harveyvisual,2.1,[],8,0.75,
3,dot,0.3,['dot'],['density'],black,0,236,236,236,,,85.00022912025452,84.71612310409546,85.01501202583313,dot,"[0.08, 0.08, 0.1]","[[-0.17720328293608806, -0.4514300161601115], [0.022754438065530718, -0.42143894503716073], [-0.10940085810899225, -0.24791511077847575]]",density,black,,,D001,visual,4,[],"['1', '2', '3', '4']",1,2023.2.3,harveyvisual,2.1,[],8,0.75,
0,pause,0.4,None,None,None,0,237,237,237,,,,,,,,,,,,,D001,visual,4,[],"['1', '2', '3', '4']",1,2023.2.3,harveyvisual,2.1,[],8,0.75,
3,dot,0.3,['dot'],['density'],black,0,238,238,238,,,85.7002260684967,85.41498517990112,85.71696305274963,dot,"[0.06, 0.08, 0.1]","[[-0.27441186418729774, -0.31428620701652393], [-0.10438281902574013, -0.2032379983598837], [-0.31523395761825285, -0.08768035506307631]]",density,black,,,D001,visual,4,[],"['1', '2', '3', '4']",1,2023.2.3,harveyvisual,2.1,[],8,0.75,
0,pause,0.4,None,None,None,0,239,239,239,,,,,,,,,,,,,D001,visual,4,[],"['1', '2', '3', '4']",1,2023.2.3,harveyvisual,2.1,[],8,0.75,
2,dot,0.3,['dot'],['density'],black,0,240,240,240,,,86.40021204948425,86.11670899391174,86.41495609283447,dot,"[0.06, 0.06]","[[-0.4149324818804315, 0.28007444048998836], [-0.5260390884397633, 0.11347960973083408]]",density,black,,,D001,visual,4,[],"['1', '2', '3', '4']",1,2023.2.3,harveyvisual,2.1,[],8,0.75,
0,pause,0.4,None,None,None,0,241,241,241,,,,,,,,,,,,,D001,visual,4,[],"['1', '2', '3', '4']",1,2023.2.3,harveyvisual,2.1,[],8,0.75,
2,dot,0.3,['dot'],['density'],black,0,242,242,242,,,87.10023403167725,86.81585621833801,87.11493611335754,dot,"[0.08, 0.08]","[[-0.16440981108753766, 0.5378091218652469], [-0.08422838651173449, 0.35445914222875186]]",density,black,,,D001,visual,4,[],"['1', '2', '3', '4']",1,2023.2.3,harveyvisual,2.1,[],8,0.75,
0,pause,0.4,None,None,None,0,243,243,243,,,,,,,,,,,,,D001,visual,4,[],"['1', '2', '3', '4']",1,2023.2.3,harveyvisual,2.1,[],8,0.75,
2,dot,0.3,['dot'],['density'],black,0,244,244,244,,,87.80020999908447,87.51493215560913,87.81492114067078,dot,"[0.1, 0.06]","[[0.4101371699595759, -0.046236245446824746], [0.42481245787877703, -0.24684889303111815]]",density,black,,,D001,visual,4,[],"['1', '2', '3', '4']",1,2023.2.3,harveyvisual,2.1,[],8,0.75,
0,pause,0.4,None,None,None,0,245,245,245,,,,,,,,,,,,,D001,visual,4,[],"['1', '2', '3', '4']",1,2023.2.3,harveyvisual,2.1,[],8,0.75,
2,dot,0.3,['dot'],['density'],white,0,246,246,246,,,88.50022721290588,88.21491813659668,88.51602411270142,dot,"[0.1, 0.06]","[[0.06661886780735636, -0.3109770134588511], [-0.03502229105109153, -0.4833380692870097]]",density,white,,,D001,visual,4,[],"['1', '2', '3', '4']",1,2023.2.3,harveyvisual,2.1,[],8,0.75,
0,pause,0.4,None,None,None,0,247,247,247,,,,,,,,,,,1,88.24797511100769,D001,visual,4,[],"['1', '2', '3', '4']",1,2023.2.3,harveyvisual,2.1,[],8,0.75,
2,dot,0.3,['dot'],['density'],black,0,248,248,248,,,89.2002329826355,88.91682815551758,89.21493220329285,dot,"[0.08, 0.06]","[[0.17083311991776792, -0.05558111512160733], [0.1461049568064877, -0.25438559320493304]]",density,black,,,D001,visual,4,[],"['1', '2', '3', '4']",1,2023.2.3,harveyvisual,2.1,[],8,0.75,
0,pause,0.4,None,None,None,0,249,249,249,,,,,,,,,,,,,D001,visual,4,[],"['1', '2', '3', '4']",1,2023.2.3,harveyvisual,2.1,[],8,0.75,
2,dot,0.3,['dot'],['density'],white,0,250,250,250,,,89.9002320766449,89.61494207382202,89.91489815711975,dot,"[0.06, 0.1]","[[-0.03288134563171543, -0.4238564918242606], [-0.10611641736664675, -0.2370354775439666]]",density,white,,,D001,visual,4,[],"['1', '2', '3', '4']",1,2023.2.3,harveyvisual,2.1,[],8,0.75,
0,pause,0.4,None,None,None,0,251,251,251,,,,,,,,,,,1,89.70614814758301,D001,visual,4,[],"['1', '2', '3', '4']",1,2023.2.3,harveyvisual,2.1,[],8,0.75,
1,dot,0.3,['dot'],['density'],white,0,252,252,252,,,90.60022807121277,90.31526207923889,90.6148841381073,dot,[0.08],"[-0.06064478149429028, 0.10204082006191012]",density,white,,,D001,visual,4,[],"['1', '2', '3', '4']",1,2023.2.3,harveyvisual,2.1,[],8,0.75,
0,pause,0.4,None,None,None,0,253,253,253,,,,,,,,,,,1,90.43523120880127,D001,visual,4,[],"['1', '2', '3', '4']",1,2023.2.3,harveyvisual,2.1,[],8,0.75,
1,dot,0.3,['dot'],['density'],black,0,254,254,254,,,91.30022406578064,91.01487398147583,91.31487107276917,dot,[0.1],"[0.4765699730395091, 0.34560502551113614]",density,black,,,D001,visual,4,[],"['1', '2', '3', '4']",1,2023.2.3,harveyvisual,2.1,[],8,0.75,
0,pause,0.4,None,None,None,0,255,255,255,,,,,,,,,,,,,D001,visual,4,[],"['1', '2', '3', '4']",1,2023.2.3,harveyvisual,2.1,[],8,0.75,
1,dot,0.3,['dot'],['density'],black,0,256,256,256,,,92.00021314620972,91.71590399742126,92.01487612724304,dot,[0.06],"[0.15956500649880873, 0.2640393008039057]",density,black,,,D001,visual,4,[],"['1', '2', '3', '4']",1,2023.2.3,harveyvisual,2.1,[],8,0.75,
0,pause,0.4,None,None,None,0,257,257,257,,,,,,,,,,,,,D001,visual,4,[],"['1', '2', '3', '4']",1,2023.2.3,harveyvisual,2.1,[],8,0.75,
1,dot,0.3,['dot'],['density'],black,0,258,258,258,,,92.7002329826355,92.41486406326294,92.71485114097595,dot,[0.06],"[-0.43105706563061386, -0.18359692062194616]",density,black,,,D001,visual,4,[],"['1', '2', '3', '4']",1,2023.2.3,harveyvisual,2.1,[],8,0.75,
0,pause,0.4,None,None,None,0,259,259,259,,,,,,,,,,,,,D001,visual,4,[],"['1', '2', '3', '4']",1,2023.2.3,harveyvisual,2.1,[],8,0.75,
1,dot,0.3,['dot'],['density'],black,0,260,260,260,,,93.4002161026001,93.11485505104065,93.4148302078247,dot,[0.06],"[-0.22364231775977078, 0.4637426405669522]",density,black,,,D001,visual,4,[],"['1', '2', '3', '4']",1,2023.2.3,harveyvisual,2.1,[],8,0.75,
0,pause,0.4,None,None,None,0,261,261,261,,,,,,,,,,,,,D001,visual,4,[],"['1', '2', '3', '4']",1,2023.2.3,harveyvisual,2.1,[],8,0.75,
1,dot,0.3,['dot'],['density'],black,0,262,262,262,,,94.10023212432861,93.81481099128723,94.11478519439697,dot,[0.06],"[-0.3631366314731191, 0.1590646049745197]",density,black,,,D001,visual,4,[],"['1', '2', '3', '4']",1,2023.2.3,harveyvisual,2.1,[],8,0.75,
0,pause,0.4,None,None,None,0,263,263,263,,,,,,,,,,,,,D001,visual,4,[],"['1', '2', '3', '4']",1,2023.2.3,harveyvisual,2.1,[],8,0.75,
20,dot,0.3,['dot'],['density'],black,0,264,264,264,,,94.80020809173584,94.5147922039032,94.81473803520203,dot,"[0.06, 0.1, 0.06, 0.08, 0.06, 0.06, 0.1, 0.1, 0.06, 0.08, 0.1, 0.08, 0.08, 0.06, 0.06, 0.08, 0.08, 0.1, 0.06, 0.08]","[[0.6003825379607578, 0.06201527171906397], [0.2835816082115892, 0.31559085050494773], [0.19771069523874008, -0.4662219500119399], [-0.385686203334651, -0.23377834977450115], [-0.4806357181449774, 0.19739133874636772], [-0.07056612618527558, -0.015185193301925914], [-0.573469290178154, -0.16415949820197448], [-0.2567475525808812, -0.3970690590715784], [0.5522422361179654, -0.1495993252919824], [-0.3600521671923532, 0.012317649880187853], [0.1961444220316939, -0.13161740269577443], [0.19361015879328247, 0.49003219693233124], [-0.2617670170646109, 0.17671994249516487], [-0.006233765425788018, -0.32371087995279163], [-0.18011339169258134, 0.4857950883730193], [0.10504275528027318, 0.24612701699769912], [0.022924390975076592, -0.5601487290947504], [0.5382376951977564, 0.2764972245306265], [0.45027775556519634, -0.33222654479632496], [-0.3943462549963873, 0.40843302130146786]]",density,black,,,D001,visual,4,[],"['1', '2', '3', '4']",1,2023.2.3,harveyvisual,2.1,[],8,0.75,
0,pause,0.4,None,None,None,0,265,265,265,,,,,,,,,,,,,D001,visual,4,[],"['1', '2', '3', '4']",1,2023.2.3,harveyvisual,2.1,[],8,0.75,
20,dot,0.3,['dot'],['density'],black,0,266,266,266,,,95.50023412704468,95.21476721763611,95.51476216316223,dot,"[0.08, 0.1, 0.06, 0.08, 0.08, 0.08, 0.08, 0.08, 0.1, 0.06, 0.1, 0.08, 0.08, 0.08, 0.08, 0.06, 0.08, 0.06, 0.08, 0.06]","[[0.43349430838890923, 0.05990823509714449], [-0.4385438033089624, -0.382408455620198], [-0.38996877077789444, 0.3834061355977438], [0.3176985524669812, 0.22781358804214957], [0.038217922653525305, 0.01994112667940151], [0.1324374125312291, -0.5396341568704728], [-0.3748317932696159, 0.058291842586727316], [-0.20994223656247046, 0.5103598756471496], [-0.02187276965629259, 0.31534397276191517], [-0.046876844070770085, -0.3229184270592733], [0.5132386289631851, -0.13144420215188732], [-0.5708816950802198, -0.1765156419931815], [-0.24953871966718494, -0.530024005164324], [0.3594177918962045, -0.2982253444659004], [0.0929828321644991, 0.5164833136995223], [-0.21325143987707262, 0.3044998796797982], [0.24510441292068552, -0.12141836764635516], [-0.247785899540377, -0.2368179190289939], [-0.12802756207509436, 0.12259549131100367], [-0.0562057170978183, -0.5200603901562783]]",density,black,,,D001,visual,4,[],"['1', '2', '3', '4']",1,2023.2.3,harveyvisual,2.1,[],8,0.75,
0,pause,0.4,None,None,None,0,267,267,267,,,,,,,,,,,,,D001,visual,4,[],"['1', '2', '3', '4']",1,2023.2.3,harveyvisual,2.1,[],8,0.75,
