num,mod,duration,shape,ll_cond,colors,.thisRepN,.thisTrialN,.thisN,.thisIndex,thisRow.t,notes,raw_global_time,t_start,t_stop,shapes,size,pos,cond,color,button,RT,participant,session,starting_run,left button (match/odd),right button (non-match/even),samples_per_block,psychopy version,expName,offset,audio,number_runs,radius,
1,dot,0.3,['dot'],['density'],black,0,0,0,0,,,2.4002068042755127,2.112848997116089,2.4126319885253906,dot,[0.06],"[-0.48958603946102763, 0.32731293615049173]",density,black,,,D001,visual,1,[],"['1', '2', '3', '4']",1,2023.2.3,harveyvisual,2.1,[],8,0.75,
0,pause,0.4,None,None,None,0,1,1,1,,,,,,,,,,,,,D001,visual,1,[],"['1', '2', '3', '4']",1,2023.2.3,harveyvisual,2.1,[],8,0.75,
1,dot,0.3,['dot'],['density'],black,0,2,2,2,,,3.1002140045166016,2.812798023223877,3.1131038665771484,dot,[0.06],"[-0.43400380483721984, 0.10531265887229962]",density,black,,,D001,visual,1,[],"['1', '2', '3', '4']",1,2023.2.3,harveyvisual,2.1,[],8,0.75,
0,pause,0.4,None,None,None,0,3,3,3,,,,,,,,,,,,,D001,visual,1,[],"['1', '2', '3', '4']",1,2023.2.3,harveyvisual,2.1,[],8,0.75,
1,dot,0.3,['dot'],['density'],black,0,4,4,4,,,3.800203800201416,3.5131049156188965,3.8130829334259033,dot,[0.06],"[0.075024325262877, 0.28946834799837856]",density,black,,,D001,visual,1,[],"['1', '2', '3', '4']",1,2023.2.3,harveyvisual,2.1,[],8,0.75,
0,pause,0.4,None,None,None,0,5,5,5,,,,,,,,,,,,,D001,visual,1,[],"['1', '2', '3', '4']",1,2023.2.3,harveyvisual,2.1,[],8,0.75,
1,dot,0.3,['dot'],['density'],black,0,6,6,6,,,4.50020694732666,4.213201999664307,4.513067007064819,dot,[0.06],"[0.5286010678554951, -0.2554598500704326]",density,black,,,D001,visual,1,[],"['1', '2', '3', '4']",1,2023.2.3,harveyvisual,2.1,[],8,0.75,
0,pause,0.4,None,None,None,0,7,7,7,,,,,,,,,,,,,D001,visual,1,[],"['1', '2', '3', '4']",1,2023.2.3,harveyvisual,2.1,[],8,0.75,
1,dot,0.3,['dot'],['density'],black,0,8,8,8,,,5.200193881988525,4.913394927978516,5.213351011276245,dot,[0.1],"[-0.40242150741388927, 0.27329756427278695]",density,black,,,D001,visual,1,[],"['1', '2', '3', '4']",1,2023.2.3,harveyvisual,2.1,[],8,0.75,
0,pause,0.4,None,None,None,0,9,9,9,,,,,,,,,,,,,D001,visual,1,[],"['1', '2', '3', '4']",1,2023.2.3,harveyvisual,2.1,[],8,0.75,
1,dot,0.3,['dot'],['density'],black,0,10,10,10,,,5.900218963623047,5.6133668422698975,5.915418863296509,dot,[0.1],"[0.31457923939875737, -0.4122609730770665]",density,black,,,D001,visual,1,[],"['1', '2', '3', '4']",1,2023.2.3,harveyvisual,2.1,[],8,0.75,
0,pause,0.4,None,None,None,0,11,11,11,,,,,,,,,,,,,D001,visual,1,[],"['1', '2', '3', '4']",1,2023.2.3,harveyvisual,2.1,[],8,0.75,
2,dot,0.3,['dot'],['density'],black,0,12,12,12,,,6.600197792053223,6.315410852432251,6.61539888381958,dot,"[0.08, 0.08]","[[0.11437717294043931, -0.408092871188616], [0.012734947149558614, -0.23578585574018435]]",density,black,,,D001,visual,1,[],"['1', '2', '3', '4']",1,2023.2.3,harveyvisual,2.1,[],8,0.75,
0,pause,0.4,None,None,None,0,13,13,13,,,,,,,,,,,,,D001,visual,1,[],"['1', '2', '3', '4']",1,2023.2.3,harveyvisual,2.1,[],8,0.75,
2,dot,0.3,['dot'],['density'],black,0,14,14,14,,,7.300221920013428,7.0153138637542725,7.315297842025757,dot,"[0.06, 0.06]","[[-0.21141336561075566, 0.4273762957479495], [-0.1407142259739198, 0.23984948612333498]]",density,black,,,D001,visual,1,[],"['1', '2', '3', '4']",1,2023.2.3,harveyvisual,2.1,[],8,0.75,
0,pause,0.4,None,None,None,0,15,15,15,,,,,,,,,,,,,D001,visual,1,[],"['1', '2', '3', '4']",1,2023.2.3,harveyvisual,2.1,[],8,0.75,
2,dot,0.3,['dot'],['density'],black,0,16,16,16,,,8.000216960906982,7.715327978134155,8.015267848968506,dot,"[0.08, 0.06]","[[-0.5356907773971091, -0.01454049690556478], [-0.3936553319468624, 0.1263392020735458]]",density,black,,,D001,visual,1,[],"['1', '2', '3', '4']",1,2023.2.3,harveyvisual,2.1,[],8,0.75,
0,pause,0.4,None,None,None,0,17,17,17,,,,,,,,,,,,,D001,visual,1,[],"['1', '2', '3', '4']",1,2023.2.3,harveyvisual,2.1,[],8,0.75,
2,dot,0.3,['dot'],['density'],black,0,18,18,18,,,8.70020580291748,8.415273904800415,8.715266942977905,dot,"[0.08, 0.06]","[[-0.03288134563171543, -0.4238564918242606], [-0.10611641736664675, -0.2370354775439666]]",density,black,,,D001,visual,1,[],"['1', '2', '3', '4']",1,2023.2.3,harveyvisual,2.1,[],8,0.75,
0,pause,0.4,None,None,None,0,19,19,19,,,,,,,,,,,,,D001,visual,1,[],"['1', '2', '3', '4']",1,2023.2.3,harveyvisual,2.1,[],8,0.75,
2,dot,0.3,['dot'],['density'],black,0,20,20,20,,,9.40020489692688,9.115261793136597,9.415239810943604,dot,"[0.08, 0.08]","[[-0.22226122312079244, -0.00806926593831646], [-0.023245446524914906, -0.037240983575548024]]",density,black,,,D001,visual,1,[],"['1', '2', '3', '4']",1,2023.2.3,harveyvisual,2.1,[],8,0.75,
0,pause,0.4,None,None,None,0,21,21,21,,,,,,,,,,,,,D001,visual,1,[],"['1', '2', '3', '4']",1,2023.2.3,harveyvisual,2.1,[],8,0.75,
2,dot,0.3,['dot'],['density'],white,0,22,22,22,,,10.100219011306763,9.815245866775513,10.11522388458252,dot,"[0.1, 0.1]","[[0.3054529246123127, 0.4455278178545299], [0.3548458028228903, 0.2510588499170468]]",density,white,,,D001,visual,1,[],"['1', '2', '3', '4']",1,2023.2.3,harveyvisual,2.1,[],8,0.75,
0,pause,0.4,None,None,None,0,23,23,23,,,,,,,,,,,1,10.395003080368042,D001,visual,1,[],"['1', '2', '3', '4']",1,2023.2.3,harveyvisual,2.1,[],8,0.75,
3,dot,0.3,['dot'],['density'],black,0,24,24,24,,,10.800215005874634,10.515247821807861,10.815237998962402,dot,"[0.1, 0.06, 0.1]","[[-0.15674404860239688, -0.25078459247658497], [0.006578924124220241, -0.41324131210186005], [0.06959682433872849, -0.20549031443856539]]",density,black,,,D001,visual,1,[],"['1', '2', '3', '4']",1,2023.2.3,harveyvisual,2.1,[],8,0.75,
0,pause,0.4,None,None,None,0,25,25,25,,,,,,,,,,,,,D001,visual,1,[],"['1', '2', '3', '4']",1,2023.2.3,harveyvisual,2.1,[],8,0.75,
3,dot,0.3,['dot'],['density'],black,0,26,26,26,,,11.500217914581299,11.21524691581726,11.515240907669067,dot,"[0.1, 0.1, 0.08]","[[0.06695044750400271, -0.4036822973150869], [0.2898428615912539, -0.43752325319744867], [0.2484486434572057, -0.2241911098289173]]",density,black,,,D001,visual,1,[],"['1', '2', '3', '4']",1,2023.2.3,harveyvisual,2.1,[],8,0.75,
0,pause,0.4,None,None,None,0,27,27,27,,,,,,,,,,,,,D001,visual,1,[],"['1', '2', '3', '4']",1,2023.2.3,harveyvisual,2.1,[],8,0.75,
3,dot,0.3,['dot'],['density'],black,0,28,28,28,,,12.200212955474854,11.915359020233154,12.215251922607422,dot,"[0.1, 0.06, 0.1]","[[-0.31319101668702665, 0.019781348947723338], [-0.5473895760332308, 0.024991247927059115], [-0.4494119348059314, -0.1602141851013313]]",density,black,,,D001,visual,1,[],"['1', '2', '3', '4']",1,2023.2.3,harveyvisual,2.1,[],8,0.75,
0,pause,0.4,None,None,None,0,29,29,29,,,,,,,,,,,,,D001,visual,1,[],"['1', '2', '3', '4']",1,2023.2.3,harveyvisual,2.1,[],8,0.75,
3,dot,0.3,['dot'],['density'],black,0,30,30,30,,,12.900211811065674,12.615230798721313,12.915191888809204,dot,"[0.06, 0.1, 0.1]","[[-0.18534860244577742, 0.5145019772121514], [0.05660586421610542, 0.42456432010350276], [-0.11463700911578348, 0.31489985189225056]]",density,black,,,D001,visual,1,[],"['1', '2', '3', '4']",1,2023.2.3,harveyvisual,2.1,[],8,0.75,
0,pause,0.4,None,None,None,0,31,31,31,,,,,,,,,,,,,D001,visual,1,[],"['1', '2', '3', '4']",1,2023.2.3,harveyvisual,2.1,[],8,0.75,
3,dot,0.3,['dot'],['density'],black,0,32,32,32,,,13.60020899772644,13.31514286994934,13.615125894546509,dot,"[0.06, 0.1, 0.06]","[[-0.5649268285189266, -0.02945458741690218], [-0.36332336008090005, 0.05160617148840915], [-0.5004673786076542, 0.20230308468415367]]",density,black,,,D001,visual,1,[],"['1', '2', '3', '4']",1,2023.2.3,harveyvisual,2.1,[],8,0.75,
0,pause,0.4,None,None,None,0,33,33,33,,,,,,,,,,,,,D001,visual,1,[],"['1', '2', '3', '4']",1,2023.2.3,harveyvisual,2.1,[],8,0.75,
3,dot,0.3,['dot'],['density'],black,0,34,34,34,,,14.300215005874634,14.015152931213379,14.315128803253174,dot,"[0.08, 0.1, 0.1]","[[-0.32034981165049564, 0.18083778238314796], [-0.3344619052850136, -0.04022521570367012], [-0.13485517643248812, 0.10330846540140716]]",density,black,,,D001,visual,1,[],"['1', '2', '3', '4']",1,2023.2.3,harveyvisual,2.1,[],8,0.75,
0,pause,0.4,None,None,None,0,35,35,35,,,,,,,,,,,,,D001,visual,1,[],"['1', '2', '3', '4']",1,2023.2.3,harveyvisual,2.1,[],8,0.75,
4,dot,0.3,['dot'],['density'],black,0,36,36,36,,,15.00020694732666,14.715163946151733,15.01512098312378,dot,"[0.06, 0.06, 0.06, 0.1]","[[-0.0389916918612136, -0.388752419995929], [-0.2709884701808293, -0.36873671266769453], [0.09349318837137091, -0.23801008290575854], [-0.09100040788429245, -0.11490803606521542]]",density,black,,,D001,visual,1,[],"['1', '2', '3', '4']",1,2023.2.3,harveyvisual,2.1,[],8,0.75,
0,pause,0.4,None,None,None,0,37,37,37,,,,,,,,,,,,,D001,visual,1,[],"['1', '2', '3', '4']",1,2023.2.3,harveyvisual,2.1,[],8,0.75,
4,dot,0.3,['dot'],['density'],white,0,38,38,38,,,15.70021390914917,15.415102005004883,15.715123891830444,dot,"[0.08, 0.08, 0.08, 0.1]","[[-0.4116264312708952, 0.16775371224632304], [-0.5618780911112883, -0.04134114392370045], [-0.3363713887364365, -0.04915619770205748], [-0.48212301157369764, -0.2249233832905235]]",density,white,,,D001,visual,1,[],"['1', '2', '3', '4']",1,2023.2.3,harveyvisual,2.1,[],8,0.75,
0,pause,0.4,None,None,None,0,39,39,39,,,,,,,,,,,1,15.81966519355774,D001,visual,1,[],"['1', '2', '3', '4']",1,2023.2.3,harveyvisual,2.1,[],8,0.75,
4,dot,0.3,['dot'],['density'],black,0,40,40,40,,,16.400221824645996,16.115145921707153,16.415223836898804,dot,"[0.1, 0.08, 0.1, 0.08]","[[0.041567121943163726, -0.05225384285034155], [-0.0805660347394345, -0.3501797602382367], [-0.1695568067340664, -0.0700859275369407], [0.1361950610904954, -0.2628340353233457]]",density,black,,,D001,visual,1,[],"['1', '2', '3', '4']",1,2023.2.3,harveyvisual,2.1,[],8,0.75,
0,pause,0.4,None,None,None,0,41,41,41,,,,,,,,,,,,,D001,visual,1,[],"['1', '2', '3', '4']",1,2023.2.3,harveyvisual,2.1,[],8,0.75,
4,dot,0.3,['dot'],['density'],black,0,42,42,42,,,17.100201845169067,16.815229892730713,17.115078926086426,dot,"[0.1, 0.06, 0.1, 0.06]","[[0.0004228548582206217, 0.4437421379736539], [0.24572762857664815, 0.2260868474052859], [0.007756854070108054, 0.1846819218217072], [0.22099789303306372, 0.4278063517398125]]",density,black,,,D001,visual,1,[],"['1', '2', '3', '4']",1,2023.2.3,harveyvisual,2.1,[],8,0.75,
0,pause,0.4,None,None,None,0,43,43,43,,,,,,,,,,,,,D001,visual,1,[],"['1', '2', '3', '4']",1,2023.2.3,harveyvisual,2.1,[],8,0.75,
4,dot,0.3,['dot'],['density'],black,0,44,44,44,,,17.80020499229431,17.51521587371826,17.81520700454712,dot,"[0.1, 0.06, 0.08, 0.06]","[[0.15462156444594843, 0.0379601134824338], [-0.046642739949193296, 0.06510400621286498], [0.12320708371464141, 0.2499967514902957], [-0.13279798436850673, 0.2624558601457805]]",density,black,,,D001,visual,1,[],"['1', '2', '3', '4']",1,2023.2.3,harveyvisual,2.1,[],8,0.75,
0,pause,0.4,None,None,None,0,45,45,45,,,,,,,,,,,,,D001,visual,1,[],"['1', '2', '3', '4']",1,2023.2.3,harveyvisual,2.1,[],8,0.75,
4,dot,0.3,['dot'],['density'],black,0,46,46,46,,,18.50022292137146,18.215065956115723,18.515187978744507,dot,"[0.06, 0.06, 0.1, 0.08]","[[-0.3884818304242726, 0.11421243679268873], [-0.11472928134965246, -0.13141119473891247], [-0.1657593024508462, 0.13368900033666462], [-0.36655717599886073, -0.10387254737714131]]",density,black,,,D001,visual,1,[],"['1', '2', '3', '4']",1,2023.2.3,harveyvisual,2.1,[],8,0.75,
0,pause,0.4,None,None,None,0,47,47,47,,,,,,,,,,,,,D001,visual,1,[],"['1', '2', '3', '4']",1,2023.2.3,harveyvisual,2.1,[],8,0.75,
5,dot,0.3,['dot'],['density'],black,0,48,48,48,,,19.20021080970764,18.915043830871582,19.214998960494995,dot,"[0.08, 0.1, 0.1, 0.08, 0.1]","[[0.26736814946294957, 0.039639821311179], [0.3007085492035367, 0.3262250213434343], [0.4353907115448318, -0.11778011175670104], [0.4521497692138949, 0.1289853794543976], [0.1485908728023605, -0.12275462689891227]]",density,black,,,D001,visual,1,[],"['1', '2', '3', '4']",1,2023.2.3,harveyvisual,2.1,[],8,0.75,
0,pause,0.4,None,None,None,0,49,49,49,,,,,,,,,,,,,D001,visual,1,[],"['1', '2', '3', '4']",1,2023.2.3,harveyvisual,2.1,[],8,0.75,
5,dot,0.3,['dot'],['density'],black,0,50,50,50,,,19.900200843811035,19.61499285697937,19.915000915527344,dot,"[0.08, 0.06, 0.1, 0.06, 0.06]","[[-0.20882687658313398, 0.05979685123170853], [0.07709165915785691, 0.33819008637117026], [0.02323578322535992, 0.12175330968231063], [0.02522363087913582, -0.08718927316059993], [-0.12152044988768049, 0.28453648995279207]]",density,black,,,D001,visual,1,[],"['1', '2', '3', '4']",1,2023.2.3,harveyvisual,2.1,[],8,0.75,
0,pause,0.4,None,None,None,0,51,51,51,,,,,,,,,,,,,D001,visual,1,[],"['1', '2', '3', '4']",1,2023.2.3,harveyvisual,2.1,[],8,0.75,
5,dot,0.3,['dot'],['density'],black,0,52,52,52,,,20.600202798843384,20.31498885154724,20.614974975585938,dot,"[0.08, 0.06, 0.08, 0.08, 0.06]","[[-0.006164932418690097, -0.4528126201229341], [-0.1681524682570009, -0.11721653268637569], [-0.1959903964051736, -0.3710708837277218], [0.03544926667602863, -0.1302589477940128], [0.16830580561999814, -0.32298356607012285]]",density,black,,,D001,visual,1,[],"['1', '2', '3', '4']",1,2023.2.3,harveyvisual,2.1,[],8,0.75,
0,pause,0.4,None,None,None,0,53,53,53,,,,,,,,,,,,,D001,visual,1,[],"['1', '2', '3', '4']",1,2023.2.3,harveyvisual,2.1,[],8,0.75,
5,dot,0.3,['dot'],['density'],black,0,54,54,54,,,21.300201892852783,21.01497983932495,21.314949989318848,dot,"[0.1, 0.1, 0.06, 0.08, 0.1]","[[-0.24811222937808852, -0.0926462173418487], [-0.0684102839715827, 0.053707960252323945], [-0.4199359189551936, 0.028595247832400618], [-0.4311232183625476, -0.17348815390478414], [-0.08153496032007611, -0.23043043025001772]]",density,black,,,D001,visual,1,[],"['1', '2', '3', '4']",1,2023.2.3,harveyvisual,2.1,[],8,0.75,
0,pause,0.4,None,None,None,0,55,55,55,,,,,,,,,,,,,D001,visual,1,[],"['1', '2', '3', '4']",1,2023.2.3,harveyvisual,2.1,[],8,0.75,
5,dot,0.3,['dot'],['density'],black,0,56,56,56,,,22.000221967697144,21.714934825897217,22.014923810958862,dot,"[0.06, 0.08, 0.1, 0.06, 0.08]","[[-0.5348211864270219, -0.08335004612931018], [-0.428892633085643, 0.14758700623805307], [-0.3277098387322906, -0.27887202276080253], [-0.29687101947458117, -0.03792463078145938], [-0.23363771935579355, 0.21194794904782605]]",density,black,,,D001,visual,1,[],"['1', '2', '3', '4']",1,2023.2.3,harveyvisual,2.1,[],8,0.75,
0,pause,0.4,None,None,None,0,57,57,57,,,,,,,,,,,,,D001,visual,1,[],"['1', '2', '3', '4']",1,2023.2.3,harveyvisual,2.1,[],8,0.75,
5,dot,0.3,['dot'],['density'],black,0,58,58,58,,,22.700222969055176,22.414917945861816,22.71490788459778,dot,"[0.1, 0.06, 0.06, 0.08, 0.06]","[[0.10176071415026891, -0.0029310292721688898], [0.32748853803000494, -0.2831003617774451], [0.10999898603900501, -0.23076615641811304], [0.2383494361888625, 0.16403485824849598], [0.3558293804179042, -0.08171974316418079]]",density,black,,,D001,visual,1,[],"['1', '2', '3', '4']",1,2023.2.3,harveyvisual,2.1,[],8,0.75,
0,pause,0.4,None,None,None,0,59,59,59,,,,,,,,,,,,,D001,visual,1,[],"['1', '2', '3', '4']",1,2023.2.3,harveyvisual,2.1,[],8,0.75,
6,dot,0.3,['dot'],['density'],black,0,60,60,60,,,23.400218963623047,23.114928007125854,23.414885997772217,dot,"[0.08, 0.08, 0.06, 0.1, 0.1, 0.08]","[[0.1382403832049451, 0.0462086450304607], [-0.07534018949214154, -0.3274433807795599], [0.3332171610134826, -0.14895102818546319], [0.22614943412716124, -0.3322834867125916], [-0.0756450994425101, -0.005640117700353421], [0.0938048843888254, -0.16909843217532775]]",density,black,,,D001,visual,1,[],"['1', '2', '3', '4']",1,2023.2.3,harveyvisual,2.1,[],8,0.75,
0,pause,0.4,None,None,None,0,61,61,61,,,,,,,,,,,,,D001,visual,1,[],"['1', '2', '3', '4']",1,2023.2.3,harveyvisual,2.1,[],8,0.75,
6,dot,0.3,['dot'],['density'],black,0,62,62,62,,,24.10021996498108,23.814883947372437,24.11489486694336,dot,"[0.08, 0.1, 0.1, 0.06, 0.06, 0.06]","[[0.2333794889108542, 0.5108688068097712], [0.17720399199515413, 0.06488002481085814], [0.3526024925964592, 0.16961020277143707], [0.1596713132306006, 0.321837067503818], [0.0007438407140586783, 0.18344495120876914], [0.42757463853404776, 0.37786691715169374]]",density,black,,,D001,visual,1,[],"['1', '2', '3', '4']",1,2023.2.3,harveyvisual,2.1,[],8,0.75,
0,pause,0.4,None,None,None,0,63,63,63,,,,,,,,,,,,,D001,visual,1,[],"['1', '2', '3', '4']",1,2023.2.3,harveyvisual,2.1,[],8,0.75,
6,dot,0.3,['dot'],['density'],white,0,64,64,64,,,24.80019998550415,24.51486086845398,24.81489086151123,dot,"[0.1, 0.1, 0.08, 0.1, 0.06, 0.1]","[[0.1442800129286608, -0.025670240792647715], [-0.253335145558221, 0.06312541807928282], [0.15340240856287354, 0.2410349392962658], [-0.1639657784688781, 0.25075335361279655], [-0.07910231793701084, -0.12784096878077061], [-0.011661193723423325, 0.11361106492824657]]",density,white,,,D001,visual,1,[],"['1', '2', '3', '4']",1,2023.2.3,harveyvisual,2.1,[],8,0.75,
0,pause,0.4,None,None,None,0,65,65,65,,,,,,,,,,,1,25.00381898880005,D001,visual,1,[],"['1', '2', '3', '4']",1,2023.2.3,harveyvisual,2.1,[],8,0.75,
6,dot,0.3,['dot'],['density'],black,0,66,66,66,,,25.500223875045776,25.2148699760437,25.51485586166382,dot,"[0.1, 0.08, 0.06, 0.08, 0.06, 0.1]","[[0.1643264729387965, -0.2471077239796436], [-0.22534804549937193, -0.4918728234310363], [-0.026166131246113146, -0.09278119687647148], [-0.24451989516519138, -0.21339523607155425], [0.11868454116144263, -0.4574197693624388], [-0.058907778787058426, -0.30919141315076737]]",density,black,,,D001,visual,1,[],"['1', '2', '3', '4']",1,2023.2.3,harveyvisual,2.1,[],8,0.75,
0,pause,0.4,None,None,None,0,67,67,67,,,,,,,,,,,,,D001,visual,1,[],"['1', '2', '3', '4']",1,2023.2.3,harveyvisual,2.1,[],8,0.75,
6,dot,0.3,['dot'],['density'],black,0,68,68,68,,,26.20022201538086,25.914840936660767,26.214815855026245,dot,"[0.06, 0.06, 0.06, 0.1, 0.06, 0.08]","[[0.404576257273406, 0.0700140295133255], [0.16236872381874318, -0.0021128728600973284], [0.5529541989122894, -0.15659614737169442], [0.13702497511457395, -0.2589057080071786], [0.36740063964394665, -0.3636528069500345], [0.3132750905084481, -0.159771579268986]]",density,black,,,D001,visual,1,[],"['1', '2', '3', '4']",1,2023.2.3,harveyvisual,2.1,[],8,0.75,
0,pause,0.4,None,None,None,0,69,69,69,,,,,,,,,,,,,D001,visual,1,[],"['1', '2', '3', '4']",1,2023.2.3,harveyvisual,2.1,[],8,0.75,
6,dot,0.3,['dot'],['density'],black,0,70,70,70,,,26.900219917297363,26.61490797996521,26.914814949035645,dot,"[0.1, 0.08, 0.1, 0.1, 0.06, 0.06]","[[-0.521575560759306, -0.09896409503936293], [-0.11005055439098525, 0.007412765662050641], [-0.2691644509192311, -0.32034241736757013], [-0.33082776037640693, 0.11579187391948328], [-0.031037041641207554, -0.21820435357846482], [-0.2943013415457968, -0.09543215727460275]]",density,black,,,D001,visual,1,[],"['1', '2', '3', '4']",1,2023.2.3,harveyvisual,2.1,[],8,0.75,
0,pause,0.4,None,None,None,0,71,71,71,,,,,,,,,,,,,D001,visual,1,[],"['1', '2', '3', '4']",1,2023.2.3,harveyvisual,2.1,[],8,0.75,
7,dot,0.3,['dot'],['density'],black,0,72,72,72,,,27.600219011306763,27.31479287147522,27.614778995513916,dot,"[0.08, 0.1, 0.06, 0.06, 0.06, 0.06, 0.1]","[[-0.16635260996794698, 0.28084462036912], [-0.40218122969076125, -0.17991686156932815], [-0.0845402480451966, 0.09445086570213204], [-0.12722724135381816, -0.176029296145206], [-0.3668576348978093, 0.24153552923633032], [-0.5374975881789634, 0.10465170418994485], [-0.31219932221879926, 0.029177302383891702]]",density,black,,,D001,visual,1,[],"['1', '2', '3', '4']",1,2023.2.3,harveyvisual,2.1,[],8,0.75,
0,pause,0.4,None,None,None,0,73,73,73,,,,,,,,,,,,,D001,visual,1,[],"['1', '2', '3', '4']",1,2023.2.3,harveyvisual,2.1,[],8,0.75,
7,dot,0.3,['dot'],['density'],black,0,74,74,74,,,28.300205945968628,28.01477599143982,28.314759969711304,dot,"[0.1, 0.1, 0.08, 0.08, 0.1, 0.06, 0.06]","[[0.21536278937261513, -0.01733091677764761], [-0.08931035591216824, -0.05246349631749078], [0.21870610454298933, 0.21067491250041093], [-0.1587576617113587, 0.26068369883413384], [0.04623079518225047, 0.4568527369480977], [0.022942391481424712, 0.13939122930077608], [-0.27674911739568203, 0.09730719745121558]]",density,black,,,D001,visual,1,[],"['1', '2', '3', '4']",1,2023.2.3,harveyvisual,2.1,[],8,0.75,
0,pause,0.4,None,None,None,0,75,75,75,,,,,,,,,,,,,D001,visual,1,[],"['1', '2', '3', '4']",1,2023.2.3,harveyvisual,2.1,[],8,0.75,
7,dot,0.3,['dot'],['density'],black,0,76,76,76,,,29.00021982192993,28.714761972427368,29.014752864837646,dot,"[0.06, 0.06, 0.08, 0.06, 0.08, 0.08, 0.08]","[[-0.27819289690075527, 0.2483046813246476], [-0.5592260237138849, -0.07980801324287977], [-0.026637344717372308, -0.10521889364121585], [-0.16909952645659185, 0.05101222878256789], [-0.21868546305501066, -0.16482274839932262], [-0.3689572500107929, 0.03738969849335829], [-0.49227831811218986, 0.2063327632277477]]",density,black,,,D001,visual,1,[],"['1', '2', '3', '4']",1,2023.2.3,harveyvisual,2.1,[],8,0.75,
0,pause,0.4,None,None,None,0,77,77,77,,,,,,,,,,,,,D001,visual,1,[],"['1', '2', '3', '4']",1,2023.2.3,harveyvisual,2.1,[],8,0.75,
7,dot,0.3,['dot'],['density'],black,0,78,78,78,,,29.700222969055176,29.414777994155884,29.714725017547607,dot,"[0.06, 0.08, 0.08, 0.08, 0.08, 0.08, 0.1]","[[0.020512593940644967, 0.06058225053891463], [-0.12457192929091994, 0.22210134043855223], [0.2267676360835929, 0.07227077176864677], [-0.19381219694833235, -0.14277017550647156], [0.096077147208419, -0.13886261858003718], [0.087393672000005, 0.26445259248386815], [-0.018663113410245565, 0.4344684582511623]]",density,black,,,D001,visual,1,[],"['1', '2', '3', '4']",1,2023.2.3,harveyvisual,2.1,[],8,0.75,
0,pause,0.4,None,None,None,0,79,79,79,,,,,,,,,,,,,D001,visual,1,[],"['1', '2', '3', '4']",1,2023.2.3,harveyvisual,2.1,[],8,0.75,
7,dot,0.3,['dot'],['density'],black,0,80,80,80,,,30.400221824645996,30.11473298072815,30.414793968200684,dot,"[0.06, 0.1, 0.1, 0.08, 0.08, 0.06, 0.06]","[[0.27964692832129656, -0.15500474148311624], [0.48019533028943556, 0.09933774746227163], [0.08203545767143021, 0.28019381302663365], [0.05572057582720619, -0.1426303369841539], [0.31711281236335803, 0.2944831276535668], [-0.041479771322150735, 0.11885700406191958], [0.21045310206912196, 0.07075003364957701]]",density,black,,,D001,visual,1,[],"['1', '2', '3', '4']",1,2023.2.3,harveyvisual,2.1,[],8,0.75,
0,pause,0.4,None,None,None,0,81,81,81,,,,,,,,,,,,,D001,visual,1,[],"['1', '2', '3', '4']",1,2023.2.3,harveyvisual,2.1,[],8,0.75,
7,dot,0.3,['dot'],['density'],black,0,82,82,82,,,31.100224018096924,30.81475591659546,31.114738941192627,dot,"[0.06, 0.06, 0.1, 0.06, 0.1, 0.08, 0.08]","[[-0.16635260996794698, 0.28084462036912], [-0.40218122969076125, -0.17991686156932815], [-0.0845402480451966, 0.09445086570213204], [-0.12722724135381816, -0.176029296145206], [-0.3668576348978093, 0.24153552923633032], [-0.5374975881789634, 0.10465170418994485], [-0.31219932221879926, 0.029177302383891702]]",density,black,,,D001,visual,1,[],"['1', '2', '3', '4']",1,2023.2.3,harveyvisual,2.1,[],8,0.75,
0,pause,0.4,None,None,None,0,83,83,83,,,,,,,,,,,,,D001,visual,1,[],"['1', '2', '3', '4']",1,2023.2.3,harveyvisual,2.1,[],8,0.75,
8,dot,0.3,['dot'],['density'],black,0,84,84,84,,,31.800215005874634,31.514724016189575,31.814669847488403,dot,"[0.08, 0.1, 0.1, 0.08, 0.1, 0.08, 0.08, 0.06]","[[-0.08486713456805763, -0.4233549652310786], [-0.34121661687321897, 0.009931669871959016], [0.06179899905610707, -0.01287726204627424], [-0.01080387642187049, -0.20774715314808884], [-0.2259787915635077, -0.2257096572683263], [-0.31087639520469923, -0.4457762681120083], [-0.07938707884489006, 0.17996906985975966], [-0.13919465900414296, -0.03133413505419433]]",density,black,,,D001,visual,1,[],"['1', '2', '3', '4']",1,2023.2.3,harveyvisual,2.1,[],8,0.75,
0,pause,0.4,None,None,None,0,85,85,85,,,,,,,,,,,,,D001,visual,1,[],"['1', '2', '3', '4']",1,2023.2.3,harveyvisual,2.1,[],8,0.75,
8,dot,0.3,['dot'],['density'],black,0,86,86,86,,,32.50022292137146,32.214672803878784,32.51466488838196,dot,"[0.08, 0.08, 0.08, 0.06, 0.1, 0.1, 0.06, 0.1]","[[-0.43120034012996816, -0.3965796075128045], [0.1478983624034229, -0.46770986256388064], [-0.23058307999139557, -0.3238539366063682], [-0.07988642296593639, -0.13993938361429092], [-0.08664795903044427, -0.5418074813242995], [0.11879255589163208, -0.1637425359681226], [-0.09873641234556067, 0.08705286872936738], [-0.025120016651009644, -0.34045580780112095]]",density,black,,,D001,visual,1,[],"['1', '2', '3', '4']",1,2023.2.3,harveyvisual,2.1,[],8,0.75,
0,pause,0.4,None,None,None,0,87,87,87,,,,,,,,,,,,,D001,visual,1,[],"['1', '2', '3', '4']",1,2023.2.3,harveyvisual,2.1,[],8,0.75,
8,dot,0.3,['dot'],['density'],black,0,88,88,88,,,33.20020794868469,32.91480898857117,33.214828968048096,dot,"[0.08, 0.08, 0.1, 0.08, 0.08, 0.1, 0.06, 0.06]","[[0.32983457944800887, -0.09988122376634187], [0.002544499336209532, 0.05447162498302279], [0.49322357980250997, 0.04173156098678792], [0.3398992085464782, -0.3241559212022164], [0.12656458423521935, -0.36323236959635974], [0.5072737450674915, -0.19500703868861743], [0.06482113683766944, -0.1422911224505784], [0.25865538318477954, 0.20042726536108785]]",density,black,,,D001,visual,1,[],"['1', '2', '3', '4']",1,2023.2.3,harveyvisual,2.1,[],8,0.75,
0,pause,0.4,None,None,None,0,89,89,89,,,,,,,,,,,,,D001,visual,1,[],"['1', '2', '3', '4']",1,2023.2.3,harveyvisual,2.1,[],8,0.75,
8,dot,0.3,['dot'],['density'],black,0,90,90,90,,,33.90021586418152,33.61485695838928,33.91468095779419,dot,"[0.06, 0.08, 0.06, 0.06, 0.08, 0.1, 0.08, 0.08]","[[-0.2875956673588428, -0.37608972473646446], [0.1738442798715151, -0.5418380206356169], [-0.005791994605287101, -0.36400925298789194], [0.15381919852689818, -0.2106776783026027], [-0.02243369038452208, -0.11017027562433494], [-0.1375601387891928, -0.5383184991665005], [0.3481619806761259, -0.4256719133417836], [-0.2437856683810358, -0.16373273019932677]]",density,black,,,D001,visual,1,[],"['1', '2', '3', '4']",1,2023.2.3,harveyvisual,2.1,[],8,0.75,
0,pause,0.4,None,None,None,0,91,91,91,,,,,,,,,,,,,D001,visual,1,[],"['1', '2', '3', '4']",1,2023.2.3,harveyvisual,2.1,[],8,0.75,
8,dot,0.3,['dot'],['density'],black,0,92,92,92,,,34.60021781921387,34.314671993255615,34.61465287208557,dot,"[0.08, 0.1, 0.1, 0.1, 0.08, 0.08, 0.06, 0.06]","[[0.11895989691250043, -0.4531686673706004], [-0.16516506104640707, -0.03240926074491446], [0.03539791161122963, 0.017706842047032937], [0.2602726326243711, -0.2021454296306109], [-0.07993394910368964, -0.42305571474287856], [-0.2833532244481061, -0.22994433794129646], [0.3633812293108319, -0.4186270945829863], [-0.04042382183071007, -0.1991401458565282]]",density,black,,,D001,visual,1,[],"['1', '2', '3', '4']",1,2023.2.3,harveyvisual,2.1,[],8,0.75,
0,pause,0.4,None,None,None,0,93,93,93,,,,,,,,,,,,,D001,visual,1,[],"['1', '2', '3', '4']",1,2023.2.3,harveyvisual,2.1,[],8,0.75,
8,dot,0.3,['dot'],['density'],black,0,94,94,94,,,35.30022192001343,35.0146210193634,35.31459379196167,dot,"[0.06, 0.06, 0.1, 0.1, 0.1, 0.1, 0.08, 0.1]","[[0.43039348711459674, -0.2176132953198537], [0.11499515674856413, 0.2899266495440316], [0.12808102003139596, -0.009244067984354065], [-0.030386771168905473, -0.2551920291624523], [0.3118809155168881, 0.2081403981228026], [-0.06282563634610334, 0.11114412413027695], [0.22944900542930163, -0.23921835558115082], [0.33219925311336224, 0.0035410395788749187]]",density,black,,,D001,visual,1,[],"['1', '2', '3', '4']",1,2023.2.3,harveyvisual,2.1,[],8,0.75,
0,pause,0.4,None,None,None,0,95,95,95,,,,,,,,,,,,,D001,visual,1,[],"['1', '2', '3', '4']",1,2023.2.3,harveyvisual,2.1,[],8,0.75,
9,dot,0.3,['dot'],['density'],black,0,96,96,96,,,36.0002179145813,35.71458387374878,36.01457095146179,dot,"[0.08, 0.08, 0.06, 0.08, 0.1, 0.08, 0.1, 0.06, 0.06]","[[-0.4219467838066047, -0.18114019941065054], [-0.2081543488995217, -0.4860059455967178], [-0.008274735502094755, -0.3457533902190916], [0.02376323820852766, -0.0891001390581758], [-0.4116277839025775, 0.058108040724694845], [-0.18144554169200455, -0.05292133149533743], [0.21944315682242976, -0.26450239569476724], [0.11466821484809545, 0.13327019789913197], [-0.2288148866166432, -0.2599929378926301]]",density,black,,,D001,visual,1,[],"['1', '2', '3', '4']",1,2023.2.3,harveyvisual,2.1,[],8,0.75,
0,pause,0.4,None,None,None,0,97,97,97,,,,,,,,,,,,,D001,visual,1,[],"['1', '2', '3', '4']",1,2023.2.3,harveyvisual,2.1,[],8,0.75,
9,dot,0.3,['dot'],['density'],black,0,98,98,98,,,36.70020794868469,36.41460084915161,36.714542865753174,dot,"[0.06, 0.08, 0.06, 0.06, 0.1, 0.06, 0.06, 0.1, 0.08]","[[-0.05049485011715354, 0.3013521193238899], [0.15354596755057998, 0.36785015051376163], [0.22995749783639982, 0.07309138415424772], [0.13460311710395165, -0.18603378415368982], [0.33097739113381164, -0.13822260855557728], [-0.16464148731134703, 0.07190493829483618], [0.521154897315396, -0.007803673430992942], [0.02684304494395013, 0.0018704401699241912], [-0.15545279255173522, -0.15329938800760382]]",density,black,,,D001,visual,1,[],"['1', '2', '3', '4']",1,2023.2.3,harveyvisual,2.1,[],8,0.75,
0,pause,0.4,None,None,None,0,99,99,99,,,,,,,,,,,,,D001,visual,1,[],"['1', '2', '3', '4']",1,2023.2.3,harveyvisual,2.1,[],8,0.75,
9,dot,0.3,['dot'],['density'],black,0,100,100,100,,,37.40022301673889,37.11453986167908,37.41452097892761,dot,"[0.06, 0.06, 0.08, 0.06, 0.08, 0.1, 0.06, 0.1, 0.06]","[[0.43694394638140777, -0.3313910020207278], [-0.12671083892604185, -0.2904925475365486], [0.20104083284362928, 0.10806727359081147], [0.1376754545064979, -0.09924520624161907], [0.19021248837847174, -0.31516489548878085], [0.3653456942078643, -0.09076399745187974], [0.1403131072824284, -0.5562242851951704], [-0.005445667935095978, 0.0898710966384087], [-0.11923067905189093, -0.07827803450029165]]",density,black,,,D001,visual,1,[],"['1', '2', '3', '4']",1,2023.2.3,harveyvisual,2.1,[],8,0.75,
0,pause,0.4,None,None,None,0,101,101,101,,,,,,,,,,,,,D001,visual,1,[],"['1', '2', '3', '4']",1,2023.2.3,harveyvisual,2.1,[],8,0.75,
9,dot,0.3,['dot'],['density'],black,0,102,102,102,,,38.100202798843384,37.81455588340759,38.11457395553589,dot,"[0.06, 0.08, 0.1, 0.06, 0.08, 0.08, 0.1, 0.08, 0.06]","[[0.5176022259896301, 0.07013652950073157], [0.29073914382076843, 0.49095716113391286], [0.25755010907869064, 0.10321661572421419], [0.11549350267606502, 0.37871636325142816], [-0.040248060121338324, 0.07603447111469516], [0.35733910828644905, -0.07238149579930037], [0.09184169877402729, -0.10424630849328012], [-0.10934901156313583, -0.14911132891814113], [0.4158094160330474, 0.26019999263529187]]",density,black,,,D001,visual,1,[],"['1', '2', '3', '4']",1,2023.2.3,harveyvisual,2.1,[],8,0.75,
0,pause,0.4,None,None,None,0,103,103,103,,,,,,,,,,,,,D001,visual,1,[],"['1', '2', '3', '4']",1,2023.2.3,harveyvisual,2.1,[],8,0.75,
9,dot,0.3,['dot'],['density'],black,0,104,104,104,,,38.80022096633911,38.51454997062683,38.814509868621826,dot,"[0.08, 0.08, 0.1, 0.08, 0.08, 0.08, 0.06, 0.06, 0.08]","[[0.43694394638140777, -0.3313910020207278], [-0.12671083892604185, -0.2904925475365486], [0.20104083284362928, 0.10806727359081147], [0.1376754545064979, -0.09924520624161907], [0.19021248837847174, -0.31516489548878085], [0.3653456942078643, -0.09076399745187974], [0.1403131072824284, -0.5562242851951704], [-0.005445667935095978, 0.0898710966384087], [-0.11923067905189093, -0.07827803450029165]]",density,black,,,D001,visual,1,[],"['1', '2', '3', '4']",1,2023.2.3,harveyvisual,2.1,[],8,0.75,
0,pause,0.4,None,None,None,0,105,105,105,,,,,,,,,,,,,D001,visual,1,[],"['1', '2', '3', '4']",1,2023.2.3,harveyvisual,2.1,[],8,0.75,
9,dot,0.3,['dot'],['density'],black,0,106,106,106,,,39.50020480155945,39.21456789970398,39.51457595825195,dot,"[0.08, 0.08, 0.08, 0.08, 0.08, 0.06, 0.06, 0.08, 0.1]","[[-0.4007656520072294, -0.25517300445391483], [-0.002534053661406415, -0.03841937385778563], [0.03867088550537559, -0.37109058839216275], [0.14298263539714814, -0.19121790068267305], [-0.18592892280395246, 0.09800459324165622], [-0.17114407793371844, -0.47763389460370764], [0.20594417137152282, 0.033112046987541804], [-0.3669302527083935, -0.010624696365658668], [-0.20182203610849478, -0.19970173151634407]]",density,black,,,D001,visual,1,[],"['1', '2', '3', '4']",1,2023.2.3,harveyvisual,2.1,[],8,0.75,
0,pause,0.4,None,None,None,0,107,107,107,,,,,,,,,,,,,D001,visual,1,[],"['1', '2', '3', '4']",1,2023.2.3,harveyvisual,2.1,[],8,0.75,
20,dot,0.3,['dot'],['density'],black,0,108,108,108,,,40.20022201538086,39.91446900367737,40.2144558429718,dot,"[0.08, 0.1, 0.06, 0.08, 0.1, 0.06, 0.1, 0.06, 0.06, 0.08, 0.06, 0.06, 0.1, 0.1, 0.1, 0.08, 0.08, 0.08, 0.1, 0.06]","[[-0.49571588144301204, 0.01790245011610292], [0.510521184065516, -0.0832634629967191], [0.5349694532824866, 0.18300492499835663], [-0.5496577264714166, -0.2222005075305582], [0.4010867772306924, -0.24786601289784269], [-0.4117940714083251, -0.4294143612441612], [-0.36131451817984384, -0.12706575039725543], [-0.23220697854122485, 0.18544935770370607], [-0.04947632923876444, -0.07244222484511909], [-0.03429672207125145, 0.4299555989714602], [-0.17335825476394567, -0.22050535072211658], [0.2606585303838954, 0.28961376154708995], [-0.1874728971091355, -0.47429534132150086], [0.12400001743095712, -0.396147631085173], [0.14104477774349522, -0.0006969205554505642], [-0.3907500814923524, 0.3650226185339619], [0.3319264127225089, -0.45354647546593424], [0.15912653961676815, 0.4789693481804139], [-0.010642301303133594, 0.11921293154179524], [0.31989642623037684, -0.06669247366462555]]",density,black,,,D001,visual,1,[],"['1', '2', '3', '4']",1,2023.2.3,harveyvisual,2.1,[],8,0.75,
0,pause,0.4,None,None,None,0,109,109,109,,,,,,,,,,,,,D001,visual,1,[],"['1', '2', '3', '4']",1,2023.2.3,harveyvisual,2.1,[],8,0.75,
20,dot,0.3,['dot'],['density'],black,0,110,110,110,,,40.90020799636841,40.61446189880371,40.91445994377136,dot,"[0.1, 0.06, 0.06, 0.06, 0.1, 0.1, 0.08, 0.1, 0.08, 0.06, 0.08, 0.1, 0.1, 0.06, 0.06, 0.1, 0.1, 0.08, 0.08, 0.08]","[[0.005521012425248162, -0.023618962770341145], [-0.4549361254043788, 0.1286968574915462], [0.5929575461675273, -0.06270646383827415], [-0.5636584957076328, -0.1681464179014539], [0.32770079136068564, 0.3741801884775263], [-0.16193855635799936, 0.5746699518533743], [0.023837578345314858, 0.2297152657132664], [-0.3339262997986123, 0.37969883300383467], [0.21676371351021295, -0.09019686238965896], [0.5172343836111258, 0.20526458598806774], [0.16828256725207436, -0.2810377510342918], [0.42136968531311514, -0.24444986775966093], [0.04300838403384044, -0.5947466450571008], [-0.32307255341720337, -0.27551800638139645], [-0.24134818712258, -0.02925323325701812], [0.22732385338193828, 0.16154584207863687], [-0.22239657005580704, -0.5160559915919695], [0.14295988941085158, 0.4526585062872729], [-0.03545624428902716, -0.22767063827104222], [0.2285963755294219, -0.4783856523966105]]",density,black,,,D001,visual,1,[],"['1', '2', '3', '4']",1,2023.2.3,harveyvisual,2.1,[],8,0.75,
0,pause,0.4,None,None,None,0,111,111,111,,,,,,,,,,,,,D001,visual,1,[],"['1', '2', '3', '4']",1,2023.2.3,harveyvisual,2.1,[],8,0.75,
20,dot,0.3,['dot'],['density'],black,0,112,112,112,,,41.60023093223572,41.316617012023926,41.61449599266052,dot,"[0.06, 0.1, 0.06, 0.08, 0.08, 0.08, 0.06, 0.1, 0.06, 0.06, 0.08, 0.08, 0.08, 0.08, 0.1, 0.08, 0.08, 0.1, 0.06, 0.08]","[[-0.004901662368758886, -0.5156357558393353], [0.31371446552579574, 0.04452913099154909], [-0.22895024425666016, -0.249385038587222], [-0.4714246403463148, -0.36260763378678157], [0.537510670043046, -0.2102051262961276], [0.5863971000734062, -0.021097727800147986], [-0.3105651102593057, 0.5102750390527817], [0.4232628256231151, 0.20389392765123293], [-0.36826689635980486, 0.09054693116665669], [-0.5951917140306424, -0.10444959368677317], [-0.13648601449097442, 0.3100669205104716], [-0.035062177146365836, -0.32138734434801974], [-0.28966698590631546, -0.43412275107003956], [0.1961479915121146, -0.5514497807022134], [0.06974243016555792, 0.281312199057107], [-0.527461253477888, 0.2275886031498235], [0.27213899115629825, -0.3458115057412532], [0.23651038569582883, 0.5335207437136571], [-0.08534187371206736, -0.007764365306170862], [0.011660431982406516, 0.5624325400329719]]",density,black,,,D001,visual,1,[],"['1', '2', '3', '4']",1,2023.2.3,harveyvisual,2.1,[],8,0.75,
0,pause,0.4,None,None,None,0,113,113,113,,,,,,,,,,,,,D001,visual,1,[],"['1', '2', '3', '4']",1,2023.2.3,harveyvisual,2.1,[],8,0.75,
20,dot,0.3,['dot'],['density'],black,0,114,114,114,,,42.30022883415222,42.01447296142578,42.31445097923279,dot,"[0.08, 0.06, 0.08, 0.06, 0.1, 0.1, 0.1, 0.06, 0.06, 0.08, 0.06, 0.1, 0.08, 0.1, 0.06, 0.06, 0.06, 0.1, 0.06, 0.06]","[[0.057930265655045554, -0.12150309237073809], [0.18212839434617334, 0.5210434775849503], [0.3534806665800556, -0.360689645042222], [0.10865114955909938, 0.23101258074905928], [0.03843818377575525, -0.4701530512569111], [-0.4351086557748284, -0.3054084870382668], [-0.17028348922017844, -0.4084572523608927], [0.42158139007186823, -0.07800662739243397], [-0.5310488509679896, -0.08094409551049989], [-0.5494492779976609, 0.24416447065509794], [-0.194397282534447, -0.026717168146264902], [0.5716253463143505, 0.09696416118083867], [0.34996270026268117, 0.40859697938348066], [-0.05718967744445247, 0.3444588993850084], [0.34710586290484324, 0.1553702864549083], [-0.17259455254705353, 0.5740616335482034], [-0.35442922625394496, 0.24906535672138352], [-0.14552805959403908, 0.16211654174290557], [-0.3458805325299758, 0.4727321173523008], [0.15085403914210194, -0.28976181380256427]]",density,black,,,D001,visual,1,[],"['1', '2', '3', '4']",1,2023.2.3,harveyvisual,2.1,[],8,0.75,
0,pause,0.4,None,None,None,0,115,115,115,,,,,,,,,,,,,D001,visual,1,[],"['1', '2', '3', '4']",1,2023.2.3,harveyvisual,2.1,[],8,0.75,
20,dot,0.3,['dot'],['density'],black,0,116,116,116,,,43.00020480155945,42.7144877910614,43.014467000961304,dot,"[0.06, 0.06, 0.06, 0.06, 0.06, 0.06, 0.08, 0.08, 0.06, 0.06, 0.1, 0.08, 0.06, 0.08, 0.06, 0.06, 0.1, 0.08, 0.1, 0.08]","[[-0.3238958567028722, 0.4167452718469046], [0.33609521994159464, 0.23443951522108886], [-0.5280715268766468, -0.1707459669919125], [0.38057600196478114, -0.44267742256019216], [-0.3426299327925952, 0.17246175361854177], [0.4688889388264629, -0.0934199575264168], [-0.04219418732980229, 0.1172883364246089], [-0.5573114198202662, 0.043745822065154455], [0.011791225157598784, 0.5934178971316985], [0.22054788563010697, 0.518984608938246], [0.032026392219656086, -0.18653161438013793], [-0.1136287785330744, -0.4585240373020704], [-0.19735822946313636, -0.1501356175803718], [-0.1770045713157266, 0.5655399780014523], [-0.30657993991617327, -0.38157934975406627], [0.09013537293247231, -0.5412120120061302], [0.5788317538164721, 0.15989491679140216], [-0.01539163566967694, 0.3594877132073595], [0.24444935658886158, -0.24165616673109497], [0.23152617218111116, -0.05060757035935515]]",density,black,,,D001,visual,1,[],"['1', '2', '3', '4']",1,2023.2.3,harveyvisual,2.1,[],8,0.75,
0,pause,0.4,None,None,None,0,117,117,117,,,,,,,,,,,,,D001,visual,1,[],"['1', '2', '3', '4']",1,2023.2.3,harveyvisual,2.1,[],8,0.75,
20,dot,0.3,['dot'],['density'],black,0,118,118,118,,,43.70022487640381,43.414405822753906,43.71440386772156,dot,"[0.08, 0.06, 0.08, 0.08, 0.08, 0.06, 0.08, 0.08, 0.08, 0.1, 0.06, 0.1, 0.08, 0.08, 0.08, 0.1, 0.1, 0.06, 0.1, 0.06]","[[-0.22515516632774435, -0.31766413052803366], [-0.5235508328725285, 0.12154560874141707], [-0.3279536331130746, 0.37005360819088984], [0.49758351344484797, 0.11348461324034137], [-0.4777561998252049, -0.20199850341061912], [0.5673110727755196, -0.1783773790547233], [0.15365969589510087, 0.4546544908908232], [-0.0500470423588214, -0.15172352548358403], [0.022769522873343773, 0.599171996348803], [-0.24747186724013603, 0.05516515876367534], [0.32434913302438284, -0.061886635723224004], [0.06316155654088307, -0.4257234130907453], [0.28544752409102325, -0.2510360628278989], [0.39940781412717585, 0.32128344425857985], [-0.07908891821603392, 0.24054113642296193], [-0.12992110126100553, -0.5853485114816994], [0.22786136832673076, 0.2225494571883294], [0.07732063333987427, 0.058400159020543185], [0.2750104903282061, -0.5251076830275789], [0.4603846230761831, -0.38117181634141095]]",density,black,,,D001,visual,1,[],"['1', '2', '3', '4']",1,2023.2.3,harveyvisual,2.1,[],8,0.75,
0,pause,0.4,None,None,None,0,119,119,119,,,,,,,,,,,,,D001,visual,1,[],"['1', '2', '3', '4']",1,2023.2.3,harveyvisual,2.1,[],8,0.75,
20,dot,0.3,['dot'],['density'],black,0,120,120,120,,,44.40021085739136,44.11439800262451,44.414381980895996,dot,"[0.06, 0.1, 0.06, 0.06, 0.08, 0.1, 0.08, 0.1, 0.06, 0.1, 0.08, 0.08, 0.08, 0.08, 0.1, 0.08, 0.08, 0.08, 0.06, 0.08]","[[0.5342118228147025, 0.0414378571096804], [0.0819489704638281, 0.12618686231493859], [0.3250304623909068, -0.2165843337677716], [-0.15417991133488768, -0.19785036237774895], [-0.49214376913702274, 0.06109003133473201], [-0.46398760807862394, 0.38209562740316627], [0.12359370585466312, -0.2972996740147197], [-0.33575706083024187, 0.23343890243352483], [0.40233584758225394, 0.4108169174941885], [-0.4655784292462839, -0.1385241215604688], [-0.06369340088251219, -0.01549525600868995], [-0.06694730402639848, 0.5856429694083904], [-0.25204870666279616, -0.44177528035591873], [0.3054598758417605, 0.162266137616476], [0.09487904871753128, 0.41057707837264523], [-0.22425334576856815, 0.42821631813081407], [-0.29179079909149425, -0.02372904929580366], [0.25544399391262373, -0.5215097155774947], [0.5450354418633955, 0.2561426736200474], [0.5670296718131745, -0.18100140801550182]]",density,black,,,D001,visual,1,[],"['1', '2', '3', '4']",1,2023.2.3,harveyvisual,2.1,[],8,0.75,
0,pause,0.4,None,None,None,0,121,121,121,,,,,,,,,,,,,D001,visual,1,[],"['1', '2', '3', '4']",1,2023.2.3,harveyvisual,2.1,[],8,0.75,
20,dot,0.3,['dot'],['density'],black,0,122,122,122,,,45.10021781921387,44.81437397003174,45.114362955093384,dot,"[0.1, 0.1, 0.1, 0.08, 0.1, 0.1, 0.08, 0.1, 0.08, 0.06, 0.08, 0.06, 0.08, 0.08, 0.06, 0.1, 0.1, 0.08, 0.08, 0.08]","[[-0.3994736747932105, 0.05830868569595965], [-0.5513004941845204, 0.17534188103378662], [-0.2777688698929542, -0.33600177623010574], [0.15592507359674246, -0.52334452540773], [0.4668158761123581, -0.22761774899644485], [0.05995853301644827, 0.5241123068311208], [-0.06045192212562989, 0.09960835045134031], [0.2548121587367982, 0.0038119450715635717], [0.34049912038215435, 0.35596492108204136], [-0.17612236697949502, 0.5787341910442971], [-0.5308853313499928, -0.18927395080386544], [-0.21945030984765695, 0.26334319204496937], [0.5486757044016316, 0.16321458356715074], [0.08957295180604519, -0.2232560956465942], [-0.23997370080982167, -0.14842143965170945], [-0.45747646878448284, 0.3962527548329619], [0.2636569560047065, -0.35597359447716603], [-0.08313058433431753, -0.5800741237756399], [0.5893652211225905, -0.04141141239950294], [-0.003731440136581776, 0.33690614395526963]]",density,black,,,D001,visual,1,[],"['1', '2', '3', '4']",1,2023.2.3,harveyvisual,2.1,[],8,0.75,
0,pause,0.4,None,None,None,0,123,123,123,,,,,,,,,,,,,D001,visual,1,[],"['1', '2', '3', '4']",1,2023.2.3,harveyvisual,2.1,[],8,0.75,
20,dot,0.3,['dot'],['density'],black,0,124,124,124,,,45.800230979919434,45.51433300971985,45.814345836639404,dot,"[0.08, 0.08, 0.06, 0.06, 0.1, 0.1, 0.06, 0.1, 0.08, 0.06, 0.1, 0.08, 0.06, 0.08, 0.06, 0.06, 0.1, 0.08, 0.08, 0.1]","[[0.44980359637883016, -0.24060804596039473], [-0.4481478267319006, 0.33491669673314195], [0.2471039302947151, -0.16614945647174345], [0.24101449217156368, -0.4504042301386313], [0.007926357440272036, 0.16708642418927444], [0.43067985953474464, 0.34513070223071735], [-0.05054236569837889, 0.4478253083188829], [-0.12486092494568574, 0.006056168906265258], [-0.03842599982630601, -0.5567086865343658], [0.4004084668548601, 0.14121516945569668], [-0.436803910890067, 0.019588430009947477], [-0.2265313200959294, 0.554932801883282], [0.5859024784414241, 0.021782806558725026], [-0.2943190228701265, 0.15414661295034893], [0.01907475987743701, -0.33369742794311597], [-0.5235005815279826, -0.23505923922446437], [0.23418059029657978, 0.35827220244953595], [0.08815441483277975, -0.01662325018271993], [-0.28409385295989603, -0.4779827936123178], [-0.18740141311640535, -0.25836513538623473]]",density,black,,,D001,visual,1,[],"['1', '2', '3', '4']",1,2023.2.3,harveyvisual,2.1,[],8,0.75,
0,pause,0.4,None,None,None,0,125,125,125,,,,,,,,,,,,,D001,visual,1,[],"['1', '2', '3', '4']",1,2023.2.3,harveyvisual,2.1,[],8,0.75,
20,dot,0.3,['dot'],['density'],black,0,126,126,126,,,46.500216007232666,46.21432590484619,46.514378786087036,dot,"[0.1, 0.06, 0.1, 0.08, 0.1, 0.06, 0.08, 0.1, 0.06, 0.1, 0.06, 0.1, 0.08, 0.06, 0.08, 0.08, 0.08, 0.1, 0.08, 0.08]","[[0.5555090240792243, 0.20687650817864542], [-0.5949757744706919, -0.07089772746316957], [0.14316839409558912, -0.0667660558305394], [0.3594596784457562, 0.247425953451188], [-0.10009291216698324, -0.3693107224562169], [0.3537290804150752, -0.2370180137672528], [-0.21815713173580314, 0.09940477092996469], [-0.4219164259091266, -0.30648229563800217], [0.0554138931031567, -0.5208407502865369], [-0.27346704154071405, 0.3150031689872511], [0.15422566259927417, 0.3267594852152961], [-0.4849662715157313, 0.27670044890290685], [0.1615223068721755, 0.5697622375776488], [0.47996468456468777, -0.02027496988792543], [-0.2887189325602841, -0.47483017986969106], [-0.3247645986673811, -0.06019186655974995], [-0.14844704422216404, 0.5171962033905507], [-0.029638703684035095, 0.19296904863974917], [0.3663503458259535, 0.4613905408933429], [-0.08043770762354208, -0.08575921739779868]]",density,black,,,D001,visual,1,[],"['1', '2', '3', '4']",1,2023.2.3,harveyvisual,2.1,[],8,0.75,
0,pause,0.4,None,None,None,0,127,127,127,,,,,,,,,,,,,D001,visual,1,[],"['1', '2', '3', '4']",1,2023.2.3,harveyvisual,2.1,[],8,0.75,
20,dot,0.3,['dot'],['density'],black,0,128,128,128,,,47.20020389556885,46.91431283950806,47.214311838150024,dot,"[0.1, 0.06, 0.08, 0.08, 0.1, 0.1, 0.08, 0.1, 0.08, 0.1, 0.1, 0.06, 0.08, 0.06, 0.08, 0.08, 0.06, 0.08, 0.1, 0.06]","[[-0.300956349204004, -0.13755810736758878], [-0.4623160444350001, -0.3660029307471297], [-0.04128143074163704, 0.42099275134823566], [0.526370393712159, 0.10091038578466854], [0.5323826590492177, -0.17754361608713937], [-0.2890960341507956, 0.10290587491856307], [0.3625754101848925, 0.4399931560241854], [-0.05922718925176973, 0.16219520666258702], [-0.45174360162659866, 0.28449830415369637], [-0.5060382612145845, -0.05797632229691513], [-0.06644284880195606, -0.0859633369606122], [0.298003535736176, 0.1300299357309087], [0.2723978482691277, -0.23518879947092475], [0.14962258861804922, 0.5681082077693304], [-0.2981064027709323, -0.5028929036224787], [0.35577933065816447, -0.4605756392184189], [-0.2340253926815798, 0.32481606663513374], [-0.057754143588277684, -0.3941620457180103], [0.4955041761018629, 0.3014757295291165], [0.02167104448035906, -0.5712626234302108]]",density,black,,,D001,visual,1,[],"['1', '2', '3', '4']",1,2023.2.3,harveyvisual,2.1,[],8,0.75,
0,pause,0.4,None,None,None,0,129,129,129,,,,,,,,,,,,,D001,visual,1,[],"['1', '2', '3', '4']",1,2023.2.3,harveyvisual,2.1,[],8,0.75,
20,dot,0.3,['dot'],['density'],black,0,130,130,130,,,47.90020799636841,47.61433982849121,47.91429781913757,dot,"[0.06, 0.1, 0.08, 0.1, 0.1, 0.1, 0.1, 0.06, 0.06, 0.06, 0.08, 0.08, 0.06, 0.06, 0.1, 0.06, 0.08, 0.08, 0.08, 0.08]","[[0.2355469419084648, -0.2177532464056921], [-0.1574063975243204, 0.36006374237669014], [0.37096518199106343, -0.023868709810345223], [0.4998252274027791, 0.13437662417234297], [-0.21712126701241485, -0.44845602596296424], [-0.5426902197626593, 0.05796904058191893], [-0.3128244424561637, 0.4867143315112582], [-0.015102486688586492, -0.05232411999349729], [0.1528176716557169, -0.5207674323770742], [0.17998237603461043, 0.2935738938253145], [0.6014671873668261, -0.06334227095565129], [-0.2553900855080339, 0.12524370233811455], [0.14157320880902102, 0.061293751487829784], [0.3734605636612083, -0.38408998128384975], [0.3602318161522289, 0.44100613311514947], [-0.3521069789366876, -0.22333147311184154], [-0.5585634375360499, -0.13518647877286655], [0.05847241371530787, 0.5096625650510503], [-0.3857236066484978, 0.26653924832881165], [-0.1706660007328435, -0.16562345160446523]]",density,black,,,D001,visual,1,[],"['1', '2', '3', '4']",1,2023.2.3,harveyvisual,2.1,[],8,0.75,
0,pause,0.4,None,None,None,0,131,131,131,,,,,,,,,,,,,D001,visual,1,[],"['1', '2', '3', '4']",1,2023.2.3,harveyvisual,2.1,[],8,0.75,
20,dot,0.3,['dot'],['density'],black,0,132,132,132,,,48.60021185874939,48.314281940460205,48.61441779136658,dot,"[0.06, 0.08, 0.06, 0.08, 0.08, 0.1, 0.08, 0.08, 0.1, 0.06, 0.08, 0.08, 0.06, 0.06, 0.06, 0.1, 0.06, 0.06, 0.06, 0.06]","[[0.4300121738054964, 0.32033772935725424], [0.3909683000896186, -0.07455395318106545], [0.05272572348854321, -0.1960443318251675], [-0.09252540213572036, -0.32568513223301604], [0.23425354676090704, 0.06511001416872786], [-0.5209189004077358, -0.2868095564950518], [-0.1665745304917976, 0.004371409175287222], [-0.4509506424906215, 0.20321591401189143], [0.1656032107192178, 0.2954179581219176], [-0.6026232666171313, -0.03454984771165441], [0.02507348600126691, 0.5945454208925965], [0.2598894880907474, 0.4996529323891393], [0.39443784763922596, -0.3381879055615414], [-0.31094535397349576, -0.1568581091302595], [-0.012484518200704176, -0.5621697013603534], [-0.24028274083500079, -0.5117329442661775], [-0.21672217887347933, 0.2598769783161884], [0.5608611661349384, 0.0559685908492171], [0.190268783800025, -0.3675718145889082], [-0.19379543506117108, 0.4962892837989962]]",density,black,,,D001,visual,1,[],"['1', '2', '3', '4']",1,2023.2.3,harveyvisual,2.1,[],8,0.75,
0,pause,0.4,None,None,None,0,133,133,133,,,,,,,,,,,,,D001,visual,1,[],"['1', '2', '3', '4']",1,2023.2.3,harveyvisual,2.1,[],8,0.75,
20,dot,0.3,['dot'],['density'],black,0,134,134,134,,,49.30021691322327,49.01440501213074,49.314257860183716,dot,"[0.06, 0.08, 0.1, 0.08, 0.1, 0.08, 0.08, 0.1, 0.08, 0.08, 0.08, 0.08, 0.06, 0.08, 0.08, 0.1, 0.08, 0.1, 0.08, 0.08]","[[-0.44701742383785037, 0.15289119594424455], [0.5920902440719006, 0.11412102372238939], [0.009938368255885233, 0.49008571179474225], [0.062213463145089576, -0.30291020464318247], [-0.24768713014447424, -0.4967015769208178], [0.3301392228126392, -0.3296026962217443], [-0.5992898722482224, -0.038048059503065265], [0.21613735149596114, -0.10697314092641319], [-0.2626048269016913, 0.22052225893254707], [0.47900846275101416, -0.11817583972861606], [0.25841975561829367, 0.09047559861285293], [-0.09823499046870843, -0.03402164779569483], [-0.45383133330548775, -0.3791518926059612], [-0.022071944807876998, 0.18027718235796863], [-0.12460075027723988, -0.23543248646207177], [0.40671070699440104, 0.3783556378304058], [-0.3442910033603738, -0.11843220891090595], [0.20664952238815248, 0.3613625581836766], [-0.4532284306232914, 0.3982832808732656], [0.17342099745154982, -0.5164711671994571]]",density,black,,,D001,visual,1,[],"['1', '2', '3', '4']",1,2023.2.3,harveyvisual,2.1,[],8,0.75,
0,pause,0.4,None,None,None,0,135,135,135,,,,,,,,,,,,,D001,visual,1,[],"['1', '2', '3', '4']",1,2023.2.3,harveyvisual,2.1,[],8,0.75,
20,dot,0.3,['dot'],['density'],black,0,136,136,136,,,50.00022792816162,49.71437096595764,50.01437997817993,dot,"[0.08, 0.06, 0.06, 0.1, 0.06, 0.08, 0.08, 0.06, 0.1, 0.1, 0.06, 0.1, 0.1, 0.06, 0.06, 0.1, 0.1, 0.06, 0.08, 0.1]","[[0.26877793123218585, 0.1949477062930094], [0.5192410110442177, 0.21424754730239576], [-0.06790997813612731, -0.5517027790336251], [-0.3807632154444025, 0.20509113649050387], [-0.05266967528171662, -0.10483501777253246], [0.1722760167622459, -0.23763432150159436], [-0.5449553700642862, 0.03173266702530875], [-0.32254936509234866, -0.32930545472962824], [-0.2539864110024763, 0.39741893624193536], [0.5005639355385175, -0.10177631205128726], [0.06040311742018978, 0.27603650002347124], [-0.27627459529350945, -0.05468593439471647], [0.11743083279127675, 0.4860377013568281], [0.3465852008517578, -0.32864776250241146], [0.13169885522707336, -0.4322659023910754], [-0.19824198439310164, 0.1186319958092158], [-0.5347065431646343, -0.24532105400401083], [0.3592181862106276, 0.38065405056263746], [-0.039673464309290196, -0.3378623366719089], [-0.07405333778606227, 0.5535262974283409]]",density,black,,,D001,visual,1,[],"['1', '2', '3', '4']",1,2023.2.3,harveyvisual,2.1,[],8,0.75,
0,pause,0.4,None,None,None,0,137,137,137,,,,,,,,,,,,,D001,visual,1,[],"['1', '2', '3', '4']",1,2023.2.3,harveyvisual,2.1,[],8,0.75,
20,dot,0.3,['dot'],['density'],black,0,138,138,138,,,50.70022892951965,50.41437387466431,50.714370012283325,dot,"[0.08, 0.1, 0.06, 0.06, 0.06, 0.06, 0.06, 0.08, 0.06, 0.1, 0.08, 0.06, 0.1, 0.1, 0.06, 0.08, 0.06, 0.06, 0.08, 0.1]","[[0.3726404265307117, 0.3473169539167259], [0.00896252885855875, -0.23174184995049812], [0.08560967373451045, -0.5634296462214139], [-0.48654142507457515, -0.35695059744622865], [-0.1667997726967529, 0.20978478871475414], [0.43226980716088137, 0.15183973605414003], [0.5002762277002338, -0.30216116951772615], [0.04356937773010183, 0.1434387583850324], [-0.020718690373696336, 0.5138231004966586], [-0.550878573261922, 0.035488341643341914], [0.1845243550823975, -0.40068595360798864], [0.23014219650144307, 0.20501770295433708], [-0.5114708951661655, 0.3083220792897504], [-0.31177023426534, 0.3529938564699773], [0.23829302064296343, -0.15621616600518395], [0.5679811344740976, -0.0873599568638675], [-0.5438039205154386, -0.16247335864793316], [-0.2605396094531719, 0.007447646351999571], [-0.21164365950819913, -0.5016517083106329], [0.19310259074450875, 0.43252262146169806]]",density,black,,,D001,visual,1,[],"['1', '2', '3', '4']",1,2023.2.3,harveyvisual,2.1,[],8,0.75,
0,pause,0.4,None,None,None,0,139,139,139,,,,,,,,,,,,,D001,visual,1,[],"['1', '2', '3', '4']",1,2023.2.3,harveyvisual,2.1,[],8,0.75,
20,dot,0.3,['dot'],['density'],black,0,140,140,140,,,51.400224924087524,51.11417579650879,51.414172887802124,dot,"[0.1, 0.08, 0.1, 0.1, 0.06, 0.06, 0.1, 0.1, 0.1, 0.06, 0.06, 0.1, 0.06, 0.06, 0.1, 0.08, 0.08, 0.08, 0.06, 0.1]","[[-0.33944581711105365, 0.3207228891176652], [-0.03837403525123706, 0.19846367307460366], [0.23796046742649313, -0.5026359419554677], [-0.37983338267609607, -0.41178372715979905], [-0.1708571592065427, 0.0023522321331407303], [-0.04498044455989347, 0.39270134440442894], [-0.05723997122855429, -0.3120459226495815], [0.5833564462226243, -0.0800335036898247], [-0.4456865321119109, 0.018230141443281667], [0.4260173021382504, -0.20301682329002538], [-0.27687801046565286, -0.24017139970782503], [0.25064189571841733, -0.2765694614931235], [-0.5782939221020761, -0.15854626026054341], [0.41758664567908277, 0.09833558082176586], [0.19576267540563097, 0.3807818670971409], [0.40963454748251815, 0.44176651586495413], [0.21874097095099776, 0.08825032879403505], [-0.0929914555237844, -0.512007069084888], [0.048771877730853785, -0.07642618598900164], [-0.5394072600130705, 0.23196948090357528]]",density,black,,,D001,visual,1,[],"['1', '2', '3', '4']",1,2023.2.3,harveyvisual,2.1,[],8,0.75,
0,pause,0.4,None,None,None,0,141,141,141,,,,,,,,,,,,,D001,visual,1,[],"['1', '2', '3', '4']",1,2023.2.3,harveyvisual,2.1,[],8,0.75,
20,dot,0.3,['dot'],['density'],black,0,142,142,142,,,52.100228786468506,51.81422686576843,52.114177942276,dot,"[0.06, 0.06, 0.06, 0.06, 0.06, 0.08, 0.06, 0.1, 0.08, 0.08, 0.1, 0.1, 0.06, 0.06, 0.1, 0.1, 0.06, 0.08, 0.06, 0.1]","[[-0.577067271719962, 0.18199529115456212], [-0.22081368093625903, 0.0053756863167488955], [-0.23726051393173075, 0.5547519248726389], [0.2277174620463931, 0.3476917677913762], [0.010530956798818547, -0.3588418588991362], [-0.3497635017535305, -0.33867343529153354], [0.13962288681792323, 0.08545422382549028], [0.601227678363386, -0.028632798408624913], [0.5497039096321069, 0.24593955315241378], [-0.036509164775206604, 0.5714120378832805], [0.18887904529934163, -0.11317814159967321], [0.38437291592252754, -0.24485182631280342], [-0.05626455111635209, 0.35185532142803955], [0.37329401231064496, 0.024714497771921085], [0.2823328087757493, -0.45885926593830795], [-0.00232077274570619, -0.043792329312387746], [-0.24486767392122943, 0.21483121656327742], [0.2047282269221623, 0.5615330512255481], [0.3810206951642974, 0.4606682794361476], [-0.15626114629697152, -0.2271954582140977]]",density,black,,,D001,visual,1,[],"['1', '2', '3', '4']",1,2023.2.3,harveyvisual,2.1,[],8,0.75,
0,pause,0.4,None,None,None,0,143,143,143,,,,,,,,,,,,,D001,visual,1,[],"['1', '2', '3', '4']",1,2023.2.3,harveyvisual,2.1,[],8,0.75,
20,dot,0.3,['dot'],['density'],black,0,144,144,144,,,52.800211906433105,52.514145851135254,52.81414794921875,dot,"[0.08, 0.06, 0.1, 0.08, 0.08, 0.1, 0.06, 0.1, 0.1, 0.08, 0.1, 0.06, 0.06, 0.06, 0.06, 0.08, 0.06, 0.06, 0.08, 0.08]","[[0.5060200875106283, 0.18399072009669892], [-0.4235976956634747, -0.23084089153277446], [0.1905150991144111, -0.0013071648440325934], [-0.1450999364392479, -0.046584555381831705], [-0.532701572220666, 0.1105028803836538], [0.40105279933428106, 0.400799504192355], [0.28297742246471114, -0.39178427407611705], [-0.006898501159294579, -0.3143891287490796], [0.5180357486725423, -0.3017504000104017], [0.1763329102053366, 0.26770710762692407], [-0.11184177739820272, 0.5200643794420245], [0.5805825601368663, -0.10220846968088759], [-0.5717819148016502, -0.07748921798668088], [0.20198431700398078, 0.5644350664002258], [0.021180322804230323, -0.5151121716026505], [-0.263960293644249, 0.20618154398543787], [-0.2449447326374838, -0.5094932406733408], [-0.45595487517394184, 0.3057083774899376], [0.4120145002885355, 0.007670457904264016], [0.34538464348288034, -0.1720997443502788]]",density,black,,,D001,visual,1,[],"['1', '2', '3', '4']",1,2023.2.3,harveyvisual,2.1,[],8,0.75,
0,pause,0.4,None,None,None,0,145,145,145,,,,,,,,,,,,,D001,visual,1,[],"['1', '2', '3', '4']",1,2023.2.3,harveyvisual,2.1,[],8,0.75,
20,dot,0.3,['dot'],['density'],black,0,146,146,146,,,53.50021195411682,53.21412801742554,53.51411986351013,dot,"[0.08, 0.06, 0.1, 0.06, 0.08, 0.06, 0.1, 0.1, 0.08, 0.06, 0.08, 0.1, 0.06, 0.08, 0.08, 0.08, 0.06, 0.08, 0.1, 0.08]","[[0.4818994815887393, 0.34074893710422816], [0.5159612448838168, -0.18456631208600202], [0.28657640650693983, -0.3543487708278197], [0.09189641790298952, -0.31811093594142187], [-0.5504432894539318, 0.12764831787542313], [-0.28129375216380686, 0.48713721432157864], [-0.5146483649030383, -0.2770061911639781], [-0.2495695944841712, 0.08733449072231203], [-0.18463990524239565, -0.2089444156264475], [0.5313324729357595, 0.14647890423995347], [0.12316227054675555, -0.5336781614111142], [0.12220296775034545, 0.2069897559733479], [-0.19846937585466357, 0.30231753328945266], [0.25737299852173967, -0.031001423039352716], [0.19576978299029335, 0.4043180583099616], [-0.46931949727713357, 0.31806772226083924], [-0.33042416888893167, -0.5033106616804219], [-0.10040705033954767, -0.38768389313527724], [-0.37062962506994396, -0.08216647848444958], [-0.08838343648404912, 0.5426396540403902]]",density,black,,,D001,visual,1,[],"['1', '2', '3', '4']",1,2023.2.3,harveyvisual,2.1,[],8,0.75,
0,pause,0.4,None,None,None,0,147,147,147,,,,,,,,,,,,,D001,visual,1,[],"['1', '2', '3', '4']",1,2023.2.3,harveyvisual,2.1,[],8,0.75,
20,dot,0.3,['dot'],['density'],black,0,148,148,148,,,54.200214862823486,53.914100885391235,54.214097023010254,dot,"[0.1, 0.08, 0.06, 0.08, 0.1, 0.1, 0.1, 0.06, 0.1, 0.1, 0.1, 0.08, 0.06, 0.1, 0.06, 0.06, 0.06, 0.06, 0.1, 0.08]","[[0.48292816614418055, 0.07239892660082775], [0.42947895672297876, -0.12072889371306084], [-0.23729335119415673, -0.1801709297924216], [0.12709642737986238, -0.3925140351469063], [-0.4711629272651212, 0.23927923990601513], [-0.10083861646616488, 0.49966759277362915], [0.10687302587603298, -0.026761980880124492], [0.18554418955867147, 0.21523191833304833], [0.19331895576867208, 0.4858700945915846], [-0.20459686142854816, 0.08136215938864977], [-0.5934867414911327, -0.07768442110145737], [-0.39049063125096206, -0.3915386799429468], [-0.04242793941563061, -0.26570658852260487], [-0.06979290167649799, -0.5761423718765468], [0.46136231339421585, 0.302473078850229], [-0.05418863070810531, 0.2451466064352703], [0.3623010409665848, -0.4660220264397658], [-0.3658422871338719, 0.4125726691144425], [-0.3821973927827389, -0.01531422809798555], [0.5131297997254515, -0.2967807253633243]]",density,black,,,D001,visual,1,[],"['1', '2', '3', '4']",1,2023.2.3,harveyvisual,2.1,[],8,0.75,
0,pause,0.4,None,None,None,0,149,149,149,,,,,,,,,,,,,D001,visual,1,[],"['1', '2', '3', '4']",1,2023.2.3,harveyvisual,2.1,[],8,0.75,
20,dot,0.3,['dot'],['density'],black,0,150,150,150,,,54.9002149105072,54.614096879959106,54.91409397125244,dot,"[0.1, 0.1, 0.08, 0.08, 0.06, 0.08, 0.08, 0.1, 0.1, 0.1, 0.08, 0.08, 0.08, 0.08, 0.06, 0.1, 0.08, 0.06, 0.08, 0.08]","[[0.1484867602775034, -0.28891260304765953], [-0.5615295913323542, 0.08135764076877713], [-0.3298867088323544, -0.3688880169790172], [-0.28950588456781273, -0.0022964434263436084], [-0.4585241795432718, 0.2450949908524644], [0.2345285223418737, -0.015181341820057037], [0.44506909680192386, 0.0027176834815711426], [-0.07271918273360822, 0.15666470712044067], [0.21410593085882856, 0.3741199900952342], [0.3988542068645963, -0.37866738458075605], [0.03856080779047033, 0.5505447625134607], [-0.4487797880416827, -0.13045697054058025], [-0.15269337647310338, 0.4472105374462412], [0.32581413286356975, 0.1674709060901063], [-0.08490303165461965, -0.09491896223136065], [-0.08293014047075764, -0.4413955254373519], [0.5391840950746151, -0.24131586905829494], [0.12852141941804573, -0.5000415923822951], [0.45216614083566087, 0.32191928876337034], [-0.38480945126958277, 0.46001557346847705]]",density,black,,,D001,visual,1,[],"['1', '2', '3', '4']",1,2023.2.3,harveyvisual,2.1,[],8,0.75,
0,pause,0.4,None,None,None,0,151,151,151,,,,,,,,,,,,,D001,visual,1,[],"['1', '2', '3', '4']",1,2023.2.3,harveyvisual,2.1,[],8,0.75,
20,dot,0.3,['dot'],['density'],black,0,152,152,152,,,55.60022592544556,55.314131021499634,55.61406588554382,dot,"[0.08, 0.08, 0.06, 0.08, 0.06, 0.06, 0.06, 0.1, 0.06, 0.1, 0.08, 0.1, 0.1, 0.06, 0.08, 0.06, 0.1, 0.1, 0.08, 0.06]","[[-0.1755817221697883, 0.13451299418678453], [0.5318703439871025, 0.25304498979005524], [0.07304459284559073, 0.19999858299357987], [-0.24987964035724725, -0.38806346329843516], [0.18367687124907184, -0.28367834669252573], [0.4931316340842501, -0.3239358326943553], [0.014530738485484584, -0.4980822818236662], [-0.3835308713680472, 0.3173970144052685], [0.2425029640274896, -0.49263928210995755], [-0.2699830803369913, 0.4747292196870666], [0.37989024186365306, 0.3942708291066154], [0.024247852010891302, 0.593190676318722], [0.5284097981212642, -0.03224530178200413], [0.2917116876338437, 0.13248122721964517], [-0.3355613504590088, -0.20471576085385507], [-0.5999997467669723, 0.06430931297152555], [-0.05892743026053615, -0.14315217754138226], [0.11832603975999778, -0.01738292267044672], [-0.5628585499251989, -0.22001785628052561], [-0.3771105696559941, -0.004194412432114936]]",density,black,,,D001,visual,1,[],"['1', '2', '3', '4']",1,2023.2.3,harveyvisual,2.1,[],8,0.75,
0,pause,0.4,None,None,None,0,153,153,153,,,,,,,,,,,,,D001,visual,1,[],"['1', '2', '3', '4']",1,2023.2.3,harveyvisual,2.1,[],8,0.75,
20,dot,0.3,['dot'],['density'],black,0,154,154,154,,,56.30020594596863,56.01406383514404,56.314050912857056,dot,"[0.1, 0.08, 0.06, 0.06, 0.06, 0.1, 0.1, 0.06, 0.08, 0.1, 0.08, 0.1, 0.1, 0.1, 0.08, 0.08, 0.1, 0.08, 0.1, 0.06]","[[0.2213656954259443, -0.057327562140275456], [-0.33319528895330686, 0.48350492682855084], [0.4127360526251701, -0.3505055810854554], [0.05178663061920585, 0.24429206879660925], [0.1944210163761083, -0.4013827664594919], [0.031582660766094395, -0.11277253502439605], [-0.24913904429948608, -0.3495950870090744], [-0.32557961649164835, 0.1313695537889109], [0.4464430689553308, 0.10328333466449707], [0.2615172107003675, 0.5017957112092547], [0.556929406782915, -0.11360144621439171], [-0.3573254026100898, -0.1365838087153649], [-0.5198483120914379, 0.17068416885467386], [-0.5709619816760292, -0.17386988013992688], [0.24554091389907262, 0.24950080462310176], [0.01304437655264612, -0.327614677722346], [-0.018424386605183307, 0.5691398632472119], [-0.05104931917729627, -0.5446568799042698], [-0.1352153592677945, 0.03434698151548754], [-0.12527084709926345, 0.3481367628282763]]",density,black,,,D001,visual,1,[],"['1', '2', '3', '4']",1,2023.2.3,harveyvisual,2.1,[],8,0.75,
0,pause,0.4,None,None,None,0,155,155,155,,,,,,,,,,,,,D001,visual,1,[],"['1', '2', '3', '4']",1,2023.2.3,harveyvisual,2.1,[],8,0.75,
9,dot,0.3,['dot'],['density'],white,0,156,156,156,,,57.00020980834961,56.71403384208679,57.01401901245117,dot,"[0.1, 0.06, 0.1, 0.06, 0.1, 0.08, 0.1, 0.1, 0.1]","[[0.08305850914464513, -0.5442468290176591], [0.035628337695759515, -0.10623885656661826], [-0.40455734034313895, -0.4103448572564978], [-0.27695520492017833, -0.22921059622728732], [-0.0679181879583315, -0.31282249044743377], [0.15394835823740735, -0.27999833282003045], [0.36545074601266236, -0.2024769979494575], [-0.18616414474285772, -0.004612976462616847], [-0.15152437179077458, -0.5570863580044498]]",density,white,,,D001,visual,1,[],"['1', '2', '3', '4']",1,2023.2.3,harveyvisual,2.1,[],8,0.75,
0,pause,0.4,None,None,None,0,157,157,157,,,,,,,,,,,1,57.074756145477295,D001,visual,1,[],"['1', '2', '3', '4']",1,2023.2.3,harveyvisual,2.1,[],8,0.75,
9,dot,0.3,['dot'],['density'],black,0,158,158,158,,,57.7002170085907,57.41403889656067,57.71400690078735,dot,"[0.06, 0.1, 0.1, 0.06, 0.08, 0.1, 0.1, 0.1, 0.1]","[[-0.06218673389315922, -0.4689115343027075], [0.3660477402554353, -0.15396192139437054], [0.1401329754895462, -0.14262156541192547], [0.12293598154832706, -0.38779640022673934], [0.42645158233284447, -0.3607859009111275], [-0.06238477126329685, -0.2564764349502154], [-0.2584688277182379, -0.29964401945706215], [-0.11312192996032899, -0.05439345917292958], [0.19096873654163896, 0.1321853744035435]]",density,black,,,D001,visual,1,[],"['1', '2', '3', '4']",1,2023.2.3,harveyvisual,2.1,[],8,0.75,
0,pause,0.4,None,None,None,0,159,159,159,,,,,,,,,,,,,D001,visual,1,[],"['1', '2', '3', '4']",1,2023.2.3,harveyvisual,2.1,[],8,0.75,
9,dot,0.3,['dot'],['density'],black,0,160,160,160,,,58.400211811065674,58.114059925079346,58.41399788856506,dot,"[0.08, 0.1, 0.1, 0.06, 0.08, 0.1, 0.1, 0.1, 0.06]","[[0.4433726728065019, 0.22320554513198193], [0.1026133663954636, -0.050786049565613584], [0.20022034484770485, 0.4412403735117007], [0.45250313802570796, 0.010227273383000257], [0.037500571895399265, 0.24935285809920393], [0.23874579090912346, 0.11348512554989887], [0.25013734113836505, -0.23502010549412247], [0.4599692436892986, -0.2536974682823114], [0.04694731086691962, -0.2548367103293993]]",density,black,,,D001,visual,1,[],"['1', '2', '3', '4']",1,2023.2.3,harveyvisual,2.1,[],8,0.75,
0,pause,0.4,None,None,None,0,161,161,161,,,,,,,,,,,,,D001,visual,1,[],"['1', '2', '3', '4']",1,2023.2.3,harveyvisual,2.1,[],8,0.75,
9,dot,0.3,['dot'],['density'],black,0,162,162,162,,,59.10021901130676,58.81404399871826,59.11395883560181,dot,"[0.1, 0.08, 0.08, 0.06, 0.1, 0.06, 0.08, 0.06, 0.1]","[[0.16751238249231654, 0.5577961240465925], [-0.27296145406993233, 0.4862198967380745], [-0.029185467938656964, 0.15062746822878756], [-0.0646201772689005, 0.5687739076077192], [0.1739328392933146, 0.3418730943321047], [-0.141244529573345, 0.32572795328380527], [-0.5161698704605421, 0.1834233825743511], [0.21727962056556488, 0.12903401361548372], [-0.23724269532595021, 0.10991409904419316]]",density,black,,,D001,visual,1,[],"['1', '2', '3', '4']",1,2023.2.3,harveyvisual,2.1,[],8,0.75,
0,pause,0.4,None,None,None,0,163,163,163,,,,,,,,,,,,,D001,visual,1,[],"['1', '2', '3', '4']",1,2023.2.3,harveyvisual,2.1,[],8,0.75,
9,dot,0.3,['dot'],['density'],black,0,164,164,164,,,59.800206899642944,59.51395797729492,59.81395387649536,dot,"[0.06, 0.08, 0.1, 0.08, 0.06, 0.08, 0.06, 0.06, 0.1]","[[0.5610971552988853, -0.17060184332349634], [0.41375718760989944, -0.015869013459887487], [0.10524493337967332, -0.4151143617417518], [0.33762937987512565, -0.21166948995529247], [0.31978246251342735, -0.42403070142702926], [0.14918584865882126, 0.054317793641313596], [-0.13687229080136074, -0.3544767643123256], [-0.14284940328496695, -0.15361328447573858], [0.09035025664413378, -0.16809195260635462]]",density,black,,,D001,visual,1,[],"['1', '2', '3', '4']",1,2023.2.3,harveyvisual,2.1,[],8,0.75,
0,pause,0.4,None,None,None,0,165,165,165,,,,,,,,,,,,,D001,visual,1,[],"['1', '2', '3', '4']",1,2023.2.3,harveyvisual,2.1,[],8,0.75,
9,dot,0.3,['dot'],['density'],black,0,166,166,166,,,60.50020790100098,60.213948011398315,60.51393985748291,dot,"[0.06, 0.1, 0.1, 0.08, 0.08, 0.06, 0.1, 0.06, 0.08]","[[0.5610971552988853, -0.17060184332349634], [0.41375718760989944, -0.015869013459887487], [0.10524493337967332, -0.4151143617417518], [0.33762937987512565, -0.21166948995529247], [0.31978246251342735, -0.42403070142702926], [0.14918584865882126, 0.054317793641313596], [-0.13687229080136074, -0.3544767643123256], [-0.14284940328496695, -0.15361328447573858], [0.09035025664413378, -0.16809195260635462]]",density,black,,,D001,visual,1,[],"['1', '2', '3', '4']",1,2023.2.3,harveyvisual,2.1,[],8,0.75,
0,pause,0.4,None,None,None,0,167,167,167,,,,,,,,,,,,,D001,visual,1,[],"['1', '2', '3', '4']",1,2023.2.3,harveyvisual,2.1,[],8,0.75,
8,dot,0.3,['dot'],['density'],black,0,168,168,168,,,61.20021080970764,60.91393184661865,61.21390986442566,dot,"[0.06, 0.06, 0.1, 0.1, 0.06, 0.06, 0.06, 0.08]","[[0.2564657333297123, -0.5164120873644681], [0.16207736998829034, -0.17430025554579232], [0.3801370228700199, -0.12440354324600712], [0.3861419762144276, -0.3474957963553726], [0.023072413076989942, -0.006703975881976366], [-0.07114697953604181, -0.35683211304459495], [0.45447188669532573, 0.06927659529933487], [0.23571610799738704, 0.02784742549372824]]",density,black,,,D001,visual,1,[],"['1', '2', '3', '4']",1,2023.2.3,harveyvisual,2.1,[],8,0.75,
0,pause,0.4,None,None,None,0,169,169,169,,,,,,,,,,,,,D001,visual,1,[],"['1', '2', '3', '4']",1,2023.2.3,harveyvisual,2.1,[],8,0.75,
8,dot,0.3,['dot'],['density'],white,0,170,170,170,,,61.90021896362305,61.613905906677246,61.91389989852905,dot,"[0.08, 0.08, 0.06, 0.06, 0.1, 0.1, 0.1, 0.08]","[[-0.258715538922871, 0.3828151050353194], [-0.4384035523576633, -0.18689856672911037], [-0.5586779833045601, 0.15056420889708766], [-0.1699372658897842, -0.04883432605429875], [-0.36053016753151684, 0.02858569738219561], [-0.199221799186684, 0.1876786431210615], [0.004458053620249285, 0.1240038339062716], [0.019420137312414813, -0.16023679021787893]]",density,white,,,D001,visual,1,[],"['1', '2', '3', '4']",1,2023.2.3,harveyvisual,2.1,[],8,0.75,
0,pause,0.4,None,None,None,0,171,171,171,,,,,,,,,,,1,62.17538619041443,D001,visual,1,[],"['1', '2', '3', '4']",1,2023.2.3,harveyvisual,2.1,[],8,0.75,
8,dot,0.3,['dot'],['density'],black,0,172,172,172,,,62.600215911865234,62.31389880180359,62.61389088630676,dot,"[0.06, 0.08, 0.06, 0.1, 0.1, 0.1, 0.1, 0.1]","[[-0.258715538922871, 0.3828151050353194], [-0.4384035523576633, -0.18689856672911037], [-0.5586779833045601, 0.15056420889708766], [-0.1699372658897842, -0.04883432605429875], [-0.36053016753151684, 0.02858569738219561], [-0.199221799186684, 0.1876786431210615], [0.004458053620249285, 0.1240038339062716], [0.019420137312414813, -0.16023679021787893]]",density,black,,,D001,visual,1,[],"['1', '2', '3', '4']",1,2023.2.3,harveyvisual,2.1,[],8,0.75,
0,pause,0.4,None,None,None,0,173,173,173,,,,,,,,,,,,,D001,visual,1,[],"['1', '2', '3', '4']",1,2023.2.3,harveyvisual,2.1,[],8,0.75,
8,dot,0.3,['dot'],['density'],black,0,174,174,174,,,63.30022692680359,63.01388192176819,63.31392002105713,dot,"[0.06, 0.06, 0.08, 0.08, 0.1, 0.08, 0.06, 0.08]","[[0.17295790489511154, -0.46037743866749825], [0.1416591427765588, 0.05421051799673566], [0.21994266958916148, -0.13656690113679631], [0.3639906379971415, 0.0627265571221228], [0.015481321741344221, -0.13916897583717935], [0.440802488837635, -0.2883976186876931], [0.5157567705321767, -0.08800602901884749], [0.24768837887357187, 0.24424825162618136]]",density,black,,,D001,visual,1,[],"['1', '2', '3', '4']",1,2023.2.3,harveyvisual,2.1,[],8,0.75,
0,pause,0.4,None,None,None,0,175,175,175,,,,,,,,,,,,,D001,visual,1,[],"['1', '2', '3', '4']",1,2023.2.3,harveyvisual,2.1,[],8,0.75,
8,dot,0.3,['dot'],['density'],black,0,176,176,176,,,64.00020980834961,63.71391296386719,64.01386189460754,dot,"[0.08, 0.06, 0.08, 0.08, 0.06, 0.08, 0.08, 0.06]","[[-0.2395708272612018, -0.3613018167456044], [-0.39529086986423073, -0.13116056396528103], [0.016143118738118, -0.3000453801144436], [-0.10247857353615338, 0.12176090555598315], [0.11784264820349834, -0.12422453235794288], [-0.1468533202112338, -0.18280007972172757], [-0.31504288856899026, 0.06147683711297207], [0.2614313121475242, -0.33215718180641224]]",density,black,,,D001,visual,1,[],"['1', '2', '3', '4']",1,2023.2.3,harveyvisual,2.1,[],8,0.75,
0,pause,0.4,None,None,None,0,177,177,177,,,,,,,,,,,,,D001,visual,1,[],"['1', '2', '3', '4']",1,2023.2.3,harveyvisual,2.1,[],8,0.75,
8,dot,0.3,['dot'],['density'],black,0,178,178,178,,,64.70021390914917,64.41383600234985,64.71411180496216,dot,"[0.08, 0.06, 0.1, 0.08, 0.08, 0.08, 0.1, 0.06]","[[0.29210958841889567, 0.026991922891258572], [0.03093533645276146, 0.3258936230244337], [-0.13014708308220477, 0.20110385145229231], [0.463805327987396, 0.2670013362689149], [0.17887675575806267, 0.48912385903522404], [0.2495142025194702, 0.28253247413027655], [0.03200252102949923, -0.1932501096446728], [0.04457092617056691, 0.07668709382136672]]",density,black,,,D001,visual,1,[],"['1', '2', '3', '4']",1,2023.2.3,harveyvisual,2.1,[],8,0.75,
0,pause,0.4,None,None,None,0,179,179,179,,,,,,,,,,,,,D001,visual,1,[],"['1', '2', '3', '4']",1,2023.2.3,harveyvisual,2.1,[],8,0.75,
7,dot,0.3,['dot'],['density'],black,0,180,180,180,,,65.40021300315857,65.11407995223999,65.41398692131042,dot,"[0.06, 0.06, 0.08, 0.06, 0.1, 0.1, 0.08]","[[-0.03978284138183809, -0.43963729991580147], [0.2770736023028816, -0.4460091285183096], [0.4264240077257641, -0.26124456405115876], [0.04351789842027954, -0.004572294527936195], [0.08491707485555088, -0.26540219852266356], [0.2274622265833728, -0.10044916879814345], [0.4232844185721205, -0.050742783717769746]]",density,black,,,D001,visual,1,[],"['1', '2', '3', '4']",1,2023.2.3,harveyvisual,2.1,[],8,0.75,
0,pause,0.4,None,None,None,0,181,181,181,,,,,,,,,,,,,D001,visual,1,[],"['1', '2', '3', '4']",1,2023.2.3,harveyvisual,2.1,[],8,0.75,
7,dot,0.3,['dot'],['density'],black,0,182,182,182,,,66.1002287864685,65.8137948513031,66.11378598213196,dot,"[0.08, 0.1, 0.1, 0.08, 0.08, 0.08, 0.06]","[[0.27964692832129656, -0.15500474148311624], [0.48019533028943556, 0.09933774746227163], [0.08203545767143021, 0.28019381302663365], [0.05572057582720619, -0.1426303369841539], [0.31711281236335803, 0.2944831276535668], [-0.041479771322150735, 0.11885700406191958], [0.21045310206912196, 0.07075003364957701]]",density,black,,,D001,visual,1,[],"['1', '2', '3', '4']",1,2023.2.3,harveyvisual,2.1,[],8,0.75,
0,pause,0.4,None,None,None,0,183,183,183,,,,,,,,,,,,,D001,visual,1,[],"['1', '2', '3', '4']",1,2023.2.3,harveyvisual,2.1,[],8,0.75,
7,dot,0.3,['dot'],['density'],white,0,184,184,184,,,66.80022382736206,66.51378989219666,66.81378483772278,dot,"[0.1, 0.06, 0.08, 0.1, 0.1, 0.1, 0.08]","[[-0.1639205104410485, 0.5375336320852997], [0.13665370749938832, 0.21910895384688228], [-0.33778978147358674, 0.04597826141406851], [-0.2268593015261854, 0.22000868921510455], [-0.39586497221419475, 0.3389169711393182], [-0.023188047053822363, 0.08417042442854547], [-0.025005414605345992, 0.38521147685537843]]",density,white,,,D001,visual,1,[],"['1', '2', '3', '4']",1,2023.2.3,harveyvisual,2.1,[],8,0.75,
0,pause,0.4,None,None,None,0,185,185,185,,,,,,,,,,,1,66.97517418861389,D001,visual,1,[],"['1', '2', '3', '4']",1,2023.2.3,harveyvisual,2.1,[],8,0.75,
7,dot,0.3,['dot'],['density'],black,0,186,186,186,,,67.50024199485779,67.21377801895142,67.51379585266113,dot,"[0.08, 0.08, 0.08, 0.08, 0.08, 0.08, 0.08]","[[-0.23675386446936744, -0.019099737415117023], [-0.3793299299598963, 0.3840296974489508], [0.16444052853698826, 0.25964081185693966], [-0.17441972694422359, 0.2376971805458075], [0.025313303261310992, 0.0859287266400301], [-0.3760941870171968, 0.1722047307528389], [-0.012854506600276856, 0.3778399739802858]]",density,black,,,D001,visual,1,[],"['1', '2', '3', '4']",1,2023.2.3,harveyvisual,2.1,[],8,0.75,
0,pause,0.4,None,None,None,0,187,187,187,,,,,,,,,,,,,D001,visual,1,[],"['1', '2', '3', '4']",1,2023.2.3,harveyvisual,2.1,[],8,0.75,
7,dot,0.3,['dot'],['density'],black,0,188,188,188,,,68.2002329826355,67.91380596160889,68.2137999534607,dot,"[0.08, 0.08, 0.1, 0.08, 0.1, 0.08, 0.1]","[[0.4852053974746821, 0.2414638673891567], [0.4489127705046299, 0.011725618337583463], [0.18065050592779294, 0.3526250807613559], [0.03625639584007868, 0.1261309995663498], [0.1794309074695897, -0.0624577020416761], [0.2856641480650803, 0.17770493422509798], [0.3124387752689665, -0.21816880331392838]]",density,black,,,D001,visual,1,[],"['1', '2', '3', '4']",1,2023.2.3,harveyvisual,2.1,[],8,0.75,
0,pause,0.4,None,None,None,0,189,189,189,,,,,,,,,,,,,D001,visual,1,[],"['1', '2', '3', '4']",1,2023.2.3,harveyvisual,2.1,[],8,0.75,
7,dot,0.3,['dot'],['density'],black,0,190,190,190,,,68.90023279190063,68.61379885673523,68.91401195526123,dot,"[0.06, 0.08, 0.08, 0.1, 0.06, 0.08, 0.08]","[[-0.39883248072855915, 0.30823732592088265], [-0.041341486549100435, 0.2390478988097413], [-0.013495537319202725, 0.5211111720540192], [-0.2415889716500472, 0.10795059447242317], [-0.023803066389735523, 0.02076064871433158], [0.14387498046506175, 0.3548008600093999], [-0.24331877599120405, 0.46521846842164205]]",density,black,,,D001,visual,1,[],"['1', '2', '3', '4']",1,2023.2.3,harveyvisual,2.1,[],8,0.75,
0,pause,0.4,None,None,None,0,191,191,191,,,,,,,,,,,,,D001,visual,1,[],"['1', '2', '3', '4']",1,2023.2.3,harveyvisual,2.1,[],8,0.75,
6,dot,0.3,['dot'],['density'],black,0,192,192,192,,,69.60022592544556,69.31390285491943,69.61372780799866,dot,"[0.06, 0.1, 0.08, 0.1, 0.08, 0.1]","[[-0.521575560759306, -0.09896409503936293], [-0.11005055439098525, 0.007412765662050641], [-0.2691644509192311, -0.32034241736757013], [-0.33082776037640693, 0.11579187391948328], [-0.031037041641207554, -0.21820435357846482], [-0.2943013415457968, -0.09543215727460275]]",density,black,,,D001,visual,1,[],"['1', '2', '3', '4']",1,2023.2.3,harveyvisual,2.1,[],8,0.75,
0,pause,0.4,None,None,None,0,193,193,193,,,,,,,,,,,,,D001,visual,1,[],"['1', '2', '3', '4']",1,2023.2.3,harveyvisual,2.1,[],8,0.75,
6,dot,0.3,['dot'],['density'],black,0,194,194,194,,,70.30021595954895,70.01389193534851,70.31374788284302,dot,"[0.1, 0.08, 0.08, 0.1, 0.1, 0.08]","[[0.26568550625605564, -0.48823100126060537], [0.030589778490880962, -0.34307155488476027], [0.2920158589989485, -0.005481777194348812], [0.4969139129819881, -0.3034402107212153], [0.2924968692334099, -0.2393606426967254], [0.09404279540557291, -0.1505005030192783]]",density,black,,,D001,visual,1,[],"['1', '2', '3', '4']",1,2023.2.3,harveyvisual,2.1,[],8,0.75,
0,pause,0.4,None,None,None,0,195,195,195,,,,,,,,,,,,,D001,visual,1,[],"['1', '2', '3', '4']",1,2023.2.3,harveyvisual,2.1,[],8,0.75,
6,dot,0.3,['dot'],['density'],black,0,196,196,196,,,71.00023579597473,70.71374297142029,71.0137288570404,dot,"[0.06, 0.08, 0.06, 0.1, 0.06, 0.1]","[[-0.5416753121247185, 0.020803147184574915], [-0.3232269173664433, -0.07161231053200118], [-0.3008479376061402, -0.286480119217458], [-0.22299540496279888, 0.12470258063391813], [-0.10776740766186912, -0.19554033341247495], [-0.5165544979209102, -0.21376225914528924]]",density,black,,,D001,visual,1,[],"['1', '2', '3', '4']",1,2023.2.3,harveyvisual,2.1,[],8,0.75,
0,pause,0.4,None,None,None,0,197,197,197,,,,,,,,,,,,,D001,visual,1,[],"['1', '2', '3', '4']",1,2023.2.3,harveyvisual,2.1,[],8,0.75,
6,dot,0.3,['dot'],['density'],black,0,198,198,198,,,71.70023083686829,71.41369390487671,71.71367979049683,dot,"[0.1, 0.06, 0.08, 0.1, 0.06, 0.1]","[[-0.4130096743352808, -0.09152271377164663], [-0.19778223104980006, -0.03862987845790588], [-0.5782793278508197, 0.04067119283421001], [-0.2942915267906656, -0.3673297053134895], [-0.33560074172492643, 0.119885218799542], [-0.5263932498355091, -0.25924495598585295]]",density,black,,,D001,visual,1,[],"['1', '2', '3', '4']",1,2023.2.3,harveyvisual,2.1,[],8,0.75,
0,pause,0.4,None,None,None,0,199,199,199,,,,,,,,,,,,,D001,visual,1,[],"['1', '2', '3', '4']",1,2023.2.3,harveyvisual,2.1,[],8,0.75,
6,dot,0.3,['dot'],['density'],black,0,200,200,200,,,72.40022492408752,72.11367988586426,72.41365790367126,dot,"[0.08, 0.06, 0.08, 0.08, 0.08, 0.08]","[[0.1382403832049451, 0.0462086450304607], [-0.07534018949214154, -0.3274433807795599], [0.3332171610134826, -0.14895102818546319], [0.22614943412716124, -0.3322834867125916], [-0.0756450994425101, -0.005640117700353421], [0.0938048843888254, -0.16909843217532775]]",density,black,,,D001,visual,1,[],"['1', '2', '3', '4']",1,2023.2.3,harveyvisual,2.1,[],8,0.75,
0,pause,0.4,None,None,None,0,201,201,201,,,,,,,,,,,,,D001,visual,1,[],"['1', '2', '3', '4']",1,2023.2.3,harveyvisual,2.1,[],8,0.75,
6,dot,0.3,['dot'],['density'],black,0,202,202,202,,,73.10021996498108,72.81365895271301,73.11363482475281,dot,"[0.08, 0.1, 0.1, 0.06, 0.06, 0.08]","[[0.2333794889108542, 0.5108688068097712], [0.17720399199515413, 0.06488002481085814], [0.3526024925964592, 0.16961020277143707], [0.1596713132306006, 0.321837067503818], [0.0007438407140586783, 0.18344495120876914], [0.42757463853404776, 0.37786691715169374]]",density,black,,,D001,visual,1,[],"['1', '2', '3', '4']",1,2023.2.3,harveyvisual,2.1,[],8,0.75,
0,pause,0.4,None,None,None,0,203,203,203,,,,,,,,,,,,,D001,visual,1,[],"['1', '2', '3', '4']",1,2023.2.3,harveyvisual,2.1,[],8,0.75,
5,dot,0.3,['dot'],['density'],black,0,204,204,204,,,73.80021095275879,73.51363587379456,73.81360578536987,dot,"[0.08, 0.06, 0.1, 0.1, 0.06]","[[0.27183890960736007, -0.2807898153303064], [0.09520185447546438, -0.14661409162522948], [0.4811798017999712, -0.08799056171856828], [0.2824926782126669, -0.029701986940959574], [0.07325476391384783, 0.10525290151012107]]",density,black,,,D001,visual,1,[],"['1', '2', '3', '4']",1,2023.2.3,harveyvisual,2.1,[],8,0.75,
0,pause,0.4,None,None,None,0,205,205,205,,,,,,,,,,,,,D001,visual,1,[],"['1', '2', '3', '4']",1,2023.2.3,harveyvisual,2.1,[],8,0.75,
5,dot,0.3,['dot'],['density'],black,0,206,206,206,,,74.5002269744873,74.2136459350586,74.51362681388855,dot,"[0.06, 0.08, 0.06, 0.06, 0.08]","[[0.34746533592570195, 0.16118282603596082], [0.14457128296481445, 0.28865621170929245], [0.4549189851861922, 0.34228556952890804], [0.008483415068308318, 0.44103246018778014], [0.27150044131742485, 0.4621652121832405]]",density,black,,,D001,visual,1,[],"['1', '2', '3', '4']",1,2023.2.3,harveyvisual,2.1,[],8,0.75,
0,pause,0.4,None,None,None,0,207,207,207,,,,,,,,,,,,,D001,visual,1,[],"['1', '2', '3', '4']",1,2023.2.3,harveyvisual,2.1,[],8,0.75,
5,dot,0.3,['dot'],['density'],black,0,208,208,208,,,75.2002158164978,74.91363191604614,75.2136218547821,dot,"[0.08, 0.08, 0.08, 0.08, 0.06]","[[-0.10197385386246118, 0.24760023034087644], [-0.014646448823952617, 0.47519555304773536], [-0.21360058910662874, 0.441350445979826], [-0.3878570731713836, 0.20534708698022924], [-0.24187982362067023, 0.06730525069120082]]",density,black,,,D001,visual,1,[],"['1', '2', '3', '4']",1,2023.2.3,harveyvisual,2.1,[],8,0.75,
0,pause,0.4,None,None,None,0,209,209,209,,,,,,,,,,,,,D001,visual,1,[],"['1', '2', '3', '4']",1,2023.2.3,harveyvisual,2.1,[],8,0.75,
5,dot,0.3,['dot'],['density'],black,0,210,210,210,,,75.90022778511047,75.6135950088501,75.91359901428223,dot,"[0.08, 0.06, 0.08, 0.06, 0.08]","[[0.26736814946294957, 0.039639821311179], [0.3007085492035367, 0.3262250213434343], [0.4353907115448318, -0.11778011175670104], [0.4521497692138949, 0.1289853794543976], [0.1485908728023605, -0.12275462689891227]]",density,black,,,D001,visual,1,[],"['1', '2', '3', '4']",1,2023.2.3,harveyvisual,2.1,[],8,0.75,
0,pause,0.4,None,None,None,0,211,211,211,,,,,,,,,,,,,D001,visual,1,[],"['1', '2', '3', '4']",1,2023.2.3,harveyvisual,2.1,[],8,0.75,
5,dot,0.3,['dot'],['density'],black,0,212,212,212,,,76.60022187232971,76.31359887123108,76.61354184150696,dot,"[0.1, 0.1, 0.08, 0.06, 0.06]","[[-0.5348211864270219, -0.08335004612931018], [-0.428892633085643, 0.14758700623805307], [-0.3277098387322906, -0.27887202276080253], [-0.29687101947458117, -0.03792463078145938], [-0.23363771935579355, 0.21194794904782605]]",density,black,,,D001,visual,1,[],"['1', '2', '3', '4']",1,2023.2.3,harveyvisual,2.1,[],8,0.75,
0,pause,0.4,None,None,None,0,213,213,213,,,,,,,,,,,,,D001,visual,1,[],"['1', '2', '3', '4']",1,2023.2.3,harveyvisual,2.1,[],8,0.75,
5,dot,0.3,['dot'],['density'],black,0,214,214,214,,,77.3002359867096,77.0135748386383,77.31357884407043,dot,"[0.06, 0.1, 0.06, 0.06, 0.1]","[[-0.4702494158317004, 0.19352793081356498], [-0.36864189631283095, -0.2113573127283173], [-0.3573601989406874, -0.007363185939446715], [-0.15559938224235453, -0.02548680069503583], [-0.25069196230576396, 0.1747846118010945]]",density,black,,,D001,visual,1,[],"['1', '2', '3', '4']",1,2023.2.3,harveyvisual,2.1,[],8,0.75,
0,pause,0.4,None,None,None,0,215,215,215,,,,,,,,,,,,,D001,visual,1,[],"['1', '2', '3', '4']",1,2023.2.3,harveyvisual,2.1,[],8,0.75,
4,dot,0.3,['dot'],['density'],black,0,216,216,216,,,78.0002338886261,77.71353578567505,78.01365494728088,dot,"[0.1, 0.08, 0.06, 0.1]","[[0.041567121943163726, -0.05225384285034155], [-0.0805660347394345, -0.3501797602382367], [-0.1695568067340664, -0.0700859275369407], [0.1361950610904954, -0.2628340353233457]]",density,black,,,D001,visual,1,[],"['1', '2', '3', '4']",1,2023.2.3,harveyvisual,2.1,[],8,0.75,
0,pause,0.4,None,None,None,0,217,217,217,,,,,,,,,,,,,D001,visual,1,[],"['1', '2', '3', '4']",1,2023.2.3,harveyvisual,2.1,[],8,0.75,
4,dot,0.3,['dot'],['density'],black,0,218,218,218,,,78.70022487640381,78.4134738445282,78.7135009765625,dot,"[0.06, 0.08, 0.08, 0.08]","[[0.37520814465037905, -0.4432880181017862], [0.4692830223283075, -0.19655799526205012], [0.3063896805601884, -0.036788685454167226], [0.2471196723673293, -0.2344474043623998]]",density,black,,,D001,visual,1,[],"['1', '2', '3', '4']",1,2023.2.3,harveyvisual,2.1,[],8,0.75,
0,pause,0.4,None,None,None,0,219,219,219,,,,,,,,,,,,,D001,visual,1,[],"['1', '2', '3', '4']",1,2023.2.3,harveyvisual,2.1,[],8,0.75,
4,dot,0.3,['dot'],['density'],black,0,220,220,220,,,79.40021681785583,79.11349487304688,79.41349291801453,dot,"[0.08, 0.06, 0.08, 0.1]","[[-0.1807894278345534, -0.050693892368996955], [-0.03778933673514029, -0.29773510453537966], [0.0747201162679791, -0.1287424711559737], [-0.02241484737224569, 0.07404475448468936]]",density,black,,,D001,visual,1,[],"['1', '2', '3', '4']",1,2023.2.3,harveyvisual,2.1,[],8,0.75,
0,pause,0.4,None,None,None,0,221,221,221,,,,,,,,,,,,,D001,visual,1,[],"['1', '2', '3', '4']",1,2023.2.3,harveyvisual,2.1,[],8,0.75,
4,dot,0.3,['dot'],['density'],white,0,222,222,222,,,80.10020995140076,79.8134868144989,80.1134729385376,dot,"[0.06, 0.06, 0.08, 0.06]","[[-0.1807894278345534, -0.050693892368996955], [-0.03778933673514029, -0.29773510453537966], [0.0747201162679791, -0.1287424711559737], [-0.02241484737224569, 0.07404475448468936]]",density,white,,,D001,visual,1,[],"['1', '2', '3', '4']",1,2023.2.3,harveyvisual,2.1,[],8,0.75,
0,pause,0.4,None,None,None,0,223,223,223,,,,,,,,,,,1,80.29357314109802,D001,visual,1,[],"['1', '2', '3', '4']",1,2023.2.3,harveyvisual,2.1,[],8,0.75,
4,dot,0.3,['dot'],['density'],black,0,224,224,224,,,80.80022883415222,80.51347994804382,80.81344795227051,dot,"[0.06, 0.1, 0.1, 0.06]","[[0.37520814465037905, -0.4432880181017862], [0.4692830223283075, -0.19655799526205012], [0.3063896805601884, -0.036788685454167226], [0.2471196723673293, -0.2344474043623998]]",density,black,,,D001,visual,1,[],"['1', '2', '3', '4']",1,2023.2.3,harveyvisual,2.1,[],8,0.75,
0,pause,0.4,None,None,None,0,225,225,225,,,,,,,,,,,,,D001,visual,1,[],"['1', '2', '3', '4']",1,2023.2.3,harveyvisual,2.1,[],8,0.75,
4,dot,0.3,['dot'],['density'],white,0,226,226,226,,,81.5002179145813,81.21347689628601,81.51341700553894,dot,"[0.1, 0.08, 0.1, 0.1]","[[-0.42715721775789556, -0.3806885655784049], [-0.5104054706627589, -0.18016651458941194], [-0.409412055521987, 0.008153849732111747], [-0.2456709064377862, -0.21492281530681134]]",density,white,,,D001,visual,1,[],"['1', '2', '3', '4']",1,2023.2.3,harveyvisual,2.1,[],8,0.75,
0,pause,0.4,None,None,None,0,227,227,227,,,,,,,,,,,1,81.7117850780487,D001,visual,1,[],"['1', '2', '3', '4']",1,2023.2.3,harveyvisual,2.1,[],8,0.75,
3,dot,0.3,['dot'],['density'],black,0,228,228,228,,,82.20023989677429,81.91342282295227,82.21339797973633,dot,"[0.1, 0.08, 0.08]","[[0.026071599024748527, -0.32860913997604846], [-0.11834724389398482, -0.18584523127985947], [0.10068982493997472, -0.12518245043845455]]",density,black,,,D001,visual,1,[],"['1', '2', '3', '4']",1,2023.2.3,harveyvisual,2.1,[],8,0.75,
0,pause,0.4,None,None,None,0,229,229,229,,,,,,,,,,,,,D001,visual,1,[],"['1', '2', '3', '4']",1,2023.2.3,harveyvisual,2.1,[],8,0.75,
3,dot,0.3,['dot'],['density'],black,0,230,230,230,,,82.90021991729736,82.61338996887207,82.91339778900146,dot,"[0.08, 0.08, 0.08]","[[-0.021384933427115945, -0.26055744462645497], [0.16478637362895734, -0.404980755917603], [-0.025077849445719256, -0.48190209473619267]]",density,black,,,D001,visual,1,[],"['1', '2', '3', '4']",1,2023.2.3,harveyvisual,2.1,[],8,0.75,
0,pause,0.4,None,None,None,0,231,231,231,,,,,,,,,,,,,D001,visual,1,[],"['1', '2', '3', '4']",1,2023.2.3,harveyvisual,2.1,[],8,0.75,
3,dot,0.3,['dot'],['density'],black,0,232,232,232,,,83.60021996498108,83.31338596343994,83.61337780952454,dot,"[0.06, 0.1, 0.06]","[[-0.5599668940784417, -0.1503624274944763], [-0.33715825845103314, -0.1742393560729378], [-0.447658281307079, 0.035586458508876644]]",density,black,,,D001,visual,1,[],"['1', '2', '3', '4']",1,2023.2.3,harveyvisual,2.1,[],8,0.75,
0,pause,0.4,None,None,None,0,233,233,233,,,,,,,,,,,,,D001,visual,1,[],"['1', '2', '3', '4']",1,2023.2.3,harveyvisual,2.1,[],8,0.75,
3,dot,0.3,['dot'],['density'],black,0,234,234,234,,,84.30021691322327,84.01336979866028,84.31335783004761,dot,"[0.1, 0.08, 0.08]","[[-0.31319101668702665, 0.019781348947723338], [-0.5473895760332308, 0.024991247927059115], [-0.4494119348059314, -0.1602141851013313]]",density,black,,,D001,visual,1,[],"['1', '2', '3', '4']",1,2023.2.3,harveyvisual,2.1,[],8,0.75,
0,pause,0.4,None,None,None,0,235,235,235,,,,,,,,,,,,,D001,visual,1,[],"['1', '2', '3', '4']",1,2023.2.3,harveyvisual,2.1,[],8,0.75,
3,dot,0.3,['dot'],['density'],black,0,236,236,236,,,85.0002269744873,84.71334791183472,85.01348280906677,dot,"[0.08, 0.1, 0.06]","[[-0.5599668940784417, -0.1503624274944763], [-0.33715825845103314, -0.1742393560729378], [-0.447658281307079, 0.035586458508876644]]",density,black,,,D001,visual,1,[],"['1', '2', '3', '4']",1,2023.2.3,harveyvisual,2.1,[],8,0.75,
0,pause,0.4,None,None,None,0,237,237,237,,,,,,,,,,,,,D001,visual,1,[],"['1', '2', '3', '4']",1,2023.2.3,harveyvisual,2.1,[],8,0.75,
3,dot,0.3,['dot'],['density'],black,0,238,238,238,,,85.7002329826355,85.41337394714355,85.71345400810242,dot,"[0.06, 0.06, 0.06]","[[0.03752440580708033, 0.5298990797186869], [-0.14535247226304113, 0.44143535861080874], [0.07857889528852925, 0.30774558950641073]]",density,black,,,D001,visual,1,[],"['1', '2', '3', '4']",1,2023.2.3,harveyvisual,2.1,[],8,0.75,
0,pause,0.4,None,None,None,0,239,239,239,,,,,,,,,,,,,D001,visual,1,[],"['1', '2', '3', '4']",1,2023.2.3,harveyvisual,2.1,[],8,0.75,
2,dot,0.3,['dot'],['density'],black,0,240,240,240,,,86.40022492408752,86.11345601081848,86.41344094276428,dot,"[0.06, 0.08]","[[-0.19482721327365293, -0.5079820576301489], [-0.36119809377872014, -0.396546877814361]]",density,black,,,D001,visual,1,[],"['1', '2', '3', '4']",1,2023.2.3,harveyvisual,2.1,[],8,0.75,
0,pause,0.4,None,None,None,0,241,241,241,,,,,,,,,,,,,D001,visual,1,[],"['1', '2', '3', '4']",1,2023.2.3,harveyvisual,2.1,[],8,0.75,
2,dot,0.3,['dot'],['density'],black,0,242,242,242,,,87.10022783279419,86.8134388923645,87.11342883110046,dot,"[0.1, 0.1]","[[-0.40295961353468523, -0.33947470962363085], [-0.23663605411983973, -0.22749761394439932]]",density,black,,,D001,visual,1,[],"['1', '2', '3', '4']",1,2023.2.3,harveyvisual,2.1,[],8,0.75,
0,pause,0.4,None,None,None,0,243,243,243,,,,,,,,,,,,,D001,visual,1,[],"['1', '2', '3', '4']",1,2023.2.3,harveyvisual,2.1,[],8,0.75,
2,dot,0.3,['dot'],['density'],black,0,244,244,244,,,87.8002188205719,87.51324391365051,87.81326580047607,dot,"[0.08, 0.06]","[[0.24265818653156754, -0.3775895252336694], [0.4224299169789366, -0.289759305909148]]",density,black,,,D001,visual,1,[],"['1', '2', '3', '4']",1,2023.2.3,harveyvisual,2.1,[],8,0.75,
0,pause,0.4,None,None,None,0,245,245,245,,,,,,,,,,,,,D001,visual,1,[],"['1', '2', '3', '4']",1,2023.2.3,harveyvisual,2.1,[],8,0.75,
2,dot,0.3,['dot'],['density'],black,0,246,246,246,,,88.50022101402283,88.21326684951782,88.51325392723083,dot,"[0.1, 0.06]","[[0.1851205616289071, -0.3624876981064337], [0.3405923022038234, -0.23608025195482504]]",density,black,,,D001,visual,1,[],"['1', '2', '3', '4']",1,2023.2.3,harveyvisual,2.1,[],8,0.75,
0,pause,0.4,None,None,None,0,247,247,247,,,,,,,,,,,,,D001,visual,1,[],"['1', '2', '3', '4']",1,2023.2.3,harveyvisual,2.1,[],8,0.75,
2,dot,0.3,['dot'],['density'],black,0,248,248,248,,,89.20022702217102,88.9132490158081,89.21323084831238,dot,"[0.1, 0.1]","[[0.4162662019019998, 0.09129510669171749], [0.33420900269466314, 0.27427456354974017]]",density,black,,,D001,visual,1,[],"['1', '2', '3', '4']",1,2023.2.3,harveyvisual,2.1,[],8,0.75,
0,pause,0.4,None,None,None,0,249,249,249,,,,,,,,,,,,,D001,visual,1,[],"['1', '2', '3', '4']",1,2023.2.3,harveyvisual,2.1,[],8,0.75,
2,dot,0.3,['dot'],['density'],black,0,250,250,250,,,89.90022087097168,89.6132218837738,89.91322493553162,dot,"[0.06, 0.1]","[[-0.19266755722762574, -0.036106715323925336], [-0.096675332858716, 0.13967695308521302]]",density,black,,,D001,visual,1,[],"['1', '2', '3', '4']",1,2023.2.3,harveyvisual,2.1,[],8,0.75,
0,pause,0.4,None,None,None,0,251,251,251,,,,,,,,,,,,,D001,visual,1,[],"['1', '2', '3', '4']",1,2023.2.3,harveyvisual,2.1,[],8,0.75,
1,dot,0.3,['dot'],['density'],black,0,252,252,252,,,90.60023498535156,90.31321287155151,90.6131899356842,dot,[0.1],"[-0.30422713965878023, 0.0739284850406325]",density,black,,,D001,visual,1,[],"['1', '2', '3', '4']",1,2023.2.3,harveyvisual,2.1,[],8,0.75,
0,pause,0.4,None,None,None,0,253,253,253,,,,,,,,,,,,,D001,visual,1,[],"['1', '2', '3', '4']",1,2023.2.3,harveyvisual,2.1,[],8,0.75,
1,dot,0.3,['dot'],['density'],black,0,254,254,254,,,91.30021786689758,91.01318883895874,91.31317090988159,dot,[0.1],"[0.5668064281626585, -0.020013277593342628]",density,black,,,D001,visual,1,[],"['1', '2', '3', '4']",1,2023.2.3,harveyvisual,2.1,[],8,0.75,
0,pause,0.4,None,None,None,0,255,255,255,,,,,,,,,,,,,D001,visual,1,[],"['1', '2', '3', '4']",1,2023.2.3,harveyvisual,2.1,[],8,0.75,
1,dot,0.3,['dot'],['density'],black,0,256,256,256,,,92.00022196769714,91.71317100524902,92.01315999031067,dot,[0.08],"[0.0956549371127339, 0.09579573331985794]",density,black,,,D001,visual,1,[],"['1', '2', '3', '4']",1,2023.2.3,harveyvisual,2.1,[],8,0.75,
0,pause,0.4,None,None,None,0,257,257,257,,,,,,,,,,,,,D001,visual,1,[],"['1', '2', '3', '4']",1,2023.2.3,harveyvisual,2.1,[],8,0.75,
1,dot,0.3,['dot'],['density'],black,0,258,258,258,,,92.70021891593933,92.41315984725952,92.71314692497253,dot,[0.08],"[0.4230572171255965, 0.15564154118015242]",density,black,,,D001,visual,1,[],"['1', '2', '3', '4']",1,2023.2.3,harveyvisual,2.1,[],8,0.75,
0,pause,0.4,None,None,None,0,259,259,259,,,,,,,,,,,,,D001,visual,1,[],"['1', '2', '3', '4']",1,2023.2.3,harveyvisual,2.1,[],8,0.75,
1,dot,0.3,['dot'],['density'],black,0,260,260,260,,,93.40023183822632,93.11313486099243,93.41311192512512,dot,[0.08],"[0.03111034986587176, -0.1137363894063533]",density,black,,,D001,visual,1,[],"['1', '2', '3', '4']",1,2023.2.3,harveyvisual,2.1,[],8,0.75,
0,pause,0.4,None,None,None,0,261,261,261,,,,,,,,,,,,,D001,visual,1,[],"['1', '2', '3', '4']",1,2023.2.3,harveyvisual,2.1,[],8,0.75,
1,dot,0.3,['dot'],['density'],black,0,262,262,262,,,94.10022187232971,93.81315493583679,94.1131157875061,dot,[0.06],"[0.30758596680771827, -0.21275106234766314]",density,black,,,D001,visual,1,[],"['1', '2', '3', '4']",1,2023.2.3,harveyvisual,2.1,[],8,0.75,
0,pause,0.4,None,None,None,0,263,263,263,,,,,,,,,,,,,D001,visual,1,[],"['1', '2', '3', '4']",1,2023.2.3,harveyvisual,2.1,[],8,0.75,
20,dot,0.3,['dot'],['density'],black,0,264,264,264,,,94.8002278804779,94.51306700706482,94.81310081481934,dot,"[0.1, 0.1, 0.1, 0.1, 0.1, 0.06, 0.06, 0.08, 0.06, 0.1, 0.08, 0.06, 0.08, 0.08, 0.1, 0.06, 0.06, 0.1, 0.06, 0.1]","[[0.29057086552822664, -0.48772963570296585], [0.2360788934080491, 0.5447583780631778], [-0.23098396315105318, 0.008749900721236825], [-0.297222137889793, -0.4386063067256739], [-0.3442857221582626, 0.38631930093770167], [0.28288579688364257, -0.08499740911491155], [0.17682074155055272, 0.19760733529751795], [0.05484849814604853, -0.3463548759954809], [-0.5877455701666766, -0.12535815078680157], [0.04239599607901867, 0.3556916997540326], [0.4943562589748739, -0.16962821559711289], [0.44366433186950094, -0.36586644343171754], [0.4452121307681597, 0.2863838500817555], [-0.053319434850221614, 0.5794958142342582], [-0.15814883403222496, -0.1938063405134049], [0.5495893309954106, 0.08622647683810503], [-0.5072675438096168, 0.22049858971106617], [-0.4380944119666753, -0.25184312208724086], [0.036175650850978625, 0.003833777302262864], [-0.22549395335428402, 0.20605616341607058]]",density,black,,,D001,visual,1,[],"['1', '2', '3', '4']",1,2023.2.3,harveyvisual,2.1,[],8,0.75,
0,pause,0.4,None,None,None,0,265,265,265,,,,,,,,,,,,,D001,visual,1,[],"['1', '2', '3', '4']",1,2023.2.3,harveyvisual,2.1,[],8,0.75,
20,dot,0.3,['dot'],['density'],black,0,266,266,266,,,95.50022792816162,95.21307897567749,95.5130980014801,dot,"[0.1, 0.1, 0.08, 0.08, 0.06, 0.06, 0.1, 0.08, 0.1, 0.06, 0.06, 0.1, 0.08, 0.1, 0.1, 0.1, 0.1, 0.1, 0.1, 0.08]","[[0.5909623884624345, 0.12680904349181274], [-0.3747699229558178, 0.12207054685242341], [-0.19682674658213745, -0.14187697534478866], [0.4674245655824195, -0.273861776704408], [0.23209807889128897, -0.23714895987171192], [0.16872823471329923, 0.14009795574767558], [0.033570751890196204, 0.5072306066304296], [0.1263096608456573, -0.42342088339024986], [-0.363812693755729, -0.4739161712030909], [-0.1575226225121139, -0.42693455359686405], [-0.19564815703684818, 0.572064664642162], [-0.5648302942245534, 0.11078503425010591], [0.23192256589552962, 0.40315838590502584], [0.5886650353393647, -0.1232102202380563], [-0.3570238598325205, 0.3301248878381182], [-0.008307341481608388, 0.30590487024770485], [0.3958978998160477, 0.2585523486135701], [-0.548492729907698, -0.2490628374149096], [-0.06411913261902669, 0.04923472012416075], [-0.07159425401219066, -0.597133302418364]]",density,black,,,D001,visual,1,[],"['1', '2', '3', '4']",1,2023.2.3,harveyvisual,2.1,[],8,0.75,
0,pause,0.4,None,None,None,0,267,267,267,,,,,,,,,,,,,D001,visual,1,[],"['1', '2', '3', '4']",1,2023.2.3,harveyvisual,2.1,[],8,0.75,
