num,mod,duration,shape,ll_cond,colors,.thisRepN,.thisTrialN,.thisN,.thisIndex,thisRow.t,notes,raw_global_time,t_start,t_stop,shapes,size,pos,cond,color,button,RT,participant,session,starting_run,left button (match/odd),right button (non-match/even),samples_per_block,psychopy version,expName,offset,audio,number_runs,radius,
1,dot,0.3,['dot'],['density'],black,0,0,0,0,,,2.4001998901367188,2.1156299114227295,2.415465831756592,dot,[0.06],"[-0.0300711363278092, -0.16168860719337894]",density,black,,,D001,visual,4,[],"['1', '2', '3', '4']",1,2023.2.3,harveyvisual,2.1,[],8,0.75,
0,pause,0.4,None,None,None,0,1,1,1,,,,,,,,,,,,,D001,visual,4,[],"['1', '2', '3', '4']",1,2023.2.3,harveyvisual,2.1,[],8,0.75,
1,dot,0.3,['dot'],['density'],black,0,2,2,2,,,3.1001977920532227,2.7988288402557373,3.116849899291992,dot,[0.06],"[0.075024325262877, 0.28946834799837856]",density,black,,,D001,visual,4,[],"['1', '2', '3', '4']",1,2023.2.3,harveyvisual,2.1,[],8,0.75,
0,pause,0.4,None,None,None,0,3,3,3,,,,,,,,,,,,,D001,visual,4,[],"['1', '2', '3', '4']",1,2023.2.3,harveyvisual,2.1,[],8,0.75,
1,dot,0.3,['dot'],['density'],black,0,4,4,4,,,3.800198793411255,3.5160138607025146,3.8162310123443604,dot,[0.08],"[-0.43400380483721984, 0.10531265887229962]",density,black,,,D001,visual,4,[],"['1', '2', '3', '4']",1,2023.2.3,harveyvisual,2.1,[],8,0.75,
0,pause,0.4,None,None,None,0,5,5,5,,,,,,,,,,,,,D001,visual,4,[],"['1', '2', '3', '4']",1,2023.2.3,harveyvisual,2.1,[],8,0.75,
1,dot,0.3,['dot'],['density'],black,0,6,6,6,,,4.5001959800720215,4.216103792190552,4.515954971313477,dot,[0.06],"[-0.0300711363278092, -0.16168860719337894]",density,black,,,D001,visual,4,[],"['1', '2', '3', '4']",1,2023.2.3,harveyvisual,2.1,[],8,0.75,
0,pause,0.4,None,None,None,0,7,7,7,,,,,,,,,,,,,D001,visual,4,[],"['1', '2', '3', '4']",1,2023.2.3,harveyvisual,2.1,[],8,0.75,
1,dot,0.3,['dot'],['density'],black,0,8,8,8,,,5.200203895568848,4.91595196723938,5.216044902801514,dot,[0.08],"[-0.06064478149429028, 0.10204082006191012]",density,black,,,D001,visual,4,[],"['1', '2', '3', '4']",1,2023.2.3,harveyvisual,2.1,[],8,0.75,
0,pause,0.4,None,None,None,0,9,9,9,,,,,,,,,,,,,D001,visual,4,[],"['1', '2', '3', '4']",1,2023.2.3,harveyvisual,2.1,[],8,0.75,
1,dot,0.3,['dot'],['density'],black,0,10,10,10,,,5.900200843811035,5.618304967880249,5.918284893035889,dot,[0.08],"[0.31457923939875737, -0.4122609730770665]",density,black,,,D001,visual,4,[],"['1', '2', '3', '4']",1,2023.2.3,harveyvisual,2.1,[],8,0.75,
0,pause,0.4,None,None,None,0,11,11,11,,,,,,,,,,,,,D001,visual,4,[],"['1', '2', '3', '4']",1,2023.2.3,harveyvisual,2.1,[],8,0.75,
2,dot,0.3,['dot'],['density'],black,0,12,12,12,,,6.600202798843384,6.318264007568359,6.618260860443115,dot,"[0.06, 0.1]","[[0.11825467712572878, -0.39617910972508336], [0.05459236086910312, -0.5860717982025758]]",density,black,,,D001,visual,4,[],"['1', '2', '3', '4']",1,2023.2.3,harveyvisual,2.1,[],8,0.75,
0,pause,0.4,None,None,None,0,13,13,13,,,,,,,,,,,,,D001,visual,4,[],"['1', '2', '3', '4']",1,2023.2.3,harveyvisual,2.1,[],8,0.75,
2,dot,0.3,['dot'],['density'],white,0,14,14,14,,,7.300194978713989,7.018225908279419,7.318237781524658,dot,"[0.06, 0.08]","[[0.5159928458027473, 0.13749655768121952], [0.38343727829172375, 0.28833164788761484]]",density,white,,,D001,visual,4,[],"['1', '2', '3', '4']",1,2023.2.3,harveyvisual,2.1,[],8,0.75,
0,pause,0.4,None,None,None,0,15,15,15,,,,,,,,,,,1,7.503736972808838,D001,visual,4,[],"['1', '2', '3', '4']",1,2023.2.3,harveyvisual,2.1,[],8,0.75,
2,dot,0.3,['dot'],['density'],black,0,16,16,16,,,8.000205993652344,7.718230962753296,8.018157958984375,dot,"[0.1, 0.1]","[[0.02987007740145294, 0.4330921892138179], [-0.1698845640653836, 0.4119973540264252]]",density,black,,,D001,visual,4,[],"['1', '2', '3', '4']",1,2023.2.3,harveyvisual,2.1,[],8,0.75,
0,pause,0.4,None,None,None,0,17,17,17,,,,,,,,,,,,,D001,visual,4,[],"['1', '2', '3', '4']",1,2023.2.3,harveyvisual,2.1,[],8,0.75,
2,dot,0.3,['dot'],['density'],black,0,18,18,18,,,8.700202941894531,8.418152809143066,8.71813678741455,dot,"[0.1, 0.1]","[[0.4162662019019998, 0.09129510669171749], [0.33420900269466314, 0.27427456354974017]]",density,black,,,D001,visual,4,[],"['1', '2', '3', '4']",1,2023.2.3,harveyvisual,2.1,[],8,0.75,
0,pause,0.4,None,None,None,0,19,19,19,,,,,,,,,,,,,D001,visual,4,[],"['1', '2', '3', '4']",1,2023.2.3,harveyvisual,2.1,[],8,0.75,
2,dot,0.3,['dot'],['density'],white,0,20,20,20,,,9.400209903717041,9.118131875991821,9.418132781982422,dot,"[0.08, 0.06]","[[0.510744558366804, -0.07965895932329134], [0.5183014925016622, -0.2796299572401246]]",density,white,,,D001,visual,4,[],"['1', '2', '3', '4']",1,2023.2.3,harveyvisual,2.1,[],8,0.75,
0,pause,0.4,None,None,None,0,21,21,21,,,,,,,,,,,1,9.59798002243042,D001,visual,4,[],"['1', '2', '3', '4']",1,2023.2.3,harveyvisual,2.1,[],8,0.75,
2,dot,0.3,['dot'],['density'],black,0,22,22,22,,,10.100193977355957,9.818115949630737,10.118147850036621,dot,"[0.08, 0.1]","[[0.24265818653156754, -0.3775895252336694], [0.4224299169789366, -0.289759305909148]]",density,black,,,D001,visual,4,[],"['1', '2', '3', '4']",1,2023.2.3,harveyvisual,2.1,[],8,0.75,
0,pause,0.4,None,None,None,0,23,23,23,,,,,,,,,,,,,D001,visual,4,[],"['1', '2', '3', '4']",1,2023.2.3,harveyvisual,2.1,[],8,0.75,
3,dot,0.3,['dot'],['density'],black,0,24,24,24,,,10.8002188205719,10.518135786056519,10.818175792694092,dot,"[0.08, 0.06, 0.08]","[[-0.32034981165049564, 0.18083778238314796], [-0.3344619052850136, -0.04022521570367012], [-0.13485517643248812, 0.10330846540140716]]",density,black,,,D001,visual,4,[],"['1', '2', '3', '4']",1,2023.2.3,harveyvisual,2.1,[],8,0.75,
0,pause,0.4,None,None,None,0,25,25,25,,,,,,,,,,,,,D001,visual,4,[],"['1', '2', '3', '4']",1,2023.2.3,harveyvisual,2.1,[],8,0.75,
3,dot,0.3,['dot'],['density'],black,0,26,26,26,,,11.500207901000977,11.218101978302002,11.518080949783325,dot,"[0.1, 0.1, 0.06]","[[0.35100391059830643, -0.4491085892346253], [0.13011513135189492, -0.5590284990295896], [0.16905753934955023, -0.35714526366544236]]",density,black,,,D001,visual,4,[],"['1', '2', '3', '4']",1,2023.2.3,harveyvisual,2.1,[],8,0.75,
0,pause,0.4,None,None,None,0,27,27,27,,,,,,,,,,,,,D001,visual,4,[],"['1', '2', '3', '4']",1,2023.2.3,harveyvisual,2.1,[],8,0.75,
3,dot,0.3,['dot'],['density'],black,0,28,28,28,,,12.200215816497803,11.918080806732178,12.218065977096558,dot,"[0.06, 0.06, 0.06]","[[-0.17592395544936776, 0.40510565415719324], [-0.30566154612550034, 0.21848422264492345], [-0.39822260978708685, 0.43144058222919995]]",density,black,,,D001,visual,4,[],"['1', '2', '3', '4']",1,2023.2.3,harveyvisual,2.1,[],8,0.75,
0,pause,0.4,None,None,None,0,29,29,29,,,,,,,,,,,,,D001,visual,4,[],"['1', '2', '3', '4']",1,2023.2.3,harveyvisual,2.1,[],8,0.75,
3,dot,0.3,['dot'],['density'],black,0,30,30,30,,,12.90022087097168,12.618122816085815,12.918099880218506,dot,"[0.1, 0.08, 0.1]","[[-0.31319101668702665, 0.019781348947723338], [-0.5473895760332308, 0.024991247927059115], [-0.4494119348059314, -0.1602141851013313]]",density,black,,,D001,visual,4,[],"['1', '2', '3', '4']",1,2023.2.3,harveyvisual,2.1,[],8,0.75,
0,pause,0.4,None,None,None,0,31,31,31,,,,,,,,,,,,,D001,visual,4,[],"['1', '2', '3', '4']",1,2023.2.3,harveyvisual,2.1,[],8,0.75,
3,dot,0.3,['dot'],['density'],black,0,32,32,32,,,13.600199937820435,13.318079948425293,13.619095802307129,dot,"[0.1, 0.08, 0.1]","[[0.315495050057846, 0.10724904305018564], [0.5180852452909619, 0.013799590611742229], [0.3819545826159732, -0.1334380777916547]]",density,black,,,D001,visual,4,[],"['1', '2', '3', '4']",1,2023.2.3,harveyvisual,2.1,[],8,0.75,
0,pause,0.4,None,None,None,0,33,33,33,,,,,,,,,,,,,D001,visual,4,[],"['1', '2', '3', '4']",1,2023.2.3,harveyvisual,2.1,[],8,0.75,
3,dot,0.3,['dot'],['density'],black,0,34,34,34,,,14.300208806991577,14.01801586151123,14.318015813827515,dot,"[0.06, 0.08, 0.08]","[[0.348550694073714, -0.26372109460002424], [0.5073713069625243, -0.14206826334288786], [0.3419709386041379, 0.005891602819957491]]",density,black,,,D001,visual,4,[],"['1', '2', '3', '4']",1,2023.2.3,harveyvisual,2.1,[],8,0.75,
0,pause,0.4,None,None,None,0,35,35,35,,,,,,,,,,,,,D001,visual,4,[],"['1', '2', '3', '4']",1,2023.2.3,harveyvisual,2.1,[],8,0.75,
4,dot,0.3,['dot'],['density'],black,0,36,36,36,,,15.000203847885132,14.718009948730469,15.017997980117798,dot,"[0.06, 0.08, 0.08, 0.06]","[[0.010836700166572746, 0.3385055392368038], [-0.21755291078517647, 0.23172276430217797], [0.04881011250022837, 0.13413393103699342], [-0.16894730197854985, 0.4434327172909165]]",density,black,,,D001,visual,4,[],"['1', '2', '3', '4']",1,2023.2.3,harveyvisual,2.1,[],8,0.75,
0,pause,0.4,None,None,None,0,37,37,37,,,,,,,,,,,,,D001,visual,4,[],"['1', '2', '3', '4']",1,2023.2.3,harveyvisual,2.1,[],8,0.75,
4,dot,0.3,['dot'],['density'],black,0,38,38,38,,,15.700207948684692,15.41798996925354,15.718015909194946,dot,"[0.08, 0.1, 0.06, 0.08]","[[-0.0389916918612136, -0.388752419995929], [-0.2709884701808293, -0.36873671266769453], [0.09349318837137091, -0.23801008290575854], [-0.09100040788429245, -0.11490803606521542]]",density,black,,,D001,visual,4,[],"['1', '2', '3', '4']",1,2023.2.3,harveyvisual,2.1,[],8,0.75,
0,pause,0.4,None,None,None,0,39,39,39,,,,,,,,,,,,,D001,visual,4,[],"['1', '2', '3', '4']",1,2023.2.3,harveyvisual,2.1,[],8,0.75,
4,dot,0.3,['dot'],['density'],black,0,40,40,40,,,16.400202989578247,16.118000984191895,16.417950868606567,dot,"[0.1, 0.06, 0.06, 0.1]","[[0.1665887267295909, 0.08389582001604734], [0.4584359263982055, 0.26405512465689546], [0.4157764543415929, 0.03513878013061779], [0.2392225064082761, 0.29777239984320175]]",density,black,,,D001,visual,4,[],"['1', '2', '3', '4']",1,2023.2.3,harveyvisual,2.1,[],8,0.75,
0,pause,0.4,None,None,None,0,41,41,41,,,,,,,,,,,,,D001,visual,4,[],"['1', '2', '3', '4']",1,2023.2.3,harveyvisual,2.1,[],8,0.75,
4,dot,0.3,['dot'],['density'],black,0,42,42,42,,,17.100219011306763,16.817950963974,17.117953777313232,dot,"[0.1, 0.06, 0.1, 0.1]","[[0.107131415583101, 0.03171316484874249], [0.3330877778846877, 0.14211400081541528], [0.23058747141838212, -0.24340322486593785], [0.3173726134345681, -0.05921806988573682]]",density,black,,,D001,visual,4,[],"['1', '2', '3', '4']",1,2023.2.3,harveyvisual,2.1,[],8,0.75,
0,pause,0.4,None,None,None,0,43,43,43,,,,,,,,,,,,,D001,visual,4,[],"['1', '2', '3', '4']",1,2023.2.3,harveyvisual,2.1,[],8,0.75,
4,dot,0.3,['dot'],['density'],black,0,44,44,44,,,17.800209999084473,17.517940998077393,17.817924976348877,dot,"[0.1, 0.1, 0.06, 0.1]","[[0.2593869086993074, -0.26887741013308497], [0.09674879007849839, -0.39609983087723066], [-0.011093693993988496, -0.14004324908426333], [0.28630805459639813, -0.4681830009867555]]",density,black,,,D001,visual,4,[],"['1', '2', '3', '4']",1,2023.2.3,harveyvisual,2.1,[],8,0.75,
0,pause,0.4,None,None,None,0,45,45,45,,,,,,,,,,,,,D001,visual,4,[],"['1', '2', '3', '4']",1,2023.2.3,harveyvisual,2.1,[],8,0.75,
4,dot,0.3,['dot'],['density'],black,0,46,46,46,,,18.500197887420654,18.218004941940308,18.517913818359375,dot,"[0.1, 0.1, 0.08, 0.08]","[[0.06241226843583792, -0.3147100539198924], [0.2553405417111816, -0.24584579293690137], [0.0027514156828475403, -0.09786489187307437], [0.1660279615748852, 0.026007470517245626]]",density,black,,,D001,visual,4,[],"['1', '2', '3', '4']",1,2023.2.3,harveyvisual,2.1,[],8,0.75,
0,pause,0.4,None,None,None,0,47,47,47,,,,,,,,,,,,,D001,visual,4,[],"['1', '2', '3', '4']",1,2023.2.3,harveyvisual,2.1,[],8,0.75,
5,dot,0.3,['dot'],['density'],black,0,48,48,48,,,19.200209856033325,18.917921781539917,19.21789789199829,dot,"[0.06, 0.06, 0.08, 0.08, 0.1]","[[-0.006164932418690097, -0.4528126201229341], [-0.1681524682570009, -0.11721653268637569], [-0.1959903964051736, -0.3710708837277218], [0.03544926667602863, -0.1302589477940128], [0.16830580561999814, -0.32298356607012285]]",density,black,,,D001,visual,4,[],"['1', '2', '3', '4']",1,2023.2.3,harveyvisual,2.1,[],8,0.75,
0,pause,0.4,None,None,None,0,49,49,49,,,,,,,,,,,,,D001,visual,4,[],"['1', '2', '3', '4']",1,2023.2.3,harveyvisual,2.1,[],8,0.75,
5,dot,0.3,['dot'],['density'],black,0,50,50,50,,,19.90021800994873,19.617883920669556,19.9178569316864,dot,"[0.08, 0.08, 0.1, 0.08, 0.08]","[[0.2947939438731228, -0.23060267152592065], [-0.16069394766121817, -0.3416383267983795], [0.17571447256805817, -0.04795497140357211], [-0.06398416024856234, -0.043165972544212804], [0.046845399773749824, -0.2436216536023896]]",density,black,,,D001,visual,4,[],"['1', '2', '3', '4']",1,2023.2.3,harveyvisual,2.1,[],8,0.75,
0,pause,0.4,None,None,None,0,51,51,51,,,,,,,,,,,,,D001,visual,4,[],"['1', '2', '3', '4']",1,2023.2.3,harveyvisual,2.1,[],8,0.75,
5,dot,0.3,['dot'],['density'],black,0,52,52,52,,,20.600207805633545,20.317868947982788,20.61791491508484,dot,"[0.06, 0.06, 0.1, 0.08, 0.08]","[[-0.053215572458232586, 0.27221330895143253], [0.10089702531331296, 0.1334794413224796], [0.12897289155288158, 0.4002796015157326], [0.3022660506716914, 0.02685289149411272], [0.2804295634962893, 0.24950018434757285]]",density,black,,,D001,visual,4,[],"['1', '2', '3', '4']",1,2023.2.3,harveyvisual,2.1,[],8,0.75,
0,pause,0.4,None,None,None,0,53,53,53,,,,,,,,,,,,,D001,visual,4,[],"['1', '2', '3', '4']",1,2023.2.3,harveyvisual,2.1,[],8,0.75,
5,dot,0.3,['dot'],['density'],white,0,54,54,54,,,21.300216913223267,21.017874002456665,21.31786584854126,dot,"[0.08, 0.1, 0.1, 0.06, 0.06]","[[-0.3593586909609717, -0.014123405231526708], [-0.016214713675271986, 0.25764317450247104], [-0.14180258575993823, 0.0328893580167688], [-0.4739301778776912, 0.15719809156630632], [-0.2718601341595813, 0.23222304362681612]]",density,white,,,D001,visual,4,[],"['1', '2', '3', '4']",1,2023.2.3,harveyvisual,2.1,[],8,0.75,
0,pause,0.4,None,None,None,0,55,55,55,,,,,,,,,,,1,21.400404930114746,D001,visual,4,[],"['1', '2', '3', '4']",1,2023.2.3,harveyvisual,2.1,[],8,0.75,
5,dot,0.3,['dot'],['density'],black,0,56,56,56,,,22.000196933746338,21.717862844467163,22.01784896850586,dot,"[0.1, 0.08, 0.08, 0.08, 0.08]","[[0.08548847697718086, 0.4135790235028826], [-0.012611048966726563, 0.22662400259503446], [0.27435170057987585, 0.4853016025774898], [-0.23063129862993442, 0.3109017384705433], [-0.11887524344887646, 0.49040580377695175]]",density,black,,,D001,visual,4,[],"['1', '2', '3', '4']",1,2023.2.3,harveyvisual,2.1,[],8,0.75,
0,pause,0.4,None,None,None,0,57,57,57,,,,,,,,,,,,,D001,visual,4,[],"['1', '2', '3', '4']",1,2023.2.3,harveyvisual,2.1,[],8,0.75,
5,dot,0.3,['dot'],['density'],black,0,58,58,58,,,22.700203895568848,22.417836904525757,22.71782398223877,dot,"[0.1, 0.1, 0.06, 0.1, 0.08]","[[0.05896558140131438, -0.5342250951568444], [0.41924064092593105, -0.38742881471212404], [0.0789485457987589, -0.15857793529431863], [0.19859038409043042, -0.3300393182504279], [-0.04229804568701367, -0.31959008629620334]]",density,black,,,D001,visual,4,[],"['1', '2', '3', '4']",1,2023.2.3,harveyvisual,2.1,[],8,0.75,
0,pause,0.4,None,None,None,0,59,59,59,,,,,,,,,,,,,D001,visual,4,[],"['1', '2', '3', '4']",1,2023.2.3,harveyvisual,2.1,[],8,0.75,
6,dot,0.3,['dot'],['density'],black,0,60,60,60,,,23.400221824645996,23.1178297996521,23.41782784461975,dot,"[0.1, 0.06, 0.06, 0.08, 0.08, 0.06]","[[0.5108460974500976, 0.10904555526594768], [0.5033362887342737, -0.29902707163897635], [0.3062164979741722, 0.05793810054487639], [0.22849736264613016, -0.28041776899433873], [0.12909977445373055, -0.06500178518750158], [0.41889526300287094, -0.11616960582105396]]",density,black,,,D001,visual,4,[],"['1', '2', '3', '4']",1,2023.2.3,harveyvisual,2.1,[],8,0.75,
0,pause,0.4,None,None,None,0,61,61,61,,,,,,,,,,,,,D001,visual,4,[],"['1', '2', '3', '4']",1,2023.2.3,harveyvisual,2.1,[],8,0.75,
6,dot,0.3,['dot'],['density'],black,0,62,62,62,,,24.100219011306763,23.817839860916138,24.11777400970459,dot,"[0.08, 0.1, 0.1, 0.06, 0.08, 0.1]","[[-0.3622751979984162, 0.41275935807220604], [-0.5464806003183257, 0.06358334875023645], [-0.15518785678585886, 0.34969079698534317], [-0.3231370338359737, -0.02193421190541931], [-0.3473470749510941, 0.19885557425221048], [-0.12382976466594668, 0.04156566071734393]]",density,black,,,D001,visual,4,[],"['1', '2', '3', '4']",1,2023.2.3,harveyvisual,2.1,[],8,0.75,
0,pause,0.4,None,None,None,0,63,63,63,,,,,,,,,,,,,D001,visual,4,[],"['1', '2', '3', '4']",1,2023.2.3,harveyvisual,2.1,[],8,0.75,
6,dot,0.3,['dot'],['density'],black,0,64,64,64,,,24.800221920013428,24.51775097846985,24.81777787208557,dot,"[0.1, 0.1, 0.06, 0.06, 0.06, 0.06]","[[-0.25052904509636076, -0.46440103658729176], [-0.12772535636451293, 0.010821502090106766], [-0.031043743050516784, -0.3649555915866845], [-0.3754529733759062, -0.18839395716731677], [0.07378414788444272, -0.15062955699655364], [-0.17220243018048728, -0.20498996683935267]]",density,black,,,D001,visual,4,[],"['1', '2', '3', '4']",1,2023.2.3,harveyvisual,2.1,[],8,0.75,
0,pause,0.4,None,None,None,0,65,65,65,,,,,,,,,,,,,D001,visual,4,[],"['1', '2', '3', '4']",1,2023.2.3,harveyvisual,2.1,[],8,0.75,
6,dot,0.3,['dot'],['density'],black,0,66,66,66,,,25.50020980834961,25.21776795387268,25.51777482032776,dot,"[0.08, 0.08, 0.08, 0.08, 0.06, 0.1]","[[-0.2715212558254698, 0.2586056842756752], [-0.41011716394998093, -0.23288273174477314], [-0.4259032553852052, 0.02963770343160952], [-0.037696467485790364, -0.07921729390734374], [-0.19058944014171011, 0.07565381115733183], [-0.22931220879523878, -0.14417898787482208]]",density,black,,,D001,visual,4,[],"['1', '2', '3', '4']",1,2023.2.3,harveyvisual,2.1,[],8,0.75,
0,pause,0.4,None,None,None,0,67,67,67,,,,,,,,,,,,,D001,visual,4,[],"['1', '2', '3', '4']",1,2023.2.3,harveyvisual,2.1,[],8,0.75,
6,dot,0.3,['dot'],['density'],black,0,68,68,68,,,26.20021390914917,25.917741775512695,26.217715978622437,dot,"[0.1, 0.06, 0.06, 0.08, 0.06, 0.1]","[[-0.08086177951302478, 0.2470577028799217], [0.17809040740055945, 0.25721690350386706], [0.248993691455746, -0.144418230259854], [0.04260816027356476, -0.17251108440570345], [0.26201279645255604, 0.07253913185781388], [-0.0017619790798508912, 0.027830886297901026]]",density,black,,,D001,visual,4,[],"['1', '2', '3', '4']",1,2023.2.3,harveyvisual,2.1,[],8,0.75,
0,pause,0.4,None,None,None,0,69,69,69,,,,,,,,,,,,,D001,visual,4,[],"['1', '2', '3', '4']",1,2023.2.3,harveyvisual,2.1,[],8,0.75,
6,dot,0.3,['dot'],['density'],black,0,70,70,70,,,26.900200843811035,26.61770796775818,26.917695999145508,dot,"[0.08, 0.08, 0.08, 0.06, 0.08, 0.06]","[[0.4838288853419304, 0.012393783640839304], [0.3357737587390128, 0.3939464288632381], [0.48781910936274964, 0.21484656822060386], [0.038497076365425514, 0.2266532147795764], [0.13074852606734502, 0.009493629341700475], [0.2855531954453259, 0.1811044151544938]]",density,black,,,D001,visual,4,[],"['1', '2', '3', '4']",1,2023.2.3,harveyvisual,2.1,[],8,0.75,
0,pause,0.4,None,None,None,0,71,71,71,,,,,,,,,,,,,D001,visual,4,[],"['1', '2', '3', '4']",1,2023.2.3,harveyvisual,2.1,[],8,0.75,
7,dot,0.3,['dot'],['density'],black,0,72,72,72,,,27.600202798843384,27.317701816558838,27.617669820785522,dot,"[0.1, 0.08, 0.06, 0.06, 0.06, 0.1, 0.06]","[[0.020512593940644967, 0.06058225053891463], [-0.12457192929091994, 0.22210134043855223], [0.2267676360835929, 0.07227077176864677], [-0.19381219694833235, -0.14277017550647156], [0.096077147208419, -0.13886261858003718], [0.087393672000005, 0.26445259248386815], [-0.018663113410245565, 0.4344684582511623]]",density,black,,,D001,visual,4,[],"['1', '2', '3', '4']",1,2023.2.3,harveyvisual,2.1,[],8,0.75,
0,pause,0.4,None,None,None,0,73,73,73,,,,,,,,,,,,,D001,visual,4,[],"['1', '2', '3', '4']",1,2023.2.3,harveyvisual,2.1,[],8,0.75,
7,dot,0.3,['dot'],['density'],black,0,74,74,74,,,28.30020499229431,28.01771092414856,28.31768488883972,dot,"[0.1, 0.08, 0.08, 0.06, 0.06, 0.08, 0.06]","[[0.3302081014073935, 0.19448071361351732], [-0.22286629369238187, 0.3450023392305547], [-0.11533339293480348, 0.13926201039730488], [0.12023407780451623, 0.21240672508650668], [0.2659789407074307, 0.3894086603790018], [0.026604934602130894, 0.39133200849180605], [0.212400253920387, 0.027377351413115796]]",density,black,,,D001,visual,4,[],"['1', '2', '3', '4']",1,2023.2.3,harveyvisual,2.1,[],8,0.75,
0,pause,0.4,None,None,None,0,75,75,75,,,,,,,,,,,,,D001,visual,4,[],"['1', '2', '3', '4']",1,2023.2.3,harveyvisual,2.1,[],8,0.75,
7,dot,0.3,['dot'],['density'],black,0,76,76,76,,,29.00020480155945,28.71764588356018,29.0176739692688,dot,"[0.06, 0.08, 0.08, 0.06, 0.1, 0.1, 0.08]","[[-0.3242652666020733, -0.24505345323409705], [-0.563286395470885, 0.11160295583497896], [-0.1647097641571906, 0.12111961656459011], [-0.36052488434271157, 0.18805397786199418], [-0.09510517377503278, -0.06720219285628748], [-0.3867432997129629, -0.05120750304069932], [-0.32798962767594847, 0.38554234766764234]]",density,black,,,D001,visual,4,[],"['1', '2', '3', '4']",1,2023.2.3,harveyvisual,2.1,[],8,0.75,
0,pause,0.4,None,None,None,0,77,77,77,,,,,,,,,,,,,D001,visual,4,[],"['1', '2', '3', '4']",1,2023.2.3,harveyvisual,2.1,[],8,0.75,
7,dot,0.3,['dot'],['density'],black,0,78,78,78,,,29.700212955474854,29.417665004730225,29.71769380569458,dot,"[0.08, 0.08, 0.06, 0.08, 0.08, 0.1, 0.08]","[[0.13823229125104186, -0.11287424625882309], [-0.082914425993103, 0.43156227464827385], [0.30107400633957315, 0.2583336012722512], [-0.1103107855725706, 0.20298726112520996], [0.37862923877470095, 0.05664428164281185], [0.10057609128089995, 0.3089177590539603], [0.1009283971288976, 0.1061295027106774]]",density,black,,,D001,visual,4,[],"['1', '2', '3', '4']",1,2023.2.3,harveyvisual,2.1,[],8,0.75,
0,pause,0.4,None,None,None,0,79,79,79,,,,,,,,,,,,,D001,visual,4,[],"['1', '2', '3', '4']",1,2023.2.3,harveyvisual,2.1,[],8,0.75,
7,dot,0.3,['dot'],['density'],black,0,80,80,80,,,30.400210857391357,30.117687940597534,30.417665004730225,dot,"[0.08, 0.1, 0.06, 0.08, 0.1, 0.08, 0.08]","[[0.3474653327129969, -0.31878285251617694], [0.04167069501601444, -0.04495125607964222], [-0.05005146056072613, -0.501422524998621], [-0.11295401278341419, -0.30095052262615135], [0.08710344590613708, -0.2932726077696002], [0.25592372840254046, -0.13825923460737455], [-0.15770825932276006, -0.07757053521742455]]",density,black,,,D001,visual,4,[],"['1', '2', '3', '4']",1,2023.2.3,harveyvisual,2.1,[],8,0.75,
0,pause,0.4,None,None,None,0,81,81,81,,,,,,,,,,,,,D001,visual,4,[],"['1', '2', '3', '4']",1,2023.2.3,harveyvisual,2.1,[],8,0.75,
7,dot,0.3,['dot'],['density'],white,0,82,82,82,,,31.10020899772644,30.817654848098755,31.11763596534729,dot,"[0.06, 0.06, 0.08, 0.08, 0.06, 0.1, 0.1]","[[-0.2314520007693297, 0.33838000150240727], [-0.18132207761103206, 0.5552670473927488], [0.017458222085991553, 0.32213086183097556], [0.10538257653630445, 0.5364165263315271], [-0.32661765694444117, 0.13553859080651098], [0.2001110614088519, 0.2352342526365964], [-0.07707990285528175, 0.1388757586163816]]",density,white,,,D001,visual,4,[],"['1', '2', '3', '4']",1,2023.2.3,harveyvisual,2.1,[],8,0.75,
0,pause,0.4,None,None,None,0,83,83,83,,,,,,,,,,,1,31.240630865097046,D001,visual,4,[],"['1', '2', '3', '4']",1,2023.2.3,harveyvisual,2.1,[],8,0.75,
8,dot,0.3,['dot'],['density'],black,0,84,84,84,,,31.80019998550415,31.517618894577026,31.817656993865967,dot,"[0.06, 0.1, 0.06, 0.1, 0.1, 0.08, 0.06, 0.08]","[[0.3364035831170529, 0.12390393923093283], [0.4336864367158133, 0.35981147627037974], [0.06743640335689947, 0.0759148581953004], [-0.079559988999742, 0.39531058321326396], [0.21309668101319243, 0.48855257098982907], [0.23478258025928536, -0.08446837776908474], [-0.12854716397353463, 0.17339976512773136], [0.14965136140762586, 0.26897313353206964]]",density,black,,,D001,visual,4,[],"['1', '2', '3', '4']",1,2023.2.3,harveyvisual,2.1,[],8,0.75,
0,pause,0.4,None,None,None,0,85,85,85,,,,,,,,,,,,,D001,visual,4,[],"['1', '2', '3', '4']",1,2023.2.3,harveyvisual,2.1,[],8,0.75,
8,dot,0.3,['dot'],['density'],black,0,86,86,86,,,32.50020790100098,32.21762800216675,32.51757478713989,dot,"[0.08, 0.1, 0.06, 0.06, 0.06, 0.06, 0.06, 0.06]","[[0.34834348934164344, -0.28812382596974456], [-0.10329597477015798, -0.5243874580500916], [0.11080732975293575, -0.39067626210733153], [-0.006800183936578442, -0.10390350920236302], [0.17453264242573352, -0.004648084789036161], [-0.11839138898177409, -0.2765800857961495], [-0.2122949223397977, -0.08354151726817095], [0.0010823045536620208, 0.09995244087301837]]",density,black,,,D001,visual,4,[],"['1', '2', '3', '4']",1,2023.2.3,harveyvisual,2.1,[],8,0.75,
0,pause,0.4,None,None,None,0,87,87,87,,,,,,,,,,,,,D001,visual,4,[],"['1', '2', '3', '4']",1,2023.2.3,harveyvisual,2.1,[],8,0.75,
8,dot,0.3,['dot'],['density'],black,0,88,88,88,,,33.20021200180054,32.91756892204285,33.21752595901489,dot,"[0.08, 0.08, 0.08, 0.08, 0.08, 0.08, 0.08, 0.1]","[[-0.3306282708070712, -0.09459634407206743], [0.17708038186302957, -0.36794437316098305], [-0.34368294577136044, -0.39688855169369486], [-0.16397220561896333, 0.03033928826277653], [-0.08476975953586025, -0.41834960305423746], [-0.16765121495786453, -0.2265743681515788], [0.0449590487082352, -0.10546915507075137], [-0.5574709661459258, -0.15664368712912546]]",density,black,,,D001,visual,4,[],"['1', '2', '3', '4']",1,2023.2.3,harveyvisual,2.1,[],8,0.75,
0,pause,0.4,None,None,None,0,89,89,89,,,,,,,,,,,,,D001,visual,4,[],"['1', '2', '3', '4']",1,2023.2.3,harveyvisual,2.1,[],8,0.75,
8,dot,0.3,['dot'],['density'],black,0,90,90,90,,,33.900197982788086,33.61769986152649,33.917550802230835,dot,"[0.1, 0.1, 0.06, 0.1, 0.08, 0.08, 0.06, 0.06]","[[-0.258715538922871, 0.3828151050353194], [-0.4384035523576633, -0.18689856672911037], [-0.5586779833045601, 0.15056420889708766], [-0.1699372658897842, -0.04883432605429875], [-0.36053016753151684, 0.02858569738219561], [-0.199221799186684, 0.1876786431210615], [0.004458053620249285, 0.1240038339062716], [0.019420137312414813, -0.16023679021787893]]",density,black,,,D001,visual,4,[],"['1', '2', '3', '4']",1,2023.2.3,harveyvisual,2.1,[],8,0.75,
0,pause,0.4,None,None,None,0,91,91,91,,,,,,,,,,,,,D001,visual,4,[],"['1', '2', '3', '4']",1,2023.2.3,harveyvisual,2.1,[],8,0.75,
8,dot,0.3,['dot'],['density'],white,0,92,92,92,,,34.600220918655396,34.317537784576416,34.617538928985596,dot,"[0.1, 0.08, 0.1, 0.1, 0.08, 0.06, 0.06, 0.08]","[[-0.30918623351354413, -0.2762980118811315], [0.03442122464869854, -0.32944299641312663], [0.20656618624830034, -0.4515266663928406], [0.20458815773351877, -0.002924552385479317], [-0.054765695239429084, -0.14491701700869716], [-0.0008776159608741382, 0.05441634750414142], [0.19975410704164612, -0.21252729673777132], [-0.19330391669800595, 0.14377227853430027]]",density,white,,,D001,visual,4,[],"['1', '2', '3', '4']",1,2023.2.3,harveyvisual,2.1,[],8,0.75,
0,pause,0.4,None,None,None,0,93,93,93,,,,,,,,,,,1,34.68704700469971,D001,visual,4,[],"['1', '2', '3', '4']",1,2023.2.3,harveyvisual,2.1,[],8,0.75,
8,dot,0.3,['dot'],['density'],white,0,94,94,94,,,35.30021595954895,35.01755499839783,35.3175208568573,dot,"[0.08, 0.08, 0.06, 0.1, 0.1, 0.08, 0.08, 0.08]","[[0.43039348711459674, -0.2176132953198537], [0.11499515674856413, 0.2899266495440316], [0.12808102003139596, -0.009244067984354065], [-0.030386771168905473, -0.2551920291624523], [0.3118809155168881, 0.2081403981228026], [-0.06282563634610334, 0.11114412413027695], [0.22944900542930163, -0.23921835558115082], [0.33219925311336224, 0.0035410395788749187]]",density,white,,,D001,visual,4,[],"['1', '2', '3', '4']",1,2023.2.3,harveyvisual,2.1,[],8,0.75,
0,pause,0.4,None,None,None,0,95,95,95,,,,,,,,,,,1,35.413142919540405,D001,visual,4,[],"['1', '2', '3', '4']",1,2023.2.3,harveyvisual,2.1,[],8,0.75,
9,dot,0.3,['dot'],['density'],black,0,96,96,96,,,36.000213861465454,35.71748685836792,36.017475843429565,dot,"[0.06, 0.1, 0.1, 0.06, 0.06, 0.08, 0.06, 0.1, 0.1]","[[-0.4007656520072294, -0.25517300445391483], [-0.002534053661406415, -0.03841937385778563], [0.03867088550537559, -0.37109058839216275], [0.14298263539714814, -0.19121790068267305], [-0.18592892280395246, 0.09800459324165622], [-0.17114407793371844, -0.47763389460370764], [0.20594417137152282, 0.033112046987541804], [-0.3669302527083935, -0.010624696365658668], [-0.20182203610849478, -0.19970173151634407]]",density,black,,,D001,visual,4,[],"['1', '2', '3', '4']",1,2023.2.3,harveyvisual,2.1,[],8,0.75,
0,pause,0.4,None,None,None,0,97,97,97,,,,,,,,,,,,,D001,visual,4,[],"['1', '2', '3', '4']",1,2023.2.3,harveyvisual,2.1,[],8,0.75,
9,dot,0.3,['dot'],['density'],black,0,98,98,98,,,36.700217962265015,36.41747188568115,36.71745991706848,dot,"[0.08, 0.08, 0.06, 0.1, 0.1, 0.06, 0.1, 0.06, 0.08]","[[-0.011980588702785358, -0.14271344386551676], [-0.15345504415890063, -0.3599837049237609], [0.2909474261289129, -0.3591516282942406], [0.16239073734315843, -0.5386624114967425], [0.2227638828830022, -0.11271380419745088], [0.06426208015886789, 0.04859175461581491], [-0.3648571389210414, -0.3413683676300365], [0.3831858227582706, 0.019718563726728144], [0.06479696894599615, -0.3534524636945761]]",density,black,,,D001,visual,4,[],"['1', '2', '3', '4']",1,2023.2.3,harveyvisual,2.1,[],8,0.75,
0,pause,0.4,None,None,None,0,99,99,99,,,,,,,,,,,,,D001,visual,4,[],"['1', '2', '3', '4']",1,2023.2.3,harveyvisual,2.1,[],8,0.75,
9,dot,0.3,['dot'],['density'],black,0,100,100,100,,,37.400213956832886,37.11751985549927,37.41743588447571,dot,"[0.1, 0.08, 0.06, 0.08, 0.1, 0.1, 0.06, 0.06, 0.08]","[[0.22829877875946783, -0.39640994854570016], [0.3366371496270161, 0.05839125036393789], [-0.11436045239834208, -0.12024221759915668], [-0.02100147820737577, -0.3824026009196371], [0.08479146627654295, 0.024089629435920912], [0.16206374850784472, -0.16075841177209507], [0.38495438842944835, -0.24810596019115372], [-0.23418047716532614, 0.09565997955556291], [0.2111996426858246, 0.23215637940447356]]",density,black,,,D001,visual,4,[],"['1', '2', '3', '4']",1,2023.2.3,harveyvisual,2.1,[],8,0.75,
0,pause,0.4,None,None,None,0,101,101,101,,,,,,,,,,,,,D001,visual,4,[],"['1', '2', '3', '4']",1,2023.2.3,harveyvisual,2.1,[],8,0.75,
9,dot,0.3,['dot'],['density'],black,0,102,102,102,,,38.10022187232971,37.81743884086609,38.11743688583374,dot,"[0.08, 0.06, 0.08, 0.08, 0.06, 0.06, 0.1, 0.06, 0.06]","[[0.5633060189111645, -0.020447411670609934], [0.24486306384976717, 0.44476630120442473], [0.18428866344346043, -0.051083701103786204], [0.30165572131442664, 0.2239114093385097], [-0.0017431279865323516, 0.11759053127645673], [0.36864926730470376, 0.029118730319846676], [0.08307425003498874, 0.31712463906399285], [0.26393370779995823, -0.24286541122091637], [0.5109425385251136, 0.2557989077594731]]",density,black,,,D001,visual,4,[],"['1', '2', '3', '4']",1,2023.2.3,harveyvisual,2.1,[],8,0.75,
0,pause,0.4,None,None,None,0,103,103,103,,,,,,,,,,,,,D001,visual,4,[],"['1', '2', '3', '4']",1,2023.2.3,harveyvisual,2.1,[],8,0.75,
9,dot,0.3,['dot'],['density'],black,0,104,104,104,,,38.80021286010742,38.517413854599,38.81743288040161,dot,"[0.08, 0.06, 0.06, 0.1, 0.06, 0.1, 0.06, 0.08, 0.1]","[[-0.13146557112902973, 0.14116723461389186], [0.2951467361821443, -0.02824752732805288], [0.19428532799116477, -0.23589609671221848], [-0.28731157875063357, -0.1506919145754202], [-0.013954936164563217, -0.2914313940092583], [0.05437169614590384, 0.05057158482376688], [-0.11710547218270359, -0.5628603002908775], [-0.3181416531292253, -0.36750682532956547], [-0.10064922490671671, -0.07835054634105423]]",density,black,,,D001,visual,4,[],"['1', '2', '3', '4']",1,2023.2.3,harveyvisual,2.1,[],8,0.75,
0,pause,0.4,None,None,None,0,105,105,105,,,,,,,,,,,,,D001,visual,4,[],"['1', '2', '3', '4']",1,2023.2.3,harveyvisual,2.1,[],8,0.75,
9,dot,0.3,['dot'],['density'],black,0,106,106,106,,,39.50022578239441,39.21742296218872,39.51740479469299,dot,"[0.1, 0.1, 0.08, 0.08, 0.08, 0.06, 0.06, 0.1, 0.1]","[[-0.25982930089867384, 0.41046177320377714], [0.2391912210628672, 0.4152301159030731], [-0.011899047454085643, 0.5103750441914148], [0.15826907621474634, 0.20577518054892585], [-0.29033424199965224, 0.2058356795488901], [-0.056026696670660174, 0.08152775180209879], [-0.32571421803823364, -0.002973879155612714], [0.39820859476685, 0.29236875228581105], [-0.06367065787951752, 0.28966088639372295]]",density,black,,,D001,visual,4,[],"['1', '2', '3', '4']",1,2023.2.3,harveyvisual,2.1,[],8,0.75,
0,pause,0.4,None,None,None,0,107,107,107,,,,,,,,,,,,,D001,visual,4,[],"['1', '2', '3', '4']",1,2023.2.3,harveyvisual,2.1,[],8,0.75,
20,dot,0.3,['dot'],['density'],black,0,108,108,108,,,40.200222969055176,39.917380809783936,40.217392921447754,dot,"[0.06, 0.08, 0.08, 0.08, 0.08, 0.1, 0.06, 0.06, 0.1, 0.1, 0.1, 0.08, 0.06, 0.08, 0.1, 0.1, 0.1, 0.08, 0.08, 0.08]","[[-0.19980928966088785, -0.029412371492541944], [0.5883900308576177, 0.04307602978000388], [0.3615565800174523, -0.2559306011144705], [-0.2807847353811174, -0.22955065410413228], [0.19815954491636867, -0.4763396026910187], [-0.10605405283344121, -0.5873358327252742], [-0.32096673873319526, 0.457838559951395], [-0.003920837101202057, 0.4302866228601373], [-0.603370858590517, 0.02107106305896727], [0.15480685676583994, 0.21027981251635697], [0.5533513658074148, -0.22215573395449348], [-0.24609653748701715, 0.16008379458565736], [-0.43637149986675283, 0.1695353547914809], [0.4095244078517507, 0.39314988732729206], [0.03840082871184525, -0.03804649414190331], [0.06496658475748773, -0.27588009978499367], [0.3052168769306296, -0.04763348825054087], [-0.3905339929471481, -0.07085721487115987], [-0.046528524893969525, 0.14709014153172073], [-0.3175416625047242, -0.4554989279474672]]",density,black,,,D001,visual,4,[],"['1', '2', '3', '4']",1,2023.2.3,harveyvisual,2.1,[],8,0.75,
0,pause,0.4,None,None,None,0,109,109,109,,,,,,,,,,,,,D001,visual,4,[],"['1', '2', '3', '4']",1,2023.2.3,harveyvisual,2.1,[],8,0.75,
20,dot,0.3,['dot'],['density'],black,0,110,110,110,,,40.900224924087524,40.617363929748535,40.91739082336426,dot,"[0.08, 0.06, 0.06, 0.08, 0.08, 0.1, 0.08, 0.08, 0.06, 0.08, 0.06, 0.08, 0.08, 0.1, 0.08, 0.1, 0.1, 0.1, 0.06, 0.1]","[[0.3419027652556773, 0.43329829451530083], [-0.555573114476389, 0.06797208078228317], [0.4173971553032175, -0.06672979748731306], [0.2410543169590682, 0.018377167397126803], [0.2733762876172602, -0.19388608073273922], [0.08176696663025107, 0.2781483990667539], [-0.0004698765816524286, -0.20768202634209354], [0.44350355345158066, -0.346503871260606], [0.16035988097173282, -0.5305072218472251], [-0.33843972668840117, -0.14488978960292592], [-0.060521412292543486, -0.5232988381595938], [0.5682315151132368, 0.10569731624113907], [-0.09135270272393847, -0.030735571938795836], [-0.3354066896351734, 0.4627145859569566], [-0.17704085281880605, 0.13949981125976174], [-0.0595085498649508, 0.523662061061002], [-0.28772089723980393, -0.4375835892469184], [0.1622507442787472, 0.5017943978951642], [-0.46999759788975837, -0.34095292422009466], [-0.3823323311585444, 0.19939946480697257]]",density,black,,,D001,visual,4,[],"['1', '2', '3', '4']",1,2023.2.3,harveyvisual,2.1,[],8,0.75,
0,pause,0.4,None,None,None,0,111,111,111,,,,,,,,,,,,,D001,visual,4,[],"['1', '2', '3', '4']",1,2023.2.3,harveyvisual,2.1,[],8,0.75,
20,dot,0.3,['dot'],['density'],black,0,112,112,112,,,41.60021090507507,41.31740188598633,41.61732578277588,dot,"[0.06, 0.1, 0.1, 0.08, 0.06, 0.06, 0.08, 0.08, 0.08, 0.08, 0.06, 0.06, 0.1, 0.1, 0.06, 0.08, 0.08, 0.06, 0.1, 0.06]","[[-0.46851324269492167, 0.2209808722112484], [-0.23357419085986958, 0.2174609928660487], [-0.5098957991957231, -0.28895283880452804], [0.4861173783108973, -0.15413542585582332], [0.5445853472153454, 0.14859082014519887], [-0.27248197177637346, -0.27445881776595193], [0.30454838074632895, -0.4739529071992643], [-0.006905255378286568, -0.10851541598201975], [0.3516691897850581, 0.16080460476234926], [-0.3140286385228498, -0.48154206369920244], [0.08811677223737036, -0.5164351034309472], [-0.3694933361607498, 0.029636828332227583], [0.3501074811906276, 0.4065784400024996], [0.1155235277288944, -0.29240432393015814], [-0.04274996856340485, 0.5266987095016402], [0.10769769795630846, 0.10316176421045775], [0.11220206391562448, 0.39411715325841135], [0.24236110305349434, -0.09954765709505059], [-0.21806706158379896, 0.41051860784871386], [-0.5884616518404322, -0.036948848476918594]]",density,black,,,D001,visual,4,[],"['1', '2', '3', '4']",1,2023.2.3,harveyvisual,2.1,[],8,0.75,
0,pause,0.4,None,None,None,0,113,113,113,,,,,,,,,,,,,D001,visual,4,[],"['1', '2', '3', '4']",1,2023.2.3,harveyvisual,2.1,[],8,0.75,
20,dot,0.3,['dot'],['density'],black,0,114,114,114,,,42.30022597312927,42.017333984375,42.31732892990112,dot,"[0.08, 0.06, 0.06, 0.08, 0.06, 0.06, 0.06, 0.1, 0.08, 0.06, 0.06, 0.08, 0.08, 0.1, 0.1, 0.06, 0.06, 0.06, 0.1, 0.08]","[[0.003914508528379601, 0.3353996998922374], [0.41744499345911856, 0.37218324008014864], [0.1130229076975704, -0.0193270126775813], [-0.5196959876069374, 0.2222454567562489], [-0.15980787936629315, 0.53300565921011], [0.33437912722798235, -0.20533296133148754], [-0.5454455146126318, -0.05062719899899368], [0.2567857559588681, 0.49618916968962523], [0.014171055396501209, -0.5377147618903378], [-0.41785655020996315, -0.312012770723314], [0.5641102603925995, -0.16416604577830302], [0.32748827403785286, 0.07691997654387628], [-0.0796019967499415, -0.1949456728067941], [-0.31852980316159707, -0.10726718981607325], [-0.018496378324527774, 0.12811875964553032], [0.3488700813719371, -0.46905151307461784], [0.05379187028409449, 0.5745253992629284], [0.20443928855315852, 0.24974636760826696], [-0.3151991866771801, 0.3287302974420748], [-0.35935763281223954, 0.1072323943437477]]",density,black,,,D001,visual,4,[],"['1', '2', '3', '4']",1,2023.2.3,harveyvisual,2.1,[],8,0.75,
0,pause,0.4,None,None,None,0,115,115,115,,,,,,,,,,,,,D001,visual,4,[],"['1', '2', '3', '4']",1,2023.2.3,harveyvisual,2.1,[],8,0.75,
20,dot,0.3,['dot'],['density'],black,0,116,116,116,,,43.000216007232666,42.71730184555054,43.01729679107666,dot,"[0.06, 0.1, 0.08, 0.1, 0.08, 0.08, 0.1, 0.06, 0.06, 0.06, 0.1, 0.06, 0.08, 0.1, 0.06, 0.08, 0.08, 0.06, 0.08, 0.08]","[[0.025479994397339167, -0.35728989022357033], [-0.32181975938140567, 0.40377606273671973], [-0.05635186588924257, 0.21426857717129288], [0.09316404575186576, 0.5860633610360001], [-0.3525181830312458, -0.3649504270029101], [-0.601373634272021, 0.02657177200903478], [0.24387215284967345, 0.18686949849581003], [-0.08079666179757028, -0.03886825395058391], [-0.40537693027631483, 0.0800930265232212], [0.5122403693570842, -0.28099409536979225], [0.09881621016993891, 0.05509015605972256], [0.23341293821238274, -0.21226031363970366], [-0.5741880457130678, -0.1777842136915397], [0.5908226477866173, -0.001963720123507484], [-0.14793523126189445, -0.43618185084910616], [-0.5282616950032213, 0.2561874628013915], [0.42891440249811297, 0.31243723131744144], [0.3780182513486471, -0.02320047651095264], [0.27555477405485185, -0.5322382025306142], [0.32343967823520203, 0.47068245928170493]]",density,black,,,D001,visual,4,[],"['1', '2', '3', '4']",1,2023.2.3,harveyvisual,2.1,[],8,0.75,
0,pause,0.4,None,None,None,0,117,117,117,,,,,,,,,,,,,D001,visual,4,[],"['1', '2', '3', '4']",1,2023.2.3,harveyvisual,2.1,[],8,0.75,
20,dot,0.3,['dot'],['density'],black,0,118,118,118,,,43.70021200180054,43.417298793792725,43.71727895736694,dot,"[0.1, 0.06, 0.1, 0.1, 0.08, 0.1, 0.08, 0.08, 0.06, 0.06, 0.1, 0.08, 0.06, 0.08, 0.08, 0.08, 0.1, 0.06, 0.08, 0.06]","[[0.4454027486017379, -0.37793079387691614], [0.6031243110663095, 0.0105292106233014], [-0.02517502783182568, 0.47887879287541435], [0.29612731543537696, 0.49465745396341054], [-0.3226528027928492, -0.006625984124898343], [-0.1341850007912036, -0.1844839478414932], [0.09756240128799065, -0.05364095435565819], [0.10381271977852458, 0.17497850374293877], [-0.5244946271390787, -0.0962855337798535], [-0.36126267730933126, -0.21084399361613632], [0.1678377335022957, -0.5249192323202253], [0.47729093566536485, 0.16999282288063794], [0.3278962012303702, 0.018220577044746333], [-0.35337259001758903, 0.41131137076217944], [-0.5156920356788248, 0.09358791578558817], [0.10576692250707143, -0.2671349315178823], [-0.04908769607036889, -0.4296754357349008], [0.2606499241294208, 0.30393187439684133], [-0.06349524252702965, 0.06555892844871491], [-0.3627708337835414, -0.4082509262493215]]",density,black,,,D001,visual,4,[],"['1', '2', '3', '4']",1,2023.2.3,harveyvisual,2.1,[],8,0.75,
0,pause,0.4,None,None,None,0,119,119,119,,,,,,,,,,,,,D001,visual,4,[],"['1', '2', '3', '4']",1,2023.2.3,harveyvisual,2.1,[],8,0.75,
20,dot,0.3,['dot'],['density'],black,0,120,120,120,,,44.40020489692688,44.117278814315796,44.41727089881897,dot,"[0.08, 0.08, 0.08, 0.1, 0.1, 0.06, 0.08, 0.06, 0.08, 0.08, 0.06, 0.1, 0.06, 0.1, 0.08, 0.06, 0.08, 0.1, 0.08, 0.1]","[[0.08539131307728098, 0.48235672645824523], [0.3520730032446632, -0.19519866966655347], [-0.5521854453303021, -0.16941343432064287], [0.3549540745882136, -0.400903193299773], [0.5919696861940119, -0.06436019019138325], [-0.35049451910427953, 0.2878547337680425], [0.17620401549076314, 0.12072237669306529], [-0.17876021630162153, -0.1755214610595638], [-0.35838038071649486, -0.4557870479982268], [-0.11953292177633001, 0.04397641863761592], [-0.07786183545572656, 0.2668756680798847], [-0.05286810678448706, -0.39681131883974363], [0.3322436313909146, 0.31398517116173497], [0.1554395467284767, -0.3094511961213689], [-0.40985853876124406, -0.03719403199036625], [0.06599941836844292, -0.5974824495082032], [-0.561691580461944, 0.11035994115165262], [-0.1845191249429481, 0.4652305282410759], [0.5357749920055653, -0.2806551766407618], [0.5258263130734094, 0.13451795101047104]]",density,black,,,D001,visual,4,[],"['1', '2', '3', '4']",1,2023.2.3,harveyvisual,2.1,[],8,0.75,
0,pause,0.4,None,None,None,0,121,121,121,,,,,,,,,,,,,D001,visual,4,[],"['1', '2', '3', '4']",1,2023.2.3,harveyvisual,2.1,[],8,0.75,
20,dot,0.3,['dot'],['density'],black,0,122,122,122,,,45.10022187232971,44.81838297843933,45.11733293533325,dot,"[0.08, 0.08, 0.06, 0.08, 0.06, 0.08, 0.06, 0.1, 0.06, 0.1, 0.1, 0.08, 0.08, 0.08, 0.1, 0.06, 0.1, 0.08, 0.06, 0.06]","[[0.0961710746579143, 0.36811837912064116], [-0.09580454805591254, -0.16570488578582732], [0.115559616438343, -0.10235722246517492], [0.47805294900391104, -0.31556803788554155], [-0.473927998193952, 0.14396808863552563], [-0.27622639736724586, 0.18456508953469397], [-0.13099743337902275, 0.362954822825724], [-0.2954625620420422, -0.3215063656107807], [0.49193898211586806, 0.07494287430857588], [-0.28523783258393925, -0.03201534907754355], [0.4411184616494107, 0.3045242377188075], [-0.501436106611584, -0.046429255811997416], [0.31277575321084006, -0.03170177391877582], [0.001268030389757424, 0.556431784565417], [0.3142756436587473, 0.5083785505399626], [0.21335561097690303, -0.38216033862787757], [-0.30109244754103814, 0.5032433745053178], [0.10479008885035512, 0.1208048095456129], [0.0054105015011980395, -0.5618503189607684], [-0.10929018028902143, 0.08595910422041997]]",density,black,,,D001,visual,4,[],"['1', '2', '3', '4']",1,2023.2.3,harveyvisual,2.1,[],8,0.75,
0,pause,0.4,None,None,None,0,123,123,123,,,,,,,,,,,,,D001,visual,4,[],"['1', '2', '3', '4']",1,2023.2.3,harveyvisual,2.1,[],8,0.75,
20,dot,0.3,['dot'],['density'],black,0,124,124,124,,,45.80020594596863,45.51725482940674,45.81723380088806,dot,"[0.1, 0.08, 0.06, 0.08, 0.06, 0.1, 0.1, 0.1, 0.08, 0.06, 0.06, 0.08, 0.1, 0.1, 0.08, 0.06, 0.06, 0.06, 0.08, 0.06]","[[-0.30337114937102155, 0.39862339004077463], [0.46035758864625687, -0.10326442464939861], [0.3674357409953909, 0.19835559659829588], [-0.399552413692641, -0.4353955274334688], [0.011205761386611779, 0.3893319583704028], [-0.3973922033537586, 0.035613451381556416], [-0.1585614811960923, 0.10620428503819423], [0.19144037709285588, -0.3014347247808771], [0.21430023935152842, 0.3731980362519328], [0.3917887976713289, 0.4553202965487416], [-0.3344235088570598, -0.21128977840830904], [0.05228413217173056, -0.09605381812294], [-0.07034056151441215, -0.3673636194861978], [-0.5891422951694526, -0.1076912723194378], [0.5893921445340419, 0.07869869696511936], [0.2690151966535357, 0.023775962670062767], [-0.18147704112279012, -0.08662188312830305], [0.06331102313943882, 0.19227800094013459], [-0.4869425652660155, 0.297924749508941], [0.4801301610122476, -0.36820886111433937]]",density,black,,,D001,visual,4,[],"['1', '2', '3', '4']",1,2023.2.3,harveyvisual,2.1,[],8,0.75,
0,pause,0.4,None,None,None,0,125,125,125,,,,,,,,,,,,,D001,visual,4,[],"['1', '2', '3', '4']",1,2023.2.3,harveyvisual,2.1,[],8,0.75,
20,dot,0.3,['dot'],['density'],black,0,126,126,126,,,46.500213861465454,46.21723699569702,46.517228841781616,dot,"[0.06, 0.08, 0.06, 0.06, 0.08, 0.1, 0.1, 0.1, 0.06, 0.06, 0.1, 0.08, 0.06, 0.08, 0.08, 0.06, 0.06, 0.08, 0.06, 0.1]","[[0.5310647080943153, 0.2817231530522287], [0.04640141867076897, 0.12337347117898045], [0.014931239128994966, -0.17411555592102457], [0.6006489651843135, -0.016623286293146702], [0.2831217267220525, -0.27379938338004767], [-0.30133383437612105, -0.029954585144540857], [-0.5129431330431142, 0.25300633803520595], [0.13133389728120737, 0.3460617033959219], [0.1454306030159297, 0.5393774284222393], [-0.5763888728841048, -0.12081545073708697], [0.19977963988373537, -0.02790923190349104], [-0.06041061174554341, -0.35254131871856587], [-0.31509059299734715, 0.4866330497522964], [-0.38065327993418296, -0.38532117840483804], [0.17482884379761865, -0.509552545043126], [0.3405478406848249, 0.10240861146361002], [-0.21384141223688274, 0.2698798681296046], [-0.1227838991411283, 0.5073600053431243], [-0.20696742654773742, -0.4788989241148639], [0.351334265768418, 0.37650999713333894]]",density,black,,,D001,visual,4,[],"['1', '2', '3', '4']",1,2023.2.3,harveyvisual,2.1,[],8,0.75,
0,pause,0.4,None,None,None,0,127,127,127,,,,,,,,,,,,,D001,visual,4,[],"['1', '2', '3', '4']",1,2023.2.3,harveyvisual,2.1,[],8,0.75,
20,dot,0.3,['dot'],['density'],black,0,128,128,128,,,47.200220823287964,46.917221784591675,47.21723985671997,dot,"[0.1, 0.06, 0.1, 0.1, 0.06, 0.06, 0.1, 0.1, 0.08, 0.08, 0.1, 0.1, 0.06, 0.06, 0.06, 0.06, 0.06, 0.06, 0.08, 0.1]","[[0.05601156346290537, 0.33774007007600537], [-0.25923641602208114, -0.1913455443571051], [0.6046732390827608, 0.0024378480133695167], [0.3934576252416552, -0.3423988144458997], [-0.4812615267287291, 0.08172134867151754], [0.26335496270541237, 0.46929799107354064], [0.34990808529245854, -0.12256327360159663], [-0.3093498343712598, 0.35348123560715905], [0.006116680363846716, -0.027135914727027477], [0.34561474412659254, 0.29276056920413707], [-0.5454536484694494, -0.12981353366986187], [-0.2895685339048397, 0.10791040899904325], [-0.002503895321606997, 0.5238743906701524], [0.16120552299788649, -0.47563597680147834], [-0.39074305275802934, -0.3372465735012601], [-0.08210256290545281, -0.49702483861692387], [-0.5018878545220177, 0.28203067455225045], [0.5599962534355251, -0.2129984517267236], [0.18533585846096, 0.07944682637705336], [0.07400002892079471, -0.2595699226545013]]",density,black,,,D001,visual,4,[],"['1', '2', '3', '4']",1,2023.2.3,harveyvisual,2.1,[],8,0.75,
0,pause,0.4,None,None,None,0,129,129,129,,,,,,,,,,,,,D001,visual,4,[],"['1', '2', '3', '4']",1,2023.2.3,harveyvisual,2.1,[],8,0.75,
20,dot,0.3,['dot'],['density'],black,0,130,130,130,,,47.90021085739136,47.6172080039978,47.91719698905945,dot,"[0.1, 0.06, 0.06, 0.06, 0.06, 0.1, 0.1, 0.1, 0.08, 0.1, 0.06, 0.06, 0.08, 0.1, 0.08, 0.06, 0.1, 0.1, 0.08, 0.08]","[[-0.1463701938953464, -0.24406450206359115], [0.026865276617048295, 0.2504309494172696], [-0.15642905168470783, 0.037615160798985414], [0.43530069731513066, -0.09698203801612532], [0.09851183441161815, -0.14719209436159086], [-0.5110979437823574, -0.23749369926886388], [-0.005170348880933484, 0.5633504409265531], [-0.5932765308288309, -0.03064272613483479], [-0.19778766423254968, -0.46173435884556313], [0.32037572527478964, 0.4628645200841973], [-0.4008733634490008, 0.011969778482389115], [0.3774147433270765, -0.3540677558498806], [0.6016836278872263, 0.04905839977345618], [0.3681189304685487, 0.22111221607826453], [-0.48413049236418926, 0.27102783038514533], [-0.41189025677952806, -0.43533504590137895], [-0.24001214731019266, 0.23506063313524928], [0.04215565069031768, -0.5323597331663228], [-0.2158039571378897, 0.4984343917708265], [0.12477536136264333, 0.07022358142049523]]",density,black,,,D001,visual,4,[],"['1', '2', '3', '4']",1,2023.2.3,harveyvisual,2.1,[],8,0.75,
0,pause,0.4,None,None,None,0,131,131,131,,,,,,,,,,,,,D001,visual,4,[],"['1', '2', '3', '4']",1,2023.2.3,harveyvisual,2.1,[],8,0.75,
20,dot,0.3,['dot'],['density'],black,0,132,132,132,,,48.60021686553955,48.317187786102295,48.6171498298645,dot,"[0.1, 0.1, 0.1, 0.06, 0.06, 0.08, 0.06, 0.1, 0.08, 0.1, 0.06, 0.1, 0.08, 0.1, 0.06, 0.06, 0.1, 0.08, 0.06, 0.1]","[[0.15791548938302924, -0.42424557106762506], [0.37154750634701283, 0.22258309500966056], [-0.5164267840009203, 0.24840160959954766], [0.16226247239032687, 0.5327947263217122], [-0.28463462273796186, -0.5328256223357623], [0.598403310443706, 0.03767097633504868], [-0.03376129775118586, 0.31582873915431076], [-0.5140789357811011, -0.21070635762087342], [-0.016377080823007706, -0.18485572434264147], [-0.2585986700614259, -0.06087322216517599], [0.044310639508644, 0.1355361336711357], [0.5327356068536978, -0.24910448316447326], [0.1719605004707112, -0.12214942699477677], [-0.29575536083760173, 0.3995097236947681], [0.3422159517341601, -0.00047431079444970603], [0.37765038406170626, -0.36777463701568053], [-0.18580239036275942, 0.1739067073330992], [-0.001515835418491207, -0.6002679904695217], [-0.2626567644023972, -0.2856331457732134], [-0.4474117986605258, 0.03950921254042722]]",density,black,,,D001,visual,4,[],"['1', '2', '3', '4']",1,2023.2.3,harveyvisual,2.1,[],8,0.75,
0,pause,0.4,None,None,None,0,133,133,133,,,,,,,,,,,,,D001,visual,4,[],"['1', '2', '3', '4']",1,2023.2.3,harveyvisual,2.1,[],8,0.75,
20,dot,0.3,['dot'],['density'],black,0,134,134,134,,,49.30022192001343,49.01714897155762,49.31717586517334,dot,"[0.06, 0.1, 0.06, 0.1, 0.06, 0.08, 0.06, 0.06, 0.06, 0.08, 0.08, 0.1, 0.08, 0.1, 0.08, 0.1, 0.06, 0.06, 0.1, 0.06]","[[0.395272112310718, -0.3285903940196674], [-0.027962911151790282, -0.27190377415221917], [-0.13874510509777715, 0.01735566224912577], [0.16263753672298564, 0.4238003502219495], [-0.13571269945133846, -0.4584181305347167], [0.47517050206139266, -0.03930923716791629], [-0.24207293504340305, -0.19136688838196808], [-0.5444492964495242, 0.12397862400632809], [-0.345410209100466, 0.43683718819290684], [0.17340515949674395, 0.061234948061051675], [0.39276788376056093, 0.3024101510115023], [-0.5467213757283513, -0.2483135791163295], [0.150592741214573, -0.4969451304336038], [-0.15472660541556932, 0.23786427331114668], [-0.3315115120484676, -0.48413705366938675], [0.15922387357547763, -0.20177118390436033], [-0.010570377435104472, 0.5539228704319791], [-0.3411111594243614, 0.19009794173982508], [-0.3861655156372572, -0.009676389442369648], [0.5422845250440717, 0.1848041345174613]]",density,black,,,D001,visual,4,[],"['1', '2', '3', '4']",1,2023.2.3,harveyvisual,2.1,[],8,0.75,
0,pause,0.4,None,None,None,0,135,135,135,,,,,,,,,,,,,D001,visual,4,[],"['1', '2', '3', '4']",1,2023.2.3,harveyvisual,2.1,[],8,0.75,
20,dot,0.3,['dot'],['density'],white,0,136,136,136,,,50.000218868255615,49.717177867889404,50.017138957977295,dot,"[0.08, 0.1, 0.08, 0.1, 0.1, 0.06, 0.08, 0.08, 0.08, 0.1, 0.1, 0.1, 0.08, 0.08, 0.06, 0.1, 0.1, 0.08, 0.06, 0.06]","[[0.4037434205502827, -0.1302976430508333], [-0.5215060303086574, -0.11670266100575691], [0.11779189988622552, -0.34365073299247084], [0.5938280325355482, 0.0775793555384943], [-0.2366004750395933, -0.18881346881540556], [-0.19932447625173982, 0.3123886212879218], [-0.4004200061476251, 0.39422012226387587], [0.42543881302893294, 0.2032256598397328], [-0.22012625820677473, 0.10431144108558932], [0.17194152865078216, 0.4688374984793944], [-0.5675372672448481, 0.08180753843477756], [0.13619937526809622, 0.26915883874133306], [-0.004264861737923398, -0.19244172237166557], [0.37000615534575143, 0.40546773206735826], [-0.11371467145948827, -0.5458842106346733], [0.19801348330828417, -0.5214981499072828], [-0.2585384321339861, 0.5281553165594215], [0.3300089929937702, -0.35845466595261954], [0.14357497778137285, -0.05760438009861235], [-0.3286207210860502, -0.40444943273992506]]",density,white,,,D001,visual,4,[],"['1', '2', '3', '4']",1,2023.2.3,harveyvisual,2.1,[],8,0.75,
0,pause,0.4,None,None,None,0,137,137,137,,,,,,,,,,,1,50.142937898635864,D001,visual,4,[],"['1', '2', '3', '4']",1,2023.2.3,harveyvisual,2.1,[],8,0.75,
20,dot,0.3,['dot'],['density'],white,0,138,138,138,,,50.70022797584534,50.417133808135986,50.71711587905884,dot,"[0.1, 0.08, 0.08, 0.06, 0.08, 0.08, 0.08, 0.06, 0.1, 0.08, 0.08, 0.06, 0.06, 0.08, 0.08, 0.1, 0.06, 0.08, 0.06, 0.08]","[[-0.23408549674497003, 0.3085293888851589], [-0.5414035867013863, -0.16565777958421313], [-0.39581141157408944, 0.11986643679137393], [-0.024767955034327493, 0.2226445892821165], [0.16888056746222624, -0.41499203888422875], [0.5946200232540014, 0.0979543770027086], [-0.06539064003357242, -0.008350490903125007], [0.338399999890896, -0.1708555180487668], [-0.012844833774544928, 0.4713853552120796], [-0.28333710251136424, -0.5164629880681915], [0.5521546113285857, -0.2237054272855381], [-0.25689407967390304, -0.026160518225838092], [0.3857467346565332, -0.45489875737018914], [-0.48585653492407477, 0.2964931799177264], [-0.08579856526060592, -0.43289901172420375], [0.3607410467154558, 0.15225837006473647], [0.3683937416250408, 0.3657113090696319], [0.22926219813142434, 0.0010626656872407825], [-0.3077605734808192, -0.2858836901084124], [-0.5835019784851865, 0.02043755910313219]]",density,white,,,D001,visual,4,[],"['1', '2', '3', '4']",1,2023.2.3,harveyvisual,2.1,[],8,0.75,
0,pause,0.4,None,None,None,0,139,139,139,,,,,,,,,,,1,50.92506694793701,D001,visual,4,[],"['1', '2', '3', '4']",1,2023.2.3,harveyvisual,2.1,[],8,0.75,
20,dot,0.3,['dot'],['density'],black,0,140,140,140,,,51.40020298957825,51.11710286140442,51.41708993911743,dot,"[0.06, 0.06, 0.06, 0.08, 0.1, 0.1, 0.06, 0.08, 0.06, 0.06, 0.1, 0.08, 0.06, 0.06, 0.1, 0.08, 0.1, 0.06, 0.08, 0.06]","[[-0.47467470485378355, -0.2589901504283115], [-0.0422196548589816, -0.3604844241620034], [0.2216034573701453, 0.3040223581893601], [-0.5874195342920013, -0.044293525213087395], [-0.07360087330535303, 0.5310855606052751], [0.3610995278871998, 0.051024302283018075], [-0.3292042768608132, 0.27118026543153484], [0.23818842955763309, -0.3931328466223622], [-0.2363876486803993, -0.5333511380220141], [0.16526535773611317, -0.0541217839585757], [-0.5027458698135662, 0.18756875027155784], [0.5259007925137181, -0.07895691337294514], [0.3577623591400423, -0.17884417971759092], [0.5311396317213152, 0.29000015210452595], [-0.31813997589051146, -0.1258625145249807], [0.09529275209720223, 0.15481408148914566], [-0.0327033235470231, -0.16912126607431727], [0.15703917324733918, -0.5646872332305474], [-0.15763499471583187, 0.09324573480438392], [-0.1439989458710338, 0.317203343495679]]",density,black,,,D001,visual,4,[],"['1', '2', '3', '4']",1,2023.2.3,harveyvisual,2.1,[],8,0.75,
0,pause,0.4,None,None,None,0,141,141,141,,,,,,,,,,,,,D001,visual,4,[],"['1', '2', '3', '4']",1,2023.2.3,harveyvisual,2.1,[],8,0.75,
20,dot,0.3,['dot'],['density'],black,0,142,142,142,,,52.1002299785614,51.81708478927612,52.117090940475464,dot,"[0.1, 0.06, 0.1, 0.06, 0.06, 0.06, 0.06, 0.08, 0.06, 0.08, 0.08, 0.1, 0.1, 0.1, 0.08, 0.08, 0.1, 0.1, 0.08, 0.08]","[[-0.0957486115071543, 0.14907800558025208], [0.23202411029125136, -0.4327086956191835], [-0.22029914646100224, 0.3281587967415627], [0.5260206600376937, 0.16521018292910272], [0.333831865219146, 0.14402054667466746], [-0.1310338182146909, -0.5291404907695302], [-0.44576791421291184, 0.18641515786804724], [-0.3748002173351903, -0.21325342410502862], [0.2523679073587063, -0.05275534483785471], [-0.11998250042949676, -0.07875026231017668], [0.5752839792836787, -0.13326711723830362], [0.16283260130200938, 0.2856071999933184], [0.4451236020702952, 0.3740171193947725], [-0.007910390829947156, -0.23901821053107591], [0.13447878786060574, 0.5546684501458863], [-0.5539912022425597, -0.12070488274434546], [-0.4155215977100791, 0.4292708875542457], [-0.16047093949084906, 0.521299728367128], [-0.33109766861006656, -0.4397613672388484], [0.3895086313989662, -0.28889340965287513]]",density,black,,,D001,visual,4,[],"['1', '2', '3', '4']",1,2023.2.3,harveyvisual,2.1,[],8,0.75,
0,pause,0.4,None,None,None,0,143,143,143,,,,,,,,,,,,,D001,visual,4,[],"['1', '2', '3', '4']",1,2023.2.3,harveyvisual,2.1,[],8,0.75,
20,dot,0.3,['dot'],['density'],black,0,144,144,144,,,52.80021691322327,52.51706886291504,52.81705284118652,dot,"[0.1, 0.06, 0.06, 0.06, 0.06, 0.1, 0.06, 0.08, 0.08, 0.1, 0.06, 0.08, 0.1, 0.08, 0.1, 0.1, 0.06, 0.08, 0.08, 0.06]","[[-0.3656909683130235, -0.4496225596184457], [-0.3692451024350093, 0.3971009608077555], [0.3723449973502687, -0.2528487345070698], [0.29607648240182394, 0.0194037901995463], [0.35316301115228566, 0.3824129644875889], [-0.5626719751584943, -0.06736082038147165], [-0.07750425337571687, 0.5171976967767722], [-0.02446652333751087, 0.017804994917120176], [-0.5501944179181468, 0.1451108348362996], [-0.35704141048951554, 0.02838802298531934], [0.4556966890445132, 0.16236982796996258], [0.16034131979597954, -0.4509700486058643], [-0.0498007490309893, 0.29911819941265805], [-0.16994685198253423, -0.48602585767775275], [0.22326391200076723, 0.5606673255238518], [-0.5161375115997212, -0.3106719033706822], [0.15791164799655777, -0.1860028290334535], [0.592273443095305, -0.018516441468430497], [-0.08881657196707082, -0.25491110318828886], [-0.3013149673981822, 0.21406319684009234]]",density,black,,,D001,visual,4,[],"['1', '2', '3', '4']",1,2023.2.3,harveyvisual,2.1,[],8,0.75,
0,pause,0.4,None,None,None,0,145,145,145,,,,,,,,,,,,,D001,visual,4,[],"['1', '2', '3', '4']",1,2023.2.3,harveyvisual,2.1,[],8,0.75,
20,dot,0.3,['dot'],['density'],black,0,146,146,146,,,53.50021290779114,53.21704697608948,53.51708388328552,dot,"[0.1, 0.1, 0.1, 0.1, 0.08, 0.1, 0.06, 0.06, 0.1, 0.1, 0.06, 0.1, 0.08, 0.06, 0.1, 0.1, 0.06, 0.06, 0.08, 0.06]","[[-0.28396171697091244, 0.032240743796675075], [0.34744246360884556, 0.024714283405513127], [0.5578673276373022, -0.17121381636378286], [0.09873228706740489, -0.1404339058395475], [0.14946581067887643, 0.4891655836080895], [-0.2950114491407142, 0.3654922489359719], [-0.021646524055772498, -0.3230675582887897], [-0.04745648250872925, -0.5302048108769658], [0.22307994046807977, -0.44368185357727913], [-0.5456082385268546, 0.2522293618211812], [-0.2896033298511569, -0.5105553093720065], [0.5107173861016249, 0.20770691861817625], [-0.3609417195894008, -0.29186269643902174], [0.0963332755677031, 0.15206267147569263], [-0.16198308223673347, 0.1986988848630773], [-0.22509939521736227, -0.15036518188071563], [-0.14157559575350276, 0.5621371734409056], [-0.5985018308437803, 0.05375678083303029], [-0.5444901878844731, -0.23117871384375133], [-0.04137831355855681, 0.3542976743723618]]",density,black,,,D001,visual,4,[],"['1', '2', '3', '4']",1,2023.2.3,harveyvisual,2.1,[],8,0.75,
0,pause,0.4,None,None,None,0,147,147,147,,,,,,,,,,,,,D001,visual,4,[],"['1', '2', '3', '4']",1,2023.2.3,harveyvisual,2.1,[],8,0.75,
20,dot,0.3,['dot'],['density'],white,0,148,148,148,,,54.200214862823486,53.91702485084534,54.21705389022827,dot,"[0.1, 0.1, 0.1, 0.08, 0.08, 0.06, 0.06, 0.08, 0.08, 0.08, 0.08, 0.08, 0.1, 0.1, 0.06, 0.1, 0.06, 0.1, 0.06, 0.06]","[[-0.5510123802772876, 0.08229938529829917], [-0.041461468128162204, 0.18263191442568438], [0.40601795495445414, -0.17303356845052664], [0.18749962391973996, -0.05884756325175633], [-0.3666119902891071, 0.32521610205809853], [-0.00044225895485894284, -0.5480624751118639], [-0.35061484777396046, -0.3020987456383078], [-0.575745745734843, -0.14963598858178875], [-0.12461258718753232, -0.2606366704340945], [0.19601378036460126, -0.4903466250338359], [0.039173115049341956, 0.4445806493311396], [0.13931493606255463, 0.2519875853750947], [0.4888394159878101, 0.3315952088287056], [-0.3504268828895457, -0.04413008182166034], [-0.3214703270061221, -0.5000277005358972], [0.584746049914929, 0.11572648854885287], [0.5994105393468515, -0.0799538434979064], [-0.2319297177029438, 0.45955921001819877], [0.39294704706240735, 0.051594931568535785], [0.17999056950751835, -0.2629131035264778]]",density,white,,,D001,visual,4,[],"['1', '2', '3', '4']",1,2023.2.3,harveyvisual,2.1,[],8,0.75,
0,pause,0.4,None,None,None,0,149,149,149,,,,,,,,,,,1,54.32948088645935,D001,visual,4,[],"['1', '2', '3', '4']",1,2023.2.3,harveyvisual,2.1,[],8,0.75,
20,dot,0.3,['dot'],['density'],black,0,150,150,150,,,54.90020799636841,54.6170699596405,54.917027950286865,dot,"[0.1, 0.06, 0.06, 0.08, 0.06, 0.06, 0.1, 0.08, 0.08, 0.06, 0.08, 0.1, 0.08, 0.06, 0.08, 0.06, 0.1, 0.1, 0.08, 0.08]","[[0.4506593274894407, 0.10684166434451231], [-0.21543135494982624, -0.17913831503475347], [0.2715212564875049, -0.39296460634481506], [0.04012789608265743, -0.5130289689992278], [0.4733146240682521, -0.3449813195077609], [-0.41133814061465873, 0.12113309373093173], [0.266279438376653, -0.04846541287682016], [-0.08402675933298087, 0.40985622779765074], [0.12362257361571849, 0.199004369520697], [0.29286973665478677, 0.3199456738417654], [-0.49088537596002274, -0.19333508520380546], [0.5888863289534839, -0.07961397272490972], [-0.5605100441564665, -0.004142758252308004], [0.010952422544808993, -0.31775187480408906], [-0.38857087755036135, 0.3827700712148435], [-0.15211038205746363, -0.5519101503212124], [-0.24071764468409984, 0.22231894135246855], [0.1238825111068671, 0.4237854664953806], [-0.3591859938764861, -0.42697122281466793], [0.0029949230816407324, -0.06869769032725315]]",density,black,,,D001,visual,4,[],"['1', '2', '3', '4']",1,2023.2.3,harveyvisual,2.1,[],8,0.75,
0,pause,0.4,None,None,None,0,151,151,151,,,,,,,,,,,,,D001,visual,4,[],"['1', '2', '3', '4']",1,2023.2.3,harveyvisual,2.1,[],8,0.75,
20,dot,0.3,['dot'],['density'],black,0,152,152,152,,,55.60021090507507,55.31703782081604,55.61697697639465,dot,"[0.06, 0.06, 0.1, 0.06, 0.08, 0.08, 0.08, 0.06, 0.06, 0.08, 0.1, 0.08, 0.08, 0.06, 0.06, 0.06, 0.1, 0.1, 0.06, 0.06]","[[-0.35787374077752787, -0.00347607671000022], [0.05909957823541223, 0.04984295187924914], [0.2555819212989755, -0.28052163861301255], [0.5019309918581057, 0.090346141482047], [0.05109833228810412, 0.3241069079707227], [0.26984312179495995, -0.4747340591556535], [-0.37334864621771957, -0.231506575581585], [-0.5888639933475059, 0.0694387943832917], [-0.28343781485824204, -0.43574534195320047], [0.028801683994419736, -0.5235889769264013], [0.591291131814175, -0.11455700317662196], [0.3348502363423075, 0.2514435667720274], [-0.0587393033367547, -0.13421386576076444], [-0.45775255349753946, 0.2378832904773987], [0.2731946955787765, -0.05731220623803929], [0.06210947441693748, 0.5682754084942544], [-0.21013929185899877, 0.4813820699375104], [0.44778371999716493, -0.2899886696697771], [-0.5681613648520628, -0.13048765060989134], [0.28390041630637197, 0.533083560030466]]",density,black,,,D001,visual,4,[],"['1', '2', '3', '4']",1,2023.2.3,harveyvisual,2.1,[],8,0.75,
0,pause,0.4,None,None,None,0,153,153,153,,,,,,,,,,,,,D001,visual,4,[],"['1', '2', '3', '4']",1,2023.2.3,harveyvisual,2.1,[],8,0.75,
20,dot,0.3,['dot'],['density'],black,0,154,154,154,,,56.300220012664795,56.017000913619995,56.31696391105652,dot,"[0.08, 0.08, 0.08, 0.08, 0.1, 0.1, 0.06, 0.1, 0.06, 0.08, 0.06, 0.08, 0.1, 0.08, 0.1, 0.1, 0.08, 0.1, 0.1, 0.08]","[[-0.3557272413374153, 0.29148668617448925], [0.5105662781603356, -0.2874917517162912], [0.28541424420529105, 0.29731443659990564], [0.18793187999141958, -0.4237734358269469], [-0.2894207965850919, -0.05964774742701784], [0.5705398774766283, 0.05539362965206304], [-0.4632208201767354, 0.038441278522371614], [-0.364573036517717, -0.40260431430753413], [0.04028491234433207, -0.11391525737818681], [0.29864057935567223, -0.07321866776441427], [0.0344942282270837, -0.5654647149517498], [-0.10142165132030068, 0.37312024171930436], [0.004516184882949248, 0.1976274431274776], [-0.2009740802563434, 0.14926244867604788], [0.4869862559287209, 0.32259209996352395], [-0.2524966604374747, 0.51361240627411], [0.28429970533233306, 0.510386983721395], [0.025942496276957328, 0.5459758771979708], [-0.1327022336402761, -0.2688753857064712], [-0.46794198190612735, -0.225456266366849]]",density,black,,,D001,visual,4,[],"['1', '2', '3', '4']",1,2023.2.3,harveyvisual,2.1,[],8,0.75,
0,pause,0.4,None,None,None,0,155,155,155,,,,,,,,,,,,,D001,visual,4,[],"['1', '2', '3', '4']",1,2023.2.3,harveyvisual,2.1,[],8,0.75,
9,dot,0.3,['dot'],['density'],black,0,156,156,156,,,57.00022792816162,56.71694779396057,57.01699185371399,dot,"[0.08, 0.1, 0.1, 0.1, 0.06, 0.1, 0.08, 0.06, 0.08]","[[-0.5242180236495622, 0.2097960018926228], [-0.2671382220306689, 0.3003190330968159], [-0.06183693718886379, 0.22592490829479475], [-0.2001015593906042, -0.14641750634996328], [-0.09246193223873551, 0.43765994221656135], [-0.29330373087767303, 0.05285487614136386], [0.007094383220706952, 0.008748553761596398], [0.1465325421295601, 0.294910430799518], [0.04425292235957525, -0.2230758375085622]]",density,black,,,D001,visual,4,[],"['1', '2', '3', '4']",1,2023.2.3,harveyvisual,2.1,[],8,0.75,
0,pause,0.4,None,None,None,0,157,157,157,,,,,,,,,,,,,D001,visual,4,[],"['1', '2', '3', '4']",1,2023.2.3,harveyvisual,2.1,[],8,0.75,
9,dot,0.3,['dot'],['density'],black,0,158,158,158,,,57.700225830078125,57.41696882247925,57.71696496009827,dot,"[0.08, 0.06, 0.06, 0.1, 0.1, 0.08, 0.08, 0.1, 0.06]","[[0.22829877875946783, -0.39640994854570016], [0.3366371496270161, 0.05839125036393789], [-0.11436045239834208, -0.12024221759915668], [-0.02100147820737577, -0.3824026009196371], [0.08479146627654295, 0.024089629435920912], [0.16206374850784472, -0.16075841177209507], [0.38495438842944835, -0.24810596019115372], [-0.23418047716532614, 0.09565997955556291], [0.2111996426858246, 0.23215637940447356]]",density,black,,,D001,visual,4,[],"['1', '2', '3', '4']",1,2023.2.3,harveyvisual,2.1,[],8,0.75,
0,pause,0.4,None,None,None,0,159,159,159,,,,,,,,,,,,,D001,visual,4,[],"['1', '2', '3', '4']",1,2023.2.3,harveyvisual,2.1,[],8,0.75,
9,dot,0.3,['dot'],['density'],black,0,160,160,160,,,58.40021085739136,58.11694884300232,58.416945934295654,dot,"[0.06, 0.08, 0.08, 0.06, 0.06, 0.1, 0.06, 0.1, 0.06]","[[0.34043128493099817, 0.2271075800100716], [0.2702764120171402, -0.10456749967376819], [-0.1274635928921129, -0.04210317806044915], [-0.03460273614387521, 0.1795356259369138], [0.14470969472881007, 0.3391925298523705], [0.06761060508642219, 0.0060094309834155335], [0.5117869412029185, -0.12050585585317111], [0.07404675892906432, -0.22660478390602867], [0.35723900661310204, -0.3185591288757]]",density,black,,,D001,visual,4,[],"['1', '2', '3', '4']",1,2023.2.3,harveyvisual,2.1,[],8,0.75,
0,pause,0.4,None,None,None,0,161,161,161,,,,,,,,,,,,,D001,visual,4,[],"['1', '2', '3', '4']",1,2023.2.3,harveyvisual,2.1,[],8,0.75,
9,dot,0.3,['dot'],['density'],black,0,162,162,162,,,59.10020685195923,58.816948890686035,59.116947889328,dot,"[0.06, 0.1, 0.06, 0.1, 0.06, 0.08, 0.08, 0.08, 0.08]","[[-0.08351644510687262, 0.021707353155035948], [0.11173555070370329, 0.3931220271068859], [-0.15396522232717408, 0.3423719725559184], [0.23829169989725132, 0.186218803300476], [-0.29008049122260166, 0.17395274189193027], [0.2491440638781109, -0.04662568063892593], [-0.2854023508218629, -0.06307984259985559], [0.003596708871689959, 0.21717875760955796], [-0.47489413548496523, 0.030788186259843496]]",density,black,,,D001,visual,4,[],"['1', '2', '3', '4']",1,2023.2.3,harveyvisual,2.1,[],8,0.75,
0,pause,0.4,None,None,None,0,163,163,163,,,,,,,,,,,,,D001,visual,4,[],"['1', '2', '3', '4']",1,2023.2.3,harveyvisual,2.1,[],8,0.75,
9,dot,0.3,['dot'],['density'],white,0,164,164,164,,,59.80020880699158,59.51704978942871,59.81692600250244,dot,"[0.1, 0.08, 0.08, 0.08, 0.08, 0.06, 0.06, 0.08, 0.1]","[[-0.03971785412685378, -0.013307253576883936], [-0.1795931736998084, 0.3973594317450326], [-0.3834375522639881, 0.20263766925149762], [-0.17272229141218848, -0.19949677387464254], [-0.5360333538572699, -0.009032368777402771], [-0.28286279854376034, -0.008232758075431683], [0.17411699897949384, -0.08382665075843401], [-0.16068367208365952, 0.1786486522774764], [0.029814794500374706, 0.34001547930781484]]",density,white,,,D001,visual,4,[],"['1', '2', '3', '4']",1,2023.2.3,harveyvisual,2.1,[],8,0.75,
0,pause,0.4,None,None,None,0,165,165,165,,,,,,,,,,,,,D001,visual,4,[],"['1', '2', '3', '4']",1,2023.2.3,harveyvisual,2.1,[],8,0.75,
9,dot,0.3,['dot'],['density'],black,0,166,166,166,,,60.500226974487305,60.216901779174805,60.516915798187256,dot,"[0.06, 0.06, 0.06, 0.06, 0.1, 0.08, 0.08, 0.08, 0.08]","[[0.5633060189111645, -0.020447411670609934], [0.24486306384976717, 0.44476630120442473], [0.18428866344346043, -0.051083701103786204], [0.30165572131442664, 0.2239114093385097], [-0.0017431279865323516, 0.11759053127645673], [0.36864926730470376, 0.029118730319846676], [0.08307425003498874, 0.31712463906399285], [0.26393370779995823, -0.24286541122091637], [0.5109425385251136, 0.2557989077594731]]",density,black,,,D001,visual,4,[],"['1', '2', '3', '4']",1,2023.2.3,harveyvisual,2.1,[],8,0.75,
0,pause,0.4,None,None,None,0,167,167,167,,,,,,,,,,,,,D001,visual,4,[],"['1', '2', '3', '4']",1,2023.2.3,harveyvisual,2.1,[],8,0.75,
8,dot,0.3,['dot'],['density'],black,0,168,168,168,,,61.200225830078125,60.91689085960388,61.216901779174805,dot,"[0.1, 0.08, 0.06, 0.1, 0.08, 0.1, 0.08, 0.08]","[[0.4694715163891994, 0.13329625263481096], [0.14358160208090395, 0.35167434699812705], [0.41559735975202405, 0.3690190921299561], [-0.041805684447173724, 0.4315913723966695], [-0.04993254304034498, 0.2285123563850015], [0.25337459258073897, 0.16365346604105616], [0.18476510797087844, 0.5481483313560797], [0.14868800337579569, -0.10349430855878591]]",density,black,,,D001,visual,4,[],"['1', '2', '3', '4']",1,2023.2.3,harveyvisual,2.1,[],8,0.75,
0,pause,0.4,None,None,None,0,169,169,169,,,,,,,,,,,,,D001,visual,4,[],"['1', '2', '3', '4']",1,2023.2.3,harveyvisual,2.1,[],8,0.75,
8,dot,0.3,['dot'],['density'],black,0,170,170,170,,,61.90020680427551,61.61685585975647,61.91688299179077,dot,"[0.1, 0.08, 0.08, 0.08, 0.1, 0.1, 0.08, 0.06]","[[-0.2395708272612018, -0.3613018167456044], [-0.39529086986423073, -0.13116056396528103], [0.016143118738118, -0.3000453801144436], [-0.10247857353615338, 0.12176090555598315], [0.11784264820349834, -0.12422453235794288], [-0.1468533202112338, -0.18280007972172757], [-0.31504288856899026, 0.06147683711297207], [0.2614313121475242, -0.33215718180641224]]",density,black,,,D001,visual,4,[],"['1', '2', '3', '4']",1,2023.2.3,harveyvisual,2.1,[],8,0.75,
0,pause,0.4,None,None,None,0,171,171,171,,,,,,,,,,,,,D001,visual,4,[],"['1', '2', '3', '4']",1,2023.2.3,harveyvisual,2.1,[],8,0.75,
8,dot,0.3,['dot'],['density'],black,0,172,172,172,,,62.60021901130676,62.3168568611145,62.61679983139038,dot,"[0.06, 0.1, 0.06, 0.06, 0.06, 0.1, 0.1, 0.1]","[[0.43039348711459674, -0.2176132953198537], [0.11499515674856413, 0.2899266495440316], [0.12808102003139596, -0.009244067984354065], [-0.030386771168905473, -0.2551920291624523], [0.3118809155168881, 0.2081403981228026], [-0.06282563634610334, 0.11114412413027695], [0.22944900542930163, -0.23921835558115082], [0.33219925311336224, 0.0035410395788749187]]",density,black,,,D001,visual,4,[],"['1', '2', '3', '4']",1,2023.2.3,harveyvisual,2.1,[],8,0.75,
0,pause,0.4,None,None,None,0,173,173,173,,,,,,,,,,,,,D001,visual,4,[],"['1', '2', '3', '4']",1,2023.2.3,harveyvisual,2.1,[],8,0.75,
8,dot,0.3,['dot'],['density'],black,0,174,174,174,,,63.30022597312927,63.016806840896606,63.31679081916809,dot,"[0.06, 0.08, 0.06, 0.06, 0.06, 0.1, 0.08, 0.06]","[[-0.08486713456805763, -0.4233549652310786], [-0.34121661687321897, 0.009931669871959016], [0.06179899905610707, -0.01287726204627424], [-0.01080387642187049, -0.20774715314808884], [-0.2259787915635077, -0.2257096572683263], [-0.31087639520469923, -0.4457762681120083], [-0.07938707884489006, 0.17996906985975966], [-0.13919465900414296, -0.03133413505419433]]",density,black,,,D001,visual,4,[],"['1', '2', '3', '4']",1,2023.2.3,harveyvisual,2.1,[],8,0.75,
0,pause,0.4,None,None,None,0,175,175,175,,,,,,,,,,,,,D001,visual,4,[],"['1', '2', '3', '4']",1,2023.2.3,harveyvisual,2.1,[],8,0.75,
8,dot,0.3,['dot'],['density'],black,0,176,176,176,,,64.00021481513977,63.71682596206665,64.01677989959717,dot,"[0.1, 0.06, 0.1, 0.08, 0.1, 0.06, 0.1, 0.08]","[[-0.13214754069031825, -0.5402677255150703], [0.1288984478000013, -0.5519726475135984], [0.27401725229332, -0.34994268047279037], [-0.052680844420756816, 0.006786609240531098], [0.03557367748195712, -0.3699094958310016], [-0.23170140006741713, -0.18198058676873416], [-0.33504621301322857, -0.3611685350886627], [0.0760940577115827, -0.14857148175569432]]",density,black,,,D001,visual,4,[],"['1', '2', '3', '4']",1,2023.2.3,harveyvisual,2.1,[],8,0.75,
0,pause,0.4,None,None,None,0,177,177,177,,,,,,,,,,,,,D001,visual,4,[],"['1', '2', '3', '4']",1,2023.2.3,harveyvisual,2.1,[],8,0.75,
8,dot,0.3,['dot'],['density'],white,0,178,178,178,,,64.70022678375244,64.41677188873291,64.71675992012024,dot,"[0.1, 0.06, 0.06, 0.1, 0.08, 0.06, 0.1, 0.06]","[[-0.3306282708070712, -0.09459634407206743], [0.17708038186302957, -0.36794437316098305], [-0.34368294577136044, -0.39688855169369486], [-0.16397220561896333, 0.03033928826277653], [-0.08476975953586025, -0.41834960305423746], [-0.16765121495786453, -0.2265743681515788], [0.0449590487082352, -0.10546915507075137], [-0.5574709661459258, -0.15664368712912546]]",density,white,,,D001,visual,4,[],"['1', '2', '3', '4']",1,2023.2.3,harveyvisual,2.1,[],8,0.75,
0,pause,0.4,None,None,None,0,179,179,179,,,,,,,,,,,1,64.96677994728088,D001,visual,4,[],"['1', '2', '3', '4']",1,2023.2.3,harveyvisual,2.1,[],8,0.75,
7,dot,0.3,['dot'],['density'],black,0,180,180,180,,,65.40022397041321,65.11677885055542,65.416907787323,dot,"[0.06, 0.08, 0.1, 0.08, 0.08, 0.1, 0.06]","[[0.3899189512010899, -0.40728696153528776], [0.20392863561369634, -0.3305625840210526], [0.31626985815109576, 0.13567824844623666], [0.5017338684339655, -0.028549680114735937], [0.11648855723187378, -0.1078833072829627], [0.07041138378868489, 0.08730219371944997], [0.32910598476010167, -0.13660711058181768]]",density,black,,,D001,visual,4,[],"['1', '2', '3', '4']",1,2023.2.3,harveyvisual,2.1,[],8,0.75,
0,pause,0.4,None,None,None,0,181,181,181,,,,,,,,,,,,,D001,visual,4,[],"['1', '2', '3', '4']",1,2023.2.3,harveyvisual,2.1,[],8,0.75,
7,dot,0.3,['dot'],['density'],white,0,182,182,182,,,66.10023093223572,65.81673192977905,66.11671495437622,dot,"[0.06, 0.1, 0.06, 0.08, 0.08, 0.1, 0.08]","[[-0.137089699111686, -0.0603537150230737], [-0.5113647139476066, -0.13847335204066147], [-0.15813839015967857, -0.36469710156031643], [-0.2936616210719107, -0.2141411575526577], [-0.32787652212665946, 0.04250548396893007], [0.004093135922799089, -0.22788394746255153], [-0.17456170860443615, 0.20133573380951708]]",density,white,,,D001,visual,4,[],"['1', '2', '3', '4']",1,2023.2.3,harveyvisual,2.1,[],8,0.75,
0,pause,0.4,None,None,None,0,183,183,183,,,,,,,,,,,1,66.30492186546326,D001,visual,4,[],"['1', '2', '3', '4']",1,2023.2.3,harveyvisual,2.1,[],8,0.75,
7,dot,0.3,['dot'],['density'],black,0,184,184,184,,,66.80022382736206,66.5167088508606,66.81670594215393,dot,"[0.06, 0.06, 0.1, 0.1, 0.08, 0.1, 0.1]","[[-0.1635229753841098, 0.12186382262109141], [0.03437657187081179, 0.5178389267683822], [0.324184412335695, 0.17931743601205324], [0.08929018524031027, 0.11005745596178185], [-0.1318259817332877, 0.4026967659136047], [-0.053046683696667, -0.06058584598870606], [0.042745683665752716, 0.304616966822181]]",density,black,,,D001,visual,4,[],"['1', '2', '3', '4']",1,2023.2.3,harveyvisual,2.1,[],8,0.75,
0,pause,0.4,None,None,None,0,185,185,185,,,,,,,,,,,,,D001,visual,4,[],"['1', '2', '3', '4']",1,2023.2.3,harveyvisual,2.1,[],8,0.75,
7,dot,0.3,['dot'],['density'],white,0,186,186,186,,,67.50021600723267,67.21669697761536,67.51671981811523,dot,"[0.06, 0.1, 0.08, 0.06, 0.1, 0.06, 0.08]","[[-0.1635229753841098, 0.12186382262109141], [0.03437657187081179, 0.5178389267683822], [0.324184412335695, 0.17931743601205324], [0.08929018524031027, 0.11005745596178185], [-0.1318259817332877, 0.4026967659136047], [-0.053046683696667, -0.06058584598870606], [0.042745683665752716, 0.304616966822181]]",density,white,,,D001,visual,4,[],"['1', '2', '3', '4']",1,2023.2.3,harveyvisual,2.1,[],8,0.75,
0,pause,0.4,None,None,None,0,187,187,187,,,,,,,,,,,1,67.56411099433899,D001,visual,4,[],"['1', '2', '3', '4']",1,2023.2.3,harveyvisual,2.1,[],8,0.75,
7,dot,0.3,['dot'],['density'],black,0,188,188,188,,,68.2002170085907,67.91667079925537,68.21666693687439,dot,"[0.08, 0.1, 0.08, 0.08, 0.08, 0.06, 0.08]","[[-0.2822174821233986, 0.002117056236134186], [-0.10673242512413421, 0.4781556216085482], [-0.18432519539246728, 0.19072201575640843], [-0.4524596318479574, 0.13966285650530724], [0.06907010423411483, 0.2912708813513049], [-0.07412436007020941, -0.021022205933558278], [-0.3208835015251209, 0.3986768431743725]]",density,black,,,D001,visual,4,[],"['1', '2', '3', '4']",1,2023.2.3,harveyvisual,2.1,[],8,0.75,
0,pause,0.4,None,None,None,0,189,189,189,,,,,,,,,,,,,D001,visual,4,[],"['1', '2', '3', '4']",1,2023.2.3,harveyvisual,2.1,[],8,0.75,
7,dot,0.3,['dot'],['density'],black,0,190,190,190,,,68.90021991729736,68.61665987968445,68.9166419506073,dot,"[0.06, 0.08, 0.1, 0.06, 0.1, 0.06, 0.08]","[[-0.4260259763687212, 0.0015611622021723967], [-0.003169876971998007, 0.13415651360788267], [-0.2586764037849864, 0.4417783913692737], [-0.4397986643511286, 0.306274470342183], [-0.0069778791964768315, 0.3653924841843964], [-0.25662591460159173, 0.21046748777052526], [-0.17930648864359452, 0.007725268650954965]]",density,black,,,D001,visual,4,[],"['1', '2', '3', '4']",1,2023.2.3,harveyvisual,2.1,[],8,0.75,
0,pause,0.4,None,None,None,0,191,191,191,,,,,,,,,,,,,D001,visual,4,[],"['1', '2', '3', '4']",1,2023.2.3,harveyvisual,2.1,[],8,0.75,
6,dot,0.3,['dot'],['density'],black,0,192,192,192,,,69.60022282600403,69.31670498847961,69.61664485931396,dot,"[0.08, 0.06, 0.06, 0.08, 0.1, 0.1]","[[0.1643264729387965, -0.2471077239796436], [-0.22534804549937193, -0.4918728234310363], [-0.026166131246113146, -0.09278119687647148], [-0.24451989516519138, -0.21339523607155425], [0.11868454116144263, -0.4574197693624388], [-0.058907778787058426, -0.30919141315076737]]",density,black,,,D001,visual,4,[],"['1', '2', '3', '4']",1,2023.2.3,harveyvisual,2.1,[],8,0.75,
0,pause,0.4,None,None,None,0,193,193,193,,,,,,,,,,,,,D001,visual,4,[],"['1', '2', '3', '4']",1,2023.2.3,harveyvisual,2.1,[],8,0.75,
6,dot,0.3,['dot'],['density'],black,0,194,194,194,,,70.30020880699158,70.01662588119507,70.31661295890808,dot,"[0.08, 0.08, 0.08, 0.06, 0.1, 0.1]","[[-0.36904347190091025, 0.2789229011504548], [-0.01038079434194998, 0.053649704929766846], [-0.08735338951653393, 0.578282782753283], [5.153534382930422e-05, 0.38446941554394387], [-0.22753401468201206, 0.43210907521897474], [-0.14647282530567177, 0.24517240432070728]]",density,black,,,D001,visual,4,[],"['1', '2', '3', '4']",1,2023.2.3,harveyvisual,2.1,[],8,0.75,
0,pause,0.4,None,None,None,0,195,195,195,,,,,,,,,,,,,D001,visual,4,[],"['1', '2', '3', '4']",1,2023.2.3,harveyvisual,2.1,[],8,0.75,
6,dot,0.3,['dot'],['density'],black,0,196,196,196,,,71.00020480155945,70.71661186218262,71.01659798622131,dot,"[0.06, 0.06, 0.08, 0.06, 0.08, 0.08]","[[-0.5379788740814003, -0.011730333491669416], [-0.1820890739253136, -0.27973544868684425], [-0.07809457889047756, -0.09124846264896269], [-0.30616251401069866, -0.45101817852416426], [-0.44200878281119743, -0.26991620184617166], [-0.3315938551005316, -0.08696624632848979]]",density,black,,,D001,visual,4,[],"['1', '2', '3', '4']",1,2023.2.3,harveyvisual,2.1,[],8,0.75,
0,pause,0.4,None,None,None,0,197,197,197,,,,,,,,,,,,,D001,visual,4,[],"['1', '2', '3', '4']",1,2023.2.3,harveyvisual,2.1,[],8,0.75,
6,dot,0.3,['dot'],['density'],white,0,198,198,198,,,71.70020794868469,71.41662287712097,71.71662878990173,dot,"[0.06, 0.1, 0.1, 0.1, 0.08, 0.1]","[[-0.362545063880459, -0.421860962952156], [-0.24010638466002518, -0.0327569241266412], [-0.22622339336134992, -0.23590116153186103], [-0.41823503972227205, -0.14060420183103206], [-0.028992295722001654, -0.1293578273409096], [-0.1459617666416116, -0.4591052827033254]]",density,white,,,D001,visual,4,[],"['1', '2', '3', '4']",1,2023.2.3,harveyvisual,2.1,[],8,0.75,
0,pause,0.4,None,None,None,0,199,199,199,,,,,,,,,,,1,71.87960982322693,D001,visual,4,[],"['1', '2', '3', '4']",1,2023.2.3,harveyvisual,2.1,[],8,0.75,
6,dot,0.3,['dot'],['density'],black,0,200,200,200,,,72.40022277832031,72.11662077903748,72.41663694381714,dot,"[0.08, 0.08, 0.08, 0.08, 0.08, 0.08]","[[-0.31609589870198396, -0.31007670116123803], [-0.4478311917512715, 0.10082722748193511], [-0.2864981571692688, -0.05140390439239721], [-0.09675803094031296, -0.12021517342888931], [-0.4941273593136662, -0.13098935533792763], [-0.1300426850498692, 0.1160403058404222]]",density,black,,,D001,visual,4,[],"['1', '2', '3', '4']",1,2023.2.3,harveyvisual,2.1,[],8,0.75,
0,pause,0.4,None,None,None,0,201,201,201,,,,,,,,,,,,,D001,visual,4,[],"['1', '2', '3', '4']",1,2023.2.3,harveyvisual,2.1,[],8,0.75,
6,dot,0.3,['dot'],['density'],black,0,202,202,202,,,73.10020589828491,72.81656289100647,73.11655378341675,dot,"[0.08, 0.08, 0.06, 0.06, 0.08, 0.08]","[[-0.2094991805307552, 0.08302354111181451], [0.09557258300728075, 0.3458622669714129], [0.22056408800171526, -0.017094369341425636], [0.026601936584830878, 0.1297564650757722], [-0.11681768564656844, 0.2726391152528644], [-0.03570146891163527, -0.09222923444939024]]",density,black,,,D001,visual,4,[],"['1', '2', '3', '4']",1,2023.2.3,harveyvisual,2.1,[],8,0.75,
0,pause,0.4,None,None,None,0,203,203,203,,,,,,,,,,,,,D001,visual,4,[],"['1', '2', '3', '4']",1,2023.2.3,harveyvisual,2.1,[],8,0.75,
5,dot,0.3,['dot'],['density'],black,0,204,204,204,,,73.8002188205719,73.51664590835571,73.8165168762207,dot,"[0.1, 0.08, 0.1, 0.06, 0.06]","[[0.05896558140131438, -0.5342250951568444], [0.41924064092593105, -0.38742881471212404], [0.0789485457987589, -0.15857793529431863], [0.19859038409043042, -0.3300393182504279], [-0.04229804568701367, -0.31959008629620334]]",density,black,,,D001,visual,4,[],"['1', '2', '3', '4']",1,2023.2.3,harveyvisual,2.1,[],8,0.75,
0,pause,0.4,None,None,None,0,205,205,205,,,,,,,,,,,,,D001,visual,4,[],"['1', '2', '3', '4']",1,2023.2.3,harveyvisual,2.1,[],8,0.75,
5,dot,0.3,['dot'],['density'],black,0,206,206,206,,,74.50022196769714,74.2165219783783,74.5165069103241,dot,"[0.06, 0.08, 0.08, 0.08, 0.1]","[[0.2947939438731228, -0.23060267152592065], [-0.16069394766121817, -0.3416383267983795], [0.17571447256805817, -0.04795497140357211], [-0.06398416024856234, -0.043165972544212804], [0.046845399773749824, -0.2436216536023896]]",density,black,,,D001,visual,4,[],"['1', '2', '3', '4']",1,2023.2.3,harveyvisual,2.1,[],8,0.75,
0,pause,0.4,None,None,None,0,207,207,207,,,,,,,,,,,,,D001,visual,4,[],"['1', '2', '3', '4']",1,2023.2.3,harveyvisual,2.1,[],8,0.75,
5,dot,0.3,['dot'],['density'],black,0,208,208,208,,,75.20021080970764,74.91651582717896,75.21649599075317,dot,"[0.1, 0.06, 0.1, 0.08, 0.08]","[[0.2947939438731228, -0.23060267152592065], [-0.16069394766121817, -0.3416383267983795], [0.17571447256805817, -0.04795497140357211], [-0.06398416024856234, -0.043165972544212804], [0.046845399773749824, -0.2436216536023896]]",density,black,,,D001,visual,4,[],"['1', '2', '3', '4']",1,2023.2.3,harveyvisual,2.1,[],8,0.75,
0,pause,0.4,None,None,None,0,209,209,209,,,,,,,,,,,,,D001,visual,4,[],"['1', '2', '3', '4']",1,2023.2.3,harveyvisual,2.1,[],8,0.75,
5,dot,0.3,['dot'],['density'],black,0,210,210,210,,,75.90022087097168,75.61647582054138,75.91646695137024,dot,"[0.08, 0.08, 0.1, 0.08, 0.08]","[[0.4409169755572007, 0.017856988789309493], [0.10933872532765951, -0.20637645515835812], [0.27728831588229885, 0.198954967346464], [0.3100556643305453, -0.16532657838491105], [0.11148968869271939, 0.006469487304542018]]",density,black,,,D001,visual,4,[],"['1', '2', '3', '4']",1,2023.2.3,harveyvisual,2.1,[],8,0.75,
0,pause,0.4,None,None,None,0,211,211,211,,,,,,,,,,,,,D001,visual,4,[],"['1', '2', '3', '4']",1,2023.2.3,harveyvisual,2.1,[],8,0.75,
5,dot,0.3,['dot'],['density'],black,0,212,212,212,,,76.60021090507507,76.31647396087646,76.61645984649658,dot,"[0.08, 0.1, 0.06, 0.1, 0.08]","[[-0.4004020094395207, -0.04445243948850948], [-0.17181756668418613, -0.18180129995893848], [-0.46264198425852476, 0.17889071841303528], [-0.23640824159873003, 0.08340028676903545], [-0.2824747884808712, 0.2826805534387526]]",density,black,,,D001,visual,4,[],"['1', '2', '3', '4']",1,2023.2.3,harveyvisual,2.1,[],8,0.75,
0,pause,0.4,None,None,None,0,213,213,213,,,,,,,,,,,,,D001,visual,4,[],"['1', '2', '3', '4']",1,2023.2.3,harveyvisual,2.1,[],8,0.75,
5,dot,0.3,['dot'],['density'],black,0,214,214,214,,,77.30023288726807,77.01644587516785,77.31642484664917,dot,"[0.08, 0.08, 0.1, 0.08, 0.06]","[[-0.26965218803342234, -0.06061691990321757], [-0.44412238708790114, -0.1605793459593267], [-0.2738608688716076, -0.33598391440877745], [-0.06160694910013377, -0.19463283807086704], [-0.16469008497891707, 0.13324638745272324]]",density,black,,,D001,visual,4,[],"['1', '2', '3', '4']",1,2023.2.3,harveyvisual,2.1,[],8,0.75,
0,pause,0.4,None,None,None,0,215,215,215,,,,,,,,,,,,,D001,visual,4,[],"['1', '2', '3', '4']",1,2023.2.3,harveyvisual,2.1,[],8,0.75,
4,dot,0.3,['dot'],['density'],black,0,216,216,216,,,78.00023293495178,77.71642088890076,78.0164098739624,dot,"[0.08, 0.06, 0.08, 0.08]","[[-0.43942495523079517, -0.22401056498097033], [-0.009260832099230759, -0.1633376679159051], [-0.21598309108097546, -0.10172603009605206], [-0.2278206133413005, -0.33154874685782076]]",density,black,,,D001,visual,4,[],"['1', '2', '3', '4']",1,2023.2.3,harveyvisual,2.1,[],8,0.75,
0,pause,0.4,None,None,None,0,217,217,217,,,,,,,,,,,,,D001,visual,4,[],"['1', '2', '3', '4']",1,2023.2.3,harveyvisual,2.1,[],8,0.75,
4,dot,0.3,['dot'],['density'],black,0,218,218,218,,,78.70022392272949,78.41640400886536,78.71640586853027,dot,"[0.08, 0.1, 0.1, 0.06]","[[0.06241226843583792, -0.3147100539198924], [0.2553405417111816, -0.24584579293690137], [0.0027514156828475403, -0.09786489187307437], [0.1660279615748852, 0.026007470517245626]]",density,black,,,D001,visual,4,[],"['1', '2', '3', '4']",1,2023.2.3,harveyvisual,2.1,[],8,0.75,
0,pause,0.4,None,None,None,0,219,219,219,,,,,,,,,,,,,D001,visual,4,[],"['1', '2', '3', '4']",1,2023.2.3,harveyvisual,2.1,[],8,0.75,
4,dot,0.3,['dot'],['density'],black,0,220,220,220,,,79.40022897720337,79.11647701263428,79.4164388179779,dot,"[0.06, 0.1, 0.06, 0.1]","[[0.17852470546651972, -0.2012438881607824], [-0.031034799765910746, -0.12466087783573923], [0.008996399474264666, -0.3229379719524122], [0.15114343287780646, 0.03986859122442722]]",density,black,,,D001,visual,4,[],"['1', '2', '3', '4']",1,2023.2.3,harveyvisual,2.1,[],8,0.75,
0,pause,0.4,None,None,None,0,221,221,221,,,,,,,,,,,,,D001,visual,4,[],"['1', '2', '3', '4']",1,2023.2.3,harveyvisual,2.1,[],8,0.75,
4,dot,0.3,['dot'],['density'],white,0,222,222,222,,,80.10023093223572,79.81635999679565,80.1163969039917,dot,"[0.1, 0.1, 0.08, 0.08]","[[-0.5372831058023291, 0.07679305146548565], [-0.47746952625478134, -0.11455356156484316], [-0.2888199447118168, 0.02804534169422597], [-0.3317661241759115, -0.2533775510137967]]",density,white,,,D001,visual,4,[],"['1', '2', '3', '4']",1,2023.2.3,harveyvisual,2.1,[],8,0.75,
0,pause,0.4,None,None,None,0,223,223,223,,,,,,,,,,,1,80.28067088127136,D001,visual,4,[],"['1', '2', '3', '4']",1,2023.2.3,harveyvisual,2.1,[],8,0.75,
4,dot,0.3,['dot'],['density'],black,0,224,224,224,,,80.80021786689758,80.51641893386841,80.81640386581421,dot,"[0.1, 0.08, 0.1, 0.1]","[[-0.1807894278345534, -0.050693892368996955], [-0.03778933673514029, -0.29773510453537966], [0.0747201162679791, -0.1287424711559737], [-0.02241484737224569, 0.07404475448468936]]",density,black,,,D001,visual,4,[],"['1', '2', '3', '4']",1,2023.2.3,harveyvisual,2.1,[],8,0.75,
0,pause,0.4,None,None,None,0,225,225,225,,,,,,,,,,,,,D001,visual,4,[],"['1', '2', '3', '4']",1,2023.2.3,harveyvisual,2.1,[],8,0.75,
4,dot,0.3,['dot'],['density'],black,0,226,226,226,,,81.50021195411682,81.21643280982971,81.51641893386841,dot,"[0.1, 0.1, 0.1, 0.08]","[[-0.2516773625496151, -0.30151264897341506], [-0.16747001932966935, -0.11477707456203952], [0.007305472957725734, -0.4586877449884055], [0.017540980065453668, -0.20354321808263612]]",density,black,,,D001,visual,4,[],"['1', '2', '3', '4']",1,2023.2.3,harveyvisual,2.1,[],8,0.75,
0,pause,0.4,None,None,None,0,227,227,227,,,,,,,,,,,,,D001,visual,4,[],"['1', '2', '3', '4']",1,2023.2.3,harveyvisual,2.1,[],8,0.75,
3,dot,0.3,['dot'],['density'],black,0,228,228,228,,,82.20020794868469,81.91636490821838,82.21639394760132,dot,"[0.08, 0.06, 0.08]","[[0.11213305146232053, -0.07893917948794166], [0.05639720131197772, -0.2966044022377523], [-0.1031859716129837, -0.13437008874356654]]",density,black,,,D001,visual,4,[],"['1', '2', '3', '4']",1,2023.2.3,harveyvisual,2.1,[],8,0.75,
0,pause,0.4,None,None,None,0,229,229,229,,,,,,,,,,,,,D001,visual,4,[],"['1', '2', '3', '4']",1,2023.2.3,harveyvisual,2.1,[],8,0.75,
3,dot,0.3,['dot'],['density'],black,0,230,230,230,,,82.90023183822632,82.61640191078186,82.91638088226318,dot,"[0.06, 0.06, 0.08]","[[0.2656832518280197, 0.0014864193765316018], [0.3503107158811183, -0.1826455867164705], [0.5188928509039705, -0.04177453376365527]]",density,black,,,D001,visual,4,[],"['1', '2', '3', '4']",1,2023.2.3,harveyvisual,2.1,[],8,0.75,
0,pause,0.4,None,None,None,0,231,231,231,,,,,,,,,,,,,D001,visual,4,[],"['1', '2', '3', '4']",1,2023.2.3,harveyvisual,2.1,[],8,0.75,
3,dot,0.3,['dot'],['density'],black,0,232,232,232,,,83.60020780563354,83.31629681587219,83.61643695831299,dot,"[0.06, 0.08, 0.06]","[[-0.1827482077423914, 0.13189758396693702], [0.006935645283384683, 0.04732296079382947], [-0.049709858873230685, 0.28599666368451326]]",density,black,,,D001,visual,4,[],"['1', '2', '3', '4']",1,2023.2.3,harveyvisual,2.1,[],8,0.75,
0,pause,0.4,None,None,None,0,233,233,233,,,,,,,,,,,,,D001,visual,4,[],"['1', '2', '3', '4']",1,2023.2.3,harveyvisual,2.1,[],8,0.75,
3,dot,0.3,['dot'],['density'],black,0,234,234,234,,,84.3002188205719,84.01635789871216,84.31625699996948,dot,"[0.08, 0.1, 0.08]","[[0.07700183490032705, -0.35627018624379625], [-0.11838355721398923, -0.41989981358322065], [0.04553884901650391, -0.5822363694770394]]",density,black,,,D001,visual,4,[],"['1', '2', '3', '4']",1,2023.2.3,harveyvisual,2.1,[],8,0.75,
0,pause,0.4,None,None,None,0,235,235,235,,,,,,,,,,,,,D001,visual,4,[],"['1', '2', '3', '4']",1,2023.2.3,harveyvisual,2.1,[],8,0.75,
3,dot,0.3,['dot'],['density'],black,0,236,236,236,,,85.00021696090698,84.71625280380249,85.01628994941711,dot,"[0.06, 0.06, 0.06]","[[-0.27441186418729774, -0.31428620701652393], [-0.10438281902574013, -0.2032379983598837], [-0.31523395761825285, -0.08768035506307631]]",density,black,,,D001,visual,4,[],"['1', '2', '3', '4']",1,2023.2.3,harveyvisual,2.1,[],8,0.75,
0,pause,0.4,None,None,None,0,237,237,237,,,,,,,,,,,,,D001,visual,4,[],"['1', '2', '3', '4']",1,2023.2.3,harveyvisual,2.1,[],8,0.75,
3,dot,0.3,['dot'],['density'],black,0,238,238,238,,,85.7002329826355,85.41625189781189,85.71624994277954,dot,"[0.06, 0.1, 0.06]","[[-0.15674404860239688, -0.25078459247658497], [0.006578924124220241, -0.41324131210186005], [0.06959682433872849, -0.20549031443856539]]",density,black,,,D001,visual,4,[],"['1', '2', '3', '4']",1,2023.2.3,harveyvisual,2.1,[],8,0.75,
0,pause,0.4,None,None,None,0,239,239,239,,,,,,,,,,,,,D001,visual,4,[],"['1', '2', '3', '4']",1,2023.2.3,harveyvisual,2.1,[],8,0.75,
2,dot,0.3,['dot'],['density'],black,0,240,240,240,,,86.40022492408752,86.1162269115448,86.41619300842285,dot,"[0.1, 0.06]","[[0.2713647219188039, -0.029235290058335472], [0.46697437826705046, 0.014145112521712659]]",density,black,,,D001,visual,4,[],"['1', '2', '3', '4']",1,2023.2.3,harveyvisual,2.1,[],8,0.75,
0,pause,0.4,None,None,None,0,241,241,241,,,,,,,,,,,,,D001,visual,4,[],"['1', '2', '3', '4']",1,2023.2.3,harveyvisual,2.1,[],8,0.75,
2,dot,0.3,['dot'],['density'],black,0,242,242,242,,,87.10021591186523,86.81620478630066,87.11618399620056,dot,"[0.1, 0.1]","[[0.29932439847351855, -0.2783039550742582], [0.14276117392638485, -0.15345139110726028]]",density,black,,,D001,visual,4,[],"['1', '2', '3', '4']",1,2023.2.3,harveyvisual,2.1,[],8,0.75,
0,pause,0.4,None,None,None,0,243,243,243,,,,,,,,,,,,,D001,visual,4,[],"['1', '2', '3', '4']",1,2023.2.3,harveyvisual,2.1,[],8,0.75,
2,dot,0.3,['dot'],['density'],black,0,244,244,244,,,87.8002347946167,87.51618194580078,87.81617498397827,dot,"[0.06, 0.06]","[[-0.4579128382498026, -0.013317831223324628], [-0.28624676016543393, -0.11681778735554697]]",density,black,,,D001,visual,4,[],"['1', '2', '3', '4']",1,2023.2.3,harveyvisual,2.1,[],8,0.75,
0,pause,0.4,None,None,None,0,245,245,245,,,,,,,,,,,,,D001,visual,4,[],"['1', '2', '3', '4']",1,2023.2.3,harveyvisual,2.1,[],8,0.75,
2,dot,0.3,['dot'],['density'],black,0,246,246,246,,,88.50021290779114,88.21616983413696,88.51616191864014,dot,"[0.06, 0.1]","[[-0.15489633838679245, 0.20775043904852977], [-0.02477214636975436, 0.05468251249351026]]",density,black,,,D001,visual,4,[],"['1', '2', '3', '4']",1,2023.2.3,harveyvisual,2.1,[],8,0.75,
0,pause,0.4,None,None,None,0,247,247,247,,,,,,,,,,,,,D001,visual,4,[],"['1', '2', '3', '4']",1,2023.2.3,harveyvisual,2.1,[],8,0.75,
2,dot,0.3,['dot'],['density'],black,0,248,248,248,,,89.20022583007812,88.91615080833435,89.2161328792572,dot,"[0.06, 0.06]","[[0.002249876020969301, 0.20442088447143333], [-0.056293345030126195, 0.39599742374220376]]",density,black,,,D001,visual,4,[],"['1', '2', '3', '4']",1,2023.2.3,harveyvisual,2.1,[],8,0.75,
0,pause,0.4,None,None,None,0,249,249,249,,,,,,,,,,,,,D001,visual,4,[],"['1', '2', '3', '4']",1,2023.2.3,harveyvisual,2.1,[],8,0.75,
2,dot,0.3,['dot'],['density'],black,0,250,250,250,,,89.90021800994873,89.61614298820496,89.9161388874054,dot,"[0.1, 0.1]","[[0.02987007740145294, 0.4330921892138179], [-0.1698845640653836, 0.4119973540264252]]",density,black,,,D001,visual,4,[],"['1', '2', '3', '4']",1,2023.2.3,harveyvisual,2.1,[],8,0.75,
0,pause,0.4,None,None,None,0,251,251,251,,,,,,,,,,,,,D001,visual,4,[],"['1', '2', '3', '4']",1,2023.2.3,harveyvisual,2.1,[],8,0.75,
1,dot,0.3,['dot'],['density'],black,0,252,252,252,,,90.60023593902588,90.31610584259033,90.61611700057983,dot,[0.1],"[0.15956500649880873, 0.2640393008039057]",density,black,,,D001,visual,4,[],"['1', '2', '3', '4']",1,2023.2.3,harveyvisual,2.1,[],8,0.75,
0,pause,0.4,None,None,None,0,253,253,253,,,,,,,,,,,,,D001,visual,4,[],"['1', '2', '3', '4']",1,2023.2.3,harveyvisual,2.1,[],8,0.75,
1,dot,0.3,['dot'],['density'],black,0,254,254,254,,,91.3002278804779,91.0161018371582,91.31610488891602,dot,[0.08],"[0.075024325262877, 0.28946834799837856]",density,black,,,D001,visual,4,[],"['1', '2', '3', '4']",1,2023.2.3,harveyvisual,2.1,[],8,0.75,
0,pause,0.4,None,None,None,0,255,255,255,,,,,,,,,,,,,D001,visual,4,[],"['1', '2', '3', '4']",1,2023.2.3,harveyvisual,2.1,[],8,0.75,
1,dot,0.3,['dot'],['density'],black,0,256,256,256,,,92.00021982192993,91.71614599227905,92.01609683036804,dot,[0.06],"[0.2287398259034258, -0.3932960849464651]",density,black,,,D001,visual,4,[],"['1', '2', '3', '4']",1,2023.2.3,harveyvisual,2.1,[],8,0.75,
0,pause,0.4,None,None,None,0,257,257,257,,,,,,,,,,,,,D001,visual,4,[],"['1', '2', '3', '4']",1,2023.2.3,harveyvisual,2.1,[],8,0.75,
1,dot,0.3,['dot'],['density'],black,0,258,258,258,,,92.70022892951965,92.41610383987427,92.71605181694031,dot,[0.06],"[0.4230572171255965, 0.15564154118015242]",density,black,,,D001,visual,4,[],"['1', '2', '3', '4']",1,2023.2.3,harveyvisual,2.1,[],8,0.75,
0,pause,0.4,None,None,None,0,259,259,259,,,,,,,,,,,,,D001,visual,4,[],"['1', '2', '3', '4']",1,2023.2.3,harveyvisual,2.1,[],8,0.75,
1,dot,0.3,['dot'],['density'],white,0,260,260,260,,,93.40023684501648,93.11605381965637,93.41603994369507,dot,[0.1],"[-0.22356924330877379, 0.41145231278245986]",density,white,,,D001,visual,4,[],"['1', '2', '3', '4']",1,2023.2.3,harveyvisual,2.1,[],8,0.75,
0,pause,0.4,None,None,None,0,261,261,261,,,,,,,,,,,1,93.5932788848877,D001,visual,4,[],"['1', '2', '3', '4']",1,2023.2.3,harveyvisual,2.1,[],8,0.75,
1,dot,0.3,['dot'],['density'],black,0,262,262,262,,,94.10021901130676,93.81602787971497,94.1160159111023,dot,[0.06],"[-0.30422713965878023, 0.0739284850406325]",density,black,,,D001,visual,4,[],"['1', '2', '3', '4']",1,2023.2.3,harveyvisual,2.1,[],8,0.75,
0,pause,0.4,None,None,None,0,263,263,263,,,,,,,,,,,,,D001,visual,4,[],"['1', '2', '3', '4']",1,2023.2.3,harveyvisual,2.1,[],8,0.75,
20,dot,0.3,['dot'],['density'],black,0,264,264,264,,,94.80022478103638,94.51600384712219,94.81601095199585,dot,"[0.06, 0.06, 0.08, 0.1, 0.1, 0.06, 0.06, 0.1, 0.1, 0.06, 0.08, 0.08, 0.08, 0.08, 0.08, 0.1, 0.08, 0.08, 0.08, 0.08]","[[-0.18001089680073296, 0.3580747714492365], [-0.34813536028304665, 0.07065939889931555], [0.3772280401081234, 0.4357668653314605], [0.5323574941283117, 0.2708522951182082], [-0.5667862406982079, 0.12124623431300113], [-0.20278187520306107, -0.45123681583835085], [0.2121573700776903, 0.10561788450669896], [0.10033237213221702, 0.5002444060276297], [0.3347718860997778, -0.1089618325251388], [-0.5478021359298219, -0.1247580714176918], [-0.2498709430449661, -0.11589321628619265], [0.16993974238154563, -0.5678544415089775], [-0.34582965035692137, 0.49303487034900073], [0.48420714904221474, 0.029910555014494078], [0.5350543983220283, -0.1652664937715733], [-0.4739947139416999, 0.3347426636566001], [0.1960589642448215, -0.342691205621581], [-0.0656391451223356, 0.08843462174266314], [0.0022480024106735774, -0.35509736359584193], [-0.485928341225425, -0.3334726243927283]]",density,black,,,D001,visual,4,[],"['1', '2', '3', '4']",1,2023.2.3,harveyvisual,2.1,[],8,0.75,
0,pause,0.4,None,None,None,0,265,265,265,,,,,,,,,,,,,D001,visual,4,[],"['1', '2', '3', '4']",1,2023.2.3,harveyvisual,2.1,[],8,0.75,
20,dot,0.3,['dot'],['density'],black,0,266,266,266,,,95.5002269744873,95.21609878540039,95.51598501205444,dot,"[0.08, 0.08, 0.08, 0.1, 0.1, 0.06, 0.06, 0.1, 0.06, 0.08, 0.08, 0.08, 0.06, 0.1, 0.06, 0.1, 0.1, 0.1, 0.08, 0.06]","[[-0.22190281180770133, 0.40740744525738015], [-0.06891420189549724, 0.5616890235479264], [0.34376192167167696, 0.2326894576819143], [0.48823884981515786, 0.09973290266853785], [-0.17159878103802068, -0.41366325349980165], [0.3042621312554974, -0.377954430476686], [-0.022389294886625777, -0.11147434598524592], [-0.19394503256182605, 0.04729044523173376], [0.2425821413358028, -0.17865895646030044], [-0.5764302783964576, -0.010740839418750286], [-0.07989194590685467, 0.2742119515504562], [-0.2999368517846933, -0.1536989357139305], [0.5590050793110654, -0.2158608862078853], [-0.020959862343533198, -0.5347193850454235], [-0.48851474907047576, 0.3372192174923626], [-0.5205046285456493, -0.25913814995609097], [0.20191495312170227, 0.5152487368225606], [-0.29943471165638874, 0.2300764106388934], [0.026990461263845522, 0.11574294650762251], [0.07669493358033208, -0.30596474672268503]]",density,black,,,D001,visual,4,[],"['1', '2', '3', '4']",1,2023.2.3,harveyvisual,2.1,[],8,0.75,
0,pause,0.4,None,None,None,0,267,267,267,,,,,,,,,,,,,D001,visual,4,[],"['1', '2', '3', '4']",1,2023.2.3,harveyvisual,2.1,[],8,0.75,
