num,mod,duration,shape,ll_cond,colors,.thisRepN,.thisTrialN,.thisN,.thisIndex,thisRow.t,notes,t_start,t_stop,shapes,size,pos,cond,color,match,answer_truth,RT,participant,session,starting_run,left button (match/odd),right button (non-match/even),samples_per_block,_thisDir,out_path,psychopy version,expName,win,MR_settings,routine_timer,background,offset,audio,number_runs,radius,fix_cross,defaultKeyboard,
1,dot,0.3,['dot'],['density'],black,0,0,0,0,,,2.1145219802856445,2.4144279956817627,dot,[0.06],"[0.46628601751002285, 0.12197617226191985]",density,black,,,,N007,visual,1,"['1', '2']","['3', '4']",1,/NOBACKUP2/USER/Jeong/experiment2,/NOBACKUP2/USER/Jeong/experiment2/logfiles/visual/N007_d-20240926,2023.2.3,harveyvisual,"Window(allowGUI=False, allowStencil=False, autoLog=True, backendConf=UNKNOWN, backgroundFit='cover', backgroundImage=None, bitsMode=UNKNOWN, blendMode='avg', bpc=(8, 8, 8), color=array([-1, -1, -1]), colorSpace='rgb', depthBits=8, fullscr=<method-wrapper '__getattribute__' of attributeSetter object at 0x7f46b5072580>, gamma=None, gammaErrorPolicy='raise', lms=UNKNOWN, monitor=<psychopy.monitors.calibTools.Monitor object at 0x7f46ae15adf0>, multiSample=False, name='stim_window', numSamples=2, pos=[0.0, 0.0], screen=0, size=array([1920, 1080]), stencilBits=0, stereo=False, title='PsychoPy', units='deg', useFBO=True, useRetina=False, viewOri=0.0, viewPos=None, viewScale=None, waitBlanking=True, winType='pyglet')","{'TR': 2.1, 'volumes': 5, 'sync': '5', 'skip': 0, 'sound': False}",<psychopy.clock.CountdownTimer object at 0x7f46ae137790>,"Rect(__class__=<class 'psychopy.visual.rect.Rect'>, anchor=('center', 'center'), autoDraw=True, autoLog=True, closeShape=True, color=method-wrapper(...), colorSpace='rgb', contrast=None, depth=0, draggable=False, fillColor=array([0.00392157, 0.00392157, 0.00392157]), fillColorSpace='rgb', fillRGB=array([0.00392157, 0.00392157, 0.00392157]), interpolate=True, lineColor=array([0., 0., 0.]), lineColorSpace='rgb', lineRGB=array([0, 0, 0]), lineWidth=1.5, name='unnamed Rect', opacity=0.5, ori=0.0, pos=array([0., 0.]), size=array([2., 2.]), units='norm', vertices=ndarray(...), win=Window(...))",2.1,[],8,0.75,"[<psychopy.visual.line.Line object at 0x7f469f06fb80>, <psychopy.visual.line.Line object at 0x7f469f074370>]",<psychopy.hardware.keyboard.Keyboard object at 0x7f46952ce6a0>,
0,pause,0.4,None,None,None,0,1,1,1,,,,,,,,,,,,,N007,visual,1,"['1', '2']","['3', '4']",1,/NOBACKUP2/USER/Jeong/experiment2,/NOBACKUP2/USER/Jeong/experiment2/logfiles/visual/N007_d-20240926,2023.2.3,harveyvisual,"Window(allowGUI=False, allowStencil=False, autoLog=True, backendConf=UNKNOWN, backgroundFit='cover', backgroundImage=None, bitsMode=UNKNOWN, blendMode='avg', bpc=(8, 8, 8), color=array([-1, -1, -1]), colorSpace='rgb', depthBits=8, fullscr=<method-wrapper '__getattribute__' of attributeSetter object at 0x7f46b5072580>, gamma=None, gammaErrorPolicy='raise', lms=UNKNOWN, monitor=<psychopy.monitors.calibTools.Monitor object at 0x7f46ae15adf0>, multiSample=False, name='stim_window', numSamples=2, pos=[0.0, 0.0], screen=0, size=array([1920, 1080]), stencilBits=0, stereo=False, title='PsychoPy', units='deg', useFBO=True, useRetina=False, viewOri=0.0, viewPos=None, viewScale=None, waitBlanking=True, winType='pyglet')","{'TR': 2.1, 'volumes': 5, 'sync': '5', 'skip': 0, 'sound': False}",<psychopy.clock.CountdownTimer object at 0x7f46ae137790>,"Rect(__class__=<class 'psychopy.visual.rect.Rect'>, anchor=('center', 'center'), autoDraw=True, autoLog=True, closeShape=True, color=method-wrapper(...), colorSpace='rgb', contrast=None, depth=0, draggable=False, fillColor=array([0.00392157, 0.00392157, 0.00392157]), fillColorSpace='rgb', fillRGB=array([0.00392157, 0.00392157, 0.00392157]), interpolate=True, lineColor=array([0., 0., 0.]), lineColorSpace='rgb', lineRGB=array([0, 0, 0]), lineWidth=1.5, name='unnamed Rect', opacity=0.5, ori=0.0, pos=array([0., 0.]), size=array([2., 2.]), units='norm', vertices=ndarray(...), win=Window(...))",2.1,[],8,0.75,"[<psychopy.visual.line.Line object at 0x7f469f06fb80>, <psychopy.visual.line.Line object at 0x7f469f074370>]",<psychopy.hardware.keyboard.Keyboard object at 0x7f46952ce6a0>,
1,dot,0.3,['dot'],['density'],black,0,2,2,2,,,2.8144400119781494,3.115302085876465,dot,[0.1],"[-0.06064478149429028, 0.10204082006191012]",density,black,true,correct,nan,N007,visual,1,"['1', '2']","['3', '4']",1,/NOBACKUP2/USER/Jeong/experiment2,/NOBACKUP2/USER/Jeong/experiment2/logfiles/visual/N007_d-20240926,2023.2.3,harveyvisual,"Window(allowGUI=False, allowStencil=False, autoLog=True, backendConf=UNKNOWN, backgroundFit='cover', backgroundImage=None, bitsMode=UNKNOWN, blendMode='avg', bpc=(8, 8, 8), color=array([-1, -1, -1]), colorSpace='rgb', depthBits=8, fullscr=<method-wrapper '__getattribute__' of attributeSetter object at 0x7f46b5072580>, gamma=None, gammaErrorPolicy='raise', lms=UNKNOWN, monitor=<psychopy.monitors.calibTools.Monitor object at 0x7f46ae15adf0>, multiSample=False, name='stim_window', numSamples=2, pos=[0.0, 0.0], screen=0, size=array([1920, 1080]), stencilBits=0, stereo=False, title='PsychoPy', units='deg', useFBO=True, useRetina=False, viewOri=0.0, viewPos=None, viewScale=None, waitBlanking=True, winType='pyglet')","{'TR': 2.1, 'volumes': 5, 'sync': '5', 'skip': 0, 'sound': False}",<psychopy.clock.CountdownTimer object at 0x7f46ae137790>,"Rect(__class__=<class 'psychopy.visual.rect.Rect'>, anchor=('center', 'center'), autoDraw=True, autoLog=True, closeShape=True, color=method-wrapper(...), colorSpace='rgb', contrast=None, depth=0, draggable=False, fillColor=array([0.00392157, 0.00392157, 0.00392157]), fillColorSpace='rgb', fillRGB=array([0.00392157, 0.00392157, 0.00392157]), interpolate=True, lineColor=array([0., 0., 0.]), lineColorSpace='rgb', lineRGB=array([0, 0, 0]), lineWidth=1.5, name='unnamed Rect', opacity=0.5, ori=0.0, pos=array([0., 0.]), size=array([2., 2.]), units='norm', vertices=ndarray(...), win=Window(...))",2.1,[],8,0.75,"[<psychopy.visual.line.Line object at 0x7f469f06fb80>, <psychopy.visual.line.Line object at 0x7f469f074370>]",<psychopy.hardware.keyboard.Keyboard object at 0x7f46952ce6a0>,
0,pause,0.4,None,None,None,0,3,3,3,,,,,,,,,,,,,N007,visual,1,"['1', '2']","['3', '4']",1,/NOBACKUP2/USER/Jeong/experiment2,/NOBACKUP2/USER/Jeong/experiment2/logfiles/visual/N007_d-20240926,2023.2.3,harveyvisual,"Window(allowGUI=False, allowStencil=False, autoLog=True, backendConf=UNKNOWN, backgroundFit='cover', backgroundImage=None, bitsMode=UNKNOWN, blendMode='avg', bpc=(8, 8, 8), color=array([-1, -1, -1]), colorSpace='rgb', depthBits=8, fullscr=<method-wrapper '__getattribute__' of attributeSetter object at 0x7f46b5072580>, gamma=None, gammaErrorPolicy='raise', lms=UNKNOWN, monitor=<psychopy.monitors.calibTools.Monitor object at 0x7f46ae15adf0>, multiSample=False, name='stim_window', numSamples=2, pos=[0.0, 0.0], screen=0, size=array([1920, 1080]), stencilBits=0, stereo=False, title='PsychoPy', units='deg', useFBO=True, useRetina=False, viewOri=0.0, viewPos=None, viewScale=None, waitBlanking=True, winType='pyglet')","{'TR': 2.1, 'volumes': 5, 'sync': '5', 'skip': 0, 'sound': False}",<psychopy.clock.CountdownTimer object at 0x7f46ae137790>,"Rect(__class__=<class 'psychopy.visual.rect.Rect'>, anchor=('center', 'center'), autoDraw=True, autoLog=True, closeShape=True, color=method-wrapper(...), colorSpace='rgb', contrast=None, depth=0, draggable=False, fillColor=array([0.00392157, 0.00392157, 0.00392157]), fillColorSpace='rgb', fillRGB=array([0.00392157, 0.00392157, 0.00392157]), interpolate=True, lineColor=array([0., 0., 0.]), lineColorSpace='rgb', lineRGB=array([0, 0, 0]), lineWidth=1.5, name='unnamed Rect', opacity=0.5, ori=0.0, pos=array([0., 0.]), size=array([2., 2.]), units='norm', vertices=ndarray(...), win=Window(...))",2.1,[],8,0.75,"[<psychopy.visual.line.Line object at 0x7f469f06fb80>, <psychopy.visual.line.Line object at 0x7f469f074370>]",<psychopy.hardware.keyboard.Keyboard object at 0x7f46952ce6a0>,
1,dot,0.3,['dot'],['density'],black,0,4,4,4,,,3.515294075012207,3.815322160720825,dot,[0.08],"[-0.4913090862596544, 0.31587628757091063]",density,black,true,correct,nan,N007,visual,1,"['1', '2']","['3', '4']",1,/NOBACKUP2/USER/Jeong/experiment2,/NOBACKUP2/USER/Jeong/experiment2/logfiles/visual/N007_d-20240926,2023.2.3,harveyvisual,"Window(allowGUI=False, allowStencil=False, autoLog=True, backendConf=UNKNOWN, backgroundFit='cover', backgroundImage=None, bitsMode=UNKNOWN, blendMode='avg', bpc=(8, 8, 8), color=array([-1, -1, -1]), colorSpace='rgb', depthBits=8, fullscr=<method-wrapper '__getattribute__' of attributeSetter object at 0x7f46b5072580>, gamma=None, gammaErrorPolicy='raise', lms=UNKNOWN, monitor=<psychopy.monitors.calibTools.Monitor object at 0x7f46ae15adf0>, multiSample=False, name='stim_window', numSamples=2, pos=[0.0, 0.0], screen=0, size=array([1920, 1080]), stencilBits=0, stereo=False, title='PsychoPy', units='deg', useFBO=True, useRetina=False, viewOri=0.0, viewPos=None, viewScale=None, waitBlanking=True, winType='pyglet')","{'TR': 2.1, 'volumes': 5, 'sync': '5', 'skip': 0, 'sound': False}",<psychopy.clock.CountdownTimer object at 0x7f46ae137790>,"Rect(__class__=<class 'psychopy.visual.rect.Rect'>, anchor=('center', 'center'), autoDraw=True, autoLog=True, closeShape=True, color=method-wrapper(...), colorSpace='rgb', contrast=None, depth=0, draggable=False, fillColor=array([0.00392157, 0.00392157, 0.00392157]), fillColorSpace='rgb', fillRGB=array([0.00392157, 0.00392157, 0.00392157]), interpolate=True, lineColor=array([0., 0., 0.]), lineColorSpace='rgb', lineRGB=array([0, 0, 0]), lineWidth=1.5, name='unnamed Rect', opacity=0.5, ori=0.0, pos=array([0., 0.]), size=array([2., 2.]), units='norm', vertices=ndarray(...), win=Window(...))",2.1,[],8,0.75,"[<psychopy.visual.line.Line object at 0x7f469f06fb80>, <psychopy.visual.line.Line object at 0x7f469f074370>]",<psychopy.hardware.keyboard.Keyboard object at 0x7f46952ce6a0>,
0,pause,0.4,None,None,None,0,5,5,5,,,,,,,,,,,,,N007,visual,1,"['1', '2']","['3', '4']",1,/NOBACKUP2/USER/Jeong/experiment2,/NOBACKUP2/USER/Jeong/experiment2/logfiles/visual/N007_d-20240926,2023.2.3,harveyvisual,"Window(allowGUI=False, allowStencil=False, autoLog=True, backendConf=UNKNOWN, backgroundFit='cover', backgroundImage=None, bitsMode=UNKNOWN, blendMode='avg', bpc=(8, 8, 8), color=array([-1, -1, -1]), colorSpace='rgb', depthBits=8, fullscr=<method-wrapper '__getattribute__' of attributeSetter object at 0x7f46b5072580>, gamma=None, gammaErrorPolicy='raise', lms=UNKNOWN, monitor=<psychopy.monitors.calibTools.Monitor object at 0x7f46ae15adf0>, multiSample=False, name='stim_window', numSamples=2, pos=[0.0, 0.0], screen=0, size=array([1920, 1080]), stencilBits=0, stereo=False, title='PsychoPy', units='deg', useFBO=True, useRetina=False, viewOri=0.0, viewPos=None, viewScale=None, waitBlanking=True, winType='pyglet')","{'TR': 2.1, 'volumes': 5, 'sync': '5', 'skip': 0, 'sound': False}",<psychopy.clock.CountdownTimer object at 0x7f46ae137790>,"Rect(__class__=<class 'psychopy.visual.rect.Rect'>, anchor=('center', 'center'), autoDraw=True, autoLog=True, closeShape=True, color=method-wrapper(...), colorSpace='rgb', contrast=None, depth=0, draggable=False, fillColor=array([0.00392157, 0.00392157, 0.00392157]), fillColorSpace='rgb', fillRGB=array([0.00392157, 0.00392157, 0.00392157]), interpolate=True, lineColor=array([0., 0., 0.]), lineColorSpace='rgb', lineRGB=array([0, 0, 0]), lineWidth=1.5, name='unnamed Rect', opacity=0.5, ori=0.0, pos=array([0., 0.]), size=array([2., 2.]), units='norm', vertices=ndarray(...), win=Window(...))",2.1,[],8,0.75,"[<psychopy.visual.line.Line object at 0x7f469f06fb80>, <psychopy.visual.line.Line object at 0x7f469f074370>]",<psychopy.hardware.keyboard.Keyboard object at 0x7f46952ce6a0>,
1,dot,0.3,['dot'],['density'],black,0,6,6,6,,,4.215260982513428,4.515332937240601,dot,[0.08],"[0.00661777001411412, 0.39634766145863237]",density,black,true,correct,nan,N007,visual,1,"['1', '2']","['3', '4']",1,/NOBACKUP2/USER/Jeong/experiment2,/NOBACKUP2/USER/Jeong/experiment2/logfiles/visual/N007_d-20240926,2023.2.3,harveyvisual,"Window(allowGUI=False, allowStencil=False, autoLog=True, backendConf=UNKNOWN, backgroundFit='cover', backgroundImage=None, bitsMode=UNKNOWN, blendMode='avg', bpc=(8, 8, 8), color=array([-1, -1, -1]), colorSpace='rgb', depthBits=8, fullscr=<method-wrapper '__getattribute__' of attributeSetter object at 0x7f46b5072580>, gamma=None, gammaErrorPolicy='raise', lms=UNKNOWN, monitor=<psychopy.monitors.calibTools.Monitor object at 0x7f46ae15adf0>, multiSample=False, name='stim_window', numSamples=2, pos=[0.0, 0.0], screen=0, size=array([1920, 1080]), stencilBits=0, stereo=False, title='PsychoPy', units='deg', useFBO=True, useRetina=False, viewOri=0.0, viewPos=None, viewScale=None, waitBlanking=True, winType='pyglet')","{'TR': 2.1, 'volumes': 5, 'sync': '5', 'skip': 0, 'sound': False}",<psychopy.clock.CountdownTimer object at 0x7f46ae137790>,"Rect(__class__=<class 'psychopy.visual.rect.Rect'>, anchor=('center', 'center'), autoDraw=True, autoLog=True, closeShape=True, color=method-wrapper(...), colorSpace='rgb', contrast=None, depth=0, draggable=False, fillColor=array([0.00392157, 0.00392157, 0.00392157]), fillColorSpace='rgb', fillRGB=array([0.00392157, 0.00392157, 0.00392157]), interpolate=True, lineColor=array([0., 0., 0.]), lineColorSpace='rgb', lineRGB=array([0, 0, 0]), lineWidth=1.5, name='unnamed Rect', opacity=0.5, ori=0.0, pos=array([0., 0.]), size=array([2., 2.]), units='norm', vertices=ndarray(...), win=Window(...))",2.1,[],8,0.75,"[<psychopy.visual.line.Line object at 0x7f469f06fb80>, <psychopy.visual.line.Line object at 0x7f469f074370>]",<psychopy.hardware.keyboard.Keyboard object at 0x7f46952ce6a0>,
0,pause,0.4,None,None,None,0,7,7,7,,,,,,,,,,,,,N007,visual,1,"['1', '2']","['3', '4']",1,/NOBACKUP2/USER/Jeong/experiment2,/NOBACKUP2/USER/Jeong/experiment2/logfiles/visual/N007_d-20240926,2023.2.3,harveyvisual,"Window(allowGUI=False, allowStencil=False, autoLog=True, backendConf=UNKNOWN, backgroundFit='cover', backgroundImage=None, bitsMode=UNKNOWN, blendMode='avg', bpc=(8, 8, 8), color=array([-1, -1, -1]), colorSpace='rgb', depthBits=8, fullscr=<method-wrapper '__getattribute__' of attributeSetter object at 0x7f46b5072580>, gamma=None, gammaErrorPolicy='raise', lms=UNKNOWN, monitor=<psychopy.monitors.calibTools.Monitor object at 0x7f46ae15adf0>, multiSample=False, name='stim_window', numSamples=2, pos=[0.0, 0.0], screen=0, size=array([1920, 1080]), stencilBits=0, stereo=False, title='PsychoPy', units='deg', useFBO=True, useRetina=False, viewOri=0.0, viewPos=None, viewScale=None, waitBlanking=True, winType='pyglet')","{'TR': 2.1, 'volumes': 5, 'sync': '5', 'skip': 0, 'sound': False}",<psychopy.clock.CountdownTimer object at 0x7f46ae137790>,"Rect(__class__=<class 'psychopy.visual.rect.Rect'>, anchor=('center', 'center'), autoDraw=True, autoLog=True, closeShape=True, color=method-wrapper(...), colorSpace='rgb', contrast=None, depth=0, draggable=False, fillColor=array([0.00392157, 0.00392157, 0.00392157]), fillColorSpace='rgb', fillRGB=array([0.00392157, 0.00392157, 0.00392157]), interpolate=True, lineColor=array([0., 0., 0.]), lineColorSpace='rgb', lineRGB=array([0, 0, 0]), lineWidth=1.5, name='unnamed Rect', opacity=0.5, ori=0.0, pos=array([0., 0.]), size=array([2., 2.]), units='norm', vertices=ndarray(...), win=Window(...))",2.1,[],8,0.75,"[<psychopy.visual.line.Line object at 0x7f469f06fb80>, <psychopy.visual.line.Line object at 0x7f469f074370>]",<psychopy.hardware.keyboard.Keyboard object at 0x7f46952ce6a0>,
1,dot,0.3,['dot'],['density'],black,0,8,8,8,,,4.915236949920654,5.215255975723267,dot,[0.1],"[0.19623115665255414, 0.1676894875529279]",density,black,true,correct,nan,N007,visual,1,"['1', '2']","['3', '4']",1,/NOBACKUP2/USER/Jeong/experiment2,/NOBACKUP2/USER/Jeong/experiment2/logfiles/visual/N007_d-20240926,2023.2.3,harveyvisual,"Window(allowGUI=False, allowStencil=False, autoLog=True, backendConf=UNKNOWN, backgroundFit='cover', backgroundImage=None, bitsMode=UNKNOWN, blendMode='avg', bpc=(8, 8, 8), color=array([-1, -1, -1]), colorSpace='rgb', depthBits=8, fullscr=<method-wrapper '__getattribute__' of attributeSetter object at 0x7f46b5072580>, gamma=None, gammaErrorPolicy='raise', lms=UNKNOWN, monitor=<psychopy.monitors.calibTools.Monitor object at 0x7f46ae15adf0>, multiSample=False, name='stim_window', numSamples=2, pos=[0.0, 0.0], screen=0, size=array([1920, 1080]), stencilBits=0, stereo=False, title='PsychoPy', units='deg', useFBO=True, useRetina=False, viewOri=0.0, viewPos=None, viewScale=None, waitBlanking=True, winType='pyglet')","{'TR': 2.1, 'volumes': 5, 'sync': '5', 'skip': 0, 'sound': False}",<psychopy.clock.CountdownTimer object at 0x7f46ae137790>,"Rect(__class__=<class 'psychopy.visual.rect.Rect'>, anchor=('center', 'center'), autoDraw=True, autoLog=True, closeShape=True, color=method-wrapper(...), colorSpace='rgb', contrast=None, depth=0, draggable=False, fillColor=array([0.00392157, 0.00392157, 0.00392157]), fillColorSpace='rgb', fillRGB=array([0.00392157, 0.00392157, 0.00392157]), interpolate=True, lineColor=array([0., 0., 0.]), lineColorSpace='rgb', lineRGB=array([0, 0, 0]), lineWidth=1.5, name='unnamed Rect', opacity=0.5, ori=0.0, pos=array([0., 0.]), size=array([2., 2.]), units='norm', vertices=ndarray(...), win=Window(...))",2.1,[],8,0.75,"[<psychopy.visual.line.Line object at 0x7f469f06fb80>, <psychopy.visual.line.Line object at 0x7f469f074370>]",<psychopy.hardware.keyboard.Keyboard object at 0x7f46952ce6a0>,
0,pause,0.4,None,None,None,0,9,9,9,,,,,,,,,,,,,N007,visual,1,"['1', '2']","['3', '4']",1,/NOBACKUP2/USER/Jeong/experiment2,/NOBACKUP2/USER/Jeong/experiment2/logfiles/visual/N007_d-20240926,2023.2.3,harveyvisual,"Window(allowGUI=False, allowStencil=False, autoLog=True, backendConf=UNKNOWN, backgroundFit='cover', backgroundImage=None, bitsMode=UNKNOWN, blendMode='avg', bpc=(8, 8, 8), color=array([-1, -1, -1]), colorSpace='rgb', depthBits=8, fullscr=<method-wrapper '__getattribute__' of attributeSetter object at 0x7f46b5072580>, gamma=None, gammaErrorPolicy='raise', lms=UNKNOWN, monitor=<psychopy.monitors.calibTools.Monitor object at 0x7f46ae15adf0>, multiSample=False, name='stim_window', numSamples=2, pos=[0.0, 0.0], screen=0, size=array([1920, 1080]), stencilBits=0, stereo=False, title='PsychoPy', units='deg', useFBO=True, useRetina=False, viewOri=0.0, viewPos=None, viewScale=None, waitBlanking=True, winType='pyglet')","{'TR': 2.1, 'volumes': 5, 'sync': '5', 'skip': 0, 'sound': False}",<psychopy.clock.CountdownTimer object at 0x7f46ae137790>,"Rect(__class__=<class 'psychopy.visual.rect.Rect'>, anchor=('center', 'center'), autoDraw=True, autoLog=True, closeShape=True, color=method-wrapper(...), colorSpace='rgb', contrast=None, depth=0, draggable=False, fillColor=array([0.00392157, 0.00392157, 0.00392157]), fillColorSpace='rgb', fillRGB=array([0.00392157, 0.00392157, 0.00392157]), interpolate=True, lineColor=array([0., 0., 0.]), lineColorSpace='rgb', lineRGB=array([0, 0, 0]), lineWidth=1.5, name='unnamed Rect', opacity=0.5, ori=0.0, pos=array([0., 0.]), size=array([2., 2.]), units='norm', vertices=ndarray(...), win=Window(...))",2.1,[],8,0.75,"[<psychopy.visual.line.Line object at 0x7f469f06fb80>, <psychopy.visual.line.Line object at 0x7f469f074370>]",<psychopy.hardware.keyboard.Keyboard object at 0x7f46952ce6a0>,
1,dot,0.3,['dot'],['density'],white,0,10,10,10,,,5.619586944580078,5.9171881675720215,dot,[0.08],"[0.01430498756481247, 0.36429701967127975]",density,white,true,correct,nan,N007,visual,1,"['1', '2']","['3', '4']",1,/NOBACKUP2/USER/Jeong/experiment2,/NOBACKUP2/USER/Jeong/experiment2/logfiles/visual/N007_d-20240926,2023.2.3,harveyvisual,"Window(allowGUI=False, allowStencil=False, autoLog=True, backendConf=UNKNOWN, backgroundFit='cover', backgroundImage=None, bitsMode=UNKNOWN, blendMode='avg', bpc=(8, 8, 8), color=array([-1, -1, -1]), colorSpace='rgb', depthBits=8, fullscr=<method-wrapper '__getattribute__' of attributeSetter object at 0x7f46b5072580>, gamma=None, gammaErrorPolicy='raise', lms=UNKNOWN, monitor=<psychopy.monitors.calibTools.Monitor object at 0x7f46ae15adf0>, multiSample=False, name='stim_window', numSamples=2, pos=[0.0, 0.0], screen=0, size=array([1920, 1080]), stencilBits=0, stereo=False, title='PsychoPy', units='deg', useFBO=True, useRetina=False, viewOri=0.0, viewPos=None, viewScale=None, waitBlanking=True, winType='pyglet')","{'TR': 2.1, 'volumes': 5, 'sync': '5', 'skip': 0, 'sound': False}",<psychopy.clock.CountdownTimer object at 0x7f46ae137790>,"Rect(__class__=<class 'psychopy.visual.rect.Rect'>, anchor=('center', 'center'), autoDraw=True, autoLog=True, closeShape=True, color=method-wrapper(...), colorSpace='rgb', contrast=None, depth=0, draggable=False, fillColor=array([0.00392157, 0.00392157, 0.00392157]), fillColorSpace='rgb', fillRGB=array([0.00392157, 0.00392157, 0.00392157]), interpolate=True, lineColor=array([0., 0., 0.]), lineColorSpace='rgb', lineRGB=array([0, 0, 0]), lineWidth=1.5, name='unnamed Rect', opacity=0.5, ori=0.0, pos=array([0., 0.]), size=array([2., 2.]), units='norm', vertices=ndarray(...), win=Window(...))",2.1,[],8,0.75,"[<psychopy.visual.line.Line object at 0x7f469f06fb80>, <psychopy.visual.line.Line object at 0x7f469f074370>]",<psychopy.hardware.keyboard.Keyboard object at 0x7f46952ce6a0>,
0,pause,0.4,None,None,None,0,11,11,11,,,,,,,,,,,,,N007,visual,1,"['1', '2']","['3', '4']",1,/NOBACKUP2/USER/Jeong/experiment2,/NOBACKUP2/USER/Jeong/experiment2/logfiles/visual/N007_d-20240926,2023.2.3,harveyvisual,"Window(allowGUI=False, allowStencil=False, autoLog=True, backendConf=UNKNOWN, backgroundFit='cover', backgroundImage=None, bitsMode=UNKNOWN, blendMode='avg', bpc=(8, 8, 8), color=array([-1, -1, -1]), colorSpace='rgb', depthBits=8, fullscr=<method-wrapper '__getattribute__' of attributeSetter object at 0x7f46b5072580>, gamma=None, gammaErrorPolicy='raise', lms=UNKNOWN, monitor=<psychopy.monitors.calibTools.Monitor object at 0x7f46ae15adf0>, multiSample=False, name='stim_window', numSamples=2, pos=[0.0, 0.0], screen=0, size=array([1920, 1080]), stencilBits=0, stereo=False, title='PsychoPy', units='deg', useFBO=True, useRetina=False, viewOri=0.0, viewPos=None, viewScale=None, waitBlanking=True, winType='pyglet')","{'TR': 2.1, 'volumes': 5, 'sync': '5', 'skip': 0, 'sound': False}",<psychopy.clock.CountdownTimer object at 0x7f46ae137790>,"Rect(__class__=<class 'psychopy.visual.rect.Rect'>, anchor=('center', 'center'), autoDraw=True, autoLog=True, closeShape=True, color=method-wrapper(...), colorSpace='rgb', contrast=None, depth=0, draggable=False, fillColor=array([0.00392157, 0.00392157, 0.00392157]), fillColorSpace='rgb', fillRGB=array([0.00392157, 0.00392157, 0.00392157]), interpolate=True, lineColor=array([0., 0., 0.]), lineColorSpace='rgb', lineRGB=array([0, 0, 0]), lineWidth=1.5, name='unnamed Rect', opacity=0.5, ori=0.0, pos=array([0., 0.]), size=array([2., 2.]), units='norm', vertices=ndarray(...), win=Window(...))",2.1,[],8,0.75,"[<psychopy.visual.line.Line object at 0x7f469f06fb80>, <psychopy.visual.line.Line object at 0x7f469f074370>]",<psychopy.hardware.keyboard.Keyboard object at 0x7f46952ce6a0>,
2,dot,0.3,['dot'],['density'],black,0,12,12,12,,,6.31742000579834,6.617300987243652,dot,"[0.08, 0.08]","[[0.29932439847351855, -0.2783039550742582], [0.14276117392638485, -0.15345139110726028]]",density,black,false,wrong,nan,N007,visual,1,"['1', '2']","['3', '4']",1,/NOBACKUP2/USER/Jeong/experiment2,/NOBACKUP2/USER/Jeong/experiment2/logfiles/visual/N007_d-20240926,2023.2.3,harveyvisual,"Window(allowGUI=False, allowStencil=False, autoLog=True, backendConf=UNKNOWN, backgroundFit='cover', backgroundImage=None, bitsMode=UNKNOWN, blendMode='avg', bpc=(8, 8, 8), color=array([-1, -1, -1]), colorSpace='rgb', depthBits=8, fullscr=<method-wrapper '__getattribute__' of attributeSetter object at 0x7f46b5072580>, gamma=None, gammaErrorPolicy='raise', lms=UNKNOWN, monitor=<psychopy.monitors.calibTools.Monitor object at 0x7f46ae15adf0>, multiSample=False, name='stim_window', numSamples=2, pos=[0.0, 0.0], screen=0, size=array([1920, 1080]), stencilBits=0, stereo=False, title='PsychoPy', units='deg', useFBO=True, useRetina=False, viewOri=0.0, viewPos=None, viewScale=None, waitBlanking=True, winType='pyglet')","{'TR': 2.1, 'volumes': 5, 'sync': '5', 'skip': 0, 'sound': False}",<psychopy.clock.CountdownTimer object at 0x7f46ae137790>,"Rect(__class__=<class 'psychopy.visual.rect.Rect'>, anchor=('center', 'center'), autoDraw=True, autoLog=True, closeShape=True, color=method-wrapper(...), colorSpace='rgb', contrast=None, depth=0, draggable=False, fillColor=array([0.00392157, 0.00392157, 0.00392157]), fillColorSpace='rgb', fillRGB=array([0.00392157, 0.00392157, 0.00392157]), interpolate=True, lineColor=array([0., 0., 0.]), lineColorSpace='rgb', lineRGB=array([0, 0, 0]), lineWidth=1.5, name='unnamed Rect', opacity=0.5, ori=0.0, pos=array([0., 0.]), size=array([2., 2.]), units='norm', vertices=ndarray(...), win=Window(...))",2.1,[],8,0.75,"[<psychopy.visual.line.Line object at 0x7f469f06fb80>, <psychopy.visual.line.Line object at 0x7f469f074370>]",<psychopy.hardware.keyboard.Keyboard object at 0x7f46952ce6a0>,
0,pause,0.4,None,None,None,0,13,13,13,,,,,,,,,,,,,N007,visual,1,"['1', '2']","['3', '4']",1,/NOBACKUP2/USER/Jeong/experiment2,/NOBACKUP2/USER/Jeong/experiment2/logfiles/visual/N007_d-20240926,2023.2.3,harveyvisual,"Window(allowGUI=False, allowStencil=False, autoLog=True, backendConf=UNKNOWN, backgroundFit='cover', backgroundImage=None, bitsMode=UNKNOWN, blendMode='avg', bpc=(8, 8, 8), color=array([-1, -1, -1]), colorSpace='rgb', depthBits=8, fullscr=<method-wrapper '__getattribute__' of attributeSetter object at 0x7f46b5072580>, gamma=None, gammaErrorPolicy='raise', lms=UNKNOWN, monitor=<psychopy.monitors.calibTools.Monitor object at 0x7f46ae15adf0>, multiSample=False, name='stim_window', numSamples=2, pos=[0.0, 0.0], screen=0, size=array([1920, 1080]), stencilBits=0, stereo=False, title='PsychoPy', units='deg', useFBO=True, useRetina=False, viewOri=0.0, viewPos=None, viewScale=None, waitBlanking=True, winType='pyglet')","{'TR': 2.1, 'volumes': 5, 'sync': '5', 'skip': 0, 'sound': False}",<psychopy.clock.CountdownTimer object at 0x7f46ae137790>,"Rect(__class__=<class 'psychopy.visual.rect.Rect'>, anchor=('center', 'center'), autoDraw=True, autoLog=True, closeShape=True, color=method-wrapper(...), colorSpace='rgb', contrast=None, depth=0, draggable=False, fillColor=array([0.00392157, 0.00392157, 0.00392157]), fillColorSpace='rgb', fillRGB=array([0.00392157, 0.00392157, 0.00392157]), interpolate=True, lineColor=array([0., 0., 0.]), lineColorSpace='rgb', lineRGB=array([0, 0, 0]), lineWidth=1.5, name='unnamed Rect', opacity=0.5, ori=0.0, pos=array([0., 0.]), size=array([2., 2.]), units='norm', vertices=ndarray(...), win=Window(...))",2.1,[],8,0.75,"[<psychopy.visual.line.Line object at 0x7f469f06fb80>, <psychopy.visual.line.Line object at 0x7f469f074370>]",<psychopy.hardware.keyboard.Keyboard object at 0x7f46952ce6a0>,
2,dot,0.3,['dot'],['density'],black,0,14,14,14,,,7.0171520709991455,7.317270040512085,dot,"[0.08, 0.1]","[[0.19540278997321237, -0.319457995891214], [0.34462774624387493, -0.4544903302695001]]",density,black,true,correct,nan,N007,visual,1,"['1', '2']","['3', '4']",1,/NOBACKUP2/USER/Jeong/experiment2,/NOBACKUP2/USER/Jeong/experiment2/logfiles/visual/N007_d-20240926,2023.2.3,harveyvisual,"Window(allowGUI=False, allowStencil=False, autoLog=True, backendConf=UNKNOWN, backgroundFit='cover', backgroundImage=None, bitsMode=UNKNOWN, blendMode='avg', bpc=(8, 8, 8), color=array([-1, -1, -1]), colorSpace='rgb', depthBits=8, fullscr=<method-wrapper '__getattribute__' of attributeSetter object at 0x7f46b5072580>, gamma=None, gammaErrorPolicy='raise', lms=UNKNOWN, monitor=<psychopy.monitors.calibTools.Monitor object at 0x7f46ae15adf0>, multiSample=False, name='stim_window', numSamples=2, pos=[0.0, 0.0], screen=0, size=array([1920, 1080]), stencilBits=0, stereo=False, title='PsychoPy', units='deg', useFBO=True, useRetina=False, viewOri=0.0, viewPos=None, viewScale=None, waitBlanking=True, winType='pyglet')","{'TR': 2.1, 'volumes': 5, 'sync': '5', 'skip': 0, 'sound': False}",<psychopy.clock.CountdownTimer object at 0x7f46ae137790>,"Rect(__class__=<class 'psychopy.visual.rect.Rect'>, anchor=('center', 'center'), autoDraw=True, autoLog=True, closeShape=True, color=method-wrapper(...), colorSpace='rgb', contrast=None, depth=0, draggable=False, fillColor=array([0.00392157, 0.00392157, 0.00392157]), fillColorSpace='rgb', fillRGB=array([0.00392157, 0.00392157, 0.00392157]), interpolate=True, lineColor=array([0., 0., 0.]), lineColorSpace='rgb', lineRGB=array([0, 0, 0]), lineWidth=1.5, name='unnamed Rect', opacity=0.5, ori=0.0, pos=array([0., 0.]), size=array([2., 2.]), units='norm', vertices=ndarray(...), win=Window(...))",2.1,[],8,0.75,"[<psychopy.visual.line.Line object at 0x7f469f06fb80>, <psychopy.visual.line.Line object at 0x7f469f074370>]",<psychopy.hardware.keyboard.Keyboard object at 0x7f46952ce6a0>,
0,pause,0.4,None,None,None,0,15,15,15,,,,,,,,,,,,,N007,visual,1,"['1', '2']","['3', '4']",1,/NOBACKUP2/USER/Jeong/experiment2,/NOBACKUP2/USER/Jeong/experiment2/logfiles/visual/N007_d-20240926,2023.2.3,harveyvisual,"Window(allowGUI=False, allowStencil=False, autoLog=True, backendConf=UNKNOWN, backgroundFit='cover', backgroundImage=None, bitsMode=UNKNOWN, blendMode='avg', bpc=(8, 8, 8), color=array([-1, -1, -1]), colorSpace='rgb', depthBits=8, fullscr=<method-wrapper '__getattribute__' of attributeSetter object at 0x7f46b5072580>, gamma=None, gammaErrorPolicy='raise', lms=UNKNOWN, monitor=<psychopy.monitors.calibTools.Monitor object at 0x7f46ae15adf0>, multiSample=False, name='stim_window', numSamples=2, pos=[0.0, 0.0], screen=0, size=array([1920, 1080]), stencilBits=0, stereo=False, title='PsychoPy', units='deg', useFBO=True, useRetina=False, viewOri=0.0, viewPos=None, viewScale=None, waitBlanking=True, winType='pyglet')","{'TR': 2.1, 'volumes': 5, 'sync': '5', 'skip': 0, 'sound': False}",<psychopy.clock.CountdownTimer object at 0x7f46ae137790>,"Rect(__class__=<class 'psychopy.visual.rect.Rect'>, anchor=('center', 'center'), autoDraw=True, autoLog=True, closeShape=True, color=method-wrapper(...), colorSpace='rgb', contrast=None, depth=0, draggable=False, fillColor=array([0.00392157, 0.00392157, 0.00392157]), fillColorSpace='rgb', fillRGB=array([0.00392157, 0.00392157, 0.00392157]), interpolate=True, lineColor=array([0., 0., 0.]), lineColorSpace='rgb', lineRGB=array([0, 0, 0]), lineWidth=1.5, name='unnamed Rect', opacity=0.5, ori=0.0, pos=array([0., 0.]), size=array([2., 2.]), units='norm', vertices=ndarray(...), win=Window(...))",2.1,[],8,0.75,"[<psychopy.visual.line.Line object at 0x7f469f06fb80>, <psychopy.visual.line.Line object at 0x7f469f074370>]",<psychopy.hardware.keyboard.Keyboard object at 0x7f46952ce6a0>,
2,dot,0.3,['dot'],['density'],black,0,16,16,16,,,7.717275142669678,8.0172700881958,dot,"[0.08, 0.1]","[[0.11437717294043931, -0.408092871188616], [0.012734947149558614, -0.23578585574018435]]",density,black,true,correct,nan,N007,visual,1,"['1', '2']","['3', '4']",1,/NOBACKUP2/USER/Jeong/experiment2,/NOBACKUP2/USER/Jeong/experiment2/logfiles/visual/N007_d-20240926,2023.2.3,harveyvisual,"Window(allowGUI=False, allowStencil=False, autoLog=True, backendConf=UNKNOWN, backgroundFit='cover', backgroundImage=None, bitsMode=UNKNOWN, blendMode='avg', bpc=(8, 8, 8), color=array([-1, -1, -1]), colorSpace='rgb', depthBits=8, fullscr=<method-wrapper '__getattribute__' of attributeSetter object at 0x7f46b5072580>, gamma=None, gammaErrorPolicy='raise', lms=UNKNOWN, monitor=<psychopy.monitors.calibTools.Monitor object at 0x7f46ae15adf0>, multiSample=False, name='stim_window', numSamples=2, pos=[0.0, 0.0], screen=0, size=array([1920, 1080]), stencilBits=0, stereo=False, title='PsychoPy', units='deg', useFBO=True, useRetina=False, viewOri=0.0, viewPos=None, viewScale=None, waitBlanking=True, winType='pyglet')","{'TR': 2.1, 'volumes': 5, 'sync': '5', 'skip': 0, 'sound': False}",<psychopy.clock.CountdownTimer object at 0x7f46ae137790>,"Rect(__class__=<class 'psychopy.visual.rect.Rect'>, anchor=('center', 'center'), autoDraw=True, autoLog=True, closeShape=True, color=method-wrapper(...), colorSpace='rgb', contrast=None, depth=0, draggable=False, fillColor=array([0.00392157, 0.00392157, 0.00392157]), fillColorSpace='rgb', fillRGB=array([0.00392157, 0.00392157, 0.00392157]), interpolate=True, lineColor=array([0., 0., 0.]), lineColorSpace='rgb', lineRGB=array([0, 0, 0]), lineWidth=1.5, name='unnamed Rect', opacity=0.5, ori=0.0, pos=array([0., 0.]), size=array([2., 2.]), units='norm', vertices=ndarray(...), win=Window(...))",2.1,[],8,0.75,"[<psychopy.visual.line.Line object at 0x7f469f06fb80>, <psychopy.visual.line.Line object at 0x7f469f074370>]",<psychopy.hardware.keyboard.Keyboard object at 0x7f46952ce6a0>,
0,pause,0.4,None,None,None,0,17,17,17,,,,,,,,,,,,,N007,visual,1,"['1', '2']","['3', '4']",1,/NOBACKUP2/USER/Jeong/experiment2,/NOBACKUP2/USER/Jeong/experiment2/logfiles/visual/N007_d-20240926,2023.2.3,harveyvisual,"Window(allowGUI=False, allowStencil=False, autoLog=True, backendConf=UNKNOWN, backgroundFit='cover', backgroundImage=None, bitsMode=UNKNOWN, blendMode='avg', bpc=(8, 8, 8), color=array([-1, -1, -1]), colorSpace='rgb', depthBits=8, fullscr=<method-wrapper '__getattribute__' of attributeSetter object at 0x7f46b5072580>, gamma=None, gammaErrorPolicy='raise', lms=UNKNOWN, monitor=<psychopy.monitors.calibTools.Monitor object at 0x7f46ae15adf0>, multiSample=False, name='stim_window', numSamples=2, pos=[0.0, 0.0], screen=0, size=array([1920, 1080]), stencilBits=0, stereo=False, title='PsychoPy', units='deg', useFBO=True, useRetina=False, viewOri=0.0, viewPos=None, viewScale=None, waitBlanking=True, winType='pyglet')","{'TR': 2.1, 'volumes': 5, 'sync': '5', 'skip': 0, 'sound': False}",<psychopy.clock.CountdownTimer object at 0x7f46ae137790>,"Rect(__class__=<class 'psychopy.visual.rect.Rect'>, anchor=('center', 'center'), autoDraw=True, autoLog=True, closeShape=True, color=method-wrapper(...), colorSpace='rgb', contrast=None, depth=0, draggable=False, fillColor=array([0.00392157, 0.00392157, 0.00392157]), fillColorSpace='rgb', fillRGB=array([0.00392157, 0.00392157, 0.00392157]), interpolate=True, lineColor=array([0., 0., 0.]), lineColorSpace='rgb', lineRGB=array([0, 0, 0]), lineWidth=1.5, name='unnamed Rect', opacity=0.5, ori=0.0, pos=array([0., 0.]), size=array([2., 2.]), units='norm', vertices=ndarray(...), win=Window(...))",2.1,[],8,0.75,"[<psychopy.visual.line.Line object at 0x7f469f06fb80>, <psychopy.visual.line.Line object at 0x7f469f074370>]",<psychopy.hardware.keyboard.Keyboard object at 0x7f46952ce6a0>,
2,dot,0.3,['dot'],['density'],white,0,18,18,18,,,8.417093992233276,8.717113971710205,dot,"[0.08, 0.06]","[[-0.2277318593301165, -0.35289300204507235], [-0.09400723608355734, -0.20388512549033708]]",density,white,true,correct,nan,N007,visual,1,"['1', '2']","['3', '4']",1,/NOBACKUP2/USER/Jeong/experiment2,/NOBACKUP2/USER/Jeong/experiment2/logfiles/visual/N007_d-20240926,2023.2.3,harveyvisual,"Window(allowGUI=False, allowStencil=False, autoLog=True, backendConf=UNKNOWN, backgroundFit='cover', backgroundImage=None, bitsMode=UNKNOWN, blendMode='avg', bpc=(8, 8, 8), color=array([-1, -1, -1]), colorSpace='rgb', depthBits=8, fullscr=<method-wrapper '__getattribute__' of attributeSetter object at 0x7f46b5072580>, gamma=None, gammaErrorPolicy='raise', lms=UNKNOWN, monitor=<psychopy.monitors.calibTools.Monitor object at 0x7f46ae15adf0>, multiSample=False, name='stim_window', numSamples=2, pos=[0.0, 0.0], screen=0, size=array([1920, 1080]), stencilBits=0, stereo=False, title='PsychoPy', units='deg', useFBO=True, useRetina=False, viewOri=0.0, viewPos=None, viewScale=None, waitBlanking=True, winType='pyglet')","{'TR': 2.1, 'volumes': 5, 'sync': '5', 'skip': 0, 'sound': False}",<psychopy.clock.CountdownTimer object at 0x7f46ae137790>,"Rect(__class__=<class 'psychopy.visual.rect.Rect'>, anchor=('center', 'center'), autoDraw=True, autoLog=True, closeShape=True, color=method-wrapper(...), colorSpace='rgb', contrast=None, depth=0, draggable=False, fillColor=array([0.00392157, 0.00392157, 0.00392157]), fillColorSpace='rgb', fillRGB=array([0.00392157, 0.00392157, 0.00392157]), interpolate=True, lineColor=array([0., 0., 0.]), lineColorSpace='rgb', lineRGB=array([0, 0, 0]), lineWidth=1.5, name='unnamed Rect', opacity=0.5, ori=0.0, pos=array([0., 0.]), size=array([2., 2.]), units='norm', vertices=ndarray(...), win=Window(...))",2.1,[],8,0.75,"[<psychopy.visual.line.Line object at 0x7f469f06fb80>, <psychopy.visual.line.Line object at 0x7f469f074370>]",<psychopy.hardware.keyboard.Keyboard object at 0x7f46952ce6a0>,
0,pause,0.4,None,None,None,0,19,19,19,,,,,,,,,,,,,N007,visual,1,"['1', '2']","['3', '4']",1,/NOBACKUP2/USER/Jeong/experiment2,/NOBACKUP2/USER/Jeong/experiment2/logfiles/visual/N007_d-20240926,2023.2.3,harveyvisual,"Window(allowGUI=False, allowStencil=False, autoLog=True, backendConf=UNKNOWN, backgroundFit='cover', backgroundImage=None, bitsMode=UNKNOWN, blendMode='avg', bpc=(8, 8, 8), color=array([-1, -1, -1]), colorSpace='rgb', depthBits=8, fullscr=<method-wrapper '__getattribute__' of attributeSetter object at 0x7f46b5072580>, gamma=None, gammaErrorPolicy='raise', lms=UNKNOWN, monitor=<psychopy.monitors.calibTools.Monitor object at 0x7f46ae15adf0>, multiSample=False, name='stim_window', numSamples=2, pos=[0.0, 0.0], screen=0, size=array([1920, 1080]), stencilBits=0, stereo=False, title='PsychoPy', units='deg', useFBO=True, useRetina=False, viewOri=0.0, viewPos=None, viewScale=None, waitBlanking=True, winType='pyglet')","{'TR': 2.1, 'volumes': 5, 'sync': '5', 'skip': 0, 'sound': False}",<psychopy.clock.CountdownTimer object at 0x7f46ae137790>,"Rect(__class__=<class 'psychopy.visual.rect.Rect'>, anchor=('center', 'center'), autoDraw=True, autoLog=True, closeShape=True, color=method-wrapper(...), colorSpace='rgb', contrast=None, depth=0, draggable=False, fillColor=array([0.00392157, 0.00392157, 0.00392157]), fillColorSpace='rgb', fillRGB=array([0.00392157, 0.00392157, 0.00392157]), interpolate=True, lineColor=array([0., 0., 0.]), lineColorSpace='rgb', lineRGB=array([0, 0, 0]), lineWidth=1.5, name='unnamed Rect', opacity=0.5, ori=0.0, pos=array([0., 0.]), size=array([2., 2.]), units='norm', vertices=ndarray(...), win=Window(...))",2.1,[],8,0.75,"[<psychopy.visual.line.Line object at 0x7f469f06fb80>, <psychopy.visual.line.Line object at 0x7f469f074370>]",<psychopy.hardware.keyboard.Keyboard object at 0x7f46952ce6a0>,
2,dot,0.3,['dot'],['density'],black,0,20,20,20,,,9.117237091064453,9.417165040969849,dot,"[0.1, 0.1]","[[0.1652621768884792, -0.40183218801656556], [-0.03337249546828684, -0.4281924369736378]]",density,black,true,correct,nan,N007,visual,1,"['1', '2']","['3', '4']",1,/NOBACKUP2/USER/Jeong/experiment2,/NOBACKUP2/USER/Jeong/experiment2/logfiles/visual/N007_d-20240926,2023.2.3,harveyvisual,"Window(allowGUI=False, allowStencil=False, autoLog=True, backendConf=UNKNOWN, backgroundFit='cover', backgroundImage=None, bitsMode=UNKNOWN, blendMode='avg', bpc=(8, 8, 8), color=array([-1, -1, -1]), colorSpace='rgb', depthBits=8, fullscr=<method-wrapper '__getattribute__' of attributeSetter object at 0x7f46b5072580>, gamma=None, gammaErrorPolicy='raise', lms=UNKNOWN, monitor=<psychopy.monitors.calibTools.Monitor object at 0x7f46ae15adf0>, multiSample=False, name='stim_window', numSamples=2, pos=[0.0, 0.0], screen=0, size=array([1920, 1080]), stencilBits=0, stereo=False, title='PsychoPy', units='deg', useFBO=True, useRetina=False, viewOri=0.0, viewPos=None, viewScale=None, waitBlanking=True, winType='pyglet')","{'TR': 2.1, 'volumes': 5, 'sync': '5', 'skip': 0, 'sound': False}",<psychopy.clock.CountdownTimer object at 0x7f46ae137790>,"Rect(__class__=<class 'psychopy.visual.rect.Rect'>, anchor=('center', 'center'), autoDraw=True, autoLog=True, closeShape=True, color=method-wrapper(...), colorSpace='rgb', contrast=None, depth=0, draggable=False, fillColor=array([0.00392157, 0.00392157, 0.00392157]), fillColorSpace='rgb', fillRGB=array([0.00392157, 0.00392157, 0.00392157]), interpolate=True, lineColor=array([0., 0., 0.]), lineColorSpace='rgb', lineRGB=array([0, 0, 0]), lineWidth=1.5, name='unnamed Rect', opacity=0.5, ori=0.0, pos=array([0., 0.]), size=array([2., 2.]), units='norm', vertices=ndarray(...), win=Window(...))",2.1,[],8,0.75,"[<psychopy.visual.line.Line object at 0x7f469f06fb80>, <psychopy.visual.line.Line object at 0x7f469f074370>]",<psychopy.hardware.keyboard.Keyboard object at 0x7f46952ce6a0>,
0,pause,0.4,None,None,None,0,21,21,21,,,,,,,,,,,,,N007,visual,1,"['1', '2']","['3', '4']",1,/NOBACKUP2/USER/Jeong/experiment2,/NOBACKUP2/USER/Jeong/experiment2/logfiles/visual/N007_d-20240926,2023.2.3,harveyvisual,"Window(allowGUI=False, allowStencil=False, autoLog=True, backendConf=UNKNOWN, backgroundFit='cover', backgroundImage=None, bitsMode=UNKNOWN, blendMode='avg', bpc=(8, 8, 8), color=array([-1, -1, -1]), colorSpace='rgb', depthBits=8, fullscr=<method-wrapper '__getattribute__' of attributeSetter object at 0x7f46b5072580>, gamma=None, gammaErrorPolicy='raise', lms=UNKNOWN, monitor=<psychopy.monitors.calibTools.Monitor object at 0x7f46ae15adf0>, multiSample=False, name='stim_window', numSamples=2, pos=[0.0, 0.0], screen=0, size=array([1920, 1080]), stencilBits=0, stereo=False, title='PsychoPy', units='deg', useFBO=True, useRetina=False, viewOri=0.0, viewPos=None, viewScale=None, waitBlanking=True, winType='pyglet')","{'TR': 2.1, 'volumes': 5, 'sync': '5', 'skip': 0, 'sound': False}",<psychopy.clock.CountdownTimer object at 0x7f46ae137790>,"Rect(__class__=<class 'psychopy.visual.rect.Rect'>, anchor=('center', 'center'), autoDraw=True, autoLog=True, closeShape=True, color=method-wrapper(...), colorSpace='rgb', contrast=None, depth=0, draggable=False, fillColor=array([0.00392157, 0.00392157, 0.00392157]), fillColorSpace='rgb', fillRGB=array([0.00392157, 0.00392157, 0.00392157]), interpolate=True, lineColor=array([0., 0., 0.]), lineColorSpace='rgb', lineRGB=array([0, 0, 0]), lineWidth=1.5, name='unnamed Rect', opacity=0.5, ori=0.0, pos=array([0., 0.]), size=array([2., 2.]), units='norm', vertices=ndarray(...), win=Window(...))",2.1,[],8,0.75,"[<psychopy.visual.line.Line object at 0x7f469f06fb80>, <psychopy.visual.line.Line object at 0x7f469f074370>]",<psychopy.hardware.keyboard.Keyboard object at 0x7f46952ce6a0>,
2,dot,0.3,['dot'],['density'],black,0,22,22,22,,,9.817090034484863,10.117220163345337,dot,"[0.1, 0.06]","[[-0.09730612249650272, 0.4989075015380273], [-0.22752244688881013, 0.34485221713342457]]",density,black,true,correct,nan,N007,visual,1,"['1', '2']","['3', '4']",1,/NOBACKUP2/USER/Jeong/experiment2,/NOBACKUP2/USER/Jeong/experiment2/logfiles/visual/N007_d-20240926,2023.2.3,harveyvisual,"Window(allowGUI=False, allowStencil=False, autoLog=True, backendConf=UNKNOWN, backgroundFit='cover', backgroundImage=None, bitsMode=UNKNOWN, blendMode='avg', bpc=(8, 8, 8), color=array([-1, -1, -1]), colorSpace='rgb', depthBits=8, fullscr=<method-wrapper '__getattribute__' of attributeSetter object at 0x7f46b5072580>, gamma=None, gammaErrorPolicy='raise', lms=UNKNOWN, monitor=<psychopy.monitors.calibTools.Monitor object at 0x7f46ae15adf0>, multiSample=False, name='stim_window', numSamples=2, pos=[0.0, 0.0], screen=0, size=array([1920, 1080]), stencilBits=0, stereo=False, title='PsychoPy', units='deg', useFBO=True, useRetina=False, viewOri=0.0, viewPos=None, viewScale=None, waitBlanking=True, winType='pyglet')","{'TR': 2.1, 'volumes': 5, 'sync': '5', 'skip': 0, 'sound': False}",<psychopy.clock.CountdownTimer object at 0x7f46ae137790>,"Rect(__class__=<class 'psychopy.visual.rect.Rect'>, anchor=('center', 'center'), autoDraw=True, autoLog=True, closeShape=True, color=method-wrapper(...), colorSpace='rgb', contrast=None, depth=0, draggable=False, fillColor=array([0.00392157, 0.00392157, 0.00392157]), fillColorSpace='rgb', fillRGB=array([0.00392157, 0.00392157, 0.00392157]), interpolate=True, lineColor=array([0., 0., 0.]), lineColorSpace='rgb', lineRGB=array([0, 0, 0]), lineWidth=1.5, name='unnamed Rect', opacity=0.5, ori=0.0, pos=array([0., 0.]), size=array([2., 2.]), units='norm', vertices=ndarray(...), win=Window(...))",2.1,[],8,0.75,"[<psychopy.visual.line.Line object at 0x7f469f06fb80>, <psychopy.visual.line.Line object at 0x7f469f074370>]",<psychopy.hardware.keyboard.Keyboard object at 0x7f46952ce6a0>,
0,pause,0.4,None,None,None,0,23,23,23,,,,,,,,,,,,,N007,visual,1,"['1', '2']","['3', '4']",1,/NOBACKUP2/USER/Jeong/experiment2,/NOBACKUP2/USER/Jeong/experiment2/logfiles/visual/N007_d-20240926,2023.2.3,harveyvisual,"Window(allowGUI=False, allowStencil=False, autoLog=True, backendConf=UNKNOWN, backgroundFit='cover', backgroundImage=None, bitsMode=UNKNOWN, blendMode='avg', bpc=(8, 8, 8), color=array([-1, -1, -1]), colorSpace='rgb', depthBits=8, fullscr=<method-wrapper '__getattribute__' of attributeSetter object at 0x7f46b5072580>, gamma=None, gammaErrorPolicy='raise', lms=UNKNOWN, monitor=<psychopy.monitors.calibTools.Monitor object at 0x7f46ae15adf0>, multiSample=False, name='stim_window', numSamples=2, pos=[0.0, 0.0], screen=0, size=array([1920, 1080]), stencilBits=0, stereo=False, title='PsychoPy', units='deg', useFBO=True, useRetina=False, viewOri=0.0, viewPos=None, viewScale=None, waitBlanking=True, winType='pyglet')","{'TR': 2.1, 'volumes': 5, 'sync': '5', 'skip': 0, 'sound': False}",<psychopy.clock.CountdownTimer object at 0x7f46ae137790>,"Rect(__class__=<class 'psychopy.visual.rect.Rect'>, anchor=('center', 'center'), autoDraw=True, autoLog=True, closeShape=True, color=method-wrapper(...), colorSpace='rgb', contrast=None, depth=0, draggable=False, fillColor=array([0.00392157, 0.00392157, 0.00392157]), fillColorSpace='rgb', fillRGB=array([0.00392157, 0.00392157, 0.00392157]), interpolate=True, lineColor=array([0., 0., 0.]), lineColorSpace='rgb', lineRGB=array([0, 0, 0]), lineWidth=1.5, name='unnamed Rect', opacity=0.5, ori=0.0, pos=array([0., 0.]), size=array([2., 2.]), units='norm', vertices=ndarray(...), win=Window(...))",2.1,[],8,0.75,"[<psychopy.visual.line.Line object at 0x7f469f06fb80>, <psychopy.visual.line.Line object at 0x7f469f074370>]",<psychopy.hardware.keyboard.Keyboard object at 0x7f46952ce6a0>,
3,dot,0.3,['dot'],['density'],black,0,24,24,24,,,10.517203092575073,10.817196130752563,dot,"[0.06, 0.08, 0.06]","[[0.13507679288784277, 0.012189921546254917], [0.31506600046810584, 0.10578898906948993], [0.12756957777796288, 0.2513869495778075]]",density,black,false,wrong,nan,N007,visual,1,"['1', '2']","['3', '4']",1,/NOBACKUP2/USER/Jeong/experiment2,/NOBACKUP2/USER/Jeong/experiment2/logfiles/visual/N007_d-20240926,2023.2.3,harveyvisual,"Window(allowGUI=False, allowStencil=False, autoLog=True, backendConf=UNKNOWN, backgroundFit='cover', backgroundImage=None, bitsMode=UNKNOWN, blendMode='avg', bpc=(8, 8, 8), color=array([-1, -1, -1]), colorSpace='rgb', depthBits=8, fullscr=<method-wrapper '__getattribute__' of attributeSetter object at 0x7f46b5072580>, gamma=None, gammaErrorPolicy='raise', lms=UNKNOWN, monitor=<psychopy.monitors.calibTools.Monitor object at 0x7f46ae15adf0>, multiSample=False, name='stim_window', numSamples=2, pos=[0.0, 0.0], screen=0, size=array([1920, 1080]), stencilBits=0, stereo=False, title='PsychoPy', units='deg', useFBO=True, useRetina=False, viewOri=0.0, viewPos=None, viewScale=None, waitBlanking=True, winType='pyglet')","{'TR': 2.1, 'volumes': 5, 'sync': '5', 'skip': 0, 'sound': False}",<psychopy.clock.CountdownTimer object at 0x7f46ae137790>,"Rect(__class__=<class 'psychopy.visual.rect.Rect'>, anchor=('center', 'center'), autoDraw=True, autoLog=True, closeShape=True, color=method-wrapper(...), colorSpace='rgb', contrast=None, depth=0, draggable=False, fillColor=array([0.00392157, 0.00392157, 0.00392157]), fillColorSpace='rgb', fillRGB=array([0.00392157, 0.00392157, 0.00392157]), interpolate=True, lineColor=array([0., 0., 0.]), lineColorSpace='rgb', lineRGB=array([0, 0, 0]), lineWidth=1.5, name='unnamed Rect', opacity=0.5, ori=0.0, pos=array([0., 0.]), size=array([2., 2.]), units='norm', vertices=ndarray(...), win=Window(...))",2.1,[],8,0.75,"[<psychopy.visual.line.Line object at 0x7f469f06fb80>, <psychopy.visual.line.Line object at 0x7f469f074370>]",<psychopy.hardware.keyboard.Keyboard object at 0x7f46952ce6a0>,
0,pause,0.4,None,None,None,0,25,25,25,,,,,,,,,,,,,N007,visual,1,"['1', '2']","['3', '4']",1,/NOBACKUP2/USER/Jeong/experiment2,/NOBACKUP2/USER/Jeong/experiment2/logfiles/visual/N007_d-20240926,2023.2.3,harveyvisual,"Window(allowGUI=False, allowStencil=False, autoLog=True, backendConf=UNKNOWN, backgroundFit='cover', backgroundImage=None, bitsMode=UNKNOWN, blendMode='avg', bpc=(8, 8, 8), color=array([-1, -1, -1]), colorSpace='rgb', depthBits=8, fullscr=<method-wrapper '__getattribute__' of attributeSetter object at 0x7f46b5072580>, gamma=None, gammaErrorPolicy='raise', lms=UNKNOWN, monitor=<psychopy.monitors.calibTools.Monitor object at 0x7f46ae15adf0>, multiSample=False, name='stim_window', numSamples=2, pos=[0.0, 0.0], screen=0, size=array([1920, 1080]), stencilBits=0, stereo=False, title='PsychoPy', units='deg', useFBO=True, useRetina=False, viewOri=0.0, viewPos=None, viewScale=None, waitBlanking=True, winType='pyglet')","{'TR': 2.1, 'volumes': 5, 'sync': '5', 'skip': 0, 'sound': False}",<psychopy.clock.CountdownTimer object at 0x7f46ae137790>,"Rect(__class__=<class 'psychopy.visual.rect.Rect'>, anchor=('center', 'center'), autoDraw=True, autoLog=True, closeShape=True, color=method-wrapper(...), colorSpace='rgb', contrast=None, depth=0, draggable=False, fillColor=array([0.00392157, 0.00392157, 0.00392157]), fillColorSpace='rgb', fillRGB=array([0.00392157, 0.00392157, 0.00392157]), interpolate=True, lineColor=array([0., 0., 0.]), lineColorSpace='rgb', lineRGB=array([0, 0, 0]), lineWidth=1.5, name='unnamed Rect', opacity=0.5, ori=0.0, pos=array([0., 0.]), size=array([2., 2.]), units='norm', vertices=ndarray(...), win=Window(...))",2.1,[],8,0.75,"[<psychopy.visual.line.Line object at 0x7f469f06fb80>, <psychopy.visual.line.Line object at 0x7f469f074370>]",<psychopy.hardware.keyboard.Keyboard object at 0x7f46952ce6a0>,
3,dot,0.3,['dot'],['density'],black,0,26,26,26,,,11.217067003250122,11.517073154449463,dot,"[0.1, 0.1, 0.06]","[[-0.476501853024302, 0.3110516410681161], [-0.26865065753742645, 0.4732574608261889], [-0.2772428868380306, 0.2516539537451065]]",density,black,true,correct,nan,N007,visual,1,"['1', '2']","['3', '4']",1,/NOBACKUP2/USER/Jeong/experiment2,/NOBACKUP2/USER/Jeong/experiment2/logfiles/visual/N007_d-20240926,2023.2.3,harveyvisual,"Window(allowGUI=False, allowStencil=False, autoLog=True, backendConf=UNKNOWN, backgroundFit='cover', backgroundImage=None, bitsMode=UNKNOWN, blendMode='avg', bpc=(8, 8, 8), color=array([-1, -1, -1]), colorSpace='rgb', depthBits=8, fullscr=<method-wrapper '__getattribute__' of attributeSetter object at 0x7f46b5072580>, gamma=None, gammaErrorPolicy='raise', lms=UNKNOWN, monitor=<psychopy.monitors.calibTools.Monitor object at 0x7f46ae15adf0>, multiSample=False, name='stim_window', numSamples=2, pos=[0.0, 0.0], screen=0, size=array([1920, 1080]), stencilBits=0, stereo=False, title='PsychoPy', units='deg', useFBO=True, useRetina=False, viewOri=0.0, viewPos=None, viewScale=None, waitBlanking=True, winType='pyglet')","{'TR': 2.1, 'volumes': 5, 'sync': '5', 'skip': 0, 'sound': False}",<psychopy.clock.CountdownTimer object at 0x7f46ae137790>,"Rect(__class__=<class 'psychopy.visual.rect.Rect'>, anchor=('center', 'center'), autoDraw=True, autoLog=True, closeShape=True, color=method-wrapper(...), colorSpace='rgb', contrast=None, depth=0, draggable=False, fillColor=array([0.00392157, 0.00392157, 0.00392157]), fillColorSpace='rgb', fillRGB=array([0.00392157, 0.00392157, 0.00392157]), interpolate=True, lineColor=array([0., 0., 0.]), lineColorSpace='rgb', lineRGB=array([0, 0, 0]), lineWidth=1.5, name='unnamed Rect', opacity=0.5, ori=0.0, pos=array([0., 0.]), size=array([2., 2.]), units='norm', vertices=ndarray(...), win=Window(...))",2.1,[],8,0.75,"[<psychopy.visual.line.Line object at 0x7f469f06fb80>, <psychopy.visual.line.Line object at 0x7f469f074370>]",<psychopy.hardware.keyboard.Keyboard object at 0x7f46952ce6a0>,
0,pause,0.4,None,None,None,0,27,27,27,,,,,,,,,,,,,N007,visual,1,"['1', '2']","['3', '4']",1,/NOBACKUP2/USER/Jeong/experiment2,/NOBACKUP2/USER/Jeong/experiment2/logfiles/visual/N007_d-20240926,2023.2.3,harveyvisual,"Window(allowGUI=False, allowStencil=False, autoLog=True, backendConf=UNKNOWN, backgroundFit='cover', backgroundImage=None, bitsMode=UNKNOWN, blendMode='avg', bpc=(8, 8, 8), color=array([-1, -1, -1]), colorSpace='rgb', depthBits=8, fullscr=<method-wrapper '__getattribute__' of attributeSetter object at 0x7f46b5072580>, gamma=None, gammaErrorPolicy='raise', lms=UNKNOWN, monitor=<psychopy.monitors.calibTools.Monitor object at 0x7f46ae15adf0>, multiSample=False, name='stim_window', numSamples=2, pos=[0.0, 0.0], screen=0, size=array([1920, 1080]), stencilBits=0, stereo=False, title='PsychoPy', units='deg', useFBO=True, useRetina=False, viewOri=0.0, viewPos=None, viewScale=None, waitBlanking=True, winType='pyglet')","{'TR': 2.1, 'volumes': 5, 'sync': '5', 'skip': 0, 'sound': False}",<psychopy.clock.CountdownTimer object at 0x7f46ae137790>,"Rect(__class__=<class 'psychopy.visual.rect.Rect'>, anchor=('center', 'center'), autoDraw=True, autoLog=True, closeShape=True, color=method-wrapper(...), colorSpace='rgb', contrast=None, depth=0, draggable=False, fillColor=array([0.00392157, 0.00392157, 0.00392157]), fillColorSpace='rgb', fillRGB=array([0.00392157, 0.00392157, 0.00392157]), interpolate=True, lineColor=array([0., 0., 0.]), lineColorSpace='rgb', lineRGB=array([0, 0, 0]), lineWidth=1.5, name='unnamed Rect', opacity=0.5, ori=0.0, pos=array([0., 0.]), size=array([2., 2.]), units='norm', vertices=ndarray(...), win=Window(...))",2.1,[],8,0.75,"[<psychopy.visual.line.Line object at 0x7f469f06fb80>, <psychopy.visual.line.Line object at 0x7f469f074370>]",<psychopy.hardware.keyboard.Keyboard object at 0x7f46952ce6a0>,
3,dot,0.3,['dot'],['density'],black,0,28,28,28,,,11.91706109046936,12.217023134231567,dot,"[0.08, 0.08, 0.06]","[[-0.476501853024302, 0.3110516410681161], [-0.26865065753742645, 0.4732574608261889], [-0.2772428868380306, 0.2516539537451065]]",density,black,true,correct,nan,N007,visual,1,"['1', '2']","['3', '4']",1,/NOBACKUP2/USER/Jeong/experiment2,/NOBACKUP2/USER/Jeong/experiment2/logfiles/visual/N007_d-20240926,2023.2.3,harveyvisual,"Window(allowGUI=False, allowStencil=False, autoLog=True, backendConf=UNKNOWN, backgroundFit='cover', backgroundImage=None, bitsMode=UNKNOWN, blendMode='avg', bpc=(8, 8, 8), color=array([-1, -1, -1]), colorSpace='rgb', depthBits=8, fullscr=<method-wrapper '__getattribute__' of attributeSetter object at 0x7f46b5072580>, gamma=None, gammaErrorPolicy='raise', lms=UNKNOWN, monitor=<psychopy.monitors.calibTools.Monitor object at 0x7f46ae15adf0>, multiSample=False, name='stim_window', numSamples=2, pos=[0.0, 0.0], screen=0, size=array([1920, 1080]), stencilBits=0, stereo=False, title='PsychoPy', units='deg', useFBO=True, useRetina=False, viewOri=0.0, viewPos=None, viewScale=None, waitBlanking=True, winType='pyglet')","{'TR': 2.1, 'volumes': 5, 'sync': '5', 'skip': 0, 'sound': False}",<psychopy.clock.CountdownTimer object at 0x7f46ae137790>,"Rect(__class__=<class 'psychopy.visual.rect.Rect'>, anchor=('center', 'center'), autoDraw=True, autoLog=True, closeShape=True, color=method-wrapper(...), colorSpace='rgb', contrast=None, depth=0, draggable=False, fillColor=array([0.00392157, 0.00392157, 0.00392157]), fillColorSpace='rgb', fillRGB=array([0.00392157, 0.00392157, 0.00392157]), interpolate=True, lineColor=array([0., 0., 0.]), lineColorSpace='rgb', lineRGB=array([0, 0, 0]), lineWidth=1.5, name='unnamed Rect', opacity=0.5, ori=0.0, pos=array([0., 0.]), size=array([2., 2.]), units='norm', vertices=ndarray(...), win=Window(...))",2.1,[],8,0.75,"[<psychopy.visual.line.Line object at 0x7f469f06fb80>, <psychopy.visual.line.Line object at 0x7f469f074370>]",<psychopy.hardware.keyboard.Keyboard object at 0x7f46952ce6a0>,
0,pause,0.4,None,None,None,0,29,29,29,,,,,,,,,,,,,N007,visual,1,"['1', '2']","['3', '4']",1,/NOBACKUP2/USER/Jeong/experiment2,/NOBACKUP2/USER/Jeong/experiment2/logfiles/visual/N007_d-20240926,2023.2.3,harveyvisual,"Window(allowGUI=False, allowStencil=False, autoLog=True, backendConf=UNKNOWN, backgroundFit='cover', backgroundImage=None, bitsMode=UNKNOWN, blendMode='avg', bpc=(8, 8, 8), color=array([-1, -1, -1]), colorSpace='rgb', depthBits=8, fullscr=<method-wrapper '__getattribute__' of attributeSetter object at 0x7f46b5072580>, gamma=None, gammaErrorPolicy='raise', lms=UNKNOWN, monitor=<psychopy.monitors.calibTools.Monitor object at 0x7f46ae15adf0>, multiSample=False, name='stim_window', numSamples=2, pos=[0.0, 0.0], screen=0, size=array([1920, 1080]), stencilBits=0, stereo=False, title='PsychoPy', units='deg', useFBO=True, useRetina=False, viewOri=0.0, viewPos=None, viewScale=None, waitBlanking=True, winType='pyglet')","{'TR': 2.1, 'volumes': 5, 'sync': '5', 'skip': 0, 'sound': False}",<psychopy.clock.CountdownTimer object at 0x7f46ae137790>,"Rect(__class__=<class 'psychopy.visual.rect.Rect'>, anchor=('center', 'center'), autoDraw=True, autoLog=True, closeShape=True, color=method-wrapper(...), colorSpace='rgb', contrast=None, depth=0, draggable=False, fillColor=array([0.00392157, 0.00392157, 0.00392157]), fillColorSpace='rgb', fillRGB=array([0.00392157, 0.00392157, 0.00392157]), interpolate=True, lineColor=array([0., 0., 0.]), lineColorSpace='rgb', lineRGB=array([0, 0, 0]), lineWidth=1.5, name='unnamed Rect', opacity=0.5, ori=0.0, pos=array([0., 0.]), size=array([2., 2.]), units='norm', vertices=ndarray(...), win=Window(...))",2.1,[],8,0.75,"[<psychopy.visual.line.Line object at 0x7f469f06fb80>, <psychopy.visual.line.Line object at 0x7f469f074370>]",<psychopy.hardware.keyboard.Keyboard object at 0x7f46952ce6a0>,
3,dot,0.3,['dot'],['density'],black,0,30,30,30,,,12.617154121398926,12.917142152786255,dot,"[0.1, 0.08, 0.06]","[[0.11213305146232053, -0.07893917948794166], [0.05639720131197772, -0.2966044022377523], [-0.1031859716129837, -0.13437008874356654]]",density,black,true,correct,nan,N007,visual,1,"['1', '2']","['3', '4']",1,/NOBACKUP2/USER/Jeong/experiment2,/NOBACKUP2/USER/Jeong/experiment2/logfiles/visual/N007_d-20240926,2023.2.3,harveyvisual,"Window(allowGUI=False, allowStencil=False, autoLog=True, backendConf=UNKNOWN, backgroundFit='cover', backgroundImage=None, bitsMode=UNKNOWN, blendMode='avg', bpc=(8, 8, 8), color=array([-1, -1, -1]), colorSpace='rgb', depthBits=8, fullscr=<method-wrapper '__getattribute__' of attributeSetter object at 0x7f46b5072580>, gamma=None, gammaErrorPolicy='raise', lms=UNKNOWN, monitor=<psychopy.monitors.calibTools.Monitor object at 0x7f46ae15adf0>, multiSample=False, name='stim_window', numSamples=2, pos=[0.0, 0.0], screen=0, size=array([1920, 1080]), stencilBits=0, stereo=False, title='PsychoPy', units='deg', useFBO=True, useRetina=False, viewOri=0.0, viewPos=None, viewScale=None, waitBlanking=True, winType='pyglet')","{'TR': 2.1, 'volumes': 5, 'sync': '5', 'skip': 0, 'sound': False}",<psychopy.clock.CountdownTimer object at 0x7f46ae137790>,"Rect(__class__=<class 'psychopy.visual.rect.Rect'>, anchor=('center', 'center'), autoDraw=True, autoLog=True, closeShape=True, color=method-wrapper(...), colorSpace='rgb', contrast=None, depth=0, draggable=False, fillColor=array([0.00392157, 0.00392157, 0.00392157]), fillColorSpace='rgb', fillRGB=array([0.00392157, 0.00392157, 0.00392157]), interpolate=True, lineColor=array([0., 0., 0.]), lineColorSpace='rgb', lineRGB=array([0, 0, 0]), lineWidth=1.5, name='unnamed Rect', opacity=0.5, ori=0.0, pos=array([0., 0.]), size=array([2., 2.]), units='norm', vertices=ndarray(...), win=Window(...))",2.1,[],8,0.75,"[<psychopy.visual.line.Line object at 0x7f469f06fb80>, <psychopy.visual.line.Line object at 0x7f469f074370>]",<psychopy.hardware.keyboard.Keyboard object at 0x7f46952ce6a0>,
0,pause,0.4,None,None,None,0,31,31,31,,,,,,,,,,,,,N007,visual,1,"['1', '2']","['3', '4']",1,/NOBACKUP2/USER/Jeong/experiment2,/NOBACKUP2/USER/Jeong/experiment2/logfiles/visual/N007_d-20240926,2023.2.3,harveyvisual,"Window(allowGUI=False, allowStencil=False, autoLog=True, backendConf=UNKNOWN, backgroundFit='cover', backgroundImage=None, bitsMode=UNKNOWN, blendMode='avg', bpc=(8, 8, 8), color=array([-1, -1, -1]), colorSpace='rgb', depthBits=8, fullscr=<method-wrapper '__getattribute__' of attributeSetter object at 0x7f46b5072580>, gamma=None, gammaErrorPolicy='raise', lms=UNKNOWN, monitor=<psychopy.monitors.calibTools.Monitor object at 0x7f46ae15adf0>, multiSample=False, name='stim_window', numSamples=2, pos=[0.0, 0.0], screen=0, size=array([1920, 1080]), stencilBits=0, stereo=False, title='PsychoPy', units='deg', useFBO=True, useRetina=False, viewOri=0.0, viewPos=None, viewScale=None, waitBlanking=True, winType='pyglet')","{'TR': 2.1, 'volumes': 5, 'sync': '5', 'skip': 0, 'sound': False}",<psychopy.clock.CountdownTimer object at 0x7f46ae137790>,"Rect(__class__=<class 'psychopy.visual.rect.Rect'>, anchor=('center', 'center'), autoDraw=True, autoLog=True, closeShape=True, color=method-wrapper(...), colorSpace='rgb', contrast=None, depth=0, draggable=False, fillColor=array([0.00392157, 0.00392157, 0.00392157]), fillColorSpace='rgb', fillRGB=array([0.00392157, 0.00392157, 0.00392157]), interpolate=True, lineColor=array([0., 0., 0.]), lineColorSpace='rgb', lineRGB=array([0, 0, 0]), lineWidth=1.5, name='unnamed Rect', opacity=0.5, ori=0.0, pos=array([0., 0.]), size=array([2., 2.]), units='norm', vertices=ndarray(...), win=Window(...))",2.1,[],8,0.75,"[<psychopy.visual.line.Line object at 0x7f469f06fb80>, <psychopy.visual.line.Line object at 0x7f469f074370>]",<psychopy.hardware.keyboard.Keyboard object at 0x7f46952ce6a0>,
3,dot,0.3,['dot'],['density'],black,0,32,32,32,,,13.316997051239014,13.617121934890747,dot,"[0.1, 0.06, 0.1]","[[0.03752440580708033, 0.5298990797186869], [-0.14535247226304113, 0.44143535861080874], [0.07857889528852925, 0.30774558950641073]]",density,black,true,correct,nan,N007,visual,1,"['1', '2']","['3', '4']",1,/NOBACKUP2/USER/Jeong/experiment2,/NOBACKUP2/USER/Jeong/experiment2/logfiles/visual/N007_d-20240926,2023.2.3,harveyvisual,"Window(allowGUI=False, allowStencil=False, autoLog=True, backendConf=UNKNOWN, backgroundFit='cover', backgroundImage=None, bitsMode=UNKNOWN, blendMode='avg', bpc=(8, 8, 8), color=array([-1, -1, -1]), colorSpace='rgb', depthBits=8, fullscr=<method-wrapper '__getattribute__' of attributeSetter object at 0x7f46b5072580>, gamma=None, gammaErrorPolicy='raise', lms=UNKNOWN, monitor=<psychopy.monitors.calibTools.Monitor object at 0x7f46ae15adf0>, multiSample=False, name='stim_window', numSamples=2, pos=[0.0, 0.0], screen=0, size=array([1920, 1080]), stencilBits=0, stereo=False, title='PsychoPy', units='deg', useFBO=True, useRetina=False, viewOri=0.0, viewPos=None, viewScale=None, waitBlanking=True, winType='pyglet')","{'TR': 2.1, 'volumes': 5, 'sync': '5', 'skip': 0, 'sound': False}",<psychopy.clock.CountdownTimer object at 0x7f46ae137790>,"Rect(__class__=<class 'psychopy.visual.rect.Rect'>, anchor=('center', 'center'), autoDraw=True, autoLog=True, closeShape=True, color=method-wrapper(...), colorSpace='rgb', contrast=None, depth=0, draggable=False, fillColor=array([0.00392157, 0.00392157, 0.00392157]), fillColorSpace='rgb', fillRGB=array([0.00392157, 0.00392157, 0.00392157]), interpolate=True, lineColor=array([0., 0., 0.]), lineColorSpace='rgb', lineRGB=array([0, 0, 0]), lineWidth=1.5, name='unnamed Rect', opacity=0.5, ori=0.0, pos=array([0., 0.]), size=array([2., 2.]), units='norm', vertices=ndarray(...), win=Window(...))",2.1,[],8,0.75,"[<psychopy.visual.line.Line object at 0x7f469f06fb80>, <psychopy.visual.line.Line object at 0x7f469f074370>]",<psychopy.hardware.keyboard.Keyboard object at 0x7f46952ce6a0>,
0,pause,0.4,None,None,None,0,33,33,33,,,,,,,,,,,,,N007,visual,1,"['1', '2']","['3', '4']",1,/NOBACKUP2/USER/Jeong/experiment2,/NOBACKUP2/USER/Jeong/experiment2/logfiles/visual/N007_d-20240926,2023.2.3,harveyvisual,"Window(allowGUI=False, allowStencil=False, autoLog=True, backendConf=UNKNOWN, backgroundFit='cover', backgroundImage=None, bitsMode=UNKNOWN, blendMode='avg', bpc=(8, 8, 8), color=array([-1, -1, -1]), colorSpace='rgb', depthBits=8, fullscr=<method-wrapper '__getattribute__' of attributeSetter object at 0x7f46b5072580>, gamma=None, gammaErrorPolicy='raise', lms=UNKNOWN, monitor=<psychopy.monitors.calibTools.Monitor object at 0x7f46ae15adf0>, multiSample=False, name='stim_window', numSamples=2, pos=[0.0, 0.0], screen=0, size=array([1920, 1080]), stencilBits=0, stereo=False, title='PsychoPy', units='deg', useFBO=True, useRetina=False, viewOri=0.0, viewPos=None, viewScale=None, waitBlanking=True, winType='pyglet')","{'TR': 2.1, 'volumes': 5, 'sync': '5', 'skip': 0, 'sound': False}",<psychopy.clock.CountdownTimer object at 0x7f46ae137790>,"Rect(__class__=<class 'psychopy.visual.rect.Rect'>, anchor=('center', 'center'), autoDraw=True, autoLog=True, closeShape=True, color=method-wrapper(...), colorSpace='rgb', contrast=None, depth=0, draggable=False, fillColor=array([0.00392157, 0.00392157, 0.00392157]), fillColorSpace='rgb', fillRGB=array([0.00392157, 0.00392157, 0.00392157]), interpolate=True, lineColor=array([0., 0., 0.]), lineColorSpace='rgb', lineRGB=array([0, 0, 0]), lineWidth=1.5, name='unnamed Rect', opacity=0.5, ori=0.0, pos=array([0., 0.]), size=array([2., 2.]), units='norm', vertices=ndarray(...), win=Window(...))",2.1,[],8,0.75,"[<psychopy.visual.line.Line object at 0x7f469f06fb80>, <psychopy.visual.line.Line object at 0x7f469f074370>]",<psychopy.hardware.keyboard.Keyboard object at 0x7f46952ce6a0>,
3,dot,0.3,['dot'],['density'],black,0,34,34,34,,,14.017122030258179,14.317109107971191,dot,"[0.06, 0.1, 0.08]","[[-0.42255820389626353, 0.35871945956833473], [-0.19896656331745483, 0.3032224324013186], [-0.25553590712368324, 0.5056038804507684]]",density,black,true,correct,nan,N007,visual,1,"['1', '2']","['3', '4']",1,/NOBACKUP2/USER/Jeong/experiment2,/NOBACKUP2/USER/Jeong/experiment2/logfiles/visual/N007_d-20240926,2023.2.3,harveyvisual,"Window(allowGUI=False, allowStencil=False, autoLog=True, backendConf=UNKNOWN, backgroundFit='cover', backgroundImage=None, bitsMode=UNKNOWN, blendMode='avg', bpc=(8, 8, 8), color=array([-1, -1, -1]), colorSpace='rgb', depthBits=8, fullscr=<method-wrapper '__getattribute__' of attributeSetter object at 0x7f46b5072580>, gamma=None, gammaErrorPolicy='raise', lms=UNKNOWN, monitor=<psychopy.monitors.calibTools.Monitor object at 0x7f46ae15adf0>, multiSample=False, name='stim_window', numSamples=2, pos=[0.0, 0.0], screen=0, size=array([1920, 1080]), stencilBits=0, stereo=False, title='PsychoPy', units='deg', useFBO=True, useRetina=False, viewOri=0.0, viewPos=None, viewScale=None, waitBlanking=True, winType='pyglet')","{'TR': 2.1, 'volumes': 5, 'sync': '5', 'skip': 0, 'sound': False}",<psychopy.clock.CountdownTimer object at 0x7f46ae137790>,"Rect(__class__=<class 'psychopy.visual.rect.Rect'>, anchor=('center', 'center'), autoDraw=True, autoLog=True, closeShape=True, color=method-wrapper(...), colorSpace='rgb', contrast=None, depth=0, draggable=False, fillColor=array([0.00392157, 0.00392157, 0.00392157]), fillColorSpace='rgb', fillRGB=array([0.00392157, 0.00392157, 0.00392157]), interpolate=True, lineColor=array([0., 0., 0.]), lineColorSpace='rgb', lineRGB=array([0, 0, 0]), lineWidth=1.5, name='unnamed Rect', opacity=0.5, ori=0.0, pos=array([0., 0.]), size=array([2., 2.]), units='norm', vertices=ndarray(...), win=Window(...))",2.1,[],8,0.75,"[<psychopy.visual.line.Line object at 0x7f469f06fb80>, <psychopy.visual.line.Line object at 0x7f469f074370>]",<psychopy.hardware.keyboard.Keyboard object at 0x7f46952ce6a0>,
0,pause,0.4,None,None,None,0,35,35,35,,,,,,,,,,,,,N007,visual,1,"['1', '2']","['3', '4']",1,/NOBACKUP2/USER/Jeong/experiment2,/NOBACKUP2/USER/Jeong/experiment2/logfiles/visual/N007_d-20240926,2023.2.3,harveyvisual,"Window(allowGUI=False, allowStencil=False, autoLog=True, backendConf=UNKNOWN, backgroundFit='cover', backgroundImage=None, bitsMode=UNKNOWN, blendMode='avg', bpc=(8, 8, 8), color=array([-1, -1, -1]), colorSpace='rgb', depthBits=8, fullscr=<method-wrapper '__getattribute__' of attributeSetter object at 0x7f46b5072580>, gamma=None, gammaErrorPolicy='raise', lms=UNKNOWN, monitor=<psychopy.monitors.calibTools.Monitor object at 0x7f46ae15adf0>, multiSample=False, name='stim_window', numSamples=2, pos=[0.0, 0.0], screen=0, size=array([1920, 1080]), stencilBits=0, stereo=False, title='PsychoPy', units='deg', useFBO=True, useRetina=False, viewOri=0.0, viewPos=None, viewScale=None, waitBlanking=True, winType='pyglet')","{'TR': 2.1, 'volumes': 5, 'sync': '5', 'skip': 0, 'sound': False}",<psychopy.clock.CountdownTimer object at 0x7f46ae137790>,"Rect(__class__=<class 'psychopy.visual.rect.Rect'>, anchor=('center', 'center'), autoDraw=True, autoLog=True, closeShape=True, color=method-wrapper(...), colorSpace='rgb', contrast=None, depth=0, draggable=False, fillColor=array([0.00392157, 0.00392157, 0.00392157]), fillColorSpace='rgb', fillRGB=array([0.00392157, 0.00392157, 0.00392157]), interpolate=True, lineColor=array([0., 0., 0.]), lineColorSpace='rgb', lineRGB=array([0, 0, 0]), lineWidth=1.5, name='unnamed Rect', opacity=0.5, ori=0.0, pos=array([0., 0.]), size=array([2., 2.]), units='norm', vertices=ndarray(...), win=Window(...))",2.1,[],8,0.75,"[<psychopy.visual.line.Line object at 0x7f469f06fb80>, <psychopy.visual.line.Line object at 0x7f469f074370>]",<psychopy.hardware.keyboard.Keyboard object at 0x7f46952ce6a0>,
4,dot,0.3,['dot'],['density'],black,0,36,36,36,,,14.717116117477417,15.016963005065918,dot,"[0.1, 0.1, 0.1, 0.08]","[[-0.42715721775789556, -0.3806885655784049], [-0.5104054706627589, -0.18016651458941194], [-0.409412055521987, 0.008153849732111747], [-0.2456709064377862, -0.21492281530681134]]",density,black,false,wrong,nan,N007,visual,1,"['1', '2']","['3', '4']",1,/NOBACKUP2/USER/Jeong/experiment2,/NOBACKUP2/USER/Jeong/experiment2/logfiles/visual/N007_d-20240926,2023.2.3,harveyvisual,"Window(allowGUI=False, allowStencil=False, autoLog=True, backendConf=UNKNOWN, backgroundFit='cover', backgroundImage=None, bitsMode=UNKNOWN, blendMode='avg', bpc=(8, 8, 8), color=array([-1, -1, -1]), colorSpace='rgb', depthBits=8, fullscr=<method-wrapper '__getattribute__' of attributeSetter object at 0x7f46b5072580>, gamma=None, gammaErrorPolicy='raise', lms=UNKNOWN, monitor=<psychopy.monitors.calibTools.Monitor object at 0x7f46ae15adf0>, multiSample=False, name='stim_window', numSamples=2, pos=[0.0, 0.0], screen=0, size=array([1920, 1080]), stencilBits=0, stereo=False, title='PsychoPy', units='deg', useFBO=True, useRetina=False, viewOri=0.0, viewPos=None, viewScale=None, waitBlanking=True, winType='pyglet')","{'TR': 2.1, 'volumes': 5, 'sync': '5', 'skip': 0, 'sound': False}",<psychopy.clock.CountdownTimer object at 0x7f46ae137790>,"Rect(__class__=<class 'psychopy.visual.rect.Rect'>, anchor=('center', 'center'), autoDraw=True, autoLog=True, closeShape=True, color=method-wrapper(...), colorSpace='rgb', contrast=None, depth=0, draggable=False, fillColor=array([0.00392157, 0.00392157, 0.00392157]), fillColorSpace='rgb', fillRGB=array([0.00392157, 0.00392157, 0.00392157]), interpolate=True, lineColor=array([0., 0., 0.]), lineColorSpace='rgb', lineRGB=array([0, 0, 0]), lineWidth=1.5, name='unnamed Rect', opacity=0.5, ori=0.0, pos=array([0., 0.]), size=array([2., 2.]), units='norm', vertices=ndarray(...), win=Window(...))",2.1,[],8,0.75,"[<psychopy.visual.line.Line object at 0x7f469f06fb80>, <psychopy.visual.line.Line object at 0x7f469f074370>]",<psychopy.hardware.keyboard.Keyboard object at 0x7f46952ce6a0>,
0,pause,0.4,None,None,None,0,37,37,37,,,,,,,,,,,,,N007,visual,1,"['1', '2']","['3', '4']",1,/NOBACKUP2/USER/Jeong/experiment2,/NOBACKUP2/USER/Jeong/experiment2/logfiles/visual/N007_d-20240926,2023.2.3,harveyvisual,"Window(allowGUI=False, allowStencil=False, autoLog=True, backendConf=UNKNOWN, backgroundFit='cover', backgroundImage=None, bitsMode=UNKNOWN, blendMode='avg', bpc=(8, 8, 8), color=array([-1, -1, -1]), colorSpace='rgb', depthBits=8, fullscr=<method-wrapper '__getattribute__' of attributeSetter object at 0x7f46b5072580>, gamma=None, gammaErrorPolicy='raise', lms=UNKNOWN, monitor=<psychopy.monitors.calibTools.Monitor object at 0x7f46ae15adf0>, multiSample=False, name='stim_window', numSamples=2, pos=[0.0, 0.0], screen=0, size=array([1920, 1080]), stencilBits=0, stereo=False, title='PsychoPy', units='deg', useFBO=True, useRetina=False, viewOri=0.0, viewPos=None, viewScale=None, waitBlanking=True, winType='pyglet')","{'TR': 2.1, 'volumes': 5, 'sync': '5', 'skip': 0, 'sound': False}",<psychopy.clock.CountdownTimer object at 0x7f46ae137790>,"Rect(__class__=<class 'psychopy.visual.rect.Rect'>, anchor=('center', 'center'), autoDraw=True, autoLog=True, closeShape=True, color=method-wrapper(...), colorSpace='rgb', contrast=None, depth=0, draggable=False, fillColor=array([0.00392157, 0.00392157, 0.00392157]), fillColorSpace='rgb', fillRGB=array([0.00392157, 0.00392157, 0.00392157]), interpolate=True, lineColor=array([0., 0., 0.]), lineColorSpace='rgb', lineRGB=array([0, 0, 0]), lineWidth=1.5, name='unnamed Rect', opacity=0.5, ori=0.0, pos=array([0., 0.]), size=array([2., 2.]), units='norm', vertices=ndarray(...), win=Window(...))",2.1,[],8,0.75,"[<psychopy.visual.line.Line object at 0x7f469f06fb80>, <psychopy.visual.line.Line object at 0x7f469f074370>]",<psychopy.hardware.keyboard.Keyboard object at 0x7f46952ce6a0>,
4,dot,0.3,['dot'],['density'],black,0,38,38,38,,,15.417098045349121,15.716980934143066,dot,"[0.1, 0.06, 0.1, 0.08]","[[-0.22375678750486633, 0.16938766720995918], [-0.03438308412182927, 0.2632029670309489], [0.15312837370161694, 0.1265605786946886], [-0.035433382102469414, 0.014828983441921377]]",density,black,true,correct,nan,N007,visual,1,"['1', '2']","['3', '4']",1,/NOBACKUP2/USER/Jeong/experiment2,/NOBACKUP2/USER/Jeong/experiment2/logfiles/visual/N007_d-20240926,2023.2.3,harveyvisual,"Window(allowGUI=False, allowStencil=False, autoLog=True, backendConf=UNKNOWN, backgroundFit='cover', backgroundImage=None, bitsMode=UNKNOWN, blendMode='avg', bpc=(8, 8, 8), color=array([-1, -1, -1]), colorSpace='rgb', depthBits=8, fullscr=<method-wrapper '__getattribute__' of attributeSetter object at 0x7f46b5072580>, gamma=None, gammaErrorPolicy='raise', lms=UNKNOWN, monitor=<psychopy.monitors.calibTools.Monitor object at 0x7f46ae15adf0>, multiSample=False, name='stim_window', numSamples=2, pos=[0.0, 0.0], screen=0, size=array([1920, 1080]), stencilBits=0, stereo=False, title='PsychoPy', units='deg', useFBO=True, useRetina=False, viewOri=0.0, viewPos=None, viewScale=None, waitBlanking=True, winType='pyglet')","{'TR': 2.1, 'volumes': 5, 'sync': '5', 'skip': 0, 'sound': False}",<psychopy.clock.CountdownTimer object at 0x7f46ae137790>,"Rect(__class__=<class 'psychopy.visual.rect.Rect'>, anchor=('center', 'center'), autoDraw=True, autoLog=True, closeShape=True, color=method-wrapper(...), colorSpace='rgb', contrast=None, depth=0, draggable=False, fillColor=array([0.00392157, 0.00392157, 0.00392157]), fillColorSpace='rgb', fillRGB=array([0.00392157, 0.00392157, 0.00392157]), interpolate=True, lineColor=array([0., 0., 0.]), lineColorSpace='rgb', lineRGB=array([0, 0, 0]), lineWidth=1.5, name='unnamed Rect', opacity=0.5, ori=0.0, pos=array([0., 0.]), size=array([2., 2.]), units='norm', vertices=ndarray(...), win=Window(...))",2.1,[],8,0.75,"[<psychopy.visual.line.Line object at 0x7f469f06fb80>, <psychopy.visual.line.Line object at 0x7f469f074370>]",<psychopy.hardware.keyboard.Keyboard object at 0x7f46952ce6a0>,
0,pause,0.4,None,None,None,0,39,39,39,,,,,,,,,,,,,N007,visual,1,"['1', '2']","['3', '4']",1,/NOBACKUP2/USER/Jeong/experiment2,/NOBACKUP2/USER/Jeong/experiment2/logfiles/visual/N007_d-20240926,2023.2.3,harveyvisual,"Window(allowGUI=False, allowStencil=False, autoLog=True, backendConf=UNKNOWN, backgroundFit='cover', backgroundImage=None, bitsMode=UNKNOWN, blendMode='avg', bpc=(8, 8, 8), color=array([-1, -1, -1]), colorSpace='rgb', depthBits=8, fullscr=<method-wrapper '__getattribute__' of attributeSetter object at 0x7f46b5072580>, gamma=None, gammaErrorPolicy='raise', lms=UNKNOWN, monitor=<psychopy.monitors.calibTools.Monitor object at 0x7f46ae15adf0>, multiSample=False, name='stim_window', numSamples=2, pos=[0.0, 0.0], screen=0, size=array([1920, 1080]), stencilBits=0, stereo=False, title='PsychoPy', units='deg', useFBO=True, useRetina=False, viewOri=0.0, viewPos=None, viewScale=None, waitBlanking=True, winType='pyglet')","{'TR': 2.1, 'volumes': 5, 'sync': '5', 'skip': 0, 'sound': False}",<psychopy.clock.CountdownTimer object at 0x7f46ae137790>,"Rect(__class__=<class 'psychopy.visual.rect.Rect'>, anchor=('center', 'center'), autoDraw=True, autoLog=True, closeShape=True, color=method-wrapper(...), colorSpace='rgb', contrast=None, depth=0, draggable=False, fillColor=array([0.00392157, 0.00392157, 0.00392157]), fillColorSpace='rgb', fillRGB=array([0.00392157, 0.00392157, 0.00392157]), interpolate=True, lineColor=array([0., 0., 0.]), lineColorSpace='rgb', lineRGB=array([0, 0, 0]), lineWidth=1.5, name='unnamed Rect', opacity=0.5, ori=0.0, pos=array([0., 0.]), size=array([2., 2.]), units='norm', vertices=ndarray(...), win=Window(...))",2.1,[],8,0.75,"[<psychopy.visual.line.Line object at 0x7f469f06fb80>, <psychopy.visual.line.Line object at 0x7f469f074370>]",<psychopy.hardware.keyboard.Keyboard object at 0x7f46952ce6a0>,
4,dot,0.3,['dot'],['density'],black,0,40,40,40,,,16.116912126541138,16.41706395149231,dot,"[0.08, 0.1, 0.1, 0.08]","[[-0.2516773625496151, -0.30151264897341506], [-0.16747001932966935, -0.11477707456203952], [0.007305472957725734, -0.4586877449884055], [0.017540980065453668, -0.20354321808263612]]",density,black,true,correct,nan,N007,visual,1,"['1', '2']","['3', '4']",1,/NOBACKUP2/USER/Jeong/experiment2,/NOBACKUP2/USER/Jeong/experiment2/logfiles/visual/N007_d-20240926,2023.2.3,harveyvisual,"Window(allowGUI=False, allowStencil=False, autoLog=True, backendConf=UNKNOWN, backgroundFit='cover', backgroundImage=None, bitsMode=UNKNOWN, blendMode='avg', bpc=(8, 8, 8), color=array([-1, -1, -1]), colorSpace='rgb', depthBits=8, fullscr=<method-wrapper '__getattribute__' of attributeSetter object at 0x7f46b5072580>, gamma=None, gammaErrorPolicy='raise', lms=UNKNOWN, monitor=<psychopy.monitors.calibTools.Monitor object at 0x7f46ae15adf0>, multiSample=False, name='stim_window', numSamples=2, pos=[0.0, 0.0], screen=0, size=array([1920, 1080]), stencilBits=0, stereo=False, title='PsychoPy', units='deg', useFBO=True, useRetina=False, viewOri=0.0, viewPos=None, viewScale=None, waitBlanking=True, winType='pyglet')","{'TR': 2.1, 'volumes': 5, 'sync': '5', 'skip': 0, 'sound': False}",<psychopy.clock.CountdownTimer object at 0x7f46ae137790>,"Rect(__class__=<class 'psychopy.visual.rect.Rect'>, anchor=('center', 'center'), autoDraw=True, autoLog=True, closeShape=True, color=method-wrapper(...), colorSpace='rgb', contrast=None, depth=0, draggable=False, fillColor=array([0.00392157, 0.00392157, 0.00392157]), fillColorSpace='rgb', fillRGB=array([0.00392157, 0.00392157, 0.00392157]), interpolate=True, lineColor=array([0., 0., 0.]), lineColorSpace='rgb', lineRGB=array([0, 0, 0]), lineWidth=1.5, name='unnamed Rect', opacity=0.5, ori=0.0, pos=array([0., 0.]), size=array([2., 2.]), units='norm', vertices=ndarray(...), win=Window(...))",2.1,[],8,0.75,"[<psychopy.visual.line.Line object at 0x7f469f06fb80>, <psychopy.visual.line.Line object at 0x7f469f074370>]",<psychopy.hardware.keyboard.Keyboard object at 0x7f46952ce6a0>,
0,pause,0.4,None,None,None,0,41,41,41,,,,,,,,,,,,,N007,visual,1,"['1', '2']","['3', '4']",1,/NOBACKUP2/USER/Jeong/experiment2,/NOBACKUP2/USER/Jeong/experiment2/logfiles/visual/N007_d-20240926,2023.2.3,harveyvisual,"Window(allowGUI=False, allowStencil=False, autoLog=True, backendConf=UNKNOWN, backgroundFit='cover', backgroundImage=None, bitsMode=UNKNOWN, blendMode='avg', bpc=(8, 8, 8), color=array([-1, -1, -1]), colorSpace='rgb', depthBits=8, fullscr=<method-wrapper '__getattribute__' of attributeSetter object at 0x7f46b5072580>, gamma=None, gammaErrorPolicy='raise', lms=UNKNOWN, monitor=<psychopy.monitors.calibTools.Monitor object at 0x7f46ae15adf0>, multiSample=False, name='stim_window', numSamples=2, pos=[0.0, 0.0], screen=0, size=array([1920, 1080]), stencilBits=0, stereo=False, title='PsychoPy', units='deg', useFBO=True, useRetina=False, viewOri=0.0, viewPos=None, viewScale=None, waitBlanking=True, winType='pyglet')","{'TR': 2.1, 'volumes': 5, 'sync': '5', 'skip': 0, 'sound': False}",<psychopy.clock.CountdownTimer object at 0x7f46ae137790>,"Rect(__class__=<class 'psychopy.visual.rect.Rect'>, anchor=('center', 'center'), autoDraw=True, autoLog=True, closeShape=True, color=method-wrapper(...), colorSpace='rgb', contrast=None, depth=0, draggable=False, fillColor=array([0.00392157, 0.00392157, 0.00392157]), fillColorSpace='rgb', fillRGB=array([0.00392157, 0.00392157, 0.00392157]), interpolate=True, lineColor=array([0., 0., 0.]), lineColorSpace='rgb', lineRGB=array([0, 0, 0]), lineWidth=1.5, name='unnamed Rect', opacity=0.5, ori=0.0, pos=array([0., 0.]), size=array([2., 2.]), units='norm', vertices=ndarray(...), win=Window(...))",2.1,[],8,0.75,"[<psychopy.visual.line.Line object at 0x7f469f06fb80>, <psychopy.visual.line.Line object at 0x7f469f074370>]",<psychopy.hardware.keyboard.Keyboard object at 0x7f46952ce6a0>,
4,dot,0.3,['dot'],['density'],black,0,42,42,42,,,16.81691813468933,17.11690402030945,dot,"[0.06, 0.08, 0.1, 0.08]","[[0.3510671072586959, 0.39105757673094776], [0.13754249634966464, 0.24690230999823115], [0.2791454519284172, 0.028997379515453933], [0.42442503262497266, 0.18132357243737673]]",density,black,true,correct,nan,N007,visual,1,"['1', '2']","['3', '4']",1,/NOBACKUP2/USER/Jeong/experiment2,/NOBACKUP2/USER/Jeong/experiment2/logfiles/visual/N007_d-20240926,2023.2.3,harveyvisual,"Window(allowGUI=False, allowStencil=False, autoLog=True, backendConf=UNKNOWN, backgroundFit='cover', backgroundImage=None, bitsMode=UNKNOWN, blendMode='avg', bpc=(8, 8, 8), color=array([-1, -1, -1]), colorSpace='rgb', depthBits=8, fullscr=<method-wrapper '__getattribute__' of attributeSetter object at 0x7f46b5072580>, gamma=None, gammaErrorPolicy='raise', lms=UNKNOWN, monitor=<psychopy.monitors.calibTools.Monitor object at 0x7f46ae15adf0>, multiSample=False, name='stim_window', numSamples=2, pos=[0.0, 0.0], screen=0, size=array([1920, 1080]), stencilBits=0, stereo=False, title='PsychoPy', units='deg', useFBO=True, useRetina=False, viewOri=0.0, viewPos=None, viewScale=None, waitBlanking=True, winType='pyglet')","{'TR': 2.1, 'volumes': 5, 'sync': '5', 'skip': 0, 'sound': False}",<psychopy.clock.CountdownTimer object at 0x7f46ae137790>,"Rect(__class__=<class 'psychopy.visual.rect.Rect'>, anchor=('center', 'center'), autoDraw=True, autoLog=True, closeShape=True, color=method-wrapper(...), colorSpace='rgb', contrast=None, depth=0, draggable=False, fillColor=array([0.00392157, 0.00392157, 0.00392157]), fillColorSpace='rgb', fillRGB=array([0.00392157, 0.00392157, 0.00392157]), interpolate=True, lineColor=array([0., 0., 0.]), lineColorSpace='rgb', lineRGB=array([0, 0, 0]), lineWidth=1.5, name='unnamed Rect', opacity=0.5, ori=0.0, pos=array([0., 0.]), size=array([2., 2.]), units='norm', vertices=ndarray(...), win=Window(...))",2.1,[],8,0.75,"[<psychopy.visual.line.Line object at 0x7f469f06fb80>, <psychopy.visual.line.Line object at 0x7f469f074370>]",<psychopy.hardware.keyboard.Keyboard object at 0x7f46952ce6a0>,
0,pause,0.4,None,None,None,0,43,43,43,,,,,,,,,,,,,N007,visual,1,"['1', '2']","['3', '4']",1,/NOBACKUP2/USER/Jeong/experiment2,/NOBACKUP2/USER/Jeong/experiment2/logfiles/visual/N007_d-20240926,2023.2.3,harveyvisual,"Window(allowGUI=False, allowStencil=False, autoLog=True, backendConf=UNKNOWN, backgroundFit='cover', backgroundImage=None, bitsMode=UNKNOWN, blendMode='avg', bpc=(8, 8, 8), color=array([-1, -1, -1]), colorSpace='rgb', depthBits=8, fullscr=<method-wrapper '__getattribute__' of attributeSetter object at 0x7f46b5072580>, gamma=None, gammaErrorPolicy='raise', lms=UNKNOWN, monitor=<psychopy.monitors.calibTools.Monitor object at 0x7f46ae15adf0>, multiSample=False, name='stim_window', numSamples=2, pos=[0.0, 0.0], screen=0, size=array([1920, 1080]), stencilBits=0, stereo=False, title='PsychoPy', units='deg', useFBO=True, useRetina=False, viewOri=0.0, viewPos=None, viewScale=None, waitBlanking=True, winType='pyglet')","{'TR': 2.1, 'volumes': 5, 'sync': '5', 'skip': 0, 'sound': False}",<psychopy.clock.CountdownTimer object at 0x7f46ae137790>,"Rect(__class__=<class 'psychopy.visual.rect.Rect'>, anchor=('center', 'center'), autoDraw=True, autoLog=True, closeShape=True, color=method-wrapper(...), colorSpace='rgb', contrast=None, depth=0, draggable=False, fillColor=array([0.00392157, 0.00392157, 0.00392157]), fillColorSpace='rgb', fillRGB=array([0.00392157, 0.00392157, 0.00392157]), interpolate=True, lineColor=array([0., 0., 0.]), lineColorSpace='rgb', lineRGB=array([0, 0, 0]), lineWidth=1.5, name='unnamed Rect', opacity=0.5, ori=0.0, pos=array([0., 0.]), size=array([2., 2.]), units='norm', vertices=ndarray(...), win=Window(...))",2.1,[],8,0.75,"[<psychopy.visual.line.Line object at 0x7f469f06fb80>, <psychopy.visual.line.Line object at 0x7f469f074370>]",<psychopy.hardware.keyboard.Keyboard object at 0x7f46952ce6a0>,
4,dot,0.3,['dot'],['density'],black,0,44,44,44,,,17.516927003860474,17.816893100738525,dot,"[0.1, 0.06, 0.08, 0.1]","[[0.3510671072586959, 0.39105757673094776], [0.13754249634966464, 0.24690230999823115], [0.2791454519284172, 0.028997379515453933], [0.42442503262497266, 0.18132357243737673]]",density,black,true,correct,nan,N007,visual,1,"['1', '2']","['3', '4']",1,/NOBACKUP2/USER/Jeong/experiment2,/NOBACKUP2/USER/Jeong/experiment2/logfiles/visual/N007_d-20240926,2023.2.3,harveyvisual,"Window(allowGUI=False, allowStencil=False, autoLog=True, backendConf=UNKNOWN, backgroundFit='cover', backgroundImage=None, bitsMode=UNKNOWN, blendMode='avg', bpc=(8, 8, 8), color=array([-1, -1, -1]), colorSpace='rgb', depthBits=8, fullscr=<method-wrapper '__getattribute__' of attributeSetter object at 0x7f46b5072580>, gamma=None, gammaErrorPolicy='raise', lms=UNKNOWN, monitor=<psychopy.monitors.calibTools.Monitor object at 0x7f46ae15adf0>, multiSample=False, name='stim_window', numSamples=2, pos=[0.0, 0.0], screen=0, size=array([1920, 1080]), stencilBits=0, stereo=False, title='PsychoPy', units='deg', useFBO=True, useRetina=False, viewOri=0.0, viewPos=None, viewScale=None, waitBlanking=True, winType='pyglet')","{'TR': 2.1, 'volumes': 5, 'sync': '5', 'skip': 0, 'sound': False}",<psychopy.clock.CountdownTimer object at 0x7f46ae137790>,"Rect(__class__=<class 'psychopy.visual.rect.Rect'>, anchor=('center', 'center'), autoDraw=True, autoLog=True, closeShape=True, color=method-wrapper(...), colorSpace='rgb', contrast=None, depth=0, draggable=False, fillColor=array([0.00392157, 0.00392157, 0.00392157]), fillColorSpace='rgb', fillRGB=array([0.00392157, 0.00392157, 0.00392157]), interpolate=True, lineColor=array([0., 0., 0.]), lineColorSpace='rgb', lineRGB=array([0, 0, 0]), lineWidth=1.5, name='unnamed Rect', opacity=0.5, ori=0.0, pos=array([0., 0.]), size=array([2., 2.]), units='norm', vertices=ndarray(...), win=Window(...))",2.1,[],8,0.75,"[<psychopy.visual.line.Line object at 0x7f469f06fb80>, <psychopy.visual.line.Line object at 0x7f469f074370>]",<psychopy.hardware.keyboard.Keyboard object at 0x7f46952ce6a0>,
0,pause,0.4,None,None,None,0,45,45,45,,,,,,,,,,,,,N007,visual,1,"['1', '2']","['3', '4']",1,/NOBACKUP2/USER/Jeong/experiment2,/NOBACKUP2/USER/Jeong/experiment2/logfiles/visual/N007_d-20240926,2023.2.3,harveyvisual,"Window(allowGUI=False, allowStencil=False, autoLog=True, backendConf=UNKNOWN, backgroundFit='cover', backgroundImage=None, bitsMode=UNKNOWN, blendMode='avg', bpc=(8, 8, 8), color=array([-1, -1, -1]), colorSpace='rgb', depthBits=8, fullscr=<method-wrapper '__getattribute__' of attributeSetter object at 0x7f46b5072580>, gamma=None, gammaErrorPolicy='raise', lms=UNKNOWN, monitor=<psychopy.monitors.calibTools.Monitor object at 0x7f46ae15adf0>, multiSample=False, name='stim_window', numSamples=2, pos=[0.0, 0.0], screen=0, size=array([1920, 1080]), stencilBits=0, stereo=False, title='PsychoPy', units='deg', useFBO=True, useRetina=False, viewOri=0.0, viewPos=None, viewScale=None, waitBlanking=True, winType='pyglet')","{'TR': 2.1, 'volumes': 5, 'sync': '5', 'skip': 0, 'sound': False}",<psychopy.clock.CountdownTimer object at 0x7f46ae137790>,"Rect(__class__=<class 'psychopy.visual.rect.Rect'>, anchor=('center', 'center'), autoDraw=True, autoLog=True, closeShape=True, color=method-wrapper(...), colorSpace='rgb', contrast=None, depth=0, draggable=False, fillColor=array([0.00392157, 0.00392157, 0.00392157]), fillColorSpace='rgb', fillRGB=array([0.00392157, 0.00392157, 0.00392157]), interpolate=True, lineColor=array([0., 0., 0.]), lineColorSpace='rgb', lineRGB=array([0, 0, 0]), lineWidth=1.5, name='unnamed Rect', opacity=0.5, ori=0.0, pos=array([0., 0.]), size=array([2., 2.]), units='norm', vertices=ndarray(...), win=Window(...))",2.1,[],8,0.75,"[<psychopy.visual.line.Line object at 0x7f469f06fb80>, <psychopy.visual.line.Line object at 0x7f469f074370>]",<psychopy.hardware.keyboard.Keyboard object at 0x7f46952ce6a0>,
4,dot,0.3,['dot'],['density'],black,0,46,46,46,,,18.217015027999878,18.517012119293213,dot,"[0.08, 0.06, 0.08, 0.1]","[[-0.2516773625496151, -0.30151264897341506], [-0.16747001932966935, -0.11477707456203952], [0.007305472957725734, -0.4586877449884055], [0.017540980065453668, -0.20354321808263612]]",density,black,true,correct,nan,N007,visual,1,"['1', '2']","['3', '4']",1,/NOBACKUP2/USER/Jeong/experiment2,/NOBACKUP2/USER/Jeong/experiment2/logfiles/visual/N007_d-20240926,2023.2.3,harveyvisual,"Window(allowGUI=False, allowStencil=False, autoLog=True, backendConf=UNKNOWN, backgroundFit='cover', backgroundImage=None, bitsMode=UNKNOWN, blendMode='avg', bpc=(8, 8, 8), color=array([-1, -1, -1]), colorSpace='rgb', depthBits=8, fullscr=<method-wrapper '__getattribute__' of attributeSetter object at 0x7f46b5072580>, gamma=None, gammaErrorPolicy='raise', lms=UNKNOWN, monitor=<psychopy.monitors.calibTools.Monitor object at 0x7f46ae15adf0>, multiSample=False, name='stim_window', numSamples=2, pos=[0.0, 0.0], screen=0, size=array([1920, 1080]), stencilBits=0, stereo=False, title='PsychoPy', units='deg', useFBO=True, useRetina=False, viewOri=0.0, viewPos=None, viewScale=None, waitBlanking=True, winType='pyglet')","{'TR': 2.1, 'volumes': 5, 'sync': '5', 'skip': 0, 'sound': False}",<psychopy.clock.CountdownTimer object at 0x7f46ae137790>,"Rect(__class__=<class 'psychopy.visual.rect.Rect'>, anchor=('center', 'center'), autoDraw=True, autoLog=True, closeShape=True, color=method-wrapper(...), colorSpace='rgb', contrast=None, depth=0, draggable=False, fillColor=array([0.00392157, 0.00392157, 0.00392157]), fillColorSpace='rgb', fillRGB=array([0.00392157, 0.00392157, 0.00392157]), interpolate=True, lineColor=array([0., 0., 0.]), lineColorSpace='rgb', lineRGB=array([0, 0, 0]), lineWidth=1.5, name='unnamed Rect', opacity=0.5, ori=0.0, pos=array([0., 0.]), size=array([2., 2.]), units='norm', vertices=ndarray(...), win=Window(...))",2.1,[],8,0.75,"[<psychopy.visual.line.Line object at 0x7f469f06fb80>, <psychopy.visual.line.Line object at 0x7f469f074370>]",<psychopy.hardware.keyboard.Keyboard object at 0x7f46952ce6a0>,
0,pause,0.4,None,None,None,0,47,47,47,,,,,,,,,,,,,N007,visual,1,"['1', '2']","['3', '4']",1,/NOBACKUP2/USER/Jeong/experiment2,/NOBACKUP2/USER/Jeong/experiment2/logfiles/visual/N007_d-20240926,2023.2.3,harveyvisual,"Window(allowGUI=False, allowStencil=False, autoLog=True, backendConf=UNKNOWN, backgroundFit='cover', backgroundImage=None, bitsMode=UNKNOWN, blendMode='avg', bpc=(8, 8, 8), color=array([-1, -1, -1]), colorSpace='rgb', depthBits=8, fullscr=<method-wrapper '__getattribute__' of attributeSetter object at 0x7f46b5072580>, gamma=None, gammaErrorPolicy='raise', lms=UNKNOWN, monitor=<psychopy.monitors.calibTools.Monitor object at 0x7f46ae15adf0>, multiSample=False, name='stim_window', numSamples=2, pos=[0.0, 0.0], screen=0, size=array([1920, 1080]), stencilBits=0, stereo=False, title='PsychoPy', units='deg', useFBO=True, useRetina=False, viewOri=0.0, viewPos=None, viewScale=None, waitBlanking=True, winType='pyglet')","{'TR': 2.1, 'volumes': 5, 'sync': '5', 'skip': 0, 'sound': False}",<psychopy.clock.CountdownTimer object at 0x7f46ae137790>,"Rect(__class__=<class 'psychopy.visual.rect.Rect'>, anchor=('center', 'center'), autoDraw=True, autoLog=True, closeShape=True, color=method-wrapper(...), colorSpace='rgb', contrast=None, depth=0, draggable=False, fillColor=array([0.00392157, 0.00392157, 0.00392157]), fillColorSpace='rgb', fillRGB=array([0.00392157, 0.00392157, 0.00392157]), interpolate=True, lineColor=array([0., 0., 0.]), lineColorSpace='rgb', lineRGB=array([0, 0, 0]), lineWidth=1.5, name='unnamed Rect', opacity=0.5, ori=0.0, pos=array([0., 0.]), size=array([2., 2.]), units='norm', vertices=ndarray(...), win=Window(...))",2.1,[],8,0.75,"[<psychopy.visual.line.Line object at 0x7f469f06fb80>, <psychopy.visual.line.Line object at 0x7f469f074370>]",<psychopy.hardware.keyboard.Keyboard object at 0x7f46952ce6a0>,
5,dot,0.3,['dot'],['density'],black,0,48,48,48,,,18.916990041732788,19.216978073120117,dot,"[0.08, 0.08, 0.1, 0.08, 0.08]","[[-0.08538919239777085, -0.3767281323802813], [0.14382612128503536, -0.4947333592336123], [0.2503732289573559, -0.06783159190520484], [0.07777572498152553, -0.21879460077906046], [0.26544561712664855, -0.2975172507008621]]",density,black,false,wrong,nan,N007,visual,1,"['1', '2']","['3', '4']",1,/NOBACKUP2/USER/Jeong/experiment2,/NOBACKUP2/USER/Jeong/experiment2/logfiles/visual/N007_d-20240926,2023.2.3,harveyvisual,"Window(allowGUI=False, allowStencil=False, autoLog=True, backendConf=UNKNOWN, backgroundFit='cover', backgroundImage=None, bitsMode=UNKNOWN, blendMode='avg', bpc=(8, 8, 8), color=array([-1, -1, -1]), colorSpace='rgb', depthBits=8, fullscr=<method-wrapper '__getattribute__' of attributeSetter object at 0x7f46b5072580>, gamma=None, gammaErrorPolicy='raise', lms=UNKNOWN, monitor=<psychopy.monitors.calibTools.Monitor object at 0x7f46ae15adf0>, multiSample=False, name='stim_window', numSamples=2, pos=[0.0, 0.0], screen=0, size=array([1920, 1080]), stencilBits=0, stereo=False, title='PsychoPy', units='deg', useFBO=True, useRetina=False, viewOri=0.0, viewPos=None, viewScale=None, waitBlanking=True, winType='pyglet')","{'TR': 2.1, 'volumes': 5, 'sync': '5', 'skip': 0, 'sound': False}",<psychopy.clock.CountdownTimer object at 0x7f46ae137790>,"Rect(__class__=<class 'psychopy.visual.rect.Rect'>, anchor=('center', 'center'), autoDraw=True, autoLog=True, closeShape=True, color=method-wrapper(...), colorSpace='rgb', contrast=None, depth=0, draggable=False, fillColor=array([0.00392157, 0.00392157, 0.00392157]), fillColorSpace='rgb', fillRGB=array([0.00392157, 0.00392157, 0.00392157]), interpolate=True, lineColor=array([0., 0., 0.]), lineColorSpace='rgb', lineRGB=array([0, 0, 0]), lineWidth=1.5, name='unnamed Rect', opacity=0.5, ori=0.0, pos=array([0., 0.]), size=array([2., 2.]), units='norm', vertices=ndarray(...), win=Window(...))",2.1,[],8,0.75,"[<psychopy.visual.line.Line object at 0x7f469f06fb80>, <psychopy.visual.line.Line object at 0x7f469f074370>]",<psychopy.hardware.keyboard.Keyboard object at 0x7f46952ce6a0>,
0,pause,0.4,None,None,None,0,49,49,49,,,,,,,,,,,,,N007,visual,1,"['1', '2']","['3', '4']",1,/NOBACKUP2/USER/Jeong/experiment2,/NOBACKUP2/USER/Jeong/experiment2/logfiles/visual/N007_d-20240926,2023.2.3,harveyvisual,"Window(allowGUI=False, allowStencil=False, autoLog=True, backendConf=UNKNOWN, backgroundFit='cover', backgroundImage=None, bitsMode=UNKNOWN, blendMode='avg', bpc=(8, 8, 8), color=array([-1, -1, -1]), colorSpace='rgb', depthBits=8, fullscr=<method-wrapper '__getattribute__' of attributeSetter object at 0x7f46b5072580>, gamma=None, gammaErrorPolicy='raise', lms=UNKNOWN, monitor=<psychopy.monitors.calibTools.Monitor object at 0x7f46ae15adf0>, multiSample=False, name='stim_window', numSamples=2, pos=[0.0, 0.0], screen=0, size=array([1920, 1080]), stencilBits=0, stereo=False, title='PsychoPy', units='deg', useFBO=True, useRetina=False, viewOri=0.0, viewPos=None, viewScale=None, waitBlanking=True, winType='pyglet')","{'TR': 2.1, 'volumes': 5, 'sync': '5', 'skip': 0, 'sound': False}",<psychopy.clock.CountdownTimer object at 0x7f46ae137790>,"Rect(__class__=<class 'psychopy.visual.rect.Rect'>, anchor=('center', 'center'), autoDraw=True, autoLog=True, closeShape=True, color=method-wrapper(...), colorSpace='rgb', contrast=None, depth=0, draggable=False, fillColor=array([0.00392157, 0.00392157, 0.00392157]), fillColorSpace='rgb', fillRGB=array([0.00392157, 0.00392157, 0.00392157]), interpolate=True, lineColor=array([0., 0., 0.]), lineColorSpace='rgb', lineRGB=array([0, 0, 0]), lineWidth=1.5, name='unnamed Rect', opacity=0.5, ori=0.0, pos=array([0., 0.]), size=array([2., 2.]), units='norm', vertices=ndarray(...), win=Window(...))",2.1,[],8,0.75,"[<psychopy.visual.line.Line object at 0x7f469f06fb80>, <psychopy.visual.line.Line object at 0x7f469f074370>]",<psychopy.hardware.keyboard.Keyboard object at 0x7f46952ce6a0>,
5,dot,0.3,['dot'],['density'],black,0,50,50,50,,,19.616968154907227,19.916842937469482,dot,"[0.06, 0.06, 0.06, 0.08, 0.08]","[[0.36014554898799966, 0.387810422325294], [0.055757472799778995, 0.16941293674392635], [0.2210739480460382, 0.008175952352481365], [0.48495712857242873, 0.07425785546611247], [0.25975240449222103, 0.2092734881649904]]",density,black,true,correct,nan,N007,visual,1,"['1', '2']","['3', '4']",1,/NOBACKUP2/USER/Jeong/experiment2,/NOBACKUP2/USER/Jeong/experiment2/logfiles/visual/N007_d-20240926,2023.2.3,harveyvisual,"Window(allowGUI=False, allowStencil=False, autoLog=True, backendConf=UNKNOWN, backgroundFit='cover', backgroundImage=None, bitsMode=UNKNOWN, blendMode='avg', bpc=(8, 8, 8), color=array([-1, -1, -1]), colorSpace='rgb', depthBits=8, fullscr=<method-wrapper '__getattribute__' of attributeSetter object at 0x7f46b5072580>, gamma=None, gammaErrorPolicy='raise', lms=UNKNOWN, monitor=<psychopy.monitors.calibTools.Monitor object at 0x7f46ae15adf0>, multiSample=False, name='stim_window', numSamples=2, pos=[0.0, 0.0], screen=0, size=array([1920, 1080]), stencilBits=0, stereo=False, title='PsychoPy', units='deg', useFBO=True, useRetina=False, viewOri=0.0, viewPos=None, viewScale=None, waitBlanking=True, winType='pyglet')","{'TR': 2.1, 'volumes': 5, 'sync': '5', 'skip': 0, 'sound': False}",<psychopy.clock.CountdownTimer object at 0x7f46ae137790>,"Rect(__class__=<class 'psychopy.visual.rect.Rect'>, anchor=('center', 'center'), autoDraw=True, autoLog=True, closeShape=True, color=method-wrapper(...), colorSpace='rgb', contrast=None, depth=0, draggable=False, fillColor=array([0.00392157, 0.00392157, 0.00392157]), fillColorSpace='rgb', fillRGB=array([0.00392157, 0.00392157, 0.00392157]), interpolate=True, lineColor=array([0., 0., 0.]), lineColorSpace='rgb', lineRGB=array([0, 0, 0]), lineWidth=1.5, name='unnamed Rect', opacity=0.5, ori=0.0, pos=array([0., 0.]), size=array([2., 2.]), units='norm', vertices=ndarray(...), win=Window(...))",2.1,[],8,0.75,"[<psychopy.visual.line.Line object at 0x7f469f06fb80>, <psychopy.visual.line.Line object at 0x7f469f074370>]",<psychopy.hardware.keyboard.Keyboard object at 0x7f46952ce6a0>,
