num,mod,duration,shape,ll_cond,colors,.thisRepN,.thisTrialN,.thisN,.thisIndex,thisRow.t,notes,raw_global_time,t_start,t_stop,shapes,size,pos,cond,color,button,RT,participant,session,starting_run,left button (match/odd),right button (non-match/even),samples_per_block,psychopy version,expName,offset,audio,number_runs,radius,
1,dot,0.3,['dot'],['density'],black,0,0,0,0,,,2.400426149368286,2.1104671955108643,2.410423994064331,dot,[0.06],"[0.5668064281626585, -0.020013277593342628]",density,black,,,D003,visual,1,[],"['1', '2', '3', '4']",1,2023.2.3,harveyvisual,2.1,[],8,0.75,
0,pause,0.4,None,None,None,0,1,1,1,,,,,,,,,,,,,D003,visual,1,[],"['1', '2', '3', '4']",1,2023.2.3,harveyvisual,2.1,[],8,0.75,
1,dot,0.3,['dot'],['density'],black,0,2,2,2,,,3.1004011631011963,2.8104159832000732,3.110966205596924,dot,[0.06],"[0.1049869166116724, 0.1335000464341748]",density,black,,,D003,visual,1,[],"['1', '2', '3', '4']",1,2023.2.3,harveyvisual,2.1,[],8,0.75,
0,pause,0.4,None,None,None,0,3,3,3,,,,,,,,,,,,,D003,visual,1,[],"['1', '2', '3', '4']",1,2023.2.3,harveyvisual,2.1,[],8,0.75,
1,dot,0.3,['dot'],['density'],black,0,4,4,4,,,3.8004140853881836,3.510885000228882,3.8109371662139893,dot,[0.06],"[0.43730911014729085, 0.38068286015665653]",density,black,,,D003,visual,1,[],"['1', '2', '3', '4']",1,2023.2.3,harveyvisual,2.1,[],8,0.75,
0,pause,0.4,None,None,None,0,5,5,5,,,,,,,,,,,,,D003,visual,1,[],"['1', '2', '3', '4']",1,2023.2.3,harveyvisual,2.1,[],8,0.75,
1,dot,0.3,['dot'],['density'],black,0,6,6,6,,,4.500409126281738,4.210837125778198,4.5109031200408936,dot,[0.1],"[0.19623115665255414, 0.1676894875529279]",density,black,,,D003,visual,1,[],"['1', '2', '3', '4']",1,2023.2.3,harveyvisual,2.1,[],8,0.75,
0,pause,0.4,None,None,None,0,7,7,7,,,,,,,,,,,,,D003,visual,1,[],"['1', '2', '3', '4']",1,2023.2.3,harveyvisual,2.1,[],8,0.75,
1,dot,0.3,['dot'],['density'],black,0,8,8,8,,,5.200409173965454,4.910922050476074,5.210910081863403,dot,[0.06],"[-0.13294789447644317, -0.0050084293737640015]",density,black,,,D003,visual,1,[],"['1', '2', '3', '4']",1,2023.2.3,harveyvisual,2.1,[],8,0.75,
0,pause,0.4,None,None,None,0,9,9,9,,,,,,,,,,,,,D003,visual,1,[],"['1', '2', '3', '4']",1,2023.2.3,harveyvisual,2.1,[],8,0.75,
1,dot,0.3,['dot'],['density'],black,0,10,10,10,,,5.900411128997803,5.6131651401519775,5.913156986236572,dot,[0.06],"[0.15956500649880873, 0.2640393008039057]",density,black,,,D003,visual,1,[],"['1', '2', '3', '4']",1,2023.2.3,harveyvisual,2.1,[],8,0.75,
0,pause,0.4,None,None,None,0,11,11,11,,,,,,,,,,,,,D003,visual,1,[],"['1', '2', '3', '4']",1,2023.2.3,harveyvisual,2.1,[],8,0.75,
2,dot,0.3,['dot'],['density'],black,0,12,12,12,,,6.600427150726318,6.313126087188721,6.613140106201172,dot,"[0.1, 0.08]","[[0.11825467712572878, -0.39617910972508336], [0.05459236086910312, -0.5860717982025758]]",density,black,,,D003,visual,1,[],"['1', '2', '3', '4']",1,2023.2.3,harveyvisual,2.1,[],8,0.75,
0,pause,0.4,None,None,None,0,13,13,13,,,,,,,,,,,,,D003,visual,1,[],"['1', '2', '3', '4']",1,2023.2.3,harveyvisual,2.1,[],8,0.75,
2,dot,0.3,['dot'],['density'],black,0,14,14,14,,,7.300426006317139,7.013115167617798,7.3130950927734375,dot,"[0.06, 0.08]","[[0.11825467712572878, -0.39617910972508336], [0.05459236086910312, -0.5860717982025758]]",density,black,,,D003,visual,1,[],"['1', '2', '3', '4']",1,2023.2.3,harveyvisual,2.1,[],8,0.75,
0,pause,0.4,None,None,None,0,15,15,15,,,,,,,,,,,,,D003,visual,1,[],"['1', '2', '3', '4']",1,2023.2.3,harveyvisual,2.1,[],8,0.75,
2,dot,0.3,['dot'],['density'],black,0,16,16,16,,,8.000413179397583,7.713093996047974,8.01308298110962,dot,"[0.06, 0.1]","[[0.1851205616289071, -0.3624876981064337], [0.3405923022038234, -0.23608025195482504]]",density,black,,,D003,visual,1,[],"['1', '2', '3', '4']",1,2023.2.3,harveyvisual,2.1,[],8,0.75,
0,pause,0.4,None,None,None,0,17,17,17,,,,,,,,,,,,,D003,visual,1,[],"['1', '2', '3', '4']",1,2023.2.3,harveyvisual,2.1,[],8,0.75,
2,dot,0.3,['dot'],['density'],black,0,18,18,18,,,8.700402975082397,8.41307020187378,8.713066101074219,dot,"[0.1, 0.06]","[[-0.40295961353468523, -0.33947470962363085], [-0.23663605411983973, -0.22749761394439932]]",density,black,,,D003,visual,1,[],"['1', '2', '3', '4']",1,2023.2.3,harveyvisual,2.1,[],8,0.75,
0,pause,0.4,None,None,None,0,19,19,19,,,,,,,,,,,,,D003,visual,1,[],"['1', '2', '3', '4']",1,2023.2.3,harveyvisual,2.1,[],8,0.75,
2,dot,0.3,['dot'],['density'],black,0,20,20,20,,,9.40040898323059,9.113056182861328,9.413173198699951,dot,"[0.06, 0.1]","[[0.09481659993656301, 0.43631713998557026], [0.0662189159667295, 0.23745101446818795]]",density,black,,,D003,visual,1,[],"['1', '2', '3', '4']",1,2023.2.3,harveyvisual,2.1,[],8,0.75,
0,pause,0.4,None,None,None,0,21,21,21,,,,,,,,,,,,,D003,visual,1,[],"['1', '2', '3', '4']",1,2023.2.3,harveyvisual,2.1,[],8,0.75,
2,dot,0.3,['dot'],['density'],black,0,22,22,22,,,10.100406169891357,9.813030004501343,10.113156080245972,dot,"[0.08, 0.06]","[[0.3859848860398513, -0.03650274153894256], [0.5613034441480618, 0.06134992989862206]]",density,black,,,D003,visual,1,[],"['1', '2', '3', '4']",1,2023.2.3,harveyvisual,2.1,[],8,0.75,
0,pause,0.4,None,None,None,0,23,23,23,,,,,,,,,,,,,D003,visual,1,[],"['1', '2', '3', '4']",1,2023.2.3,harveyvisual,2.1,[],8,0.75,
3,dot,0.3,['dot'],['density'],black,0,24,24,24,,,10.8004150390625,10.512994050979614,10.813011169433594,dot,"[0.1, 0.06, 0.06]","[[-0.31319101668702665, 0.019781348947723338], [-0.5473895760332308, 0.024991247927059115], [-0.4494119348059314, -0.1602141851013313]]",density,black,,,D003,visual,1,[],"['1', '2', '3', '4']",1,2023.2.3,harveyvisual,2.1,[],8,0.75,
0,pause,0.4,None,None,None,0,25,25,25,,,,,,,,,,,,,D003,visual,1,[],"['1', '2', '3', '4']",1,2023.2.3,harveyvisual,2.1,[],8,0.75,
3,dot,0.3,['dot'],['density'],black,0,26,26,26,,,11.500427007675171,11.212993144989014,11.513046979904175,dot,"[0.06, 0.06, 0.06]","[[0.29938275938101017, 0.44415474715472736], [0.13070782598704628, 0.5557174004537693], [0.11832456902218637, 0.3273615767427578]]",density,black,,,D003,visual,1,[],"['1', '2', '3', '4']",1,2023.2.3,harveyvisual,2.1,[],8,0.75,
0,pause,0.4,None,None,None,0,27,27,27,,,,,,,,,,,,,D003,visual,1,[],"['1', '2', '3', '4']",1,2023.2.3,harveyvisual,2.1,[],8,0.75,
3,dot,0.3,['dot'],['density'],black,0,28,28,28,,,12.200411081314087,11.913056135177612,12.213021039962769,dot,"[0.1, 0.1, 0.08]","[[0.315495050057846, 0.10724904305018564], [0.5180852452909619, 0.013799590611742229], [0.3819545826159732, -0.1334380777916547]]",density,black,,,D003,visual,1,[],"['1', '2', '3', '4']",1,2023.2.3,harveyvisual,2.1,[],8,0.75,
0,pause,0.4,None,None,None,0,29,29,29,,,,,,,,,,,,,D003,visual,1,[],"['1', '2', '3', '4']",1,2023.2.3,harveyvisual,2.1,[],8,0.75,
3,dot,0.3,['dot'],['density'],black,0,30,30,30,,,12.90040898323059,12.613077163696289,12.913071155548096,dot,"[0.06, 0.06, 0.06]","[[-0.1599523582230929, -0.020289166781496174], [-0.3458010015304564, -0.14250622038001895], [-0.3538668896253721, 0.08903610231223419]]",density,black,,,D003,visual,1,[],"['1', '2', '3', '4']",1,2023.2.3,harveyvisual,2.1,[],8,0.75,
0,pause,0.4,None,None,None,0,31,31,31,,,,,,,,,,,,,D003,visual,1,[],"['1', '2', '3', '4']",1,2023.2.3,harveyvisual,2.1,[],8,0.75,
3,dot,0.3,['dot'],['density'],black,0,32,32,32,,,13.600409030914307,13.312929153442383,13.612920045852661,dot,"[0.1, 0.06, 0.08]","[[0.2656832518280197, 0.0014864193765316018], [0.3503107158811183, -0.1826455867164705], [0.5188928509039705, -0.04177453376365527]]",density,black,,,D003,visual,1,[],"['1', '2', '3', '4']",1,2023.2.3,harveyvisual,2.1,[],8,0.75,
0,pause,0.4,None,None,None,0,33,33,33,,,,,,,,,,,,,D003,visual,1,[],"['1', '2', '3', '4']",1,2023.2.3,harveyvisual,2.1,[],8,0.75,
3,dot,0.3,['dot'],['density'],black,0,34,34,34,,,14.300420045852661,14.012916088104248,14.312893152236938,dot,"[0.08, 0.06, 0.1]","[[-0.09236249555143743, 0.14437879021360575], [0.06053771141254397, 0.008702735453236923], [-0.17336599953316903, -0.04113967592870183]]",density,black,,,D003,visual,1,[],"['1', '2', '3', '4']",1,2023.2.3,harveyvisual,2.1,[],8,0.75,
0,pause,0.4,None,None,None,0,35,35,35,,,,,,,,,,,,,D003,visual,1,[],"['1', '2', '3', '4']",1,2023.2.3,harveyvisual,2.1,[],8,0.75,
4,dot,0.3,['dot'],['density'],black,0,36,36,36,,,15.000420093536377,14.712887048721313,15.012883186340332,dot,"[0.1, 0.1, 0.08, 0.08]","[[-0.045256114861740894, 0.2798656300268403], [-0.02131053084637037, 0.4849425601475732], [0.17666180860848907, 0.34430389164600056], [0.0747630441556118, 0.10387908342824508]]",density,black,,,D003,visual,1,[],"['1', '2', '3', '4']",1,2023.2.3,harveyvisual,2.1,[],8,0.75,
0,pause,0.4,None,None,None,0,37,37,37,,,,,,,,,,,,,D003,visual,1,[],"['1', '2', '3', '4']",1,2023.2.3,harveyvisual,2.1,[],8,0.75,
4,dot,0.3,['dot'],['density'],white,0,38,38,38,,,15.700402021408081,15.41286015510559,15.712841033935547,dot,"[0.1, 0.1, 0.1, 0.1]","[[-0.035956560563939345, -0.32709283091503677], [-0.2190429995428959, -0.2035699502326352], [-0.06992348234594314, -0.5664776463754845], [-0.220471277594294, -0.41208836036752056]]",density,white,,,D003,visual,1,[],"['1', '2', '3', '4']",1,2023.2.3,harveyvisual,2.1,[],8,0.75,
0,pause,0.4,None,None,None,0,39,39,39,,,,,,,,,,,1,15.787781953811646,D003,visual,1,[],"['1', '2', '3', '4']",1,2023.2.3,harveyvisual,2.1,[],8,0.75,
4,dot,0.3,['dot'],['density'],black,0,40,40,40,,,16.40041708946228,16.112833976745605,16.41282320022583,dot,"[0.08, 0.06, 0.1, 0.08]","[[0.3510671072586959, 0.39105757673094776], [0.13754249634966464, 0.24690230999823115], [0.2791454519284172, 0.028997379515453933], [0.42442503262497266, 0.18132357243737673]]",density,black,,,D003,visual,1,[],"['1', '2', '3', '4']",1,2023.2.3,harveyvisual,2.1,[],8,0.75,
0,pause,0.4,None,None,None,0,41,41,41,,,,,,,,,,,,,D003,visual,1,[],"['1', '2', '3', '4']",1,2023.2.3,harveyvisual,2.1,[],8,0.75,
4,dot,0.3,['dot'],['density'],black,0,42,42,42,,,17.10041117668152,16.81281805038452,17.11280608177185,dot,"[0.1, 0.06, 0.08, 0.06]","[[-0.041173875632770134, -0.46498671258652186], [-0.2993670243960792, -0.1306311282158324], [-0.23343206187288035, -0.39905635110522214], [-0.1242366033797093, -0.2299834244258363]]",density,black,,,D003,visual,1,[],"['1', '2', '3', '4']",1,2023.2.3,harveyvisual,2.1,[],8,0.75,
0,pause,0.4,None,None,None,0,43,43,43,,,,,,,,,,,,,D003,visual,1,[],"['1', '2', '3', '4']",1,2023.2.3,harveyvisual,2.1,[],8,0.75,
4,dot,0.3,['dot'],['density'],black,0,44,44,44,,,17.800410985946655,17.512806177139282,17.812791109085083,dot,"[0.08, 0.06, 0.1, 0.1]","[[0.5195678262777355, 0.06634869171649047], [0.11508779247300271, 0.04459464887784077], [0.27862218446352316, 0.18290230777407274], [0.28701832247091064, -0.08209332131291468]]",density,black,,,D003,visual,1,[],"['1', '2', '3', '4']",1,2023.2.3,harveyvisual,2.1,[],8,0.75,
0,pause,0.4,None,None,None,0,45,45,45,,,,,,,,,,,,,D003,visual,1,[],"['1', '2', '3', '4']",1,2023.2.3,harveyvisual,2.1,[],8,0.75,
4,dot,0.3,['dot'],['density'],black,0,46,46,46,,,18.500432014465332,18.212794065475464,18.512798070907593,dot,"[0.06, 0.06, 0.06, 0.06]","[[-0.045256114861740894, 0.2798656300268403], [-0.02131053084637037, 0.4849425601475732], [0.17666180860848907, 0.34430389164600056], [0.0747630441556118, 0.10387908342824508]]",density,black,,,D003,visual,1,[],"['1', '2', '3', '4']",1,2023.2.3,harveyvisual,2.1,[],8,0.75,
0,pause,0.4,None,None,None,0,47,47,47,,,,,,,,,,,,,D003,visual,1,[],"['1', '2', '3', '4']",1,2023.2.3,harveyvisual,2.1,[],8,0.75,
5,dot,0.3,['dot'],['density'],black,0,48,48,48,,,19.200425148010254,18.913017988204956,19.212789058685303,dot,"[0.08, 0.08, 0.06, 0.06, 0.1]","[[-0.17224806752104949, 0.21128771658676965], [-0.35983128753182364, -0.1328600505582573], [-0.33716814897054914, 0.09708697582185674], [-0.044562237693599294, -0.03778919281981133], [-0.17109626387405982, -0.21732524013947077]]",density,black,,,D003,visual,1,[],"['1', '2', '3', '4']",1,2023.2.3,harveyvisual,2.1,[],8,0.75,
0,pause,0.4,None,None,None,0,49,49,49,,,,,,,,,,,,,D003,visual,1,[],"['1', '2', '3', '4']",1,2023.2.3,harveyvisual,2.1,[],8,0.75,
5,dot,0.3,['dot'],['density'],white,0,50,50,50,,,19.900423049926758,19.61293601989746,19.912768125534058,dot,"[0.06, 0.06, 0.06, 0.1, 0.06]","[[-0.15120343604734773, 0.13880483605515373], [-0.27543704003083597, 0.3074941448909677], [-0.47853302670601033, 0.30949922786165307], [-0.3682774975032249, -0.13900280599659498], [-0.34692227301900613, 0.0889564565184539]]",density,white,,,D003,visual,1,[],"['1', '2', '3', '4']",1,2023.2.3,harveyvisual,2.1,[],8,0.75,
0,pause,0.4,None,None,None,0,51,51,51,,,,,,,,,,,1,20.026217937469482,D003,visual,1,[],"['1', '2', '3', '4']",1,2023.2.3,harveyvisual,2.1,[],8,0.75,
5,dot,0.3,['dot'],['density'],black,0,52,52,52,,,20.600407123565674,20.312759160995483,20.613157033920288,dot,"[0.08, 0.08, 0.1, 0.06, 0.06]","[[-0.3632963637400461, -0.33792544526642676], [-0.48189922448633543, -0.036156829306921726], [-0.2958020468624338, 0.07292024124872273], [-0.10639492237515816, -0.0008972940205680791], [-0.20818262001932955, -0.17666930306052683]]",density,black,,,D003,visual,1,[],"['1', '2', '3', '4']",1,2023.2.3,harveyvisual,2.1,[],8,0.75,
0,pause,0.4,None,None,None,0,53,53,53,,,,,,,,,,,,,D003,visual,1,[],"['1', '2', '3', '4']",1,2023.2.3,harveyvisual,2.1,[],8,0.75,
5,dot,0.3,['dot'],['density'],black,0,54,54,54,,,21.300414085388184,21.012752056121826,21.31273603439331,dot,"[0.08, 0.08, 0.1, 0.08, 0.1]","[[-0.18510638544872327, 0.41559840932892733], [-0.057175862535637494, 0.18304904272057057], [0.24003340414173915, 0.43371676657957026], [0.006490958465160464, 0.4770521622163581], [0.13658455045585424, 0.2476502540597336]]",density,black,,,D003,visual,1,[],"['1', '2', '3', '4']",1,2023.2.3,harveyvisual,2.1,[],8,0.75,
0,pause,0.4,None,None,None,0,55,55,55,,,,,,,,,,,,,D003,visual,1,[],"['1', '2', '3', '4']",1,2023.2.3,harveyvisual,2.1,[],8,0.75,
5,dot,0.3,['dot'],['density'],black,0,56,56,56,,,22.000423192977905,21.71290898323059,22.01290202140808,dot,"[0.06, 0.08, 0.1, 0.08, 0.06]","[[0.14370466841446422, -0.4636309982806098], [0.2961807471193908, -0.30487684838795487], [-0.08083516471444438, -0.49823911181902014], [0.057429843216129074, -0.22123310288296744], [-0.1653320673045236, -0.3160671692815837]]",density,black,,,D003,visual,1,[],"['1', '2', '3', '4']",1,2023.2.3,harveyvisual,2.1,[],8,0.75,
0,pause,0.4,None,None,None,0,57,57,57,,,,,,,,,,,,,D003,visual,1,[],"['1', '2', '3', '4']",1,2023.2.3,harveyvisual,2.1,[],8,0.75,
5,dot,0.3,['dot'],['density'],black,0,58,58,58,,,22.70042109489441,22.41290807723999,22.71290111541748,dot,"[0.1, 0.1, 0.08, 0.08, 0.1]","[[0.10176071415026891, -0.0029310292721688898], [0.32748853803000494, -0.2831003617774451], [0.10999898603900501, -0.23076615641811304], [0.2383494361888625, 0.16403485824849598], [0.3558293804179042, -0.08171974316418079]]",density,black,,,D003,visual,1,[],"['1', '2', '3', '4']",1,2023.2.3,harveyvisual,2.1,[],8,0.75,
0,pause,0.4,None,None,None,0,59,59,59,,,,,,,,,,,,,D003,visual,1,[],"['1', '2', '3', '4']",1,2023.2.3,harveyvisual,2.1,[],8,0.75,
6,dot,0.3,['dot'],['density'],black,0,60,60,60,,,23.40040898323059,23.112694025039673,23.41269612312317,dot,"[0.1, 0.1, 0.08, 0.06, 0.08, 0.08]","[[0.4249538099490167, -0.025354946498656116], [0.305005901383002, 0.397829445973664], [0.04954868862097969, 0.09819418046919175], [0.452299537631068, 0.2574679639516015], [0.21081936584905453, -0.08903757916275208], [0.27954488569289765, 0.14103100078867375]]",density,black,,,D003,visual,1,[],"['1', '2', '3', '4']",1,2023.2.3,harveyvisual,2.1,[],8,0.75,
0,pause,0.4,None,None,None,0,61,61,61,,,,,,,,,,,,,D003,visual,1,[],"['1', '2', '3', '4']",1,2023.2.3,harveyvisual,2.1,[],8,0.75,
6,dot,0.3,['dot'],['density'],black,0,62,62,62,,,24.100430011749268,23.812817096710205,24.11267900466919,dot,"[0.1, 0.08, 0.08, 0.08, 0.08, 0.1]","[[0.23041567882598732, 0.45619944218456715], [0.5278859611842325, 0.18245830030246968], [0.08738225171760033, 0.1578384040678088], [0.20561463112105705, -0.03996865664556224], [0.3021721310554224, 0.21718230064421146], [0.4273755636869532, 0.38341374408431883]]",density,black,,,D003,visual,1,[],"['1', '2', '3', '4']",1,2023.2.3,harveyvisual,2.1,[],8,0.75,
0,pause,0.4,None,None,None,0,63,63,63,,,,,,,,,,,,,D003,visual,1,[],"['1', '2', '3', '4']",1,2023.2.3,harveyvisual,2.1,[],8,0.75,
6,dot,0.3,['dot'],['density'],black,0,64,64,64,,,24.800420999526978,24.512654066085815,24.812620162963867,dot,"[0.1, 0.08, 0.1, 0.1, 0.1, 0.08]","[[-0.560843418842529, -0.11752527585456686], [-0.31277608783648175, 0.04003545118838376], [-0.18207900664359264, -0.3652956678781814], [-0.41442909117718774, -0.4038021739217259], [-0.14446849917993246, -0.07035639226176245], [-0.3420415871796019, -0.1631057353810994]]",density,black,,,D003,visual,1,[],"['1', '2', '3', '4']",1,2023.2.3,harveyvisual,2.1,[],8,0.75,
0,pause,0.4,None,None,None,0,65,65,65,,,,,,,,,,,,,D003,visual,1,[],"['1', '2', '3', '4']",1,2023.2.3,harveyvisual,2.1,[],8,0.75,
6,dot,0.3,['dot'],['density'],black,0,66,66,66,,,25.500405073165894,25.212589979171753,25.512628078460693,dot,"[0.08, 0.08, 0.1, 0.06, 0.1, 0.1]","[[-0.08086177951302478, 0.2470577028799217], [0.17809040740055945, 0.25721690350386706], [0.248993691455746, -0.144418230259854], [0.04260816027356476, -0.17251108440570345], [0.26201279645255604, 0.07253913185781388], [-0.0017619790798508912, 0.027830886297901026]]",density,black,,,D003,visual,1,[],"['1', '2', '3', '4']",1,2023.2.3,harveyvisual,2.1,[],8,0.75,
0,pause,0.4,None,None,None,0,67,67,67,,,,,,,,,,,,,D003,visual,1,[],"['1', '2', '3', '4']",1,2023.2.3,harveyvisual,2.1,[],8,0.75,
6,dot,0.3,['dot'],['density'],black,0,68,68,68,,,26.200412034988403,25.912644147872925,26.212594985961914,dot,"[0.06, 0.1, 0.08, 0.06, 0.08, 0.08]","[[-0.5379788740814003, -0.011730333491669416], [-0.1820890739253136, -0.27973544868684425], [-0.07809457889047756, -0.09124846264896269], [-0.30616251401069866, -0.45101817852416426], [-0.44200878281119743, -0.26991620184617166], [-0.3315938551005316, -0.08696624632848979]]",density,black,,,D003,visual,1,[],"['1', '2', '3', '4']",1,2023.2.3,harveyvisual,2.1,[],8,0.75,
0,pause,0.4,None,None,None,0,69,69,69,,,,,,,,,,,,,D003,visual,1,[],"['1', '2', '3', '4']",1,2023.2.3,harveyvisual,2.1,[],8,0.75,
6,dot,0.3,['dot'],['density'],black,0,70,70,70,,,26.90042209625244,26.612571001052856,26.91260004043579,dot,"[0.06, 0.06, 0.08, 0.1, 0.1, 0.08]","[[-0.060066269329224556, -0.3459973645598818], [-0.2267112282887438, -0.46433083725857055], [-0.03368736353914721, -0.0592740518520544], [0.1129416353875032, -0.20466059509733167], [0.13908697530976044, -0.42386339769443276], [-0.2931789080149146, -0.2669036372638095]]",density,black,,,D003,visual,1,[],"['1', '2', '3', '4']",1,2023.2.3,harveyvisual,2.1,[],8,0.75,
0,pause,0.4,None,None,None,0,71,71,71,,,,,,,,,,,,,D003,visual,1,[],"['1', '2', '3', '4']",1,2023.2.3,harveyvisual,2.1,[],8,0.75,
7,dot,0.3,['dot'],['density'],black,0,72,72,72,,,27.600425004959106,27.312551975250244,27.612542152404785,dot,"[0.1, 0.1, 0.08, 0.06, 0.08, 0.06, 0.08]","[[-0.15204905838880944, -0.5333107186751418], [-0.1519936835116667, -0.2986813487337615], [0.3123805602017952, -0.370842296180838], [-0.04397638837772695, -0.01669328424437847], [0.11716920447009348, -0.14912816843546053], [0.1067198166566748, -0.5553575834591685], [0.04038917577175449, -0.3541606866516689]]",density,black,,,D003,visual,1,[],"['1', '2', '3', '4']",1,2023.2.3,harveyvisual,2.1,[],8,0.75,
0,pause,0.4,None,None,None,0,73,73,73,,,,,,,,,,,,,D003,visual,1,[],"['1', '2', '3', '4']",1,2023.2.3,harveyvisual,2.1,[],8,0.75,
7,dot,0.3,['dot'],['density'],black,0,74,74,74,,,28.300415992736816,28.012538194656372,28.312515020370483,dot,"[0.1, 0.06, 0.06, 0.1, 0.06, 0.08, 0.1]","[[-0.4069355390488937, 0.37207368581823036], [-0.24593577727054447, 0.19917396778247878], [-0.42360727833657225, -0.08003411738888748], [-0.22269992972584096, -0.007913174381400552], [-0.5458110461780458, 0.2006057762678532], [-0.12767295506375728, 0.3689678629588407], [-0.26313434255033313, 0.5223746060296944]]",density,black,,,D003,visual,1,[],"['1', '2', '3', '4']",1,2023.2.3,harveyvisual,2.1,[],8,0.75,
0,pause,0.4,None,None,None,0,75,75,75,,,,,,,,,,,,,D003,visual,1,[],"['1', '2', '3', '4']",1,2023.2.3,harveyvisual,2.1,[],8,0.75,
7,dot,0.3,['dot'],['density'],black,0,76,76,76,,,29.000410079956055,28.712512016296387,29.012519121170044,dot,"[0.1, 0.06, 0.06, 0.06, 0.08, 0.08, 0.1]","[[0.3302081014073935, 0.19448071361351732], [-0.22286629369238187, 0.3450023392305547], [-0.11533339293480348, 0.13926201039730488], [0.12023407780451623, 0.21240672508650668], [0.2659789407074307, 0.3894086603790018], [0.026604934602130894, 0.39133200849180605], [0.212400253920387, 0.027377351413115796]]",density,black,,,D003,visual,1,[],"['1', '2', '3', '4']",1,2023.2.3,harveyvisual,2.1,[],8,0.75,
0,pause,0.4,None,None,None,0,77,77,77,,,,,,,,,,,,,D003,visual,1,[],"['1', '2', '3', '4']",1,2023.2.3,harveyvisual,2.1,[],8,0.75,
7,dot,0.3,['dot'],['density'],black,0,78,78,78,,,29.700417041778564,29.412497997283936,29.71248507499695,dot,"[0.08, 0.06, 0.1, 0.06, 0.1, 0.06, 0.06]","[[0.06935229908748385, 0.4911641494940837], [-0.19266199922505295, 0.07836852906048222], [0.055274369019684175, 0.020452523162812593], [0.26239471350362015, 0.1001529216481179], [-0.06036973858781391, 0.3360513952533211], [-0.2638544135394649, 0.29089327984911306], [0.14813816713374972, 0.28344041791591096]]",density,black,,,D003,visual,1,[],"['1', '2', '3', '4']",1,2023.2.3,harveyvisual,2.1,[],8,0.75,
0,pause,0.4,None,None,None,0,79,79,79,,,,,,,,,,,,,D003,visual,1,[],"['1', '2', '3', '4']",1,2023.2.3,harveyvisual,2.1,[],8,0.75,
7,dot,0.3,['dot'],['density'],black,0,80,80,80,,,30.400416135787964,30.112481117248535,30.41250705718994,dot,"[0.06, 0.06, 0.06, 0.06, 0.1, 0.1, 0.06]","[[-0.1635229753841098, 0.12186382262109141], [0.03437657187081179, 0.5178389267683822], [0.324184412335695, 0.17931743601205324], [0.08929018524031027, 0.11005745596178185], [-0.1318259817332877, 0.4026967659136047], [-0.053046683696667, -0.06058584598870606], [0.042745683665752716, 0.304616966822181]]",density,black,,,D003,visual,1,[],"['1', '2', '3', '4']",1,2023.2.3,harveyvisual,2.1,[],8,0.75,
0,pause,0.4,None,None,None,0,81,81,81,,,,,,,,,,,,,D003,visual,1,[],"['1', '2', '3', '4']",1,2023.2.3,harveyvisual,2.1,[],8,0.75,
7,dot,0.3,['dot'],['density'],black,0,82,82,82,,,31.100406169891357,30.81250810623169,31.112505197525024,dot,"[0.08, 0.1, 0.08, 0.1, 0.08, 0.1, 0.06]","[[-0.0009033409944170771, 0.42006327366100915], [0.07504475251916, -0.022201311189229547], [-0.3616170585675141, 0.16750883091546095], [0.025412283732210435, 0.18669523424894663], [-0.17132175432412022, 0.2677160973152203], [-0.13541388111710323, 0.00927786556165188], [-0.3032959001003911, -0.13806764794565113]]",density,black,,,D003,visual,1,[],"['1', '2', '3', '4']",1,2023.2.3,harveyvisual,2.1,[],8,0.75,
0,pause,0.4,None,None,None,0,83,83,83,,,,,,,,,,,,,D003,visual,1,[],"['1', '2', '3', '4']",1,2023.2.3,harveyvisual,2.1,[],8,0.75,
8,dot,0.3,['dot'],['density'],white,0,84,84,84,,,31.800405979156494,31.5124831199646,31.812419176101685,dot,"[0.08, 0.08, 0.06, 0.08, 0.06, 0.08, 0.1, 0.1]","[[-0.08486713456805763, -0.4233549652310786], [-0.34121661687321897, 0.009931669871959016], [0.06179899905610707, -0.01287726204627424], [-0.01080387642187049, -0.20774715314808884], [-0.2259787915635077, -0.2257096572683263], [-0.31087639520469923, -0.4457762681120083], [-0.07938707884489006, 0.17996906985975966], [-0.13919465900414296, -0.03133413505419433]]",density,white,,,D003,visual,1,[],"['1', '2', '3', '4']",1,2023.2.3,harveyvisual,2.1,[],8,0.75,
0,pause,0.4,None,None,None,0,85,85,85,,,,,,,,,,,1,31.777485847473145,D003,visual,1,[],"['1', '2', '3', '4']",1,2023.2.3,harveyvisual,2.1,[],8,0.75,
8,dot,0.3,['dot'],['density'],black,0,86,86,86,,,32.500405073165894,32.21245217323303,32.51243305206299,dot,"[0.06, 0.06, 0.08, 0.06, 0.1, 0.06, 0.1, 0.1]","[[0.4359105889063985, -0.17362457700912998], [-0.10421753759268779, -0.0599030042764737], [0.3870326705858601, 0.24174009796940588], [0.2566713073165989, 0.014561377540278508], [0.2306797840234149, -0.3263374489921181], [0.47690301692068965, 0.04601699051563034], [0.08674944532705724, -0.15383855565976665], [0.03609124925759635, 0.09790267139194009]]",density,black,,,D003,visual,1,[],"['1', '2', '3', '4']",1,2023.2.3,harveyvisual,2.1,[],8,0.75,
0,pause,0.4,None,None,None,0,87,87,87,,,,,,,,,,,,,D003,visual,1,[],"['1', '2', '3', '4']",1,2023.2.3,harveyvisual,2.1,[],8,0.75,
8,dot,0.3,['dot'],['density'],black,0,88,88,88,,,33.20041513442993,32.9124710559845,33.21238708496094,dot,"[0.08, 0.08, 0.1, 0.06, 0.08, 0.1, 0.1, 0.08]","[[0.43039348711459674, -0.2176132953198537], [0.11499515674856413, 0.2899266495440316], [0.12808102003139596, -0.009244067984354065], [-0.030386771168905473, -0.2551920291624523], [0.3118809155168881, 0.2081403981228026], [-0.06282563634610334, 0.11114412413027695], [0.22944900542930163, -0.23921835558115082], [0.33219925311336224, 0.0035410395788749187]]",density,black,,,D003,visual,1,[],"['1', '2', '3', '4']",1,2023.2.3,harveyvisual,2.1,[],8,0.75,
0,pause,0.4,None,None,None,0,89,89,89,,,,,,,,,,,,,D003,visual,1,[],"['1', '2', '3', '4']",1,2023.2.3,harveyvisual,2.1,[],8,0.75,
8,dot,0.3,['dot'],['density'],black,0,90,90,90,,,33.90041399002075,33.612399101257324,33.91239309310913,dot,"[0.06, 0.08, 0.1, 0.1, 0.08, 0.1, 0.06, 0.06]","[[0.4359105889063985, -0.17362457700912998], [-0.10421753759268779, -0.0599030042764737], [0.3870326705858601, 0.24174009796940588], [0.2566713073165989, 0.014561377540278508], [0.2306797840234149, -0.3263374489921181], [0.47690301692068965, 0.04601699051563034], [0.08674944532705724, -0.15383855565976665], [0.03609124925759635, 0.09790267139194009]]",density,black,,,D003,visual,1,[],"['1', '2', '3', '4']",1,2023.2.3,harveyvisual,2.1,[],8,0.75,
0,pause,0.4,None,None,None,0,91,91,91,,,,,,,,,,,,,D003,visual,1,[],"['1', '2', '3', '4']",1,2023.2.3,harveyvisual,2.1,[],8,0.75,
8,dot,0.3,['dot'],['density'],black,0,92,92,92,,,34.60041403770447,34.3123881816864,34.612389087677,dot,"[0.08, 0.1, 0.1, 0.1, 0.1, 0.1, 0.06, 0.06]","[[-0.4462313073918426, 0.10595449025715867], [0.022923871415176152, 0.06290918987699953], [-0.12461589820496316, 0.4830175517012745], [-0.29730306390741434, 0.2752084497958106], [-0.2195410516364439, 0.056871795648565045], [0.008916049516666445, 0.2907399105306955], [-0.08256048209355603, -0.11638226771844133], [-0.4106304257826301, -0.09222594144079917]]",density,black,,,D003,visual,1,[],"['1', '2', '3', '4']",1,2023.2.3,harveyvisual,2.1,[],8,0.75,
0,pause,0.4,None,None,None,0,93,93,93,,,,,,,,,,,,,D003,visual,1,[],"['1', '2', '3', '4']",1,2023.2.3,harveyvisual,2.1,[],8,0.75,
8,dot,0.3,['dot'],['density'],white,0,94,94,94,,,35.30042219161987,35.012423038482666,35.31240105628967,dot,"[0.1, 0.06, 0.08, 0.1, 0.1, 0.08, 0.1, 0.1]","[[0.34834348934164344, -0.28812382596974456], [-0.10329597477015798, -0.5243874580500916], [0.11080732975293575, -0.39067626210733153], [-0.006800183936578442, -0.10390350920236302], [0.17453264242573352, -0.004648084789036161], [-0.11839138898177409, -0.2765800857961495], [-0.2122949223397977, -0.08354151726817095], [0.0010823045536620208, 0.09995244087301837]]",density,white,,,D003,visual,1,[],"['1', '2', '3', '4']",1,2023.2.3,harveyvisual,2.1,[],8,0.75,
0,pause,0.4,None,None,None,0,95,95,95,,,,,,,,,,,1,35.30221605300903,D003,visual,1,[],"['1', '2', '3', '4']",1,2023.2.3,harveyvisual,2.1,[],8,0.75,
9,dot,0.3,['dot'],['density'],black,0,96,96,96,,,36.00041103363037,35.71253705024719,36.01252603530884,dot,"[0.1, 0.08, 0.1, 0.1, 0.1, 0.08, 0.06, 0.08, 0.06]","[[0.38655548767220327, 0.3303110468779764], [-0.15062718332117264, 0.3263612679497012], [0.12850016508903517, 0.5435449351404695], [0.04975739233973968, 0.11256198773833849], [0.05418506391445401, 0.3174451450657875], [0.282644584802279, 0.13382110200906677], [0.4968372747528943, 0.11977440893831985], [-0.17748280977865974, 0.12733825933579754], [-0.16508880216336755, 0.5437291489982663]]",density,black,,,D003,visual,1,[],"['1', '2', '3', '4']",1,2023.2.3,harveyvisual,2.1,[],8,0.75,
0,pause,0.4,None,None,None,0,97,97,97,,,,,,,,,,,,,D003,visual,1,[],"['1', '2', '3', '4']",1,2023.2.3,harveyvisual,2.1,[],8,0.75,
9,dot,0.3,['dot'],['density'],black,0,98,98,98,,,36.70041012763977,36.41234517097473,36.712308168411255,dot,"[0.06, 0.08, 0.06, 0.06, 0.1, 0.1, 0.06, 0.1, 0.1]","[[0.11766436913102363, -0.04327704920019282], [0.17973489876850246, -0.2957558932143311], [0.4322853556796634, 0.1292829237047714], [-0.0348924626991882, -0.2091692004054023], [0.511593351462966, -0.2715393032181878], [0.39631341359825684, -0.10388811790353111], [0.1759041025424718, 0.35783279634564974], [-0.11077337801993212, 0.08002505665429639], [0.1915495233696259, 0.15329463501335125]]",density,black,,,D003,visual,1,[],"['1', '2', '3', '4']",1,2023.2.3,harveyvisual,2.1,[],8,0.75,
0,pause,0.4,None,None,None,0,99,99,99,,,,,,,,,,,,,D003,visual,1,[],"['1', '2', '3', '4']",1,2023.2.3,harveyvisual,2.1,[],8,0.75,
9,dot,0.3,['dot'],['density'],black,0,100,100,100,,,37.400416135787964,37.112313985824585,37.41231417655945,dot,"[0.08, 0.1, 0.06, 0.1, 0.08, 0.06, 0.06, 0.08, 0.1]","[[0.23250081832313607, -0.03448075506690146], [0.3034476098774822, 0.1830296703973891], [-0.18904104685434053, 0.18833284185042862], [0.2553794676357457, 0.5314352583170906], [0.16363099535363254, 0.3461022642192175], [-0.0841935017478271, 0.3664174397160571], [-0.26748786402911323, -0.05736109653727262], [0.043842773669028334, 0.577246673499167], [0.02102957219118283, 0.0979254794926055]]",density,black,,,D003,visual,1,[],"['1', '2', '3', '4']",1,2023.2.3,harveyvisual,2.1,[],8,0.75,
0,pause,0.4,None,None,None,0,101,101,101,,,,,,,,,,,,,D003,visual,1,[],"['1', '2', '3', '4']",1,2023.2.3,harveyvisual,2.1,[],8,0.75,
9,dot,0.3,['dot'],['density'],black,0,102,102,102,,,38.100417137145996,37.812302112579346,38.11229610443115,dot,"[0.06, 0.06, 0.08, 0.1, 0.1, 0.08, 0.06, 0.06, 0.06]","[[0.08964926938552661, 0.05394775442474662], [0.013667798857315082, 0.3651287039276397], [-0.3518235196438996, 0.4482863301015001], [0.0843039828244993, 0.5528122926054443], [-0.16049547673848438, 0.0730005648255046], [-0.2144141911430125, 0.27623828598157274], [0.3465547907671387, 0.0307758660088046], [-0.13596480001028877, 0.5242376261272882], [0.2304522598158348, 0.3521277948761275]]",density,black,,,D003,visual,1,[],"['1', '2', '3', '4']",1,2023.2.3,harveyvisual,2.1,[],8,0.75,
0,pause,0.4,None,None,None,0,103,103,103,,,,,,,,,,,,,D003,visual,1,[],"['1', '2', '3', '4']",1,2023.2.3,harveyvisual,2.1,[],8,0.75,
9,dot,0.3,['dot'],['density'],black,0,104,104,104,,,38.80042314529419,38.51242804527283,38.812416076660156,dot,"[0.06, 0.08, 0.06, 0.06, 0.06, 0.06, 0.06, 0.06, 0.1]","[[0.30047334598257713, -0.32583448447642216], [0.4997394081452916, 0.05175273655880906], [0.13646797290608587, 0.02221883094322858], [0.11448241016544139, -0.2117191838414046], [0.417500260412479, 0.2413963184479076], [0.19152536325099656, 0.23172406522327998], [0.5046802385722475, -0.28323005758562664], [-0.037891296982194685, 0.14714919272112825], [0.3292067348064443, -0.0657181274468392]]",density,black,,,D003,visual,1,[],"['1', '2', '3', '4']",1,2023.2.3,harveyvisual,2.1,[],8,0.75,
0,pause,0.4,None,None,None,0,105,105,105,,,,,,,,,,,,,D003,visual,1,[],"['1', '2', '3', '4']",1,2023.2.3,harveyvisual,2.1,[],8,0.75,
9,dot,0.3,['dot'],['density'],white,0,106,106,106,,,39.50041913986206,39.21240019798279,39.512399196624756,dot,"[0.1, 0.1, 0.06, 0.1, 0.08, 0.08, 0.08, 0.08, 0.08]","[[-0.3974741157875733, -0.3691322615124248], [0.01813275331019438, -0.041305186939584786], [-0.297817964195003, 0.1404435238036691], [-0.24996212712231053, -0.10674501212047392], [-0.45607543705465475, -0.10954340680539053], [-0.5097726394514722, 0.08872958744943038], [-0.16376728557074105, -0.3354799619734228], [-0.07115584905184995, 0.17737469530672276], [-0.4529869372404742, 0.29851616761646654]]",density,white,,,D003,visual,1,[],"['1', '2', '3', '4']",1,2023.2.3,harveyvisual,2.1,[],8,0.75,
0,pause,0.4,None,None,None,0,107,107,107,,,,,,,,,,,1,39.520540952682495,D003,visual,1,[],"['1', '2', '3', '4']",1,2023.2.3,harveyvisual,2.1,[],8,0.75,
20,dot,0.3,['dot'],['density'],black,0,108,108,108,,,40.20043110847473,39.91227602958679,40.21225714683533,dot,"[0.1, 0.08, 0.1, 0.08, 0.08, 0.08, 0.06, 0.08, 0.08, 0.1, 0.1, 0.08, 0.06, 0.1, 0.08, 0.06, 0.1, 0.08, 0.08, 0.1]","[[-0.2958803008701559, 0.21094450114215857], [0.2120775400884205, -0.17151540612285188], [0.5263742204714447, 0.07064080717010518], [-0.20949838272486798, 0.00031889287470943106], [-0.051921231175596105, 0.32716380562096636], [-0.5620036563249144, 0.20201103785085314], [0.20502836843783812, -0.4018934123737059], [-0.5610947357386855, -0.20329519744471458], [-0.27454242907831994, -0.22283504132161885], [0.044045155547844606, -0.03344018843002716], [0.1735827217736614, 0.34108000111547454], [0.5039068971594919, -0.2333978859384271], [-0.6045780463622734, 0.008424298687635147], [-0.12340239302187539, 0.5917964453606933], [0.19599003932538073, 0.10163519119733688], [-0.08210223751299206, -0.5576367694949226], [-0.037703843652001856, -0.32766315158381426], [-0.35388157383019486, 0.43243188832793067], [0.3824557144179497, 0.2283011914463527], [-0.4378231138065404, -0.40008975025154453]]",density,black,,,D003,visual,1,[],"['1', '2', '3', '4']",1,2023.2.3,harveyvisual,2.1,[],8,0.75,
0,pause,0.4,None,None,None,0,109,109,109,,,,,,,,,,,,,D003,visual,1,[],"['1', '2', '3', '4']",1,2023.2.3,harveyvisual,2.1,[],8,0.75,
20,dot,0.3,['dot'],['density'],black,0,110,110,110,,,40.90041208267212,40.61225414276123,40.91223216056824,dot,"[0.1, 0.06, 0.06, 0.08, 0.06, 0.1, 0.1, 0.08, 0.1, 0.1, 0.08, 0.06, 0.08, 0.06, 0.1, 0.1, 0.1, 0.1, 0.1, 0.08]","[[-0.06374800402596315, -0.2901605516603994], [0.5022625328152753, -0.032109259365502074], [-0.05892639420770285, 0.06607507647612343], [-0.4536919458005164, -0.07170421686015704], [0.31890865774979615, -0.18056000765933106], [0.30888876733999915, 0.38642739350325805], [0.4329992243767361, -0.3793793328250866], [-0.4761459841940917, -0.3606416658311737], [-0.4187839793519528, 0.3370250333776615], [-0.17764172774317866, 0.36898205510273463], [0.22758306164178577, 0.1682395458412166], [0.20845857377199428, -0.44434004841339453], [-0.17646214792001574, -0.4451992834712064], [-0.538564420313177, 0.16819971237128162], [0.5055224071161287, 0.28829123717154453], [-0.23125602230679143, -0.0547356575429061], [0.1200718769748661, 0.5097005827288771], [0.14158331947833114, -0.06555157280778401], [-0.3406377911822141, -0.22674626575794393], [0.03347920159764117, 0.23456078651804635]]",density,black,,,D003,visual,1,[],"['1', '2', '3', '4']",1,2023.2.3,harveyvisual,2.1,[],8,0.75,
0,pause,0.4,None,None,None,0,111,111,111,,,,,,,,,,,,,D003,visual,1,[],"['1', '2', '3', '4']",1,2023.2.3,harveyvisual,2.1,[],8,0.75,
20,dot,0.3,['dot'],['density'],black,0,112,112,112,,,41.60042715072632,41.31224799156189,41.61223006248474,dot,"[0.08, 0.1, 0.1, 0.06, 0.1, 0.1, 0.06, 0.06, 0.08, 0.1, 0.1, 0.1, 0.08, 0.06, 0.1, 0.06, 0.1, 0.1, 0.1, 0.08]","[[0.4266768562588211, -0.33413843209265737], [-0.5006566915562367, 0.26822198719758034], [0.04674190079338292, -0.26676655386018644], [-0.03824533816804776, 0.16349734390569404], [-0.5881245091212612, 0.09190213808978212], [-0.06160069773328769, 0.39895785802763517], [0.36016229879232364, 0.3717580591236299], [0.2926418510429102, -0.12261442979958004], [-0.20686134511722565, -0.1783266186515976], [0.15648693291345273, 0.5331418730891956], [-0.5189510291981975, -0.17758599446219045], [0.4137281405587586, 0.15079441116866332], [0.053161982541680475, -0.530574917511424], [-0.31616138464041027, -0.4310158653235499], [-0.28944914502722946, 0.2467397040635375], [0.056339465353936524, -0.019735665791234536], [0.6016461335007813, 0.024485600133232213], [-0.30903493769345713, 0.4728558172415206], [-0.23771423971363648, 0.04702441986359829], [0.22360178716002987, -0.3675817711105261]]",density,black,,,D003,visual,1,[],"['1', '2', '3', '4']",1,2023.2.3,harveyvisual,2.1,[],8,0.75,
0,pause,0.4,None,None,None,0,113,113,113,,,,,,,,,,,,,D003,visual,1,[],"['1', '2', '3', '4']",1,2023.2.3,harveyvisual,2.1,[],8,0.75,
20,dot,0.3,['dot'],['density'],black,0,114,114,114,,,42.30041718482971,42.01223397254944,42.31221318244934,dot,"[0.1, 0.08, 0.06, 0.08, 0.06, 0.1, 0.08, 0.06, 0.06, 0.08, 0.08, 0.1, 0.06, 0.06, 0.06, 0.1, 0.06, 0.1, 0.08, 0.06]","[[0.40000287611609286, -0.008324990949536926], [-0.5280682803582687, 0.1406459750388887], [0.1786544034037627, 0.12799001798992415], [0.015137860325062369, -0.11264515548196613], [0.4086499768142283, 0.3362914297652667], [0.013751943604775607, -0.5418640795866417], [0.1795970020724229, -0.2107791112100627], [-0.4744632598780913, 0.3462078016306573], [-0.17013127653013893, 0.2589299450128544], [-0.3670425236584959, -0.457829597051033], [-0.3244255043472474, 0.015486394165866835], [0.3999429568758216, -0.43085008890679155], [0.1093607965747514, 0.449684686199164], [0.20515701848891177, -0.4253317672052536], [-0.38273316919057393, -0.2003261255998841], [-0.11255578394367655, 0.575292125750168], [0.5859910275523198, 0.04140536049831067], [-0.17618562296113666, -0.299522733942121], [-0.29632932207927615, 0.500015134502467], [-0.5996612643742931, -0.04759619765735288]]",density,black,,,D003,visual,1,[],"['1', '2', '3', '4']",1,2023.2.3,harveyvisual,2.1,[],8,0.75,
0,pause,0.4,None,None,None,0,115,115,115,,,,,,,,,,,,,D003,visual,1,[],"['1', '2', '3', '4']",1,2023.2.3,harveyvisual,2.1,[],8,0.75,
20,dot,0.3,['dot'],['density'],black,0,116,116,116,,,43.00043201446533,42.71233606338501,43.01229906082153,dot,"[0.08, 0.1, 0.08, 0.06, 0.1, 0.08, 0.1, 0.1, 0.08, 0.06, 0.06, 0.08, 0.08, 0.06, 0.06, 0.06, 0.06, 0.1, 0.1, 0.08]","[[-0.27693015577307184, -0.49589304023206204], [-0.3495498819637284, 0.06439776177446305], [0.23066374463217143, -0.20636665095065632], [0.4775355940806393, 0.3154952283537129], [-0.385525734556204, -0.19534390854398603], [0.0814671152221157, -0.431579747002539], [-0.15055710723747778, -0.18827766288025827], [-0.5993919033842723, 0.004104549442732308], [0.26915106662957466, 0.42768965496663713], [0.5926747024135234, -0.009219688256045216], [-0.2863425556207559, 0.4286681481010457], [-0.05278211590988491, -0.5838351799012907], [-0.4942545645191133, 0.22489073440180002], [-0.06284774325672726, -0.005681341953770236], [0.2677187729061148, 0.09274585175443395], [0.4605769087989896, -0.3284641850697323], [0.0767187698860714, 0.17054727722416385], [-0.0037779402697397657, 0.45118493835052853], [-0.16117077531466506, 0.19746098668395395], [0.4025288815047904, -0.055350662845336795]]",density,black,,,D003,visual,1,[],"['1', '2', '3', '4']",1,2023.2.3,harveyvisual,2.1,[],8,0.75,
0,pause,0.4,None,None,None,0,117,117,117,,,,,,,,,,,,,D003,visual,1,[],"['1', '2', '3', '4']",1,2023.2.3,harveyvisual,2.1,[],8,0.75,
20,dot,0.3,['dot'],['density'],black,0,118,118,118,,,43.700414180755615,43.41232109069824,43.712258100509644,dot,"[0.06, 0.1, 0.08, 0.1, 0.1, 0.1, 0.08, 0.06, 0.06, 0.1, 0.06, 0.1, 0.1, 0.06, 0.1, 0.1, 0.06, 0.1, 0.1, 0.1]","[[-0.6001192264178311, 0.0378185835205645], [0.017285515682039954, 0.1186041481739123], [-0.05904026528805617, 0.5355908785739245], [0.2605839669374409, -0.5275367175080526], [0.4545954914303111, -0.30541792563456305], [-0.4197103767163549, 0.31809593816345394], [0.2631345171627455, 0.26659718619645245], [0.010688234229770166, -0.24121131539724677], [0.28246814424834055, 0.4643818046781686], [-0.30418633894820535, 0.15880645013927364], [0.2926345602323124, 0.04111516036719154], [0.0819528750180114, -0.44793381873591614], [-0.3579210077896152, -0.3089641469104397], [-0.3196815365900562, -0.4978536845848649], [-0.10523805098076922, 0.3420577635344292], [-0.5294110931361654, -0.21969805151351318], [0.4884028915893427, 0.18450028356747306], [0.5814066481504195, -0.15990793017216282], [-0.24223295220764368, -0.11050591659395326], [0.24543381511134088, -0.2884945627327902]]",density,black,,,D003,visual,1,[],"['1', '2', '3', '4']",1,2023.2.3,harveyvisual,2.1,[],8,0.75,
0,pause,0.4,None,None,None,0,119,119,119,,,,,,,,,,,,,D003,visual,1,[],"['1', '2', '3', '4']",1,2023.2.3,harveyvisual,2.1,[],8,0.75,
20,dot,0.3,['dot'],['density'],white,0,120,120,120,,,44.40042018890381,44.11229705810547,44.412304162979126,dot,"[0.06, 0.06, 0.08, 0.1, 0.1, 0.06, 0.1, 0.08, 0.06, 0.1, 0.08, 0.1, 0.06, 0.06, 0.06, 0.06, 0.06, 0.08, 0.1, 0.1]","[[-0.4018648282117052, -0.0924705848954287], [-0.26142030033761554, 0.26303069939835333], [-0.07497067317071393, -0.07711491565182016], [-0.061216870935565715, -0.37411533592046514], [-0.11347368890849052, 0.4600234159861062], [0.3586041343704697, 0.40810215390469606], [0.5028780086927901, -0.0887735421636309], [-0.4876587098007583, 0.31201667959389934], [0.46399004393098, -0.38580370493561256], [-0.5744098454299578, 0.118891216182859], [-0.3087545462890867, 0.5095514765839234], [-0.46254846267412386, -0.3413728965166458], [0.2775592693001665, -0.1452834210281762], [0.17298366024740708, 0.05399869015194325], [0.5540325601843151, 0.21859033118226182], [0.10764748219104336, 0.5800037489181527], [-0.09921003114418125, 0.13249636338254767], [0.37355547775301035, 0.08701787347695117], [-0.3051072635295402, -0.4664570785094703], [-0.20937717396333233, -0.25294495032720005]]",density,white,,,D003,visual,1,[],"['1', '2', '3', '4']",1,2023.2.3,harveyvisual,2.1,[],8,0.75,
0,pause,0.4,None,None,None,0,121,121,121,,,,,,,,,,,1,44.43832302093506,D003,visual,1,[],"['1', '2', '3', '4']",1,2023.2.3,harveyvisual,2.1,[],8,0.75,
20,dot,0.3,['dot'],['density'],black,0,122,122,122,,,45.10042405128479,44.812249183654785,45.112298011779785,dot,"[0.06, 0.08, 0.06, 0.06, 0.06, 0.06, 0.1, 0.06, 0.1, 0.08, 0.1, 0.1, 0.08, 0.06, 0.06, 0.06, 0.06, 0.08, 0.1, 0.1]","[[0.2751645157096694, -0.3223293451526866], [0.016944028148534795, -0.34462492240349096], [0.34462177112140757, 0.3718726746293792], [-0.44310723377563843, 0.029188656495492737], [0.29827473535224613, -0.13296935098983553], [0.12195331563824152, 0.029043348227134946], [-0.02324422108366797, 0.31919773103275506], [0.5295925119245696, 0.028399746975724338], [-0.5855648243856969, -0.13222103440861832], [-0.5428471840026281, 0.19826536415321627], [0.3346812812717146, 0.08264180432845725], [-0.3777672158573398, -0.3449484986632846], [-0.20042921260888613, 0.09047261484928049], [-0.4410168121400271, 0.41201290902342597], [0.20501636782493826, 0.5286831029807624], [0.05537013724551898, -0.5925256112552502], [0.5000767721657983, 0.22660133971727414], [-0.22479164285803177, 0.5000186335207274], [-0.2766888209872259, -0.5192847575098384], [-0.33656553439440834, -0.15514741426329576]]",density,black,,,D003,visual,1,[],"['1', '2', '3', '4']",1,2023.2.3,harveyvisual,2.1,[],8,0.75,
0,pause,0.4,None,None,None,0,123,123,123,,,,,,,,,,,,,D003,visual,1,[],"['1', '2', '3', '4']",1,2023.2.3,harveyvisual,2.1,[],8,0.75,
20,dot,0.3,['dot'],['density'],black,0,124,124,124,,,45.80041813850403,45.512127161026,45.81210803985596,dot,"[0.08, 0.1, 0.06, 0.06, 0.06, 0.06, 0.08, 0.1, 0.08, 0.06, 0.06, 0.08, 0.08, 0.08, 0.1, 0.1, 0.06, 0.08, 0.08, 0.1]","[[-0.019898499688832172, 0.5038976563958437], [0.21789313348838424, 0.1180753357981208], [0.4816071224305313, 0.028549315268303455], [-0.42867938992639054, -0.2289902190590552], [0.3842143245204751, 0.2980450689969938], [-0.27573876462099234, -0.3864482354144403], [-0.40060726260588964, 0.40026659058139397], [0.30688544212208513, -0.4920581712746172], [0.10157097673181315, -0.4120693555337126], [-0.015044927461607793, -0.2403300756729193], [-0.22953298942937322, 0.060255174175181114], [0.5266259976305602, -0.28878698323369106], [-0.537630801376582, 0.08663637122128892], [0.238650917165252, -0.13656253646267014], [0.21428475621886567, 0.4135293204122725], [-0.03846343412231046, 0.14995490631143993], [-0.13861075248350307, -0.5704959810548703], [0.040478817245176324, -0.05230946635545386], [-0.20255675781275545, -0.20925347563836577], [-0.20016463120257477, 0.3314797235771214]]",density,black,,,D003,visual,1,[],"['1', '2', '3', '4']",1,2023.2.3,harveyvisual,2.1,[],8,0.75,
0,pause,0.4,None,None,None,0,125,125,125,,,,,,,,,,,,,D003,visual,1,[],"['1', '2', '3', '4']",1,2023.2.3,harveyvisual,2.1,[],8,0.75,
20,dot,0.3,['dot'],['density'],black,0,126,126,126,,,46.500410079956055,46.21212410926819,46.512070178985596,dot,"[0.06, 0.1, 0.1, 0.08, 0.08, 0.1, 0.06, 0.06, 0.1, 0.06, 0.08, 0.1, 0.08, 0.06, 0.1, 0.06, 0.08, 0.1, 0.06, 0.06]","[[-0.459959076746405, -0.25417903065646685], [0.4971159529581649, 0.10998612980913414], [-0.15477175691152428, -0.5663835000099997], [0.12183429068668139, 0.14195969947206666], [0.15605722025998137, -0.1803573745322588], [-0.38284415972930125, 0.26778981888391223], [0.37726262786211673, -0.12059827257068312], [-0.1669071211606924, -0.2418899538493134], [0.2841338143900737, 0.4127096812039126], [-0.1900854264476905, 0.2962747346592972], [-0.0383638929254041, -0.10202196552322917], [0.5852275696815196, -0.13374759447360238], [0.007680932299868326, -0.42782960283469107], [-0.5435881319267349, -0.012838405402511077], [-0.3473681712754845, 0.02094138529563916], [0.08612911134787049, 0.5373635535713337], [0.2714737444516614, -0.5056827227113725], [-0.33313851427055946, -0.42161532876430674], [-0.3866304640685797, 0.46557159201451426], [0.43176779346101346, -0.3804774571983345]]",density,black,,,D003,visual,1,[],"['1', '2', '3', '4']",1,2023.2.3,harveyvisual,2.1,[],8,0.75,
0,pause,0.4,None,None,None,0,127,127,127,,,,,,,,,,,,,D003,visual,1,[],"['1', '2', '3', '4']",1,2023.2.3,harveyvisual,2.1,[],8,0.75,
20,dot,0.3,['dot'],['density'],black,0,128,128,128,,,47.200414180755615,46.91204500198364,47.21203398704529,dot,"[0.06, 0.1, 0.08, 0.08, 0.08, 0.06, 0.06, 0.06, 0.08, 0.08, 0.06, 0.1, 0.1, 0.1, 0.1, 0.06, 0.1, 0.1, 0.08, 0.06]","[[0.20496776079713563, -0.37377730467909587], [0.49179070387851265, -0.2160005187751452], [-0.3495163957143649, -0.2342014008050774], [-0.45579297693658505, 0.38242004332154467], [-0.1958102330792958, -0.5447157960112328], [0.5976995579551291, 0.026355001468912717], [-0.02566603894226449, 0.17540010603509593], [-0.5040650154825825, -0.12071619242408566], [-0.4226668873320303, 0.18064172089521696], [0.14724950363139488, -0.5656094404336127], [0.32558794879279185, 0.11101276410749128], [0.4204919461506168, 0.4320081315554729], [-0.19661633018489266, -0.028359879304066693], [0.03015029505764255, -0.05745572930138976], [0.007166843138195933, 0.3969252661195929], [0.2399021520277539, -0.18218874562955462], [0.5225237432361455, 0.24979391526649658], [-0.15488339209193236, -0.2890132446040535], [0.12372901080193122, 0.5876970639588213], [-0.19199889644448426, 0.30834548440497866]]",density,black,,,D003,visual,1,[],"['1', '2', '3', '4']",1,2023.2.3,harveyvisual,2.1,[],8,0.75,
0,pause,0.4,None,None,None,0,129,129,129,,,,,,,,,,,,,D003,visual,1,[],"['1', '2', '3', '4']",1,2023.2.3,harveyvisual,2.1,[],8,0.75,
20,dot,0.3,['dot'],['density'],black,0,130,130,130,,,47.90041518211365,47.612019062042236,47.91200017929077,dot,"[0.08, 0.08, 0.1, 0.1, 0.06, 0.1, 0.06, 0.06, 0.1, 0.06, 0.08, 0.06, 0.1, 0.08, 0.1, 0.1, 0.1, 0.06, 0.08, 0.1]","[[-0.30798176664773486, 0.13951867805082518], [-0.08296853259641612, -0.45305029961003873], [0.0765086374028422, -0.09257013828500338], [0.3263774358518817, -0.11484148442622949], [0.20307409386505315, 0.37469779280412985], [-0.24665422275231036, 0.4385401681671449], [-0.5929988972585839, 0.09880611014234031], [0.547472201536244, 0.21884092246208936], [0.5773221021478817, -0.07611796983361184], [0.4952876266332248, -0.33467700861055094], [-0.47957697006389666, 0.3041058418279805], [-0.40031753943761283, -0.07888946538990227], [0.18348973470200503, -0.5492596491258588], [-0.10698159736868634, 0.0909735789592], [-0.44205188479212154, -0.3434632091955866], [0.13119132547505397, -0.28924300281390275], [0.27579347917282737, 0.17362294574728343], [-0.07991172923170942, 0.3414069725188542], [0.0828287230830026, 0.5408947580521523], [-0.24425994611046303, -0.3536521711817765]]",density,black,,,D003,visual,1,[],"['1', '2', '3', '4']",1,2023.2.3,harveyvisual,2.1,[],8,0.75,
0,pause,0.4,None,None,None,0,131,131,131,,,,,,,,,,,,,D003,visual,1,[],"['1', '2', '3', '4']",1,2023.2.3,harveyvisual,2.1,[],8,0.75,
20,dot,0.3,['dot'],['density'],black,0,132,132,132,,,48.60042715072632,48.311997175216675,48.611993074417114,dot,"[0.1, 0.08, 0.08, 0.06, 0.08, 0.1, 0.06, 0.06, 0.08, 0.08, 0.1, 0.08, 0.06, 0.06, 0.1, 0.1, 0.1, 0.06, 0.1, 0.1]","[[0.5626170751176128, 0.046829193558093674], [-0.10845787197272311, -0.43163856895831626], [0.10302325942615387, 0.545802581714469], [-0.18673208102035332, 0.36603287152725716], [0.19336336378077756, -0.5159572294769552], [0.176148442722861, -0.06015445426556487], [-0.3463317685021423, -0.19596236300312064], [0.3978711662038278, 0.2711422308619482], [0.30312527360282004, -0.2590972973660395], [-0.4958357024038769, 0.23944805032426975], [-0.5863431521358857, 0.05097349225102793], [0.18143226006027457, 0.3323755081905231], [-0.20713347937997456, 0.05880998126615944], [-0.33213855668352255, -0.404151167575797], [0.014536434853850921, 0.10357012509298202], [0.5582781998223246, -0.1452961396695885], [-0.5386602540854943, -0.2599339326761487], [0.11852836205552042, -0.3235798477573424], [-0.07517297712483961, -0.15802357908770537], [0.3746600001222833, -0.4520649220571435]]",density,black,,,D003,visual,1,[],"['1', '2', '3', '4']",1,2023.2.3,harveyvisual,2.1,[],8,0.75,
0,pause,0.4,None,None,None,0,133,133,133,,,,,,,,,,,,,D003,visual,1,[],"['1', '2', '3', '4']",1,2023.2.3,harveyvisual,2.1,[],8,0.75,
20,dot,0.3,['dot'],['density'],black,0,134,134,134,,,49.30044198036194,49.01241612434387,49.3120059967041,dot,"[0.08, 0.08, 0.1, 0.08, 0.08, 0.08, 0.06, 0.06, 0.1, 0.1, 0.06, 0.1, 0.08, 0.08, 0.06, 0.08, 0.1, 0.1, 0.08, 0.1]","[[-0.5335933639013377, 0.22094923899508512], [0.38322565930119556, -0.21361561348898056], [-0.32948895899212555, 0.4340814061052849], [0.5557255671082127, 0.17465701789073296], [0.4866445341259028, -0.035113016954427645], [-0.08334805225841557, 0.03390384171546612], [-0.3686974874812408, -0.3698173619622951], [-0.08193582168860125, -0.19251869530559507], [-0.3243573640743377, -0.07287964634407457], [0.1928930751474378, 0.15927711633322283], [-0.22973559259329984, 0.19536495495626716], [-0.07055206813150983, -0.5105983854334029], [0.2009703571414675, -0.29345312999846496], [-0.5980613845576767, 0.01622801237913231], [0.1349118389301731, -0.07230242304831014], [0.3913150776295189, -0.43852749971584387], [0.37616911853706747, 0.44870955640190413], [0.21099683756484655, 0.5606645717981812], [0.005382903422655239, 0.5277983471311719], [0.16342206955652905, -0.5313686347910702]]",density,black,,,D003,visual,1,[],"['1', '2', '3', '4']",1,2023.2.3,harveyvisual,2.1,[],8,0.75,
0,pause,0.4,None,None,None,0,135,135,135,,,,,,,,,,,,,D003,visual,1,[],"['1', '2', '3', '4']",1,2023.2.3,harveyvisual,2.1,[],8,0.75,
20,dot,0.3,['dot'],['density'],black,0,136,136,136,,,50.00042200088501,49.712172985076904,50.01216101646423,dot,"[0.06, 0.06, 0.1, 0.08, 0.1, 0.08, 0.08, 0.06, 0.08, 0.08, 0.1, 0.1, 0.08, 0.1, 0.06, 0.06, 0.08, 0.08, 0.1, 0.08]","[[0.42728240990328914, -0.3299162944411195], [0.4950730296223883, 0.10187539465700357], [-0.2054221941228167, 0.0599563435033047], [0.5934951723726519, -0.06802877315016867], [-0.07192078953213776, 0.41265606515250053], [0.06524303691331912, 0.11336758104527145], [-0.39470589939545964, -0.2065317777292872], [-0.5640453477984538, -0.10527551170020902], [-0.5884851712554885, 0.1029812703747732], [-0.14794477986587035, -0.5477439747902378], [0.5083043418627381, 0.3172093888798345], [-0.4530883277662292, 0.3781745211372186], [0.2938999621836048, -0.13892980113658315], [0.1266699619680155, -0.30690759860639416], [-0.06059582351383397, -0.1684168110778691], [-0.4172210280267512, -0.4013226855817017], [0.2897356192173778, 0.13671458792718383], [0.14234415246983068, 0.45761172897666824], [-0.40056770912496775, 0.14325202830785772], [-0.20429922666532063, 0.5515178906034628]]",density,black,,,D003,visual,1,[],"['1', '2', '3', '4']",1,2023.2.3,harveyvisual,2.1,[],8,0.75,
0,pause,0.4,None,None,None,0,137,137,137,,,,,,,,,,,,,D003,visual,1,[],"['1', '2', '3', '4']",1,2023.2.3,harveyvisual,2.1,[],8,0.75,
20,dot,0.3,['dot'],['density'],black,0,138,138,138,,,50.70043611526489,50.412150144577026,50.711982011795044,dot,"[0.08, 0.06, 0.08, 0.08, 0.06, 0.08, 0.08, 0.06, 0.1, 0.06, 0.08, 0.08, 0.08, 0.06, 0.06, 0.06, 0.1, 0.1, 0.08, 0.06]","[[-0.30272876927209724, 0.477678399909959], [-0.5917957425652562, -0.018247694598490946], [0.2606722636892538, 0.0329800186416872], [-0.48651040836542214, -0.3214761639099357], [-0.2864541752624573, -0.34917843896658995], [0.07147070959424906, 0.2154094929698248], [0.31814005227554, 0.3671304734026857], [-0.4625944096427005, 0.2531425712246456], [0.48615138591567997, 0.1913363518607874], [0.2779601011519769, -0.2602597236358088], [0.5700458337041882, -0.08637544321870332], [-0.11163875608475488, -0.10359028936859327], [-0.2571332971576706, 0.0914812136676475], [-0.18677559594700166, 0.2987259747924381], [0.10026318884579943, -0.36358158913698946], [0.40798121226834405, -0.42478410140846273], [-0.32673761812197827, -0.09194719683906866], [0.07192279632675158, -0.17510169723619068], [0.1178836417146576, 0.5385194215293903], [-0.08971876400567624, 0.47210833044370715]]",density,black,,,D003,visual,1,[],"['1', '2', '3', '4']",1,2023.2.3,harveyvisual,2.1,[],8,0.75,
0,pause,0.4,None,None,None,0,139,139,139,,,,,,,,,,,,,D003,visual,1,[],"['1', '2', '3', '4']",1,2023.2.3,harveyvisual,2.1,[],8,0.75,
20,dot,0.3,['dot'],['density'],black,0,140,140,140,,,51.40040898323059,51.111984968185425,51.4119770526886,dot,"[0.06, 0.1, 0.1, 0.1, 0.1, 0.08, 0.06, 0.1, 0.06, 0.08, 0.1, 0.06, 0.1, 0.08, 0.1, 0.08, 0.06, 0.06, 0.06, 0.1]","[[-0.3809739275350406, 0.11366367996716825], [0.19569193532377727, 0.479069856758653], [-0.26724150179051986, -0.361151114806037], [0.45693607840945905, -0.02750075427356713], [0.1822008976420152, -0.2632691132335767], [0.015053769147786888, 0.19716802323009086], [-0.04607204561576994, -0.2813427089997693], [0.16294981117729523, -0.03258528200424571], [0.22338403821624186, 0.20678532007707318], [0.5225431275115217, 0.17405827164090265], [-0.07988927788087485, 0.5892532882335701], [-0.4652655502864381, -0.3603328227168518], [-0.1953642059652006, 0.3943413628952045], [-0.191571450339112, 0.13507162517938176], [-0.4817664614406072, 0.34040255884551635], [-0.48680594339659666, -0.08044896864246459], [0.08157663488454658, -0.5165858263733609], [-0.18497090291455548, -0.10809748366616001], [0.39340979511826657, -0.3058942410890931], [-0.5718623321243332, 0.11003786774364407]]",density,black,,,D003,visual,1,[],"['1', '2', '3', '4']",1,2023.2.3,harveyvisual,2.1,[],8,0.75,
0,pause,0.4,None,None,None,0,141,141,141,,,,,,,,,,,,,D003,visual,1,[],"['1', '2', '3', '4']",1,2023.2.3,harveyvisual,2.1,[],8,0.75,
20,dot,0.3,['dot'],['density'],black,0,142,142,142,,,52.10043716430664,51.81196308135986,52.112202167510986,dot,"[0.06, 0.08, 0.06, 0.06, 0.1, 0.06, 0.08, 0.1, 0.1, 0.1, 0.1, 0.1, 0.08, 0.1, 0.1, 0.06, 0.1, 0.08, 0.06, 0.08]","[[-0.5120587101637741, -0.019528348388225203], [-0.0790261682210418, -0.17323261787022864], [-0.059501202698086675, 0.2471208736728211], [-0.3103405832950669, 0.19704291811299068], [0.548331530035293, 0.15062582979393685], [0.21602362899548744, 0.0502352491065714], [0.01964511303343197, -0.4555178372715749], [-0.02115613080714629, 0.5479349410819929], [0.1793051283913183, 0.42893199654832004], [0.4751654757765277, -0.12147291688870882], [0.16778954465302565, -0.3035977401193281], [-0.23212834915575759, 0.5372999440759579], [-0.24050216019367632, -0.06509413052680135], [-0.24549930095248101, -0.5188252067579561], [0.2837693620090339, 0.24501100681168442], [-0.45857344213299717, -0.37964513230791097], [0.41811323081653196, -0.36979726739403995], [0.000869228074876105, 0.034076476735137584], [-0.5123479277219745, 0.23636131598179028], [-0.37746213285870767, -0.19666682840865646]]",density,black,,,D003,visual,1,[],"['1', '2', '3', '4']",1,2023.2.3,harveyvisual,2.1,[],8,0.75,
0,pause,0.4,None,None,None,0,143,143,143,,,,,,,,,,,,,D003,visual,1,[],"['1', '2', '3', '4']",1,2023.2.3,harveyvisual,2.1,[],8,0.75,
20,dot,0.3,['dot'],['density'],black,0,144,144,144,,,52.80041313171387,52.51197004318237,52.81195116043091,dot,"[0.08, 0.1, 0.1, 0.08, 0.08, 0.1, 0.06, 0.08, 0.06, 0.1, 0.1, 0.06, 0.08, 0.06, 0.1, 0.06, 0.1, 0.06, 0.08, 0.08]","[[0.006150231005973228, 0.3884259688991176], [-0.06754257950673181, -0.394098942237034], [-0.5812768182855503, 0.12889750440547254], [0.04716735556266427, -0.15584383263589857], [0.5362184963394346, 0.09621005612812017], [-0.2170487137138022, -0.20706939132393237], [0.32395426864791044, 0.2649543370768004], [0.08751676898925309, -0.5750574042274175], [-0.36546402629639096, -0.47271962108528065], [0.4382647334203308, -0.16053239284113152], [-0.34488862664956516, -0.03685386909486499], [0.13267789053645296, 0.14448978797489598], [-0.3557597860881825, 0.35074500695547217], [0.40031518181489145, -0.3680148429041278], [-0.25923502830565137, 0.1726228618384652], [-0.1373448355304442, -0.012373917677840574], [-0.46061753824344376, -0.2544333663008862], [0.511891532803337, 0.3180396842891238], [0.2828105044993978, 0.5168482075146197], [-0.18792474749382915, -0.5752552537056229]]",density,black,,,D003,visual,1,[],"['1', '2', '3', '4']",1,2023.2.3,harveyvisual,2.1,[],8,0.75,
0,pause,0.4,None,None,None,0,145,145,145,,,,,,,,,,,,,D003,visual,1,[],"['1', '2', '3', '4']",1,2023.2.3,harveyvisual,2.1,[],8,0.75,
20,dot,0.3,['dot'],['density'],black,0,146,146,146,,,53.5004301071167,53.211923122406006,53.51191306114197,dot,"[0.06, 0.06, 0.08, 0.06, 0.08, 0.1, 0.06, 0.1, 0.06, 0.1, 0.06, 0.1, 0.1, 0.1, 0.08, 0.08, 0.06, 0.1, 0.06, 0.1]","[[0.23135908202837918, 0.21657866471251241], [0.09258366618261549, -0.35712268512220297], [-0.03644716081337529, 0.08545748423977195], [0.41823163500281646, -0.14419349017845318], [-0.233685197485812, -0.21165453891971742], [-0.5088373239036814, 0.19174403544989238], [-0.1510855754337167, 0.3401193599913477], [0.29050303905991426, 0.4533480503662506], [-0.5219404597159614, -0.23578200479666378], [-0.3431953556198156, 0.013067479354639977], [0.435188907066859, 0.07833981915187876], [-0.3599638821590338, 0.478438407372199], [-0.11363524733778446, -0.48474642487049735], [-0.4123846229808208, -0.41902840747288367], [0.07104628566638949, -0.5523217162767058], [0.5064766601830467, -0.3119082765875114], [-0.6044341282894883, 0.004024337562172534], [0.08647442098300273, 0.48071191276765624], [-0.10903182348987944, 0.5676946651599718], [0.2251606717318564, -0.1798301635610835]]",density,black,,,D003,visual,1,[],"['1', '2', '3', '4']",1,2023.2.3,harveyvisual,2.1,[],8,0.75,
0,pause,0.4,None,None,None,0,147,147,147,,,,,,,,,,,,,D003,visual,1,[],"['1', '2', '3', '4']",1,2023.2.3,harveyvisual,2.1,[],8,0.75,
20,dot,0.3,['dot'],['density'],black,0,148,148,148,,,54.20043206214905,53.911888122558594,54.21185517311096,dot,"[0.08, 0.08, 0.08, 0.06, 0.06, 0.1, 0.08, 0.06, 0.1, 0.08, 0.1, 0.1, 0.08, 0.1, 0.1, 0.08, 0.1, 0.1, 0.06, 0.08]","[[-0.5303813813931859, -0.2203053206184371], [-0.38780416584515803, -0.4367645853836216], [0.08800062582761004, -0.4435539098930902], [0.4376006847636954, 0.015023091730998306], [0.1632152884118988, -0.20579262766768708], [-0.0328769401142629, -0.07683310219750494], [0.3287800727827961, 0.43800052042553705], [-0.20017112598964604, -0.4893333813290824], [0.21955625316986616, 0.1587911324404072], [0.5290648305963973, 0.2267015705918769], [0.5206946889583312, -0.25563156173593976], [-0.48058769057849915, 0.005763217491105255], [-0.48999237720863975, 0.26614170653054325], [-0.19699026308975787, 0.4943031186917439], [0.05648019804086457, 0.5824588455472475], [0.3813630096005448, -0.4145906920358085], [0.03176588465029362, 0.20844576966579964], [-0.048559563505511605, -0.29484695493653834], [-0.26187323055143524, 0.1949492171865217], [-0.28735600233166025, -0.028442714824813864]]",density,black,,,D003,visual,1,[],"['1', '2', '3', '4']",1,2023.2.3,harveyvisual,2.1,[],8,0.75,
0,pause,0.4,None,None,None,0,149,149,149,,,,,,,,,,,,,D003,visual,1,[],"['1', '2', '3', '4']",1,2023.2.3,harveyvisual,2.1,[],8,0.75,
20,dot,0.3,['dot'],['density'],black,0,150,150,150,,,54.900413036346436,54.61184120178223,54.91183018684387,dot,"[0.1, 0.06, 0.08, 0.06, 0.08, 0.06, 0.06, 0.06, 0.06, 0.06, 0.08, 0.06, 0.06, 0.08, 0.08, 0.1, 0.1, 0.06, 0.08, 0.08]","[[-0.09391587778227417, -0.35604174024364615], [0.04055156301637808, -0.15759626650540187], [-0.3038891882026962, -0.2056958746922366], [0.4832730563121407, 0.2771178460163864], [-0.5532682371441433, -0.0047978556575802855], [0.13074443992374096, -0.42222166218916546], [-0.15525933354406612, 0.41733589276495475], [-0.2946596978321593, -0.4844208259640366], [0.23583121994955725, 0.21160185529113207], [0.43361297896329243, -0.05912519843358188], [-0.2073014752444578, 0.2147990787489309], [0.09958141671740472, 0.34879036882009906], [0.31748104051083514, -0.3522999336944105], [0.22916537801818726, 0.021228392457951384], [-0.17071536440671053, -0.06497790244843238], [-0.4314969936656059, 0.4224766413475956], [-0.5412292083047059, 0.22567047402574086], [0.17487135758558114, 0.5512617211046165], [0.30715220121786824, 0.3900918504184221], [-0.001737941872994253, 0.08339343004721134]]",density,black,,,D003,visual,1,[],"['1', '2', '3', '4']",1,2023.2.3,harveyvisual,2.1,[],8,0.75,
0,pause,0.4,None,None,None,0,151,151,151,,,,,,,,,,,,,D003,visual,1,[],"['1', '2', '3', '4']",1,2023.2.3,harveyvisual,2.1,[],8,0.75,
20,dot,0.3,['dot'],['density'],black,0,152,152,152,,,55.60043001174927,55.311835050582886,55.61181616783142,dot,"[0.08, 0.1, 0.08, 0.06, 0.08, 0.06, 0.08, 0.1, 0.08, 0.06, 0.08, 0.08, 0.08, 0.08, 0.06, 0.06, 0.1, 0.1, 0.1, 0.08]","[[-0.03152596355481474, 0.3378930998482875], [0.20503483025088987, 0.22740363446023848], [0.34285064438540935, -0.47300330373247024], [-0.5593408671720322, 0.07514202461430394], [-0.4220929529713802, 0.23932506976937945], [-0.4860152660539907, -0.258669219659844], [0.5616258499749772, -0.09893455040627983], [-0.327600466012055, -0.40148204636147383], [0.24485736066109987, -0.0023178339898703992], [0.4471980030520649, 0.3718667462292226], [0.3012045389375896, -0.276143315672584], [0.5569252318504504, 0.17303054143724456], [-0.24884046722785835, -0.0016039444846506212], [-0.035703825511640974, -0.49062478130102327], [-0.07777178328842493, 0.5314645486092227], [0.09533334410784855, -0.23501737310055515], [0.0002982235697912561, 0.12721479974351246], [-0.22383030965348755, 0.21577155830111538], [-0.27021537998486833, -0.20739070309817365], [0.5077858490076453, -0.31392076530779034]]",density,black,,,D003,visual,1,[],"['1', '2', '3', '4']",1,2023.2.3,harveyvisual,2.1,[],8,0.75,
0,pause,0.4,None,None,None,0,153,153,153,,,,,,,,,,,,,D003,visual,1,[],"['1', '2', '3', '4']",1,2023.2.3,harveyvisual,2.1,[],8,0.75,
20,dot,0.3,['dot'],['density'],white,0,154,154,154,,,56.300427198410034,56.01183009147644,56.31180500984192,dot,"[0.06, 0.1, 0.08, 0.1, 0.08, 0.1, 0.1, 0.06, 0.1, 0.06, 0.06, 0.08, 0.1, 0.1, 0.08, 0.1, 0.08, 0.06, 0.06, 0.1]","[[0.5942588678075947, 0.0730068505193424], [0.15109120231528939, 0.06287482117528409], [0.22268403892141275, -0.17652651977923772], [0.18299819836682196, -0.5141663425596611], [0.13150366855535456, 0.46933063076417414], [-0.04801298287332734, 0.123740434239342], [-0.23453816269181482, -0.2428220821492823], [-0.46798223118496685, -0.1383180718737025], [0.48577451969295293, -0.26094268696127076], [-0.5018267714560253, 0.19501892545690153], [-0.20494247833301588, 0.562182613614312], [-0.3365337201811159, 0.0694722560285358], [-0.47386652641045257, -0.3649917454325032], [-0.05871698332186115, 0.42958763182526616], [-0.1394961883073791, -0.468122417808649], [0.3750564728850384, 0.21209049784222206], [-0.009214666049593201, -0.29275334357160687], [-0.23027548546631577, 0.2866940291220026], [0.41105391807887337, 0.018731882227028873], [-0.36093689271754037, 0.43627091657461026]]",density,white,,,D003,visual,1,[],"['1', '2', '3', '4']",1,2023.2.3,harveyvisual,2.1,[],8,0.75,
0,pause,0.4,None,None,None,0,155,155,155,,,,,,,,,,,1,56.32355785369873,D003,visual,1,[],"['1', '2', '3', '4']",1,2023.2.3,harveyvisual,2.1,[],8,0.75,
9,dot,0.3,['dot'],['density'],black,0,156,156,156,,,57.00041699409485,56.7117919921875,57.01177406311035,dot,"[0.08, 0.06, 0.1, 0.1, 0.06, 0.06, 0.06, 0.06, 0.06]","[[-0.05049485011715354, 0.3013521193238899], [0.15354596755057998, 0.36785015051376163], [0.22995749783639982, 0.07309138415424772], [0.13460311710395165, -0.18603378415368982], [0.33097739113381164, -0.13822260855557728], [-0.16464148731134703, 0.07190493829483618], [0.521154897315396, -0.007803673430992942], [0.02684304494395013, 0.0018704401699241912], [-0.15545279255173522, -0.15329938800760382]]",density,black,,,D003,visual,1,[],"['1', '2', '3', '4']",1,2023.2.3,harveyvisual,2.1,[],8,0.75,
0,pause,0.4,None,None,None,0,157,157,157,,,,,,,,,,,,,D003,visual,1,[],"['1', '2', '3', '4']",1,2023.2.3,harveyvisual,2.1,[],8,0.75,
9,dot,0.3,['dot'],['density'],white,0,158,158,158,,,57.70043110847473,57.41176915168762,57.711750984191895,dot,"[0.06, 0.1, 0.08, 0.06, 0.1, 0.1, 0.08, 0.08, 0.1]","[[-0.3143165991636532, -0.4594448536910345], [-0.2552048841139852, -0.06866208597721758], [-0.4539914907372049, -0.019462523532982], [-0.0016330512078212595, -0.20036737320767878], [-0.1856154264835833, -0.2915493351998931], [-0.41369389823818076, -0.2734186166626005], [0.2388286227728169, -0.07063581723838416], [0.0412368179136257, 0.05808754956878123], [-0.37802967984412894, 0.19285536194211775]]",density,white,,,D003,visual,1,[],"['1', '2', '3', '4']",1,2023.2.3,harveyvisual,2.1,[],8,0.75,
0,pause,0.4,None,None,None,0,159,159,159,,,,,,,,,,,1,57.68470501899719,D003,visual,1,[],"['1', '2', '3', '4']",1,2023.2.3,harveyvisual,2.1,[],8,0.75,
9,dot,0.3,['dot'],['density'],black,0,160,160,160,,,58.4004111289978,58.11178517341614,58.411771059036255,dot,"[0.1, 0.08, 0.08, 0.06, 0.06, 0.1, 0.1, 0.08, 0.08]","[[0.019793807854907846, -0.43234396454466956], [-0.19026732246162045, -0.30921043426246514], [0.04019268118281429, 0.04496242893187172], [-0.3995051790572048, -0.35321755636659735], [-0.3855517065125252, -0.10705750392277943], [0.08372722599267078, -0.1679482296571974], [0.2622756688563642, -0.3928589043728353], [-0.14305193053609555, -0.047108980659819465], [-0.27076529918092873, 0.10825753519043561]]",density,black,,,D003,visual,1,[],"['1', '2', '3', '4']",1,2023.2.3,harveyvisual,2.1,[],8,0.75,
0,pause,0.4,None,None,None,0,161,161,161,,,,,,,,,,,,,D003,visual,1,[],"['1', '2', '3', '4']",1,2023.2.3,harveyvisual,2.1,[],8,0.75,
9,dot,0.3,['dot'],['density'],black,0,162,162,162,,,59.10041403770447,58.81179213523865,59.11173915863037,dot,"[0.1, 0.06, 0.08, 0.08, 0.1, 0.06, 0.08, 0.08, 0.08]","[[0.019793807854907846, -0.43234396454466956], [-0.19026732246162045, -0.30921043426246514], [0.04019268118281429, 0.04496242893187172], [-0.3995051790572048, -0.35321755636659735], [-0.3855517065125252, -0.10705750392277943], [0.08372722599267078, -0.1679482296571974], [0.2622756688563642, -0.3928589043728353], [-0.14305193053609555, -0.047108980659819465], [-0.27076529918092873, 0.10825753519043561]]",density,black,,,D003,visual,1,[],"['1', '2', '3', '4']",1,2023.2.3,harveyvisual,2.1,[],8,0.75,
0,pause,0.4,None,None,None,0,163,163,163,,,,,,,,,,,,,D003,visual,1,[],"['1', '2', '3', '4']",1,2023.2.3,harveyvisual,2.1,[],8,0.75,
9,dot,0.3,['dot'],['density'],black,0,164,164,164,,,59.80043411254883,59.51172614097595,59.81170320510864,dot,"[0.08, 0.1, 0.1, 0.1, 0.08, 0.08, 0.1, 0.08, 0.06]","[[0.02295687172906439, -0.4555612238154966], [0.343534432465795, -0.2595759245515751], [-0.16187815285083418, -0.09052449078383604], [0.11251247888811697, -0.27313237114007116], [0.30947849701411384, 0.04064216277921932], [0.06991680920562879, 0.010838090335221196], [-0.17538857600721916, -0.30040513178321704], [-0.11470383471809205, 0.10558329706542706], [-0.35883798189287325, -0.15372405551062507]]",density,black,,,D003,visual,1,[],"['1', '2', '3', '4']",1,2023.2.3,harveyvisual,2.1,[],8,0.75,
0,pause,0.4,None,None,None,0,165,165,165,,,,,,,,,,,,,D003,visual,1,[],"['1', '2', '3', '4']",1,2023.2.3,harveyvisual,2.1,[],8,0.75,
9,dot,0.3,['dot'],['density'],black,0,166,166,166,,,60.50043511390686,60.211719036102295,60.51170110702515,dot,"[0.08, 0.1, 0.1, 0.08, 0.1, 0.1, 0.06, 0.06, 0.08]","[[0.08964926938552661, 0.05394775442474662], [0.013667798857315082, 0.3651287039276397], [-0.3518235196438996, 0.4482863301015001], [0.0843039828244993, 0.5528122926054443], [-0.16049547673848438, 0.0730005648255046], [-0.2144141911430125, 0.27623828598157274], [0.3465547907671387, 0.0307758660088046], [-0.13596480001028877, 0.5242376261272882], [0.2304522598158348, 0.3521277948761275]]",density,black,,,D003,visual,1,[],"['1', '2', '3', '4']",1,2023.2.3,harveyvisual,2.1,[],8,0.75,
0,pause,0.4,None,None,None,0,167,167,167,,,,,,,,,,,,,D003,visual,1,[],"['1', '2', '3', '4']",1,2023.2.3,harveyvisual,2.1,[],8,0.75,
8,dot,0.3,['dot'],['density'],white,0,168,168,168,,,61.200422048568726,60.91169810295105,61.21168613433838,dot,"[0.1, 0.1, 0.08, 0.08, 0.1, 0.06, 0.1, 0.06]","[[0.3364035831170529, 0.12390393923093283], [0.4336864367158133, 0.35981147627037974], [0.06743640335689947, 0.0759148581953004], [-0.079559988999742, 0.39531058321326396], [0.21309668101319243, 0.48855257098982907], [0.23478258025928536, -0.08446837776908474], [-0.12854716397353463, 0.17339976512773136], [0.14965136140762586, 0.26897313353206964]]",density,white,,,D003,visual,1,[],"['1', '2', '3', '4']",1,2023.2.3,harveyvisual,2.1,[],8,0.75,
0,pause,0.4,None,None,None,0,169,169,169,,,,,,,,,,,1,61.18410301208496,D003,visual,1,[],"['1', '2', '3', '4']",1,2023.2.3,harveyvisual,2.1,[],8,0.75,
8,dot,0.3,['dot'],['density'],black,0,170,170,170,,,61.90041708946228,61.61165904998779,61.91171097755432,dot,"[0.06, 0.1, 0.08, 0.06, 0.1, 0.06, 0.1, 0.1]","[[0.2564657333297123, -0.5164120873644681], [0.16207736998829034, -0.17430025554579232], [0.3801370228700199, -0.12440354324600712], [0.3861419762144276, -0.3474957963553726], [0.023072413076989942, -0.006703975881976366], [-0.07114697953604181, -0.35683211304459495], [0.45447188669532573, 0.06927659529933487], [0.23571610799738704, 0.02784742549372824]]",density,black,,,D003,visual,1,[],"['1', '2', '3', '4']",1,2023.2.3,harveyvisual,2.1,[],8,0.75,
0,pause,0.4,None,None,None,0,171,171,171,,,,,,,,,,,,,D003,visual,1,[],"['1', '2', '3', '4']",1,2023.2.3,harveyvisual,2.1,[],8,0.75,
8,dot,0.3,['dot'],['density'],black,0,172,172,172,,,62.60041117668152,62.311697006225586,62.611696004867554,dot,"[0.06, 0.1, 0.1, 0.08, 0.1, 0.08, 0.06, 0.1]","[[-0.08486713456805763, -0.4233549652310786], [-0.34121661687321897, 0.009931669871959016], [0.06179899905610707, -0.01287726204627424], [-0.01080387642187049, -0.20774715314808884], [-0.2259787915635077, -0.2257096572683263], [-0.31087639520469923, -0.4457762681120083], [-0.07938707884489006, 0.17996906985975966], [-0.13919465900414296, -0.03133413505419433]]",density,black,,,D003,visual,1,[],"['1', '2', '3', '4']",1,2023.2.3,harveyvisual,2.1,[],8,0.75,
0,pause,0.4,None,None,None,0,173,173,173,,,,,,,,,,,,,D003,visual,1,[],"['1', '2', '3', '4']",1,2023.2.3,harveyvisual,2.1,[],8,0.75,
8,dot,0.3,['dot'],['density'],black,0,174,174,174,,,63.30042219161987,63.01182198524475,63.311819076538086,dot,"[0.06, 0.06, 0.1, 0.1, 0.06, 0.08, 0.06, 0.08]","[[0.5011924336457421, -0.024432440978935197], [0.2806328112604475, -0.04317330297599672], [0.4832514634589159, 0.31109822070486504], [0.16408111659662816, 0.42847901077729456], [0.23688927214560462, 0.23559820796421724], [0.07772697954394367, 0.06196890701796274], [0.10192126774068293, -0.18867749580812243], [-0.012619648351882298, 0.24997239668137242]]",density,black,,,D003,visual,1,[],"['1', '2', '3', '4']",1,2023.2.3,harveyvisual,2.1,[],8,0.75,
0,pause,0.4,None,None,None,0,175,175,175,,,,,,,,,,,,,D003,visual,1,[],"['1', '2', '3', '4']",1,2023.2.3,harveyvisual,2.1,[],8,0.75,
8,dot,0.3,['dot'],['density'],black,0,176,176,176,,,64.00041007995605,63.71182703971863,64.01181197166443,dot,"[0.1, 0.08, 0.1, 0.06, 0.06, 0.06, 0.06, 0.1]","[[-0.17001050475317317, -0.17367687575201368], [0.3600613666554234, 0.010096468830953859], [-0.08326222131596324, 0.04242117989324811], [0.04296950773068638, 0.29875887990525135], [0.04919814700692566, -0.23206276490508926], [0.2733682510361541, 0.19343137942482672], [0.15974695196996483, -0.02827404827190698], [-0.2919014881818027, 0.0006738684867251376]]",density,black,,,D003,visual,1,[],"['1', '2', '3', '4']",1,2023.2.3,harveyvisual,2.1,[],8,0.75,
0,pause,0.4,None,None,None,0,177,177,177,,,,,,,,,,,,,D003,visual,1,[],"['1', '2', '3', '4']",1,2023.2.3,harveyvisual,2.1,[],8,0.75,
8,dot,0.3,['dot'],['density'],black,0,178,178,178,,,64.70041298866272,64.41178798675537,64.71178102493286,dot,"[0.06, 0.1, 0.08, 0.08, 0.06, 0.1, 0.08, 0.08]","[[-0.3265204970111284, 0.22652760434067618], [0.11129643684023392, 0.07926950251467085], [0.07893474341784651, 0.4315681374945237], [-0.2000017914838315, -0.08445279674287073], [-0.29956068591909263, 0.4664910923320479], [-0.09828291121522204, 0.1483319570086381], [0.07400994184747142, -0.11883630301138211], [-0.12650192453358844, 0.35264367728062257]]",density,black,,,D003,visual,1,[],"['1', '2', '3', '4']",1,2023.2.3,harveyvisual,2.1,[],8,0.75,
0,pause,0.4,None,None,None,0,179,179,179,,,,,,,,,,,,,D003,visual,1,[],"['1', '2', '3', '4']",1,2023.2.3,harveyvisual,2.1,[],8,0.75,
7,dot,0.3,['dot'],['density'],black,0,180,180,180,,,65.4004271030426,65.11176919937134,65.41175508499146,dot,"[0.08, 0.06, 0.1, 0.08, 0.1, 0.06, 0.06]","[[-0.0840690222646118, 0.326581156863932], [0.2873095043411744, 0.40733497502034743], [0.3312644566818162, -0.06338498518608723], [-0.0506181805300269, 0.10889297565070959], [0.1236891467835978, 0.25045991881734525], [0.122473450616654, -0.061936092255746894], [0.3019459967494134, 0.15241064997072415]]",density,black,,,D003,visual,1,[],"['1', '2', '3', '4']",1,2023.2.3,harveyvisual,2.1,[],8,0.75,
0,pause,0.4,None,None,None,0,181,181,181,,,,,,,,,,,,,D003,visual,1,[],"['1', '2', '3', '4']",1,2023.2.3,harveyvisual,2.1,[],8,0.75,
7,dot,0.3,['dot'],['density'],black,0,182,182,182,,,66.10041618347168,65.8117470741272,66.11173510551453,dot,"[0.1, 0.08, 0.08, 0.06, 0.1, 0.1, 0.1]","[[0.12430361198122393, -0.484697593056103], [0.0493599320108737, -0.036540600477799993], [0.2536650008125765, -0.05314613827093128], [-0.10908149692518246, -0.38401305955505927], [0.3510411480849886, -0.3949608705840701], [0.16732256025271752, -0.2817377092689904], [0.4277002215428168, -0.1937739732965619]]",density,black,,,D003,visual,1,[],"['1', '2', '3', '4']",1,2023.2.3,harveyvisual,2.1,[],8,0.75,
0,pause,0.4,None,None,None,0,183,183,183,,,,,,,,,,,,,D003,visual,1,[],"['1', '2', '3', '4']",1,2023.2.3,harveyvisual,2.1,[],8,0.75,
7,dot,0.3,['dot'],['density'],white,0,184,184,184,,,66.80042219161987,66.51173615455627,66.81171298027039,dot,"[0.1, 0.06, 0.08, 0.1, 0.08, 0.06, 0.1]","[[-0.3616029487054454, 0.4456424486886853], [-0.1496406170718537, 0.08450683720449656], [-0.4229793897960434, 0.19545916586121675], [-0.050735401720141765, 0.4582308035931027], [-0.23416009772798219, 0.28880413379285297], [0.00916417092529717, 0.20866532064640267], [0.0895043828575618, 0.020292244516940467]]",density,white,,,D003,visual,1,[],"['1', '2', '3', '4']",1,2023.2.3,harveyvisual,2.1,[],8,0.75,
0,pause,0.4,None,None,None,0,185,185,185,,,,,,,,,,,1,66.79205703735352,D003,visual,1,[],"['1', '2', '3', '4']",1,2023.2.3,harveyvisual,2.1,[],8,0.75,
7,dot,0.3,['dot'],['density'],white,0,186,186,186,,,67.50043416023254,67.21167707443237,67.51167011260986,dot,"[0.1, 0.08, 0.06, 0.06, 0.1, 0.08, 0.06]","[[-0.0840690222646118, 0.326581156863932], [0.2873095043411744, 0.40733497502034743], [0.3312644566818162, -0.06338498518608723], [-0.0506181805300269, 0.10889297565070959], [0.1236891467835978, 0.25045991881734525], [0.122473450616654, -0.061936092255746894], [0.3019459967494134, 0.15241064997072415]]",density,white,,,D003,visual,1,[],"['1', '2', '3', '4']",1,2023.2.3,harveyvisual,2.1,[],8,0.75,
0,pause,0.4,None,None,None,0,187,187,187,,,,,,,,,,,1,67.45389699935913,D003,visual,1,[],"['1', '2', '3', '4']",1,2023.2.3,harveyvisual,2.1,[],8,0.75,
7,dot,0.3,['dot'],['density'],black,0,188,188,188,,,68.20041799545288,67.91166305541992,68.21151208877563,dot,"[0.08, 0.1, 0.1, 0.08, 0.08, 0.08, 0.06]","[[0.3350011905151264, 0.09255159473130091], [-0.07424962927914175, -0.2643067362759337], [-0.0068732696698998825, 0.04948606721470151], [0.12855319879406235, -0.3381192636220083], [0.11551090787938859, 0.24000211478775196], [0.3415900712266813, -0.1269386107563701], [0.14228147320501944, -0.08533637750285226]]",density,black,,,D003,visual,1,[],"['1', '2', '3', '4']",1,2023.2.3,harveyvisual,2.1,[],8,0.75,
0,pause,0.4,None,None,None,0,189,189,189,,,,,,,,,,,,,D003,visual,1,[],"['1', '2', '3', '4']",1,2023.2.3,harveyvisual,2.1,[],8,0.75,
7,dot,0.3,['dot'],['density'],black,0,190,190,190,,,68.90043210983276,68.61164999008179,68.91162610054016,dot,"[0.06, 0.08, 0.1, 0.08, 0.06, 0.08, 0.08]","[[-0.2314520007693297, 0.33838000150240727], [-0.18132207761103206, 0.5552670473927488], [0.017458222085991553, 0.32213086183097556], [0.10538257653630445, 0.5364165263315271], [-0.32661765694444117, 0.13553859080651098], [0.2001110614088519, 0.2352342526365964], [-0.07707990285528175, 0.1388757586163816]]",density,black,,,D003,visual,1,[],"['1', '2', '3', '4']",1,2023.2.3,harveyvisual,2.1,[],8,0.75,
0,pause,0.4,None,None,None,0,191,191,191,,,,,,,,,,,,,D003,visual,1,[],"['1', '2', '3', '4']",1,2023.2.3,harveyvisual,2.1,[],8,0.75,
6,dot,0.3,['dot'],['density'],white,0,192,192,192,,,69.60041904449463,69.31149411201477,69.61161613464355,dot,"[0.06, 0.08, 0.08, 0.1, 0.1, 0.06]","[[-0.36954580940820725, 0.05815165478813925], [-0.28534481837461456, -0.12375618373579561], [-0.26428406214372846, 0.28010711109252995], [-0.5657182147315603, -0.11096589427743007], [-0.1492704575467133, 0.06899119969773035], [-0.5584105255039638, 0.13196562846102936]]",density,white,,,D003,visual,1,[],"['1', '2', '3', '4']",1,2023.2.3,harveyvisual,2.1,[],8,0.75,
0,pause,0.4,None,None,None,0,193,193,193,,,,,,,,,,,1,69.57615303993225,D003,visual,1,[],"['1', '2', '3', '4']",1,2023.2.3,harveyvisual,2.1,[],8,0.75,
6,dot,0.3,['dot'],['density'],black,0,194,194,194,,,70.3004150390625,70.01161098480225,70.31159806251526,dot,"[0.06, 0.08, 0.08, 0.1, 0.08, 0.1]","[[0.1344939073868, 0.11682503965153783], [0.2622842826516073, -0.1576809643807538], [0.491422654665352, 0.2653315688189552], [0.5669231994484553, 0.0667155191364867], [0.2299276458131091, 0.29835232047215776], [0.3356420801536577, 0.10517090915368521]]",density,black,,,D003,visual,1,[],"['1', '2', '3', '4']",1,2023.2.3,harveyvisual,2.1,[],8,0.75,
0,pause,0.4,None,None,None,0,195,195,195,,,,,,,,,,,,,D003,visual,1,[],"['1', '2', '3', '4']",1,2023.2.3,harveyvisual,2.1,[],8,0.75,
6,dot,0.3,['dot'],['density'],black,0,196,196,196,,,71.00042009353638,70.71150207519531,71.01159119606018,dot,"[0.08, 0.1, 0.06, 0.08, 0.1, 0.06]","[[-0.21871154593458392, 0.523205648483303], [-0.10311842393244862, 0.3355489225101837], [0.008055670172287269, 0.5366903261171385], [0.1303263863168633, 0.3782575370349718], [0.03185769749340688, 0.17145177849191712], [-0.2810167974491763, 0.15418865533644557]]",density,black,,,D003,visual,1,[],"['1', '2', '3', '4']",1,2023.2.3,harveyvisual,2.1,[],8,0.75,
0,pause,0.4,None,None,None,0,197,197,197,,,,,,,,,,,,,D003,visual,1,[],"['1', '2', '3', '4']",1,2023.2.3,harveyvisual,2.1,[],8,0.75,
6,dot,0.3,['dot'],['density'],white,0,198,198,198,,,71.70041298866272,71.41159009933472,71.71147012710571,dot,"[0.06, 0.06, 0.1, 0.08, 0.08, 0.1]","[[-0.08086177951302478, 0.2470577028799217], [0.17809040740055945, 0.25721690350386706], [0.248993691455746, -0.144418230259854], [0.04260816027356476, -0.17251108440570345], [0.26201279645255604, 0.07253913185781388], [-0.0017619790798508912, 0.027830886297901026]]",density,white,,,D003,visual,1,[],"['1', '2', '3', '4']",1,2023.2.3,harveyvisual,2.1,[],8,0.75,
0,pause,0.4,None,None,None,0,199,199,199,,,,,,,,,,,1,71.6484169960022,D003,visual,1,[],"['1', '2', '3', '4']",1,2023.2.3,harveyvisual,2.1,[],8,0.75,
6,dot,0.3,['dot'],['density'],black,0,200,200,200,,,72.4004340171814,72.1115791797638,72.4115891456604,dot,"[0.08, 0.06, 0.08, 0.08, 0.1, 0.06]","[[-0.2715212558254698, 0.2586056842756752], [-0.41011716394998093, -0.23288273174477314], [-0.4259032553852052, 0.02963770343160952], [-0.037696467485790364, -0.07921729390734374], [-0.19058944014171011, 0.07565381115733183], [-0.22931220879523878, -0.14417898787482208]]",density,black,,,D003,visual,1,[],"['1', '2', '3', '4']",1,2023.2.3,harveyvisual,2.1,[],8,0.75,
0,pause,0.4,None,None,None,0,201,201,201,,,,,,,,,,,,,D003,visual,1,[],"['1', '2', '3', '4']",1,2023.2.3,harveyvisual,2.1,[],8,0.75,
6,dot,0.3,['dot'],['density'],black,0,202,202,202,,,73.10043716430664,72.81156802177429,73.11156010627747,dot,"[0.08, 0.1, 0.1, 0.06, 0.08, 0.06]","[[-0.25052904509636076, -0.46440103658729176], [-0.12772535636451293, 0.010821502090106766], [-0.031043743050516784, -0.3649555915866845], [-0.3754529733759062, -0.18839395716731677], [0.07378414788444272, -0.15062955699655364], [-0.17220243018048728, -0.20498996683935267]]",density,black,,,D003,visual,1,[],"['1', '2', '3', '4']",1,2023.2.3,harveyvisual,2.1,[],8,0.75,
0,pause,0.4,None,None,None,0,203,203,203,,,,,,,,,,,,,D003,visual,1,[],"['1', '2', '3', '4']",1,2023.2.3,harveyvisual,2.1,[],8,0.75,
5,dot,0.3,['dot'],['density'],white,0,204,204,204,,,73.80042004585266,73.51152014732361,73.81152105331421,dot,"[0.1, 0.06, 0.06, 0.06, 0.06]","[[-0.4702494158317004, 0.19352793081356498], [-0.36864189631283095, -0.2113573127283173], [-0.3573601989406874, -0.007363185939446715], [-0.15559938224235453, -0.02548680069503583], [-0.25069196230576396, 0.1747846118010945]]",density,white,,,D003,visual,1,[],"['1', '2', '3', '4']",1,2023.2.3,harveyvisual,2.1,[],8,0.75,
0,pause,0.4,None,None,None,0,205,205,205,,,,,,,,,,,1,73.82977294921875,D003,visual,1,[],"['1', '2', '3', '4']",1,2023.2.3,harveyvisual,2.1,[],8,0.75,
5,dot,0.3,['dot'],['density'],black,0,206,206,206,,,74.50042605400085,74.21151113510132,74.51149415969849,dot,"[0.08, 0.1, 0.08, 0.06, 0.06]","[[-0.08538919239777085, -0.3767281323802813], [0.14382612128503536, -0.4947333592336123], [0.2503732289573559, -0.06783159190520484], [0.07777572498152553, -0.21879460077906046], [0.26544561712664855, -0.2975172507008621]]",density,black,,,D003,visual,1,[],"['1', '2', '3', '4']",1,2023.2.3,harveyvisual,2.1,[],8,0.75,
0,pause,0.4,None,None,None,0,207,207,207,,,,,,,,,,,,,D003,visual,1,[],"['1', '2', '3', '4']",1,2023.2.3,harveyvisual,2.1,[],8,0.75,
5,dot,0.3,['dot'],['density'],black,0,208,208,208,,,75.2004292011261,74.91150212287903,75.21133303642273,dot,"[0.08, 0.06, 0.1, 0.08, 0.06]","[[0.2075830250205083, 0.5448960418430373], [0.010600229768786232, 0.45420498888786176], [-0.10187712889758427, 0.28364076042242115], [0.1691377395635631, 0.293820614486451], [-0.2596336492265815, 0.40815120909286945]]",density,black,,,D003,visual,1,[],"['1', '2', '3', '4']",1,2023.2.3,harveyvisual,2.1,[],8,0.75,
0,pause,0.4,None,None,None,0,209,209,209,,,,,,,,,,,,,D003,visual,1,[],"['1', '2', '3', '4']",1,2023.2.3,harveyvisual,2.1,[],8,0.75,
5,dot,0.3,['dot'],['density'],black,0,210,210,210,,,75.90042114257812,75.61150598526001,75.91151213645935,dot,"[0.06, 0.06, 0.06, 0.06, 0.06]","[[0.45108699871130137, 0.12052648913612102], [0.3120839015871755, -0.055344110322042436], [0.5361186937318446, -0.08608482415671545], [0.24926945818158194, 0.15209517992691748], [0.3855135356736719, -0.25840400127360613]]",density,black,,,D003,visual,1,[],"['1', '2', '3', '4']",1,2023.2.3,harveyvisual,2.1,[],8,0.75,
0,pause,0.4,None,None,None,0,211,211,211,,,,,,,,,,,,,D003,visual,1,[],"['1', '2', '3', '4']",1,2023.2.3,harveyvisual,2.1,[],8,0.75,
5,dot,0.3,['dot'],['density'],black,0,212,212,212,,,76.600426197052,76.31131720542908,76.61132717132568,dot,"[0.08, 0.08, 0.06, 0.06, 0.1]","[[-0.08906257038347729, 0.3326351968500321], [0.2173987091792188, 0.026220721131276364], [0.07996259445097068, 0.4821024141609844], [0.14345365083950706, 0.2501481494916038], [-0.03323208063638199, 0.08804517681276208]]",density,black,,,D003,visual,1,[],"['1', '2', '3', '4']",1,2023.2.3,harveyvisual,2.1,[],8,0.75,
0,pause,0.4,None,None,None,0,213,213,213,,,,,,,,,,,,,D003,visual,1,[],"['1', '2', '3', '4']",1,2023.2.3,harveyvisual,2.1,[],8,0.75,
5,dot,0.3,['dot'],['density'],black,0,214,214,214,,,77.30042719841003,77.01132202148438,77.31134510040283,dot,"[0.1, 0.1, 0.06, 0.1, 0.1]","[[-0.13667773294397823, -0.4810836359727921], [0.22435054442879343, -0.38211739689247126], [0.18745946747878278, -0.17039478388844306], [0.024239655080151325, -0.29759851870815907], [0.08919077751561523, -0.5300131723353856]]",density,black,,,D003,visual,1,[],"['1', '2', '3', '4']",1,2023.2.3,harveyvisual,2.1,[],8,0.75,
0,pause,0.4,None,None,None,0,215,215,215,,,,,,,,,,,,,D003,visual,1,[],"['1', '2', '3', '4']",1,2023.2.3,harveyvisual,2.1,[],8,0.75,
4,dot,0.3,['dot'],['density'],black,0,216,216,216,,,78.00042510032654,77.71132302284241,78.01128602027893,dot,"[0.1, 0.08, 0.08, 0.06]","[[-0.03907102058372138, -0.1723346686752248], [0.13255167928633116, -0.03782047714335622], [0.2720101467217329, -0.23443565690461937], [0.07080951743106016, -0.35239766365090747]]",density,black,,,D003,visual,1,[],"['1', '2', '3', '4']",1,2023.2.3,harveyvisual,2.1,[],8,0.75,
0,pause,0.4,None,None,None,0,217,217,217,,,,,,,,,,,,,D003,visual,1,[],"['1', '2', '3', '4']",1,2023.2.3,harveyvisual,2.1,[],8,0.75,
4,dot,0.3,['dot'],['density'],black,0,218,218,218,,,78.70043110847473,78.4113199710846,78.71129608154297,dot,"[0.1, 0.06, 0.1, 0.1]","[[-0.46485289602757673, 0.3603628353310837], [-0.30733625211232357, 0.21626236973196436], [-0.38991578213366157, 0.024479253410336757], [-0.570234662048439, 0.14093512067028166]]",density,black,,,D003,visual,1,[],"['1', '2', '3', '4']",1,2023.2.3,harveyvisual,2.1,[],8,0.75,
0,pause,0.4,None,None,None,0,219,219,219,,,,,,,,,,,,,D003,visual,1,[],"['1', '2', '3', '4']",1,2023.2.3,harveyvisual,2.1,[],8,0.75,
4,dot,0.3,['dot'],['density'],black,0,220,220,220,,,79.40043020248413,79.1112711429596,79.4112491607666,dot,"[0.1, 0.1, 0.06, 0.06]","[[-0.035956560563939345, -0.32709283091503677], [-0.2190429995428959, -0.2035699502326352], [-0.06992348234594314, -0.5664776463754845], [-0.220471277594294, -0.41208836036752056]]",density,black,,,D003,visual,1,[],"['1', '2', '3', '4']",1,2023.2.3,harveyvisual,2.1,[],8,0.75,
0,pause,0.4,None,None,None,0,221,221,221,,,,,,,,,,,,,D003,visual,1,[],"['1', '2', '3', '4']",1,2023.2.3,harveyvisual,2.1,[],8,0.75,
4,dot,0.3,['dot'],['density'],white,0,222,222,222,,,80.10044312477112,79.81124711036682,80.11126613616943,dot,"[0.06, 0.08, 0.06, 0.06]","[[-0.22375678750486633, 0.16938766720995918], [-0.03438308412182927, 0.2632029670309489], [0.15312837370161694, 0.1265605786946886], [-0.035433382102469414, 0.014828983441921377]]",density,white,,,D003,visual,1,[],"['1', '2', '3', '4']",1,2023.2.3,harveyvisual,2.1,[],8,0.75,
0,pause,0.4,None,None,None,0,223,223,223,,,,,,,,,,,1,80.13751697540283,D003,visual,1,[],"['1', '2', '3', '4']",1,2023.2.3,harveyvisual,2.1,[],8,0.75,
4,dot,0.3,['dot'],['density'],black,0,224,224,224,,,80.8004310131073,80.51122403144836,80.81125211715698,dot,"[0.1, 0.1, 0.08, 0.06]","[[0.06241226843583792, -0.3147100539198924], [0.2553405417111816, -0.24584579293690137], [0.0027514156828475403, -0.09786489187307437], [0.1660279615748852, 0.026007470517245626]]",density,black,,,D003,visual,1,[],"['1', '2', '3', '4']",1,2023.2.3,harveyvisual,2.1,[],8,0.75,
0,pause,0.4,None,None,None,0,225,225,225,,,,,,,,,,,,,D003,visual,1,[],"['1', '2', '3', '4']",1,2023.2.3,harveyvisual,2.1,[],8,0.75,
4,dot,0.3,['dot'],['density'],white,0,226,226,226,,,81.50043797492981,81.21124601364136,81.51131916046143,dot,"[0.1, 0.06, 0.1, 0.08]","[[-0.3884818304242726, 0.11421243679268873], [-0.11472928134965246, -0.13141119473891247], [-0.1657593024508462, 0.13368900033666462], [-0.36655717599886073, -0.10387254737714131]]",density,white,,,D003,visual,1,[],"['1', '2', '3', '4']",1,2023.2.3,harveyvisual,2.1,[],8,0.75,
0,pause,0.4,None,None,None,0,227,227,227,,,,,,,,,,,1,81.46567106246948,D003,visual,1,[],"['1', '2', '3', '4']",1,2023.2.3,harveyvisual,2.1,[],8,0.75,
3,dot,0.3,['dot'],['density'],black,0,228,228,228,,,82.20044112205505,81.91129207611084,82.2112820148468,dot,"[0.06, 0.1, 0.08]","[[0.11213305146232053, -0.07893917948794166], [0.05639720131197772, -0.2966044022377523], [-0.1031859716129837, -0.13437008874356654]]",density,black,,,D003,visual,1,[],"['1', '2', '3', '4']",1,2023.2.3,harveyvisual,2.1,[],8,0.75,
0,pause,0.4,None,None,None,0,229,229,229,,,,,,,,,,,,,D003,visual,1,[],"['1', '2', '3', '4']",1,2023.2.3,harveyvisual,2.1,[],8,0.75,
3,dot,0.3,['dot'],['density'],black,0,230,230,230,,,82.90042209625244,82.61115097999573,82.91127800941467,dot,"[0.1, 0.06, 0.08]","[[0.4290032298944087, 0.1407520187648592], [0.22848299553954127, 0.06362144779139585], [0.3595680574788582, -0.09433362503040832]]",density,black,,,D003,visual,1,[],"['1', '2', '3', '4']",1,2023.2.3,harveyvisual,2.1,[],8,0.75,
0,pause,0.4,None,None,None,0,231,231,231,,,,,,,,,,,,,D003,visual,1,[],"['1', '2', '3', '4']",1,2023.2.3,harveyvisual,2.1,[],8,0.75,
3,dot,0.3,['dot'],['density'],white,0,232,232,232,,,83.60041999816895,83.31113910675049,83.61108613014221,dot,"[0.08, 0.06, 0.08]","[[-0.17720328293608806, -0.4514300161601115], [0.022754438065530718, -0.42143894503716073], [-0.10940085810899225, -0.24791511077847575]]",density,white,,,D003,visual,1,[],"['1', '2', '3', '4']",1,2023.2.3,harveyvisual,2.1,[],8,0.75,
0,pause,0.4,None,None,None,0,233,233,233,,,,,,,,,,,1,83.6309289932251,D003,visual,1,[],"['1', '2', '3', '4']",1,2023.2.3,harveyvisual,2.1,[],8,0.75,
3,dot,0.3,['dot'],['density'],black,0,234,234,234,,,84.30043506622314,84.01117897033691,84.3111879825592,dot,"[0.08, 0.08, 0.06]","[[0.48628142840140876, 0.1515230430224543], [0.28796188866220057, 0.19625725416133796], [0.3371406364253883, -0.002661880310138811]]",density,black,,,D003,visual,1,[],"['1', '2', '3', '4']",1,2023.2.3,harveyvisual,2.1,[],8,0.75,
0,pause,0.4,None,None,None,0,235,235,235,,,,,,,,,,,,,D003,visual,1,[],"['1', '2', '3', '4']",1,2023.2.3,harveyvisual,2.1,[],8,0.75,
3,dot,0.3,['dot'],['density'],black,0,236,236,236,,,85.00042510032654,84.71116018295288,85.01119208335876,dot,"[0.08, 0.06, 0.1]","[[-0.32624451712468355, -0.43854848545497693], [-0.39409142490376414, -0.22516425170789148], [-0.152352104904091, -0.33204091051628687]]",density,black,,,D003,visual,1,[],"['1', '2', '3', '4']",1,2023.2.3,harveyvisual,2.1,[],8,0.75,
0,pause,0.4,None,None,None,0,237,237,237,,,,,,,,,,,,,D003,visual,1,[],"['1', '2', '3', '4']",1,2023.2.3,harveyvisual,2.1,[],8,0.75,
3,dot,0.3,['dot'],['density'],black,0,238,238,238,,,85.70043396949768,85.41106700897217,85.71108508110046,dot,"[0.1, 0.08, 0.08]","[[-0.32624451712468355, -0.43854848545497693], [-0.39409142490376414, -0.22516425170789148], [-0.152352104904091, -0.33204091051628687]]",density,black,,,D003,visual,1,[],"['1', '2', '3', '4']",1,2023.2.3,harveyvisual,2.1,[],8,0.75,
0,pause,0.4,None,None,None,0,239,239,239,,,,,,,,,,,,,D003,visual,1,[],"['1', '2', '3', '4']",1,2023.2.3,harveyvisual,2.1,[],8,0.75,
2,dot,0.3,['dot'],['density'],black,0,240,240,240,,,86.40043807029724,86.11120414733887,86.4110460281372,dot,"[0.06, 0.08]","[[0.02987007740145294, 0.4330921892138179], [-0.1698845640653836, 0.4119973540264252]]",density,black,,,D003,visual,1,[],"['1', '2', '3', '4']",1,2023.2.3,harveyvisual,2.1,[],8,0.75,
0,pause,0.4,None,None,None,0,241,241,241,,,,,,,,,,,,,D003,visual,1,[],"['1', '2', '3', '4']",1,2023.2.3,harveyvisual,2.1,[],8,0.75,
2,dot,0.3,['dot'],['density'],black,0,242,242,242,,,87.100426197052,86.81106615066528,87.11101508140564,dot,"[0.1, 0.1]","[[0.19540278997321237, -0.319457995891214], [0.34462774624387493, -0.4544903302695001]]",density,black,,,D003,visual,1,[],"['1', '2', '3', '4']",1,2023.2.3,harveyvisual,2.1,[],8,0.75,
0,pause,0.4,None,None,None,0,243,243,243,,,,,,,,,,,,,D003,visual,1,[],"['1', '2', '3', '4']",1,2023.2.3,harveyvisual,2.1,[],8,0.75,
2,dot,0.3,['dot'],['density'],black,0,244,244,244,,,87.80042719841003,87.51101803779602,87.8111960887909,dot,"[0.08, 0.08]","[[0.1851205616289071, -0.3624876981064337], [0.3405923022038234, -0.23608025195482504]]",density,black,,,D003,visual,1,[],"['1', '2', '3', '4']",1,2023.2.3,harveyvisual,2.1,[],8,0.75,
0,pause,0.4,None,None,None,0,245,245,245,,,,,,,,,,,,,D003,visual,1,[],"['1', '2', '3', '4']",1,2023.2.3,harveyvisual,2.1,[],8,0.75,
2,dot,0.3,['dot'],['density'],white,0,246,246,246,,,88.50043511390686,88.21097803115845,88.51096320152283,dot,"[0.1, 0.1]","[[0.45098141687762733, -0.20237638590572143], [0.5433504117931098, -0.02475258047346216]]",density,white,,,D003,visual,1,[],"['1', '2', '3', '4']",1,2023.2.3,harveyvisual,2.1,[],8,0.75,
0,pause,0.4,None,None,None,0,247,247,247,,,,,,,,,,,1,88.51551389694214,D003,visual,1,[],"['1', '2', '3', '4']",1,2023.2.3,harveyvisual,2.1,[],8,0.75,
2,dot,0.3,['dot'],['density'],black,0,248,248,248,,,89.20043706893921,88.91097712516785,89.21100401878357,dot,"[0.06, 0.08]","[[0.29932439847351855, -0.2783039550742582], [0.14276117392638485, -0.15345139110726028]]",density,black,,,D003,visual,1,[],"['1', '2', '3', '4']",1,2023.2.3,harveyvisual,2.1,[],8,0.75,
0,pause,0.4,None,None,None,0,249,249,249,,,,,,,,,,,,,D003,visual,1,[],"['1', '2', '3', '4']",1,2023.2.3,harveyvisual,2.1,[],8,0.75,
2,dot,0.3,['dot'],['density'],black,0,250,250,250,,,89.9004180431366,89.61093401908875,89.91091918945312,dot,"[0.08, 0.1]","[[-0.22897676209827808, 0.468650264003531], [-0.0598036877009514, 0.5760211786176329]]",density,black,,,D003,visual,1,[],"['1', '2', '3', '4']",1,2023.2.3,harveyvisual,2.1,[],8,0.75,
0,pause,0.4,None,None,None,0,251,251,251,,,,,,,,,,,,,D003,visual,1,[],"['1', '2', '3', '4']",1,2023.2.3,harveyvisual,2.1,[],8,0.75,
1,dot,0.3,['dot'],['density'],black,0,252,252,252,,,90.60042405128479,90.3110101222992,90.6109139919281,dot,[0.06],"[-0.4309303250570785, -0.37878052449928096]",density,black,,,D003,visual,1,[],"['1', '2', '3', '4']",1,2023.2.3,harveyvisual,2.1,[],8,0.75,
0,pause,0.4,None,None,None,0,253,253,253,,,,,,,,,,,,,D003,visual,1,[],"['1', '2', '3', '4']",1,2023.2.3,harveyvisual,2.1,[],8,0.75,
1,dot,0.3,['dot'],['density'],white,0,254,254,254,,,91.30042004585266,91.01094007492065,91.31092119216919,dot,[0.08],"[0.4123293050259286, 0.03564095151647579]",density,white,,,D003,visual,1,[],"['1', '2', '3', '4']",1,2023.2.3,harveyvisual,2.1,[],8,0.75,
0,pause,0.4,None,None,None,0,255,255,255,,,,,,,,,,,1,91.28685593605042,D003,visual,1,[],"['1', '2', '3', '4']",1,2023.2.3,harveyvisual,2.1,[],8,0.75,
1,dot,0.3,['dot'],['density'],black,0,256,256,256,,,92.00041818618774,91.71090507507324,92.01102614402771,dot,[0.06],"[-0.4309303250570785, -0.37878052449928096]",density,black,,,D003,visual,1,[],"['1', '2', '3', '4']",1,2023.2.3,harveyvisual,2.1,[],8,0.75,
0,pause,0.4,None,None,None,0,257,257,257,,,,,,,,,,,,,D003,visual,1,[],"['1', '2', '3', '4']",1,2023.2.3,harveyvisual,2.1,[],8,0.75,
1,dot,0.3,['dot'],['density'],black,0,258,258,258,,,92.70043301582336,92.41087508201599,92.71085500717163,dot,[0.1],"[0.1049869166116724, 0.1335000464341748]",density,black,,,D003,visual,1,[],"['1', '2', '3', '4']",1,2023.2.3,harveyvisual,2.1,[],8,0.75,
0,pause,0.4,None,None,None,0,259,259,259,,,,,,,,,,,,,D003,visual,1,[],"['1', '2', '3', '4']",1,2023.2.3,harveyvisual,2.1,[],8,0.75,
1,dot,0.3,['dot'],['density'],black,0,260,260,260,,,93.40044116973877,93.11084818840027,93.41085314750671,dot,[0.08],"[0.1771264825789444, 0.012298414170669998]",density,black,,,D003,visual,1,[],"['1', '2', '3', '4']",1,2023.2.3,harveyvisual,2.1,[],8,0.75,
0,pause,0.4,None,None,None,0,261,261,261,,,,,,,,,,,,,D003,visual,1,[],"['1', '2', '3', '4']",1,2023.2.3,harveyvisual,2.1,[],8,0.75,
1,dot,0.3,['dot'],['density'],black,0,262,262,262,,,94.1004409790039,93.81085205078125,94.11083602905273,dot,[0.08],"[0.19623115665255414, 0.1676894875529279]",density,black,,,D003,visual,1,[],"['1', '2', '3', '4']",1,2023.2.3,harveyvisual,2.1,[],8,0.75,
0,pause,0.4,None,None,None,0,263,263,263,,,,,,,,,,,,,D003,visual,1,[],"['1', '2', '3', '4']",1,2023.2.3,harveyvisual,2.1,[],8,0.75,
20,dot,0.3,['dot'],['density'],black,0,264,264,264,,,94.80044102668762,94.51080417633057,94.81079912185669,dot,"[0.1, 0.06, 0.08, 0.1, 0.1, 0.08, 0.06, 0.1, 0.1, 0.06, 0.1, 0.08, 0.08, 0.06, 0.06, 0.1, 0.1, 0.1, 0.1, 0.1]","[[0.39007922533015715, 0.24060166758130286], [0.15661858841273624, -0.2727246279568544], [-0.1477160088589844, -0.3591943503580054], [-0.24051664549266077, -0.11297653744229025], [0.3279499756260267, -0.4251504295511619], [0.3572292709123981, -0.19655769080427754], [-0.05988956182587968, 0.08599857916580345], [-0.5918238773527298, 0.1153545911988415], [-0.3901888727434595, 0.06559524282435653], [-0.012024503024012478, 0.2777974127240529], [-0.5068888079354736, -0.2776458610889355], [0.009014766054684875, 0.5072319573605409], [0.3742575879066242, 0.4751845964137575], [-0.3606953627476063, 0.3949241945652358], [0.2866446397981991, 0.030127048299212866], [-0.2827685277045945, -0.5332309923531561], [0.0007847885715442926, -0.10166304362080847], [0.5926474572713979, -0.09035268743207692], [0.18769130328082184, 0.25962595573683056], [0.5761442114190639, 0.15086872506565005]]",density,black,,,D003,visual,1,[],"['1', '2', '3', '4']",1,2023.2.3,harveyvisual,2.1,[],8,0.75,
0,pause,0.4,None,None,None,0,265,265,265,,,,,,,,,,,,,D003,visual,1,[],"['1', '2', '3', '4']",1,2023.2.3,harveyvisual,2.1,[],8,0.75,
20,dot,0.3,['dot'],['density'],black,0,266,266,266,,,95.5004301071167,95.21078610420227,95.51080703735352,dot,"[0.08, 0.1, 0.08, 0.1, 0.06, 0.1, 0.08, 0.06, 0.1, 0.08, 0.06, 0.06, 0.06, 0.1, 0.06, 0.06, 0.1, 0.08, 0.06, 0.06]","[[0.15067265850350797, 0.35223359148799316], [-0.18192989506815782, -0.29624410908967724], [0.473274654965273, 0.33403423196123366], [0.2010202566860475, 0.11527510470185709], [0.5670067528339734, 0.0009159562529912624], [-0.10736073979662508, 0.40929901841177474], [0.49622222392967974, -0.18007723532495476], [-0.5585996646146651, -0.1833780959774801], [-0.11073266251040143, 0.147231454685118], [0.17567072385301363, 0.5540198835154383], [0.00726530390141511, -0.5553536455659194], [-0.3777334738051707, -0.0033630277157891686], [0.27316993771928655, -0.07538988105125427], [-0.549599175099061, 0.10404114414483329], [0.22815748040037565, -0.26174364455872823], [-0.35561325111, 0.4111245268983843], [0.013532854815176965, -0.3597617910573546], [-0.05013649107732476, -0.04320798460045139], [0.22205273322756658, -0.5165845528403079], [-0.3936742744134394, -0.31261938927217636]]",density,black,,,D003,visual,1,[],"['1', '2', '3', '4']",1,2023.2.3,harveyvisual,2.1,[],8,0.75,
0,pause,0.4,None,None,None,0,267,267,267,,,,,,,,,,,,,D003,visual,1,[],"['1', '2', '3', '4']",1,2023.2.3,harveyvisual,2.1,[],8,0.75,
