num,mod,duration,shape,ll_cond,colors,.thisRepN,.thisTrialN,.thisN,.thisIndex,thisRow.t,notes,raw_global_time,t_start,t_stop,shapes,size,pos,cond,color,button,RT,participant,session,starting_run,left button (match/odd),right button (non-match/even),samples_per_block,psychopy version,expName,offset,audio,number_runs,radius,
1,dot,0.3,['dot'],['density'],black,0,0,0,0,,,2.4001970291137695,2.115198850631714,2.415158987045288,dot,[0.1],"[-0.48958603946102763, 0.32731293615049173]",density,black,,,D003,visual,1,[],"['1', '2', '3', '4']",1,2023.2.3,harveyvisual,2.1,[],8,0.75,
0,pause,0.4,None,None,None,0,1,1,1,,,,,,,,,,,,,D003,visual,1,[],"['1', '2', '3', '4']",1,2023.2.3,harveyvisual,2.1,[],8,0.75,
1,dot,0.3,['dot'],['density'],black,0,2,2,2,,,3.100219964981079,2.7983078956604004,3.115412950515747,dot,[0.08],"[-0.06064478149429028, 0.10204082006191012]",density,black,,,D003,visual,1,[],"['1', '2', '3', '4']",1,2023.2.3,harveyvisual,2.1,[],8,0.75,
0,pause,0.4,None,None,None,0,3,3,3,,,,,,,,,,,,,D003,visual,1,[],"['1', '2', '3', '4']",1,2023.2.3,harveyvisual,2.1,[],8,0.75,
1,dot,0.3,['dot'],['density'],black,0,4,4,4,,,3.8001959323883057,3.515454053878784,3.8154120445251465,dot,[0.06],"[0.43730911014729085, 0.38068286015665653]",density,black,,,D003,visual,1,[],"['1', '2', '3', '4']",1,2023.2.3,harveyvisual,2.1,[],8,0.75,
0,pause,0.4,None,None,None,0,5,5,5,,,,,,,,,,,,,D003,visual,1,[],"['1', '2', '3', '4']",1,2023.2.3,harveyvisual,2.1,[],8,0.75,
1,dot,0.3,['dot'],['density'],black,0,6,6,6,,,4.500196933746338,4.215419054031372,4.5157458782196045,dot,[0.06],"[0.5163804524385218, 0.172353611070521]",density,black,,,D003,visual,1,[],"['1', '2', '3', '4']",1,2023.2.3,harveyvisual,2.1,[],8,0.75,
0,pause,0.4,None,None,None,0,7,7,7,,,,,,,,,,,,,D003,visual,1,[],"['1', '2', '3', '4']",1,2023.2.3,harveyvisual,2.1,[],8,0.75,
1,dot,0.3,['dot'],['density'],black,0,8,8,8,,,5.200222015380859,4.915510892868042,5.215705871582031,dot,[0.08],"[0.2443568370277045, -0.23874091154858243]",density,black,,,D003,visual,1,[],"['1', '2', '3', '4']",1,2023.2.3,harveyvisual,2.1,[],8,0.75,
0,pause,0.4,None,None,None,0,9,9,9,,,,,,,,,,,,,D003,visual,1,[],"['1', '2', '3', '4']",1,2023.2.3,harveyvisual,2.1,[],8,0.75,
1,dot,0.3,['dot'],['density'],black,0,10,10,10,,,5.900202035903931,5.615356922149658,5.917817831039429,dot,[0.06],"[0.4765699730395091, 0.34560502551113614]",density,black,,,D003,visual,1,[],"['1', '2', '3', '4']",1,2023.2.3,harveyvisual,2.1,[],8,0.75,
0,pause,0.4,None,None,None,0,11,11,11,,,,,,,,,,,,,D003,visual,1,[],"['1', '2', '3', '4']",1,2023.2.3,harveyvisual,2.1,[],8,0.75,
2,dot,0.3,['dot'],['density'],black,0,12,12,12,,,6.600200891494751,6.3178019523620605,6.617707014083862,dot,"[0.1, 0.06]","[[0.5590929928249944, 0.05901985638302875], [0.5065513741473344, -0.13409141480534237]]",density,black,,,D003,visual,1,[],"['1', '2', '3', '4']",1,2023.2.3,harveyvisual,2.1,[],8,0.75,
0,pause,0.4,None,None,None,0,13,13,13,,,,,,,,,,,,,D003,visual,1,[],"['1', '2', '3', '4']",1,2023.2.3,harveyvisual,2.1,[],8,0.75,
2,dot,0.3,['dot'],['density'],black,0,14,14,14,,,7.300220966339111,7.0176379680633545,7.317617893218994,dot,"[0.08, 0.08]","[[-0.03288134563171543, -0.4238564918242606], [-0.10611641736664675, -0.2370354775439666]]",density,black,,,D003,visual,1,[],"['1', '2', '3', '4']",1,2023.2.3,harveyvisual,2.1,[],8,0.75,
0,pause,0.4,None,None,None,0,15,15,15,,,,,,,,,,,,,D003,visual,1,[],"['1', '2', '3', '4']",1,2023.2.3,harveyvisual,2.1,[],8,0.75,
2,dot,0.3,['dot'],['density'],black,0,16,16,16,,,8.00019884109497,7.7176148891448975,8.017628908157349,dot,"[0.08, 0.1]","[[0.1851205616289071, -0.3624876981064337], [0.3405923022038234, -0.23608025195482504]]",density,black,,,D003,visual,1,[],"['1', '2', '3', '4']",1,2023.2.3,harveyvisual,2.1,[],8,0.75,
0,pause,0.4,None,None,None,0,17,17,17,,,,,,,,,,,,,D003,visual,1,[],"['1', '2', '3', '4']",1,2023.2.3,harveyvisual,2.1,[],8,0.75,
2,dot,0.3,['dot'],['density'],black,0,18,18,18,,,8.700217962265015,8.417601823806763,8.717646837234497,dot,"[0.1, 0.1]","[[0.4101371699595759, -0.046236245446824746], [0.42481245787877703, -0.24684889303111815]]",density,black,,,D003,visual,1,[],"['1', '2', '3', '4']",1,2023.2.3,harveyvisual,2.1,[],8,0.75,
0,pause,0.4,None,None,None,0,19,19,19,,,,,,,,,,,,,D003,visual,1,[],"['1', '2', '3', '4']",1,2023.2.3,harveyvisual,2.1,[],8,0.75,
2,dot,0.3,['dot'],['density'],black,0,20,20,20,,,9.400208950042725,9.117614984512329,9.417569875717163,dot,"[0.08, 0.08]","[[-0.5356907773971091, -0.01454049690556478], [-0.3936553319468624, 0.1263392020735458]]",density,black,,,D003,visual,1,[],"['1', '2', '3', '4']",1,2023.2.3,harveyvisual,2.1,[],8,0.75,
0,pause,0.4,None,None,None,0,21,21,21,,,,,,,,,,,,,D003,visual,1,[],"['1', '2', '3', '4']",1,2023.2.3,harveyvisual,2.1,[],8,0.75,
2,dot,0.3,['dot'],['density'],black,0,22,22,22,,,10.100203037261963,9.81756591796875,10.11754298210144,dot,"[0.08, 0.08]","[[0.002249876020969301, 0.20442088447143333], [-0.056293345030126195, 0.39599742374220376]]",density,black,,,D003,visual,1,[],"['1', '2', '3', '4']",1,2023.2.3,harveyvisual,2.1,[],8,0.75,
0,pause,0.4,None,None,None,0,23,23,23,,,,,,,,,,,,,D003,visual,1,[],"['1', '2', '3', '4']",1,2023.2.3,harveyvisual,2.1,[],8,0.75,
3,dot,0.3,['dot'],['density'],black,0,24,24,24,,,10.80019998550415,10.517546892166138,10.817553997039795,dot,"[0.1, 0.08, 0.1]","[[-0.27441186418729774, -0.31428620701652393], [-0.10438281902574013, -0.2032379983598837], [-0.31523395761825285, -0.08768035506307631]]",density,black,,,D003,visual,1,[],"['1', '2', '3', '4']",1,2023.2.3,harveyvisual,2.1,[],8,0.75,
0,pause,0.4,None,None,None,0,25,25,25,,,,,,,,,,,,,D003,visual,1,[],"['1', '2', '3', '4']",1,2023.2.3,harveyvisual,2.1,[],8,0.75,
3,dot,0.3,['dot'],['density'],black,0,26,26,26,,,11.500212907791138,11.217519998550415,11.517508029937744,dot,"[0.06, 0.06, 0.1]","[[-0.42255820389626353, 0.35871945956833473], [-0.19896656331745483, 0.3032224324013186], [-0.25553590712368324, 0.5056038804507684]]",density,black,,,D003,visual,1,[],"['1', '2', '3', '4']",1,2023.2.3,harveyvisual,2.1,[],8,0.75,
0,pause,0.4,None,None,None,0,27,27,27,,,,,,,,,,,,,D003,visual,1,[],"['1', '2', '3', '4']",1,2023.2.3,harveyvisual,2.1,[],8,0.75,
3,dot,0.3,['dot'],['density'],black,0,28,28,28,,,12.20021104812622,11.917572021484375,12.217545986175537,dot,"[0.08, 0.1, 0.1]","[[0.023581383320217864, -0.14485493475327696], [-0.06776129410461201, 0.04872406380669356], [0.14236151446293968, 0.029671970014602284]]",density,black,,,D003,visual,1,[],"['1', '2', '3', '4']",1,2023.2.3,harveyvisual,2.1,[],8,0.75,
0,pause,0.4,None,None,None,0,29,29,29,,,,,,,,,,,,,D003,visual,1,[],"['1', '2', '3', '4']",1,2023.2.3,harveyvisual,2.1,[],8,0.75,
3,dot,0.3,['dot'],['density'],black,0,30,30,30,,,12.900205850601196,12.617650985717773,12.917542934417725,dot,"[0.08, 0.1, 0.06]","[[-0.3391924794566746, 0.43027756448319565], [-0.33080415183405026, 0.2112686575961512], [-0.14277619127331137, 0.29962579604826906]]",density,black,,,D003,visual,1,[],"['1', '2', '3', '4']",1,2023.2.3,harveyvisual,2.1,[],8,0.75,
0,pause,0.4,None,None,None,0,31,31,31,,,,,,,,,,,,,D003,visual,1,[],"['1', '2', '3', '4']",1,2023.2.3,harveyvisual,2.1,[],8,0.75,
3,dot,0.3,['dot'],['density'],black,0,32,32,32,,,13.600201845169067,13.317627906799316,13.617493867874146,dot,"[0.06, 0.08, 0.1]","[[-0.32034981165049564, 0.18083778238314796], [-0.3344619052850136, -0.04022521570367012], [-0.13485517643248812, 0.10330846540140716]]",density,black,,,D003,visual,1,[],"['1', '2', '3', '4']",1,2023.2.3,harveyvisual,2.1,[],8,0.75,
0,pause,0.4,None,None,None,0,33,33,33,,,,,,,,,,,,,D003,visual,1,[],"['1', '2', '3', '4']",1,2023.2.3,harveyvisual,2.1,[],8,0.75,
3,dot,0.3,['dot'],['density'],white,0,34,34,34,,,14.300199031829834,14.01749587059021,14.317603826522827,dot,"[0.1, 0.08, 0.08]","[[-0.32034981165049564, 0.18083778238314796], [-0.3344619052850136, -0.04022521570367012], [-0.13485517643248812, 0.10330846540140716]]",density,white,,,D003,visual,1,[],"['1', '2', '3', '4']",1,2023.2.3,harveyvisual,2.1,[],8,0.75,
0,pause,0.4,None,None,None,0,35,35,35,,,,,,,,,,,1,14.436901092529297,D003,visual,1,[],"['1', '2', '3', '4']",1,2023.2.3,harveyvisual,2.1,[],8,0.75,
4,dot,0.3,['dot'],['density'],black,0,36,36,36,,,15.000202894210815,14.717460870742798,15.017592906951904,dot,"[0.1, 0.06, 0.1, 0.1]","[[0.13421512820946938, -0.5336194340609706], [0.2622623892029083, -0.3575253733063478], [0.024533045116508903, -0.3376850530006363], [0.166924465117498, -0.0963569090623874]]",density,black,,,D003,visual,1,[],"['1', '2', '3', '4']",1,2023.2.3,harveyvisual,2.1,[],8,0.75,
0,pause,0.4,None,None,None,0,37,37,37,,,,,,,,,,,,,D003,visual,1,[],"['1', '2', '3', '4']",1,2023.2.3,harveyvisual,2.1,[],8,0.75,
4,dot,0.3,['dot'],['density'],black,0,38,38,38,,,15.700222969055176,15.417578935623169,15.717596054077148,dot,"[0.1, 0.08, 0.1, 0.1]","[[-0.3130108772186628, 0.4658633188731559], [0.06875292536802097, 0.3619778545149697], [-0.12928423743784842, 0.28835211797578114], [-0.08764786508193922, 0.5151731075523892]]",density,black,,,D003,visual,1,[],"['1', '2', '3', '4']",1,2023.2.3,harveyvisual,2.1,[],8,0.75,
0,pause,0.4,None,None,None,0,39,39,39,,,,,,,,,,,,,D003,visual,1,[],"['1', '2', '3', '4']",1,2023.2.3,harveyvisual,2.1,[],8,0.75,
4,dot,0.3,['dot'],['density'],black,0,40,40,40,,,16.400214910507202,16.117408990859985,16.417398929595947,dot,"[0.06, 0.06, 0.08, 0.06]","[[0.06241226843583792, -0.3147100539198924], [0.2553405417111816, -0.24584579293690137], [0.0027514156828475403, -0.09786489187307437], [0.1660279615748852, 0.026007470517245626]]",density,black,,,D003,visual,1,[],"['1', '2', '3', '4']",1,2023.2.3,harveyvisual,2.1,[],8,0.75,
0,pause,0.4,None,None,None,0,41,41,41,,,,,,,,,,,,,D003,visual,1,[],"['1', '2', '3', '4']",1,2023.2.3,harveyvisual,2.1,[],8,0.75,
4,dot,0.3,['dot'],['density'],black,0,42,42,42,,,17.100225925445557,16.81754994392395,17.117377996444702,dot,"[0.08, 0.06, 0.1, 0.1]","[[-0.1266132934267609, -0.4419116806690939], [0.09906976576587005, -0.33923851916676484], [0.1053941350115203, -0.5768907290059295], [0.29145715672269834, -0.49787884973145785]]",density,black,,,D003,visual,1,[],"['1', '2', '3', '4']",1,2023.2.3,harveyvisual,2.1,[],8,0.75,
0,pause,0.4,None,None,None,0,43,43,43,,,,,,,,,,,,,D003,visual,1,[],"['1', '2', '3', '4']",1,2023.2.3,harveyvisual,2.1,[],8,0.75,
4,dot,0.3,['dot'],['density'],black,0,44,44,44,,,17.800214052200317,17.517530918121338,17.817517042160034,dot,"[0.06, 0.1, 0.1, 0.06]","[[0.15462156444594843, 0.0379601134824338], [-0.046642739949193296, 0.06510400621286498], [0.12320708371464141, 0.2499967514902957], [-0.13279798436850673, 0.2624558601457805]]",density,black,,,D003,visual,1,[],"['1', '2', '3', '4']",1,2023.2.3,harveyvisual,2.1,[],8,0.75,
0,pause,0.4,None,None,None,0,45,45,45,,,,,,,,,,,,,D003,visual,1,[],"['1', '2', '3', '4']",1,2023.2.3,harveyvisual,2.1,[],8,0.75,
4,dot,0.3,['dot'],['density'],black,0,46,46,46,,,18.500208854675293,18.21740484237671,18.517366886138916,dot,"[0.1, 0.08, 0.08, 0.1]","[[-0.22711054503220823, -0.5144049053218714], [-0.016307770745122817, -0.5558659767831347], [-0.26432457165568224, -0.2824025039497699], [-0.026303944553407815, -0.34464361634901186]]",density,black,,,D003,visual,1,[],"['1', '2', '3', '4']",1,2023.2.3,harveyvisual,2.1,[],8,0.75,
0,pause,0.4,None,None,None,0,47,47,47,,,,,,,,,,,,,D003,visual,1,[],"['1', '2', '3', '4']",1,2023.2.3,harveyvisual,2.1,[],8,0.75,
5,dot,0.3,['dot'],['density'],black,0,48,48,48,,,19.200220823287964,18.917346000671387,19.217330932617188,dot,"[0.06, 0.06, 0.1, 0.06, 0.08]","[[-0.19096480170835262, 0.2202776521134577], [0.009488999043989208, 0.5721548226574139], [0.16477125949827795, 0.3732973518003487], [0.07476286221063107, 0.1476230553836633], [-0.051949696108355745, 0.36609537475325354]]",density,black,,,D003,visual,1,[],"['1', '2', '3', '4']",1,2023.2.3,harveyvisual,2.1,[],8,0.75,
0,pause,0.4,None,None,None,0,49,49,49,,,,,,,,,,,,,D003,visual,1,[],"['1', '2', '3', '4']",1,2023.2.3,harveyvisual,2.1,[],8,0.75,
5,dot,0.3,['dot'],['density'],black,0,50,50,50,,,19.90022587776184,19.617310047149658,19.917314052581787,dot,"[0.1, 0.06, 0.08, 0.1, 0.08]","[[-0.4702494158317004, 0.19352793081356498], [-0.36864189631283095, -0.2113573127283173], [-0.3573601989406874, -0.007363185939446715], [-0.15559938224235453, -0.02548680069503583], [-0.25069196230576396, 0.1747846118010945]]",density,black,,,D003,visual,1,[],"['1', '2', '3', '4']",1,2023.2.3,harveyvisual,2.1,[],8,0.75,
0,pause,0.4,None,None,None,0,51,51,51,,,,,,,,,,,,,D003,visual,1,[],"['1', '2', '3', '4']",1,2023.2.3,harveyvisual,2.1,[],8,0.75,
5,dot,0.3,['dot'],['density'],black,0,52,52,52,,,20.60020399093628,20.317353010177612,20.617305040359497,dot,"[0.1, 0.06, 0.1, 0.1, 0.08]","[[0.05896558140131438, -0.5342250951568444], [0.41924064092593105, -0.38742881471212404], [0.0789485457987589, -0.15857793529431863], [0.19859038409043042, -0.3300393182504279], [-0.04229804568701367, -0.31959008629620334]]",density,black,,,D003,visual,1,[],"['1', '2', '3', '4']",1,2023.2.3,harveyvisual,2.1,[],8,0.75,
0,pause,0.4,None,None,None,0,53,53,53,,,,,,,,,,,,,D003,visual,1,[],"['1', '2', '3', '4']",1,2023.2.3,harveyvisual,2.1,[],8,0.75,
5,dot,0.3,['dot'],['density'],black,0,54,54,54,,,21.30020499229431,21.01736092567444,21.31733798980713,dot,"[0.06, 0.1, 0.08, 0.08, 0.08]","[[0.33660852042816714, -0.448935078303268], [0.16237328695183198, -0.028906365321866932], [0.003149504206933677, -0.1844463225559013], [0.4065340125681681, -0.22407981263326276], [0.20027486954239768, -0.2346061295568129]]",density,black,,,D003,visual,1,[],"['1', '2', '3', '4']",1,2023.2.3,harveyvisual,2.1,[],8,0.75,
0,pause,0.4,None,None,None,0,55,55,55,,,,,,,,,,,,,D003,visual,1,[],"['1', '2', '3', '4']",1,2023.2.3,harveyvisual,2.1,[],8,0.75,
5,dot,0.3,['dot'],['density'],black,0,56,56,56,,,22.00021982192993,21.717339992523193,22.0173180103302,dot,"[0.06, 0.06, 0.06, 0.1, 0.06]","[[-0.24811222937808852, -0.0926462173418487], [-0.0684102839715827, 0.053707960252323945], [-0.4199359189551936, 0.028595247832400618], [-0.4311232183625476, -0.17348815390478414], [-0.08153496032007611, -0.23043043025001772]]",density,black,,,D003,visual,1,[],"['1', '2', '3', '4']",1,2023.2.3,harveyvisual,2.1,[],8,0.75,
0,pause,0.4,None,None,None,0,57,57,57,,,,,,,,,,,,,D003,visual,1,[],"['1', '2', '3', '4']",1,2023.2.3,harveyvisual,2.1,[],8,0.75,
5,dot,0.3,['dot'],['density'],black,0,58,58,58,,,22.70020294189453,22.417240858078003,22.717257976531982,dot,"[0.1, 0.08, 0.1, 0.1, 0.08]","[[0.14370466841446422, -0.4636309982806098], [0.2961807471193908, -0.30487684838795487], [-0.08083516471444438, -0.49823911181902014], [0.057429843216129074, -0.22123310288296744], [-0.1653320673045236, -0.3160671692815837]]",density,black,,,D003,visual,1,[],"['1', '2', '3', '4']",1,2023.2.3,harveyvisual,2.1,[],8,0.75,
0,pause,0.4,None,None,None,0,59,59,59,,,,,,,,,,,,,D003,visual,1,[],"['1', '2', '3', '4']",1,2023.2.3,harveyvisual,2.1,[],8,0.75,
6,dot,0.3,['dot'],['density'],black,0,60,60,60,,,23.40020203590393,23.11722183227539,23.417211055755615,dot,"[0.06, 0.08, 0.1, 0.08, 0.06, 0.08]","[[0.4249538099490167, -0.025354946498656116], [0.305005901383002, 0.397829445973664], [0.04954868862097969, 0.09819418046919175], [0.452299537631068, 0.2574679639516015], [0.21081936584905453, -0.08903757916275208], [0.27954488569289765, 0.14103100078867375]]",density,black,,,D003,visual,1,[],"['1', '2', '3', '4']",1,2023.2.3,harveyvisual,2.1,[],8,0.75,
0,pause,0.4,None,None,None,0,61,61,61,,,,,,,,,,,,,D003,visual,1,[],"['1', '2', '3', '4']",1,2023.2.3,harveyvisual,2.1,[],8,0.75,
6,dot,0.3,['dot'],['density'],black,0,62,62,62,,,24.10020685195923,23.817198038101196,24.117197036743164,dot,"[0.08, 0.1, 0.1, 0.08, 0.08, 0.06]","[[-0.4718675517483807, -0.080313523620691], [-0.31247550484642445, -0.23218356379105512], [-0.2575593735283343, 0.24158811959194182], [-0.2948669609652105, 0.017652028830845004], [-0.0883702388727292, 0.027494606567874856], [-0.45154527444290743, 0.17691331155056722]]",density,black,,,D003,visual,1,[],"['1', '2', '3', '4']",1,2023.2.3,harveyvisual,2.1,[],8,0.75,
0,pause,0.4,None,None,None,0,63,63,63,,,,,,,,,,,,,D003,visual,1,[],"['1', '2', '3', '4']",1,2023.2.3,harveyvisual,2.1,[],8,0.75,
6,dot,0.3,['dot'],['density'],black,0,64,64,64,,,24.800209045410156,24.517213821411133,24.817214012145996,dot,"[0.08, 0.08, 0.1, 0.08, 0.08, 0.08]","[[0.500827999951601, -0.23304028533624072], [0.20916386845998064, 0.08030245107060778], [0.27809793757338463, -0.1905950399710685], [0.08327260932553728, -0.13599284299194644], [0.16768982653485215, -0.38480252821003114], [0.4174962964646186, 0.01069632702004041]]",density,black,,,D003,visual,1,[],"['1', '2', '3', '4']",1,2023.2.3,harveyvisual,2.1,[],8,0.75,
0,pause,0.4,None,None,None,0,65,65,65,,,,,,,,,,,,,D003,visual,1,[],"['1', '2', '3', '4']",1,2023.2.3,harveyvisual,2.1,[],8,0.75,
6,dot,0.3,['dot'],['density'],black,0,66,66,66,,,25.500221014022827,25.217166900634766,25.51715588569641,dot,"[0.1, 0.08, 0.06, 0.1, 0.1, 0.08]","[[-0.21871154593458392, 0.523205648483303], [-0.10311842393244862, 0.3355489225101837], [0.008055670172287269, 0.5366903261171385], [0.1303263863168633, 0.3782575370349718], [0.03185769749340688, 0.17145177849191712], [-0.2810167974491763, 0.15418865533644557]]",density,black,,,D003,visual,1,[],"['1', '2', '3', '4']",1,2023.2.3,harveyvisual,2.1,[],8,0.75,
0,pause,0.4,None,None,None,0,67,67,67,,,,,,,,,,,,,D003,visual,1,[],"['1', '2', '3', '4']",1,2023.2.3,harveyvisual,2.1,[],8,0.75,
6,dot,0.3,['dot'],['density'],black,0,68,68,68,,,26.200219869613647,25.91725182533264,26.217242002487183,dot,"[0.06, 0.1, 0.06, 0.08, 0.06, 0.08]","[[-0.06594826066790033, 0.1051940440944823], [0.15491437476435005, 0.24610541937573027], [-0.07004887042171212, 0.3755397070333221], [0.22920853754483062, 0.04629278748534093], [0.14611265926610215, 0.46549762069565603], [0.352938231914746, 0.33060025924169734]]",density,black,,,D003,visual,1,[],"['1', '2', '3', '4']",1,2023.2.3,harveyvisual,2.1,[],8,0.75,
0,pause,0.4,None,None,None,0,69,69,69,,,,,,,,,,,,,D003,visual,1,[],"['1', '2', '3', '4']",1,2023.2.3,harveyvisual,2.1,[],8,0.75,
6,dot,0.3,['dot'],['density'],black,0,70,70,70,,,26.90019989013672,26.617228031158447,26.917237043380737,dot,"[0.1, 0.1, 0.08, 0.1, 0.1, 0.08]","[[0.5108460974500976, 0.10904555526594768], [0.5033362887342737, -0.29902707163897635], [0.3062164979741722, 0.05793810054487639], [0.22849736264613016, -0.28041776899433873], [0.12909977445373055, -0.06500178518750158], [0.41889526300287094, -0.11616960582105396]]",density,black,,,D003,visual,1,[],"['1', '2', '3', '4']",1,2023.2.3,harveyvisual,2.1,[],8,0.75,
0,pause,0.4,None,None,None,0,71,71,71,,,,,,,,,,,,,D003,visual,1,[],"['1', '2', '3', '4']",1,2023.2.3,harveyvisual,2.1,[],8,0.75,
7,dot,0.3,['dot'],['density'],black,0,72,72,72,,,27.600209951400757,27.317129850387573,27.61711883544922,dot,"[0.1, 0.08, 0.06, 0.06, 0.08, 0.06, 0.1]","[[-0.2822174821233986, 0.002117056236134186], [-0.10673242512413421, 0.4781556216085482], [-0.18432519539246728, 0.19072201575640843], [-0.4524596318479574, 0.13966285650530724], [0.06907010423411483, 0.2912708813513049], [-0.07412436007020941, -0.021022205933558278], [-0.3208835015251209, 0.3986768431743725]]",density,black,,,D003,visual,1,[],"['1', '2', '3', '4']",1,2023.2.3,harveyvisual,2.1,[],8,0.75,
0,pause,0.4,None,None,None,0,73,73,73,,,,,,,,,,,,,D003,visual,1,[],"['1', '2', '3', '4']",1,2023.2.3,harveyvisual,2.1,[],8,0.75,
7,dot,0.3,['dot'],['density'],black,0,74,74,74,,,28.300214052200317,28.01710605621338,28.317095041275024,dot,"[0.08, 0.08, 0.1, 0.08, 0.06, 0.06, 0.06]","[[-0.137089699111686, -0.0603537150230737], [-0.5113647139476066, -0.13847335204066147], [-0.15813839015967857, -0.36469710156031643], [-0.2936616210719107, -0.2141411575526577], [-0.32787652212665946, 0.04250548396893007], [0.004093135922799089, -0.22788394746255153], [-0.17456170860443615, 0.20133573380951708]]",density,black,,,D003,visual,1,[],"['1', '2', '3', '4']",1,2023.2.3,harveyvisual,2.1,[],8,0.75,
0,pause,0.4,None,None,None,0,75,75,75,,,,,,,,,,,,,D003,visual,1,[],"['1', '2', '3', '4']",1,2023.2.3,harveyvisual,2.1,[],8,0.75,
7,dot,0.3,['dot'],['density'],black,0,76,76,76,,,29.000200033187866,28.717090845108032,29.017099857330322,dot,"[0.1, 0.1, 0.08, 0.06, 0.08, 0.1, 0.1]","[[0.43636558899465056, -0.019888822856555858], [0.3422654810486562, -0.28596623187093184], [0.19265053263460555, -0.4439876245838232], [0.13726272111749335, -0.2453614523272762], [0.002381890354708078, -0.04768315945896726], [0.5336827108411983, -0.21507725682246784], [0.22437755209563529, -0.002563521851875305]]",density,black,,,D003,visual,1,[],"['1', '2', '3', '4']",1,2023.2.3,harveyvisual,2.1,[],8,0.75,
0,pause,0.4,None,None,None,0,77,77,77,,,,,,,,,,,,,D003,visual,1,[],"['1', '2', '3', '4']",1,2023.2.3,harveyvisual,2.1,[],8,0.75,
7,dot,0.3,['dot'],['density'],black,0,78,78,78,,,29.700207948684692,29.417075872421265,29.71706986427307,dot,"[0.1, 0.08, 0.1, 0.1, 0.08, 0.08, 0.1]","[[-0.2314520007693297, 0.33838000150240727], [-0.18132207761103206, 0.5552670473927488], [0.017458222085991553, 0.32213086183097556], [0.10538257653630445, 0.5364165263315271], [-0.32661765694444117, 0.13553859080651098], [0.2001110614088519, 0.2352342526365964], [-0.07707990285528175, 0.1388757586163816]]",density,black,,,D003,visual,1,[],"['1', '2', '3', '4']",1,2023.2.3,harveyvisual,2.1,[],8,0.75,
0,pause,0.4,None,None,None,0,79,79,79,,,,,,,,,,,,,D003,visual,1,[],"['1', '2', '3', '4']",1,2023.2.3,harveyvisual,2.1,[],8,0.75,
7,dot,0.3,['dot'],['density'],black,0,80,80,80,,,30.40020489692688,30.11704397201538,30.417026042938232,dot,"[0.08, 0.06, 0.1, 0.1, 0.08, 0.06, 0.1]","[[0.12430361198122393, -0.484697593056103], [0.0493599320108737, -0.036540600477799993], [0.2536650008125765, -0.05314613827093128], [-0.10908149692518246, -0.38401305955505927], [0.3510411480849886, -0.3949608705840701], [0.16732256025271752, -0.2817377092689904], [0.4277002215428168, -0.1937739732965619]]",density,black,,,D003,visual,1,[],"['1', '2', '3', '4']",1,2023.2.3,harveyvisual,2.1,[],8,0.75,
0,pause,0.4,None,None,None,0,81,81,81,,,,,,,,,,,,,D003,visual,1,[],"['1', '2', '3', '4']",1,2023.2.3,harveyvisual,2.1,[],8,0.75,
7,dot,0.3,['dot'],['density'],black,0,82,82,82,,,31.100201845169067,30.817092895507812,31.117055892944336,dot,"[0.06, 0.1, 0.1, 0.08, 0.08, 0.06, 0.06]","[[0.3350011905151264, 0.09255159473130091], [-0.07424962927914175, -0.2643067362759337], [-0.0068732696698998825, 0.04948606721470151], [0.12855319879406235, -0.3381192636220083], [0.11551090787938859, 0.24000211478775196], [0.3415900712266813, -0.1269386107563701], [0.14228147320501944, -0.08533637750285226]]",density,black,,,D003,visual,1,[],"['1', '2', '3', '4']",1,2023.2.3,harveyvisual,2.1,[],8,0.75,
0,pause,0.4,None,None,None,0,83,83,83,,,,,,,,,,,,,D003,visual,1,[],"['1', '2', '3', '4']",1,2023.2.3,harveyvisual,2.1,[],8,0.75,
8,dot,0.3,['dot'],['density'],black,0,84,84,84,,,31.80022382736206,31.517067909240723,31.817006826400757,dot,"[0.1, 0.06, 0.08, 0.08, 0.08, 0.06, 0.08, 0.1]","[[-0.2395708272612018, -0.3613018167456044], [-0.39529086986423073, -0.13116056396528103], [0.016143118738118, -0.3000453801144436], [-0.10247857353615338, 0.12176090555598315], [0.11784264820349834, -0.12422453235794288], [-0.1468533202112338, -0.18280007972172757], [-0.31504288856899026, 0.06147683711297207], [0.2614313121475242, -0.33215718180641224]]",density,black,,,D003,visual,1,[],"['1', '2', '3', '4']",1,2023.2.3,harveyvisual,2.1,[],8,0.75,
0,pause,0.4,None,None,None,0,85,85,85,,,,,,,,,,,,,D003,visual,1,[],"['1', '2', '3', '4']",1,2023.2.3,harveyvisual,2.1,[],8,0.75,
8,dot,0.3,['dot'],['density'],black,0,86,86,86,,,32.500205993652344,32.217005014419556,32.516963958740234,dot,"[0.06, 0.1, 0.08, 0.1, 0.08, 0.08, 0.06, 0.06]","[[-0.21605400050023119, -0.36806604112140096], [-0.4331556331222778, 0.1336594927324191], [-0.3157474098875971, -0.1371073420352747], [-0.10064365538588134, -0.10053754910436148], [0.10862445751928086, -0.04115753002163663], [-0.19663983546434133, 0.09424647547905109], [-0.5379272585723496, -0.06117038891009633], [0.023355790718173546, -0.2955553217846553]]",density,black,,,D003,visual,1,[],"['1', '2', '3', '4']",1,2023.2.3,harveyvisual,2.1,[],8,0.75,
0,pause,0.4,None,None,None,0,87,87,87,,,,,,,,,,,,,D003,visual,1,[],"['1', '2', '3', '4']",1,2023.2.3,harveyvisual,2.1,[],8,0.75,
8,dot,0.3,['dot'],['density'],white,0,88,88,88,,,33.20021104812622,32.91697597503662,33.21696090698242,dot,"[0.06, 0.08, 0.08, 0.1, 0.1, 0.1, 0.1, 0.06]","[[-0.30918623351354413, -0.2762980118811315], [0.03442122464869854, -0.32944299641312663], [0.20656618624830034, -0.4515266663928406], [0.20458815773351877, -0.002924552385479317], [-0.054765695239429084, -0.14491701700869716], [-0.0008776159608741382, 0.05441634750414142], [0.19975410704164612, -0.21252729673777132], [-0.19330391669800595, 0.14377227853430027]]",density,white,,,D003,visual,1,[],"['1', '2', '3', '4']",1,2023.2.3,harveyvisual,2.1,[],8,0.75,
0,pause,0.4,None,None,None,0,89,89,89,,,,,,,,,,,1,33.38103699684143,D003,visual,1,[],"['1', '2', '3', '4']",1,2023.2.3,harveyvisual,2.1,[],8,0.75,
8,dot,0.3,['dot'],['density'],black,0,90,90,90,,,33.90019989013672,33.61698293685913,33.91695690155029,dot,"[0.1, 0.06, 0.06, 0.06, 0.08, 0.08, 0.1, 0.06]","[[-0.08486713456805763, -0.4233549652310786], [-0.34121661687321897, 0.009931669871959016], [0.06179899905610707, -0.01287726204627424], [-0.01080387642187049, -0.20774715314808884], [-0.2259787915635077, -0.2257096572683263], [-0.31087639520469923, -0.4457762681120083], [-0.07938707884489006, 0.17996906985975966], [-0.13919465900414296, -0.03133413505419433]]",density,black,,,D003,visual,1,[],"['1', '2', '3', '4']",1,2023.2.3,harveyvisual,2.1,[],8,0.75,
0,pause,0.4,None,None,None,0,91,91,91,,,,,,,,,,,,,D003,visual,1,[],"['1', '2', '3', '4']",1,2023.2.3,harveyvisual,2.1,[],8,0.75,
8,dot,0.3,['dot'],['density'],black,0,92,92,92,,,34.600220918655396,34.31699895858765,34.616945028305054,dot,"[0.08, 0.1, 0.06, 0.08, 0.06, 0.08, 0.08, 0.06]","[[0.5011924336457421, -0.024432440978935197], [0.2806328112604475, -0.04317330297599672], [0.4832514634589159, 0.31109822070486504], [0.16408111659662816, 0.42847901077729456], [0.23688927214560462, 0.23559820796421724], [0.07772697954394367, 0.06196890701796274], [0.10192126774068293, -0.18867749580812243], [-0.012619648351882298, 0.24997239668137242]]",density,black,,,D003,visual,1,[],"['1', '2', '3', '4']",1,2023.2.3,harveyvisual,2.1,[],8,0.75,
0,pause,0.4,None,None,None,0,93,93,93,,,,,,,,,,,,,D003,visual,1,[],"['1', '2', '3', '4']",1,2023.2.3,harveyvisual,2.1,[],8,0.75,
8,dot,0.3,['dot'],['density'],black,0,94,94,94,,,35.30021786689758,35.0169358253479,35.31696391105652,dot,"[0.08, 0.06, 0.08, 0.08, 0.1, 0.06, 0.08, 0.06]","[[-0.4462313073918426, 0.10595449025715867], [0.022923871415176152, 0.06290918987699953], [-0.12461589820496316, 0.4830175517012745], [-0.29730306390741434, 0.2752084497958106], [-0.2195410516364439, 0.056871795648565045], [0.008916049516666445, 0.2907399105306955], [-0.08256048209355603, -0.11638226771844133], [-0.4106304257826301, -0.09222594144079917]]",density,black,,,D003,visual,1,[],"['1', '2', '3', '4']",1,2023.2.3,harveyvisual,2.1,[],8,0.75,
0,pause,0.4,None,None,None,0,95,95,95,,,,,,,,,,,,,D003,visual,1,[],"['1', '2', '3', '4']",1,2023.2.3,harveyvisual,2.1,[],8,0.75,
9,dot,0.3,['dot'],['density'],black,0,96,96,96,,,36.000216007232666,35.716886043548584,36.01687693595886,dot,"[0.1, 0.08, 0.1, 0.08, 0.1, 0.1, 0.06, 0.1, 0.1]","[[0.005765111513037631, -0.143111035787845], [-0.396275933094447, -0.3321437400526764], [0.037546025436095476, -0.5612590109297682], [-0.23561619682408028, -0.19372599185683617], [-0.24582953746203298, -0.47553838121684505], [-0.07047609790874906, -0.3562711323606942], [-0.09403038697424164, 0.06164574472317626], [0.13577280496850042, -0.3868547356250126], [0.15608206217807025, 0.06264253907795621]]",density,black,,,D003,visual,1,[],"['1', '2', '3', '4']",1,2023.2.3,harveyvisual,2.1,[],8,0.75,
0,pause,0.4,None,None,None,0,97,97,97,,,,,,,,,,,,,D003,visual,1,[],"['1', '2', '3', '4']",1,2023.2.3,harveyvisual,2.1,[],8,0.75,
9,dot,0.3,['dot'],['density'],black,0,98,98,98,,,36.70022201538086,36.41687297821045,36.716866970062256,dot,"[0.06, 0.06, 0.06, 0.08, 0.08, 0.08, 0.1, 0.1, 0.06]","[[0.005765111513037631, -0.143111035787845], [-0.396275933094447, -0.3321437400526764], [0.037546025436095476, -0.5612590109297682], [-0.23561619682408028, -0.19372599185683617], [-0.24582953746203298, -0.47553838121684505], [-0.07047609790874906, -0.3562711323606942], [-0.09403038697424164, 0.06164574472317626], [0.13577280496850042, -0.3868547356250126], [0.15608206217807025, 0.06264253907795621]]",density,black,,,D003,visual,1,[],"['1', '2', '3', '4']",1,2023.2.3,harveyvisual,2.1,[],8,0.75,
0,pause,0.4,None,None,None,0,99,99,99,,,,,,,,,,,,,D003,visual,1,[],"['1', '2', '3', '4']",1,2023.2.3,harveyvisual,2.1,[],8,0.75,
9,dot,0.3,['dot'],['density'],white,0,100,100,100,,,37.40022897720337,37.116859912872314,37.416836977005005,dot,"[0.1, 0.08, 0.06, 0.06, 0.06, 0.08, 0.08, 0.1, 0.08]","[[0.005765111513037631, -0.143111035787845], [-0.396275933094447, -0.3321437400526764], [0.037546025436095476, -0.5612590109297682], [-0.23561619682408028, -0.19372599185683617], [-0.24582953746203298, -0.47553838121684505], [-0.07047609790874906, -0.3562711323606942], [-0.09403038697424164, 0.06164574472317626], [0.13577280496850042, -0.3868547356250126], [0.15608206217807025, 0.06264253907795621]]",density,white,,,D003,visual,1,[],"['1', '2', '3', '4']",1,2023.2.3,harveyvisual,2.1,[],8,0.75,
0,pause,0.4,None,None,None,0,101,101,101,,,,,,,,,,,1,37.473576068878174,D003,visual,1,[],"['1', '2', '3', '4']",1,2023.2.3,harveyvisual,2.1,[],8,0.75,
9,dot,0.3,['dot'],['density'],black,0,102,102,102,,,38.100208044052124,37.81683087348938,38.11683201789856,dot,"[0.1, 0.1, 0.1, 0.06, 0.06, 0.06, 0.06, 0.1, 0.08]","[[-0.08351644510687262, 0.021707353155035948], [0.11173555070370329, 0.3931220271068859], [-0.15396522232717408, 0.3423719725559184], [0.23829169989725132, 0.186218803300476], [-0.29008049122260166, 0.17395274189193027], [0.2491440638781109, -0.04662568063892593], [-0.2854023508218629, -0.06307984259985559], [0.003596708871689959, 0.21717875760955796], [-0.47489413548496523, 0.030788186259843496]]",density,black,,,D003,visual,1,[],"['1', '2', '3', '4']",1,2023.2.3,harveyvisual,2.1,[],8,0.75,
0,pause,0.4,None,None,None,0,103,103,103,,,,,,,,,,,,,D003,visual,1,[],"['1', '2', '3', '4']",1,2023.2.3,harveyvisual,2.1,[],8,0.75,
9,dot,0.3,['dot'],['density'],black,0,104,104,104,,,38.80022692680359,38.51686692237854,38.8168740272522,dot,"[0.06, 0.06, 0.06, 0.1, 0.1, 0.06, 0.06, 0.08, 0.08]","[[-0.08858128315591524, -0.3480052213079807], [0.37291707470974605, -0.0809562497479422], [-0.04311872097798103, 0.23152249840731254], [0.1734412630875083, -0.16491363602164627], [-0.024044713080900382, -0.04824256513196188], [0.126438571592319, 0.09122014985587756], [-0.2168202887682383, 0.11190421567656858], [-0.23215605484234547, -0.20356583507002532], [0.291417597339289, 0.24351333182926893]]",density,black,,,D003,visual,1,[],"['1', '2', '3', '4']",1,2023.2.3,harveyvisual,2.1,[],8,0.75,
0,pause,0.4,None,None,None,0,105,105,105,,,,,,,,,,,,,D003,visual,1,[],"['1', '2', '3', '4']",1,2023.2.3,harveyvisual,2.1,[],8,0.75,
9,dot,0.3,['dot'],['density'],black,0,106,106,106,,,39.500211000442505,39.21681094169617,39.51684784889221,dot,"[0.1, 0.06, 0.1, 0.06, 0.1, 0.1, 0.1, 0.08, 0.06]","[[0.15603996265512696, -0.0872053538661942], [-0.29211765964195757, -0.04110002513656992], [-0.071087909845803, -0.33174387981618686], [-0.13011395490928096, 0.2584597801106329], [-0.08364541374476576, -0.0980664528631432], [-0.26669569773039664, -0.25481833902542456], [-0.35582819085755485, -0.4494505046102014], [-0.1269674344078877, -0.5566175884613933], [0.011820482989003244, 0.07934247632600783]]",density,black,,,D003,visual,1,[],"['1', '2', '3', '4']",1,2023.2.3,harveyvisual,2.1,[],8,0.75,
0,pause,0.4,None,None,None,0,107,107,107,,,,,,,,,,,,,D003,visual,1,[],"['1', '2', '3', '4']",1,2023.2.3,harveyvisual,2.1,[],8,0.75,
20,dot,0.3,['dot'],['density'],black,0,108,108,108,,,40.20022487640381,39.9167799949646,40.21676993370056,dot,"[0.06, 0.06, 0.06, 0.06, 0.08, 0.08, 0.08, 0.06, 0.08, 0.1, 0.1, 0.1, 0.08, 0.08, 0.06, 0.1, 0.08, 0.06, 0.08, 0.08]","[[-0.5824996532249874, 0.10072475455546406], [0.28534192612027454, 0.25475336933603676], [0.28946302380248135, -0.0024206984026764466], [-0.2516492878167417, 0.16513621975933523], [0.36684775511605894, -0.20860873815694359], [-0.15905967379578956, -0.3475563084333885], [0.5147892287785193, 0.30401930981994174], [-0.4368846792525555, -0.39387331543931936], [0.5591098031660134, 0.11473400927948749], [0.06574601126042257, -0.33001617331702576], [0.533725201883544, -0.08121170238208167], [-0.11544575384677824, 0.3849722342146844], [-0.19275942094869541, -0.0890681510420342], [0.15024099904503152, -0.5551213086374579], [-0.031668129869707906, 0.5662820698296628], [0.016676267985972215, -0.13095591716785437], [-0.3550377641747662, 0.3789025939249482], [0.15075404079069266, 0.3947545075147202], [0.05218437430604894, 0.06671248792358786], [-0.5020982788551465, -0.16772831968776794]]",density,black,,,D003,visual,1,[],"['1', '2', '3', '4']",1,2023.2.3,harveyvisual,2.1,[],8,0.75,
0,pause,0.4,None,None,None,0,109,109,109,,,,,,,,,,,,,D003,visual,1,[],"['1', '2', '3', '4']",1,2023.2.3,harveyvisual,2.1,[],8,0.75,
20,dot,0.3,['dot'],['density'],black,0,110,110,110,,,40.90021204948425,40.61676001548767,40.916767835617065,dot,"[0.06, 0.06, 0.06, 0.1, 0.1, 0.1, 0.08, 0.08, 0.08, 0.06, 0.06, 0.06, 0.08, 0.1, 0.1, 0.08, 0.06, 0.1, 0.08, 0.08]","[[-0.41473748578931874, -0.06310167689260426], [0.44599628461638285, 0.2139987770779061], [0.24113349291464947, -0.05096265552226198], [0.12706360077379153, 0.1532963755576775], [-0.2932092109620323, 0.5077587614483965], [0.15900088610723273, 0.41732543075666506], [-0.503662124479458, 0.23662968385721428], [-0.007343561525240738, -0.3022289052802475], [0.5589949754862652, 0.023418013791469516], [-0.06294037525577467, 0.3366463418048633], [-0.29571951476781794, 0.1575883233509412], [0.008100292613794635, -0.597385499458381], [-0.12210434250692748, 0.02263460579942078], [-0.3807597320769239, -0.2707033660085746], [0.27822690529982186, -0.32562091589266706], [-0.22927934834929703, -0.5167360074935767], [0.3585320993963773, 0.3830430699859404], [0.4079982173075031, -0.15889467348100034], [-0.6035122503688537, 0.036732670577126994], [-0.01607075770893529, 0.5304160527405714]]",density,black,,,D003,visual,1,[],"['1', '2', '3', '4']",1,2023.2.3,harveyvisual,2.1,[],8,0.75,
0,pause,0.4,None,None,None,0,111,111,111,,,,,,,,,,,,,D003,visual,1,[],"['1', '2', '3', '4']",1,2023.2.3,harveyvisual,2.1,[],8,0.75,
20,dot,0.3,['dot'],['density'],white,0,112,112,112,,,41.60021495819092,41.31674790382385,41.61673092842102,dot,"[0.06, 0.1, 0.1, 0.06, 0.06, 0.1, 0.06, 0.1, 0.08, 0.06, 0.06, 0.06, 0.1, 0.06, 0.08, 0.06, 0.1, 0.06, 0.06, 0.08]","[[0.49609544374945813, -0.057087507041410746], [-0.16989026413735187, -0.2681817698345412], [0.23862618602932406, 0.056975692921718446], [0.2998813716588292, -0.2904637633409173], [0.5082782055280252, 0.18054124751700795], [-0.2560740270240513, -0.5383423333248317], [-0.3549014202390588, -0.06993754338330482], [0.0051569556846976505, 0.46075270148824665], [-0.3000225622130026, 0.12260612324901521], [0.15934241909947755, -0.5621012382548409], [0.3886676821927505, 0.4031739615610384], [-0.04500159549414151, -0.5417073898204587], [-0.5250197037086665, 0.08786662813263968], [0.11211662026543323, -0.18276991703307027], [0.19855863403132412, 0.2967040136575252], [-0.39333067150277895, 0.33910397550911925], [-0.362599939494896, -0.3685307961470865], [-0.04900158570888924, -0.04165566980479918], [-0.03444389435718642, 0.17594160726782504], [-0.5406806172011274, -0.16719298413578604]]",density,white,,,D003,visual,1,[],"['1', '2', '3', '4']",1,2023.2.3,harveyvisual,2.1,[],8,0.75,
0,pause,0.4,None,None,None,0,113,113,113,,,,,,,,,,,1,41.714263916015625,D003,visual,1,[],"['1', '2', '3', '4']",1,2023.2.3,harveyvisual,2.1,[],8,0.75,
20,dot,0.3,['dot'],['density'],black,0,114,114,114,,,42.30022692680359,42.01674795150757,42.31672382354736,dot,"[0.08, 0.1, 0.08, 0.1, 0.08, 0.1, 0.06, 0.1, 0.06, 0.06, 0.1, 0.06, 0.08, 0.1, 0.06, 0.06, 0.1, 0.08, 0.06, 0.06]","[[0.09973847037333461, -0.07185643448309165], [-0.020651334529677268, 0.5991038683118043], [0.1329816647191827, 0.15645485042488794], [-0.3139292130498296, 0.07527138988610294], [-0.05340596157181987, 0.10181221506880278], [0.5656217387424872, 0.203471149737492], [0.5385615609086049, -0.0327794148786934], [-0.5177507325362661, 0.25942286795175024], [-0.14592014020434896, -0.3857696243357912], [0.32384378883822984, -0.14894408577956164], [-0.18918032104151006, 0.3147989577111071], [-0.26706533861330806, 0.5273440746545016], [-0.3687378996907003, -0.29654903812726296], [0.32709999039978355, 0.4015452971448029], [-0.6022471672988545, 0.0021934018377961564], [0.182035919633053, 0.5712036915044393], [0.4980913875479035, -0.2295220500616491], [-0.5524690017882582, -0.22561861095022964], [0.24420548752984583, -0.3510523669996364], [0.06527227350783271, -0.5743277337713946]]",density,black,,,D003,visual,1,[],"['1', '2', '3', '4']",1,2023.2.3,harveyvisual,2.1,[],8,0.75,
0,pause,0.4,None,None,None,0,115,115,115,,,,,,,,,,,,,D003,visual,1,[],"['1', '2', '3', '4']",1,2023.2.3,harveyvisual,2.1,[],8,0.75,
20,dot,0.3,['dot'],['density'],black,0,116,116,116,,,43.00022792816162,42.71672201156616,43.01673984527588,dot,"[0.1, 0.1, 0.06, 0.06, 0.1, 0.1, 0.1, 0.08, 0.1, 0.08, 0.06, 0.06, 0.08, 0.08, 0.1, 0.1, 0.06, 0.08, 0.08, 0.08]","[[-0.5159905561257657, 0.0019609928341601246], [0.26370386550280633, -0.39254695846467996], [0.15216223144978458, -0.02408664397328386], [-0.15830893182764277, 0.20500668901308128], [-0.2580662537905508, -0.22884839853884104], [-0.41171111909664204, 0.4422183305778677], [0.18429055968313368, 0.2705169842255075], [-0.36576027657964866, 0.21543584353183426], [0.06129734837695522, -0.4828481239520592], [0.5514228133865203, -0.040759088325054205], [-0.5017175996830415, -0.3290763522543089], [0.3897753261588589, 0.4247148065528299], [-0.17308167923217793, -0.516239207677602], [-0.08724434956369409, 0.001667043859047257], [0.5486979967172118, 0.18532717729116505], [0.09434382059128577, 0.5655895099766427], [0.11941878425326247, -0.2696298138775402], [0.4054298842098777, -0.2433522734311539], [-0.23111304091215162, 0.5487600111717218], [0.34494358680408277, -0.0341951284600423]]",density,black,,,D003,visual,1,[],"['1', '2', '3', '4']",1,2023.2.3,harveyvisual,2.1,[],8,0.75,
0,pause,0.4,None,None,None,0,117,117,117,,,,,,,,,,,,,D003,visual,1,[],"['1', '2', '3', '4']",1,2023.2.3,harveyvisual,2.1,[],8,0.75,
20,dot,0.3,['dot'],['density'],white,0,118,118,118,,,43.700201988220215,43.416743993759155,43.71675395965576,dot,"[0.08, 0.06, 0.1, 0.06, 0.08, 0.06, 0.1, 0.08, 0.08, 0.06, 0.08, 0.06, 0.1, 0.08, 0.1, 0.08, 0.08, 0.1, 0.06, 0.1]","[[0.2649591639271871, -0.5229567191656895], [0.0030880605285157348, -0.5832588591888118], [-0.3667462519778364, -0.3948565162894104], [-0.16066178511211693, 0.1894845834658695], [-0.031307978698263295, -0.3900411778663211], [-0.4448846920261812, 0.13982822188331623], [0.2574473112118363, -0.17804200316753455], [0.1277464831385472, 0.3253881295070379], [-0.3777560464280849, 0.3923360878895183], [0.5452026684283217, 0.13603108055581636], [-0.2441169843526993, -0.18105923557821457], [0.5341896730368959, -0.08218465996750102], [-0.19848017583939914, 0.4755419375790031], [0.12642977298418812, 0.025514993437327993], [-0.6030428914127854, 0.034405735885069566], [0.39687567920706057, -0.33111270295094225], [0.3458662169736355, 0.15155066563209152], [-0.19596631301491046, -0.500579869234042], [-0.12092092505772828, 0.0008423834632911298], [-0.4346248563127818, -0.10947656860463034]]",density,white,,,D003,visual,1,[],"['1', '2', '3', '4']",1,2023.2.3,harveyvisual,2.1,[],8,0.75,
0,pause,0.4,None,None,None,0,119,119,119,,,,,,,,,,,1,43.739343881607056,D003,visual,1,[],"['1', '2', '3', '4']",1,2023.2.3,harveyvisual,2.1,[],8,0.75,
20,dot,0.3,['dot'],['density'],black,0,120,120,120,,,44.400213956832886,44.11667084693909,44.416651010513306,dot,"[0.08, 0.1, 0.06, 0.08, 0.06, 0.06, 0.06, 0.1, 0.08, 0.06, 0.08, 0.06, 0.1, 0.08, 0.08, 0.08, 0.08, 0.1, 0.08, 0.08]","[[-0.4581043656194411, -0.20885731756959297], [-0.34358293550090563, 0.17504887072459063], [0.470595383744696, 0.07776586808086655], [-0.1235254567557672, -0.23006303346703633], [-0.5722167298971094, 0.01398957737464937], [0.23499052882653082, -0.5061171189191777], [-0.2008230547188326, 0.5298012593845438], [0.1313625292781634, 0.46467393512286725], [0.3459569512619073, -0.2890001919783645], [0.16106547574920438, 0.2546082151639768], [-0.469203305566939, 0.3453751197122024], [0.07171994426472961, -0.354204215485468], [0.2321894150128705, -0.09944611855214719], [0.36789175664415774, 0.38965028123191175], [-0.4319399271544515, -0.40627636783332677], [-0.12606111488102156, 0.08696959452990993], [-0.2870354359349249, -0.09854538876563035], [0.5945355417119645, -0.0758239689041296], [-0.19535298105783344, -0.4953361267661856], [0.01569143123995209, -0.0840954793158959]]",density,black,,,D003,visual,1,[],"['1', '2', '3', '4']",1,2023.2.3,harveyvisual,2.1,[],8,0.75,
0,pause,0.4,None,None,None,0,121,121,121,,,,,,,,,,,,,D003,visual,1,[],"['1', '2', '3', '4']",1,2023.2.3,harveyvisual,2.1,[],8,0.75,
20,dot,0.3,['dot'],['density'],black,0,122,122,122,,,45.100208044052124,44.81665301322937,45.116628885269165,dot,"[0.06, 0.08, 0.08, 0.08, 0.08, 0.1, 0.06, 0.1, 0.06, 0.08, 0.06, 0.08, 0.1, 0.06, 0.08, 0.08, 0.06, 0.06, 0.1, 0.08]","[[-0.436614356990059, -0.22170625933958574], [-0.20796253551445193, 0.5147362246335393], [0.09019390263809868, -0.15946282629378566], [0.3705843618582191, -0.3513095394076647], [-0.5220884964627128, 0.09223024189135559], [0.21517330077493801, 0.21709918874759981], [0.48318799022810455, 0.2902246896958774], [-0.1731544509410744, -0.37100119754631955], [0.140239789677314, -0.5197720755926365], [0.1012920679196131, 0.5157953114023424], [-0.39676089707830764, 0.3155079695180212], [0.552503380084349, -0.08579236361152848], [-0.20665658928684616, -0.09942986867999354], [-0.23776885405283577, 0.1379908306519435], [0.3416674047590237, -0.05603833104578004], [-0.0137817962821849, 0.14353566838659082], [0.3142195122276388, 0.41691103862037326], [-0.10193502275912447, 0.31500163051585495], [-0.12784001612248658, -0.5686638706812146], [0.47279674212504486, 0.0998356468964568]]",density,black,,,D003,visual,1,[],"['1', '2', '3', '4']",1,2023.2.3,harveyvisual,2.1,[],8,0.75,
0,pause,0.4,None,None,None,0,123,123,123,,,,,,,,,,,,,D003,visual,1,[],"['1', '2', '3', '4']",1,2023.2.3,harveyvisual,2.1,[],8,0.75,
20,dot,0.3,['dot'],['density'],black,0,124,124,124,,,45.800227880477905,45.51663899421692,45.816635847091675,dot,"[0.08, 0.06, 0.1, 0.06, 0.1, 0.06, 0.06, 0.08, 0.06, 0.08, 0.06, 0.08, 0.08, 0.06, 0.1, 0.08, 0.06, 0.06, 0.1, 0.08]","[[0.1124606667128919, -0.5810065888905874], [-0.28788352241204396, -0.009482926203430608], [0.5632253186882538, 0.18397644305744926], [-0.47906238312982863, -0.13622126032325785], [0.04521695516347979, 0.2227943118364879], [-0.3204932170512597, 0.2737727521722887], [0.264553864588823, -0.06968228781230401], [-0.28566484988495505, -0.47927558893320515], [-0.5236235512478964, 0.28198030929495543], [0.3716082327248511, 0.44720108574126743], [0.32737852633801434, 0.13400132889907768], [-0.2217937607002599, 0.45520415567051753], [-0.06530753136054268, -0.33218631429570883], [-0.5904504096518287, 0.06332267736645913], [0.5091106874029591, -0.16086652591772782], [0.3975995428034006, -0.3368929588159767], [-0.00916995360638051, -0.046238238286789746], [0.18066413266475034, -0.36327496112718327], [-0.4209893747867126, -0.318880296167222], [0.07810637083247685, 0.5275715924315867]]",density,black,,,D003,visual,1,[],"['1', '2', '3', '4']",1,2023.2.3,harveyvisual,2.1,[],8,0.75,
0,pause,0.4,None,None,None,0,125,125,125,,,,,,,,,,,,,D003,visual,1,[],"['1', '2', '3', '4']",1,2023.2.3,harveyvisual,2.1,[],8,0.75,
20,dot,0.3,['dot'],['density'],white,0,126,126,126,,,46.50022792816162,46.216609954833984,46.51666188240051,dot,"[0.06, 0.1, 0.1, 0.08, 0.08, 0.06, 0.1, 0.08, 0.08, 0.1, 0.08, 0.06, 0.08, 0.1, 0.06, 0.1, 0.1, 0.06, 0.08, 0.06]","[[-0.03951547598004379, 0.42097403562018243], [0.48834661946121105, 0.2691318612105767], [-0.11131862371079121, -0.030602792263964895], [0.31686741541601127, -0.2795365076323738], [-0.26553231633268176, 0.5345231090040216], [0.32230095802734515, 0.024566353651941486], [0.5133030779050717, -0.07288104097016418], [-0.5727253820634286, 0.0052369127519696634], [-0.3038497300279747, -0.34501346931146865], [0.12813451828528344, -0.08900004187412458], [-0.15361721536141332, -0.4791814425128487], [-0.19580385278646006, 0.26298997325343987], [-0.43560759630915924, 0.16332432905044325], [0.24852491557702427, 0.3926990236441238], [0.2210266960208095, -0.490829671951201], [-0.03727314720095154, -0.2330108758150829], [0.059715457653538806, 0.13032479489697202], [-0.3948266131255359, -0.08003173847167594], [-0.5546783502858303, -0.23829886392090188], [-0.4309488961555251, 0.41649928021979665]]",density,white,,,D003,visual,1,[],"['1', '2', '3', '4']",1,2023.2.3,harveyvisual,2.1,[],8,0.75,
0,pause,0.4,None,None,None,0,127,127,127,,,,,,,,,,,1,46.55174207687378,D003,visual,1,[],"['1', '2', '3', '4']",1,2023.2.3,harveyvisual,2.1,[],8,0.75,
20,dot,0.3,['dot'],['density'],white,0,128,128,128,,,47.200230836868286,46.916630029678345,47.21661996841431,dot,"[0.06, 0.08, 0.1, 0.06, 0.1, 0.08, 0.08, 0.06, 0.06, 0.08, 0.1, 0.08, 0.1, 0.1, 0.08, 0.06, 0.06, 0.1, 0.1, 0.06]","[[-0.0924398932348961, -0.510087750045703], [-0.37681264393956926, -0.42475787805696463], [-0.11203712115371295, -0.18247711408857703], [0.13513486588215673, -0.5246839014484634], [0.5031435724419561, -0.11814254962020732], [-0.5864383235316625, -0.13074406164595287], [-0.3598745844123229, 0.05448656246303479], [-0.4340881968123278, 0.40323788288856216], [0.5707801858239764, 0.17474214708781052], [-0.33257166207460714, -0.22619098416506328], [-0.5392553373888133, 0.17849495975323326], [0.40390604622993764, -0.42266570440916607], [0.023186766257149327, 0.42522813899620326], [0.16079871184039418, -0.2713690315100288], [0.15762682543435536, -0.05707719548443568], [-0.3267964636729626, 0.2426135046336767], [0.3516167169896083, 0.2592633537924628], [-0.10582867525056, 0.21329494731382515], [0.09532103833533012, 0.21393845905088205], [0.3809717249943315, 0.4661332741504044]]",density,white,,,D003,visual,1,[],"['1', '2', '3', '4']",1,2023.2.3,harveyvisual,2.1,[],8,0.75,
0,pause,0.4,None,None,None,0,129,129,129,,,,,,,,,,,1,47.17278695106506,D003,visual,1,[],"['1', '2', '3', '4']",1,2023.2.3,harveyvisual,2.1,[],8,0.75,
20,dot,0.3,['dot'],['density'],black,0,130,130,130,,,47.90021800994873,47.616607904434204,47.91663694381714,dot,"[0.1, 0.08, 0.1, 0.1, 0.08, 0.06, 0.1, 0.08, 0.06, 0.06, 0.08, 0.08, 0.06, 0.06, 0.1, 0.08, 0.1, 0.08, 0.1, 0.06]","[[-0.3068633623330642, 0.015204550297331587], [0.05808321978019049, -0.23533974216260922], [0.3820924030239763, 0.4415202946016538], [-0.5109817523554245, 0.1833646502429655], [0.4342184975675495, 0.046202523363164716], [0.3115270535472896, -0.41331015366066004], [-0.41496159487179884, -0.2796330440228174], [0.4119333410048315, -0.1805205335198447], [-0.025295645185117066, 0.3855454066880679], [-0.5584120949258031, -0.10912704616900432], [-0.022785457931697506, -0.46846156087746194], [0.13670906261489357, 0.17674693053863133], [-0.18381933462136174, 0.49395440055269124], [-0.3345887550386632, -0.477130378859757], [-0.14045537451359552, 0.1293828905912452], [0.010558630748110143, -0.01966358615754704], [-0.15450841932803816, -0.3246176851053905], [0.26298282564295483, -0.051629435695107695], [-0.282414900817553, 0.30014061730764985], [0.5226654044146511, 0.23074537568917436]]",density,black,,,D003,visual,1,[],"['1', '2', '3', '4']",1,2023.2.3,harveyvisual,2.1,[],8,0.75,
0,pause,0.4,None,None,None,0,131,131,131,,,,,,,,,,,,,D003,visual,1,[],"['1', '2', '3', '4']",1,2023.2.3,harveyvisual,2.1,[],8,0.75,
20,dot,0.3,['dot'],['density'],black,0,132,132,132,,,48.60020899772644,48.31658482551575,48.61659097671509,dot,"[0.1, 0.06, 0.1, 0.08, 0.06, 0.1, 0.08, 0.1, 0.08, 0.1, 0.08, 0.08, 0.08, 0.06, 0.08, 0.1, 0.1, 0.1, 0.1, 0.08]","[[0.31657524772302936, 0.041929046015724], [0.2900860211984997, -0.1922551807407869], [0.019845877408601775, 0.39968289385497513], [0.5123976310171089, -0.036043029559896356], [0.02669055124366193, 0.037444371191821535], [-0.13930834196800462, -0.23202724652111795], [-0.4878352903959913, 0.05893480436023463], [-0.5057168221743978, -0.234340635504067], [-0.14993939073108398, 0.14224899204196106], [-0.3199607641338876, -0.42703981750442627], [-0.27344554978497576, 0.33061705454292445], [0.0516805865944483, -0.3138106760239641], [-0.1618277240418471, -0.575490300335087], [0.3025129772101264, -0.46661487857276346], [0.2589510668079321, 0.4006086430420248], [-0.2037102294826887, 0.534688830636045], [0.5442373525389733, 0.17256484984652976], [0.4802694184272457, -0.23568495863831276], [-0.2813530857478571, -0.02756562969024301], [-0.5000075684526971, 0.3270586176941178]]",density,black,,,D003,visual,1,[],"['1', '2', '3', '4']",1,2023.2.3,harveyvisual,2.1,[],8,0.75,
0,pause,0.4,None,None,None,0,133,133,133,,,,,,,,,,,,,D003,visual,1,[],"['1', '2', '3', '4']",1,2023.2.3,harveyvisual,2.1,[],8,0.75,
20,dot,0.3,['dot'],['density'],black,0,134,134,134,,,49.300222873687744,49.01658391952515,49.31658983230591,dot,"[0.06, 0.06, 0.08, 0.08, 0.1, 0.1, 0.1, 0.08, 0.06, 0.08, 0.08, 0.08, 0.1, 0.1, 0.1, 0.06, 0.08, 0.1, 0.08, 0.06]","[[-0.005812542458253467, 0.2680718333398643], [0.13453033123463332, -0.16726169441298283], [-0.5542561743184344, -0.17519095120366568], [0.24745456980836156, 0.4162718334673692], [0.2312059581555158, 0.04021417463821275], [0.2973019662385671, -0.3088787207655625], [-0.26046146491804745, 0.22614920544606598], [-0.08095631408449322, 0.5945916866276603], [-0.12396877798345601, -0.24122576429374515], [-0.30384377127490203, -0.5051162929812468], [-0.49618992763611935, 0.172553998956668], [-0.37105045642425694, -0.23981191067114555], [-0.3997119122857117, 0.44910366282019454], [0.5177119510436731, -0.0006405890569194383], [-0.010329396520951661, -0.03749209086317584], [-0.06576806153370207, -0.5864228095134955], [0.4932181587795762, 0.31443908581168933], [0.25107665689578673, -0.5080631797639021], [0.5139337126341897, -0.2387588229028138], [-1.0418841882353647e-05, -0.38828091160654343]]",density,black,,,D003,visual,1,[],"['1', '2', '3', '4']",1,2023.2.3,harveyvisual,2.1,[],8,0.75,
0,pause,0.4,None,None,None,0,135,135,135,,,,,,,,,,,,,D003,visual,1,[],"['1', '2', '3', '4']",1,2023.2.3,harveyvisual,2.1,[],8,0.75,
20,dot,0.3,['dot'],['density'],black,0,136,136,136,,,50.000221967697144,49.71658992767334,50.0165479183197,dot,"[0.1, 0.06, 0.1, 0.06, 0.1, 0.06, 0.1, 0.08, 0.1, 0.08, 0.08, 0.1, 0.06, 0.08, 0.08, 0.1, 0.06, 0.08, 0.08, 0.1]","[[-0.4978894822733937, -0.03269523881708625], [-0.22547342046364544, -0.28737916881680275], [0.5161782627808357, 0.0023638328593926783], [0.163114199403963, -0.5554192131436527], [-0.03348448005407745, 0.3531574007318121], [-0.14162452910272078, 0.5451324462226022], [0.3456961586974171, -0.2829004171346051], [-0.2567470752230099, 0.3479930087124069], [-0.4346001894475678, -0.2393335644440752], [0.20434499091695346, 0.2790257822230393], [0.1740574382885004, -0.1892741462523843], [0.4444485928412846, 0.25445076079761236], [-0.5523996062889093, 0.21129416508812934], [0.054549722540307544, -0.3907165778868382], [-0.32734610274212356, -0.5023187809037036], [-0.09963525894565184, 0.10656742080844339], [0.3124885910719596, 0.02100615951517648], [-0.2897716501841846, 0.06271386640555265], [0.34834574165507337, -0.49254607956022617], [-0.05991622187802892, -0.13384539834773274]]",density,black,,,D003,visual,1,[],"['1', '2', '3', '4']",1,2023.2.3,harveyvisual,2.1,[],8,0.75,
0,pause,0.4,None,None,None,0,137,137,137,,,,,,,,,,,,,D003,visual,1,[],"['1', '2', '3', '4']",1,2023.2.3,harveyvisual,2.1,[],8,0.75,
20,dot,0.3,['dot'],['density'],black,0,138,138,138,,,50.70022392272949,50.41653299331665,50.716564893722534,dot,"[0.06, 0.06, 0.06, 0.06, 0.06, 0.1, 0.1, 0.1, 0.1, 0.1, 0.08, 0.1, 0.06, 0.1, 0.1, 0.08, 0.08, 0.1, 0.08, 0.08]","[[0.20548771012771383, -0.0729145737249366], [-0.21624164531822998, -0.06848338450951358], [-0.36533093595018273, 0.3072413300514989], [0.349026720698696, 0.11016953393339046], [-0.48580361437569497, -0.18948561815588968], [0.44002439083777933, -0.29247990539095703], [0.0066131412220366, 0.12474462864057156], [-0.04994742656514495, 0.5037619122889913], [0.39067745308781243, 0.32564512465859463], [0.12121125884232153, 0.307728640759217], [0.5469334871970993, 0.08477176194618835], [-0.5661746253559132, 0.13957130415598715], [0.23923388923404276, -0.5084410376307381], [-0.12220598291455109, -0.32651330974322507], [-0.3696789803259098, 0.11168819672565944], [-0.42777833923269776, -0.3754173422633501], [-0.2038968983985603, -0.507993186697408], [0.13717468651290743, 0.5551844834651898], [0.12952149687939796, -0.2576921454826506], [-0.000523524586245383, -0.5138529679219797]]",density,black,,,D003,visual,1,[],"['1', '2', '3', '4']",1,2023.2.3,harveyvisual,2.1,[],8,0.75,
0,pause,0.4,None,None,None,0,139,139,139,,,,,,,,,,,,,D003,visual,1,[],"['1', '2', '3', '4']",1,2023.2.3,harveyvisual,2.1,[],8,0.75,
20,dot,0.3,['dot'],['density'],black,0,140,140,140,,,51.400208950042725,51.11652898788452,51.41654896736145,dot,"[0.1, 0.06, 0.1, 0.08, 0.1, 0.06, 0.08, 0.06, 0.08, 0.1, 0.1, 0.1, 0.06, 0.08, 0.06, 0.06, 0.1, 0.08, 0.08, 0.1]","[[-0.23485793395681542, -0.41417152313768835], [0.21239535133270993, -0.3670017043113738], [-0.07439741280332224, 0.14420680211167403], [-0.12275035690382635, -0.5759629201498161], [0.520951398571127, -0.27011836358862135], [-0.2127371745502208, 0.4307751379765603], [0.011939060903531917, 0.3278339791185013], [-0.23354468708791765, -0.1087670336343633], [-0.5039571952176904, 0.29001611146773776], [0.14423073542166187, 0.5615262365996131], [-0.43943225115415074, -0.3615525094284352], [0.3589446147082017, 0.1877225458389722], [-0.02423177665469678, -0.11374708022695135], [-0.4736507733653138, -0.01624111728903721], [0.3628128088608419, 0.3908203155845661], [-0.10204313800711873, 0.5897888425451232], [0.5700048070080707, -0.018160966244513133], [0.3728919012064903, -0.08310428731736808], [-0.308720962699157, 0.1617466153727095], [4.686328731251521e-05, -0.3932258493293581]]",density,black,,,D003,visual,1,[],"['1', '2', '3', '4']",1,2023.2.3,harveyvisual,2.1,[],8,0.75,
0,pause,0.4,None,None,None,0,141,141,141,,,,,,,,,,,,,D003,visual,1,[],"['1', '2', '3', '4']",1,2023.2.3,harveyvisual,2.1,[],8,0.75,
20,dot,0.3,['dot'],['density'],black,0,142,142,142,,,52.100215911865234,51.81654095649719,52.1164870262146,dot,"[0.1, 0.06, 0.06, 0.06, 0.1, 0.08, 0.1, 0.06, 0.06, 0.08, 0.1, 0.06, 0.08, 0.06, 0.06, 0.08, 0.1, 0.1, 0.1, 0.06]","[[-0.24345751871927152, -0.08099571310975334], [-0.28209209395122736, -0.3772642102414522], [0.2844227875290579, 0.13592410691254242], [0.08429446601209134, -0.4618588479248834], [-0.15745675847386847, 0.38808585318083166], [-0.48270509426477826, -0.03155332206551592], [0.4897723508724282, -0.26120732297039007], [0.30381851725175324, 0.49604735099004327], [-0.4372116494791032, -0.22364246901869103], [-0.037367737201439266, -0.21212781529958907], [-0.11178839919728306, 0.11557558241266341], [0.23067528885771327, -0.15129937309848618], [-0.09819636080959393, -0.5228018132295514], [-0.344305085552152, 0.3079686073123683], [0.05667227765271887, 0.3580524813465722], [0.41845251603074496, -0.07414400940413418], [0.2640135464234217, -0.3603719854498977], [0.5572053724498162, 0.11870948998569722], [-0.003282772977884596, 0.559194654657125], [0.49643229189431837, 0.3437443791034143]]",density,black,,,D003,visual,1,[],"['1', '2', '3', '4']",1,2023.2.3,harveyvisual,2.1,[],8,0.75,
0,pause,0.4,None,None,None,0,143,143,143,,,,,,,,,,,,,D003,visual,1,[],"['1', '2', '3', '4']",1,2023.2.3,harveyvisual,2.1,[],8,0.75,
20,dot,0.3,['dot'],['density'],black,0,144,144,144,,,52.800220012664795,52.5164909362793,52.81647300720215,dot,"[0.1, 0.06, 0.1, 0.06, 0.08, 0.08, 0.06, 0.06, 0.06, 0.08, 0.08, 0.1, 0.1, 0.1, 0.1, 0.06, 0.1, 0.08, 0.1, 0.1]","[[-0.4976987166101362, -0.00935848047455573], [0.18430520142915663, -0.3692695624645578], [-0.22948374681208783, 0.19836956166695752], [0.3931979008187534, 0.16956866121696668], [-0.051269384019399955, 0.31735673309723766], [0.20413945745762918, 0.3224381778218658], [-0.1356344248004806, 0.5322245278231837], [0.11264261135551668, -0.1839344937059394], [-0.5140354939699471, -0.21691955861544934], [0.47791034707388114, -0.20905136313892614], [-0.2650875682184929, -0.03870467871161165], [0.21755692446407404, 0.06643090009331098], [-0.11796375256099023, -0.429053514803161], [-0.32963103124764503, -0.41080288005966037], [0.07606598242955975, 0.4945110690963469], [-0.501069789767235, 0.2276629742311711], [0.3935929263134428, -0.41315109259016947], [0.5943979803356613, -0.017031153893095716], [0.11621106697224426, -0.5821956174970241], [0.010278631067332289, 0.07752255881577186]]",density,black,,,D003,visual,1,[],"['1', '2', '3', '4']",1,2023.2.3,harveyvisual,2.1,[],8,0.75,
0,pause,0.4,None,None,None,0,145,145,145,,,,,,,,,,,,,D003,visual,1,[],"['1', '2', '3', '4']",1,2023.2.3,harveyvisual,2.1,[],8,0.75,
20,dot,0.3,['dot'],['density'],black,0,146,146,146,,,53.50024390220642,53.21659803390503,53.51658797264099,dot,"[0.06, 0.1, 0.1, 0.06, 0.1, 0.08, 0.08, 0.1, 0.1, 0.1, 0.08, 0.06, 0.08, 0.1, 0.1, 0.06, 0.1, 0.1, 0.06, 0.06]","[[0.5173600349244917, 0.290321698903478], [-0.03593869937285532, 0.2328853803917993], [-0.2974230831451641, -0.23726314018878836], [0.6031044402126452, 0.016587635060255145], [0.35452923886870846, -0.16758365623032034], [0.36389941074192533, 0.43231711508921356], [0.227051883002939, 0.2159273232345974], [-0.12191636705319159, -0.3341862377191945], [0.37937747606637673, -0.3577786584565648], [0.08492763637934031, -0.07225171989635859], [-0.35476952937729944, 0.35933252851729175], [-0.2977952057580502, 0.16557092237558646], [-0.6049609866027066, 0.007451150173450018], [-0.0036831405245527638, 0.4365309949829642], [-0.2846915591356301, -0.04103221852913036], [0.16354758020973104, -0.44198868734105573], [-0.5053526511967055, -0.18021130058494625], [0.4212058760425651, 0.11396193420139483], [-0.10468467281959759, 0.02232948361253273], [-0.24059570727052526, -0.5252201925347358]]",density,black,,,D003,visual,1,[],"['1', '2', '3', '4']",1,2023.2.3,harveyvisual,2.1,[],8,0.75,
0,pause,0.4,None,None,None,0,147,147,147,,,,,,,,,,,,,D003,visual,1,[],"['1', '2', '3', '4']",1,2023.2.3,harveyvisual,2.1,[],8,0.75,
20,dot,0.3,['dot'],['density'],black,0,148,148,148,,,54.20021390914917,53.916587829589844,54.21644592285156,dot,"[0.06, 0.1, 0.1, 0.08, 0.06, 0.06, 0.08, 0.08, 0.06, 0.06, 0.1, 0.1, 0.1, 0.08, 0.1, 0.08, 0.06, 0.06, 0.06, 0.1]","[[-0.25659539989197305, -0.08914178309853799], [-0.4922129770642667, -0.2401689886594986], [-0.48745429563190146, 0.19884099894342477], [-0.012140281216525994, 0.6044829637118023], [0.5904301999398583, 0.02402849895828943], [-0.20297841938146716, -0.4449201131238768], [0.28584776104208953, 0.2141664538025999], [0.14999091663995856, 0.07839542415218548], [0.3998956885826045, -0.06549288371282136], [0.2704519021170092, 0.42314699863145466], [0.4975174515535624, 0.27180215788012235], [-0.4701150703638848, -0.017643456353293507], [-0.27565298682415146, 0.48899739102658213], [-0.2361545009048312, 0.2742978543505198], [0.22639292971000036, -0.18343211095451384], [0.12556026068766757, -0.48097715100608285], [-0.08022501764865697, 0.15094262433965555], [0.0609592551659095, 0.305348039962166], [0.35779789462049527, -0.39914407149248843], [0.5592649226987695, -0.1688661456776336]]",density,black,,,D003,visual,1,[],"['1', '2', '3', '4']",1,2023.2.3,harveyvisual,2.1,[],8,0.75,
0,pause,0.4,None,None,None,0,149,149,149,,,,,,,,,,,,,D003,visual,1,[],"['1', '2', '3', '4']",1,2023.2.3,harveyvisual,2.1,[],8,0.75,
20,dot,0.3,['dot'],['density'],black,0,150,150,150,,,54.90022087097168,54.616426944732666,54.91644287109375,dot,"[0.06, 0.08, 0.06, 0.1, 0.08, 0.08, 0.06, 0.1, 0.08, 0.06, 0.06, 0.06, 0.06, 0.1, 0.08, 0.06, 0.1, 0.08, 0.1, 0.1]","[[-0.13404312496478166, 0.4665944635308099], [0.20351851956928624, -0.5541863589757904], [0.06067628139797954, -0.10317936478009276], [-0.31627879066277914, 0.23803657745197537], [-0.39431340035767987, -0.11076716527897978], [-0.21612075982774887, -0.3851111716712409], [0.3326598051233922, 0.2298222321614325], [0.5728854885634292, -0.0028327098944064544], [0.32393478452089197, 0.49423669594204134], [0.004465731656931982, 0.2387977648793166], [-0.171452060742113, -0.12353303298625717], [-0.5357542409595512, -0.23829372154467954], [-0.6030254298014212, -0.013340529125224543], [-0.4348802656948021, 0.41610606244262527], [0.11845334807456076, -0.3227761083708017], [0.4925843260631845, -0.2265625231782211], [0.32516432371724835, -0.35817836943831766], [-0.416529886894357, -0.3999983087114899], [0.2901414158333996, -0.073474483828316], [0.545086494431111, 0.2321215981391005]]",density,black,,,D003,visual,1,[],"['1', '2', '3', '4']",1,2023.2.3,harveyvisual,2.1,[],8,0.75,
0,pause,0.4,None,None,None,0,151,151,151,,,,,,,,,,,,,D003,visual,1,[],"['1', '2', '3', '4']",1,2023.2.3,harveyvisual,2.1,[],8,0.75,
20,dot,0.3,['dot'],['density'],black,0,152,152,152,,,55.60023093223572,55.316640853881836,55.616413831710815,dot,"[0.06, 0.06, 0.08, 0.08, 0.08, 0.08, 0.1, 0.1, 0.1, 0.06, 0.08, 0.08, 0.1, 0.1, 0.06, 0.06, 0.08, 0.1, 0.08, 0.06]","[[-0.15647342470348935, -0.05937256189167717], [0.3138634696538991, 0.1385001468234015], [-0.10999361850881534, -0.37633297272570276], [-0.4778217931119598, -0.19083067672626042], [-0.2815966187898, 0.4144394219275275], [-0.390375233022858, 0.14915708148490026], [0.37584640245634005, -0.285740234014617], [0.5830419012378033, -0.06064318969946046], [-0.07637830386724731, 0.36811517216523104], [0.15607010571987534, 0.31523364474684035], [-0.3243529927302397, -0.397897085587805], [0.3621885067560271, 0.33089272747711235], [0.2133579830225143, 0.5374612935948538], [0.04160424237704019, -0.1263490462715396], [-0.13804330378466045, -0.5730204529339884], [0.17410764822109204, -0.41290236444245754], [-0.587070938596912, 0.02573914557454207], [0.541531787966473, 0.25666870656136026], [0.02300115881287379, 0.07211278533940224], [0.3484321265967474, -0.08323417383506754]]",density,black,,,D003,visual,1,[],"['1', '2', '3', '4']",1,2023.2.3,harveyvisual,2.1,[],8,0.75,
0,pause,0.4,None,None,None,0,153,153,153,,,,,,,,,,,,,D003,visual,1,[],"['1', '2', '3', '4']",1,2023.2.3,harveyvisual,2.1,[],8,0.75,
20,dot,0.3,['dot'],['density'],white,0,154,154,154,,,56.300222873687744,56.01640701293945,56.31660795211792,dot,"[0.1, 0.08, 0.1, 0.1, 0.1, 0.06, 0.06, 0.1, 0.08, 0.06, 0.06, 0.1, 0.1, 0.1, 0.1, 0.08, 0.08, 0.1, 0.08, 0.08]","[[-0.10399857092622555, -0.3417139549099264], [0.4724391976946961, -0.18729095669330378], [-0.25398034507886497, -0.06087350412638809], [0.04927059865724559, 0.06284444799871369], [0.1093655415661432, 0.5355303077597934], [-0.5226548882209018, 0.03775450935502267], [0.3577849189945813, 0.24863152775276426], [-0.41099220071578413, 0.36274764294794687], [0.2611057514700812, -0.33469694521438587], [-0.298083095866798, -0.4726463591697657], [-0.06475010082753907, 0.34115404952824946], [0.4792554307999949, 0.07475068248708594], [0.4478575939751367, -0.40453433901569286], [0.04743012875031061, -0.15469708336790022], [-0.08040067127322348, 0.5723159630788467], [-0.48797202660364164, -0.34897141557382844], [0.1378517749259507, 0.2917512846787994], [-0.15666566040637198, 0.11014322672954857], [-0.2648698613928473, 0.5208690700885745], [0.19434794567013902, -0.5684829240012022]]",density,white,,,D003,visual,1,[],"['1', '2', '3', '4']",1,2023.2.3,harveyvisual,2.1,[],8,0.75,
0,pause,0.4,None,None,None,0,155,155,155,,,,,,,,,,,1,56.36222195625305,D003,visual,1,[],"['1', '2', '3', '4']",1,2023.2.3,harveyvisual,2.1,[],8,0.75,
9,dot,0.3,['dot'],['density'],white,0,156,156,156,,,57.00021290779114,56.71638894081116,57.01651382446289,dot,"[0.1, 0.08, 0.06, 0.08, 0.06, 0.08, 0.06, 0.08, 0.1]","[[0.26246064217380705, -0.20881461689055444], [-0.05738061480455322, -0.2104867327221427], [-0.15279665209492657, -0.4570696492981838], [-0.25848085101471047, 0.03539482855188907], [0.05438928923437074, -0.041842351158073866], [-0.266438460152573, -0.22510974363943476], [-0.08630847597628627, 0.16925380219028288], [0.1378984379274782, 0.16880467564350782], [0.14927440204233722, -0.41110624343475755]]",density,white,,,D003,visual,1,[],"['1', '2', '3', '4']",1,2023.2.3,harveyvisual,2.1,[],8,0.75,
0,pause,0.4,None,None,None,0,157,157,157,,,,,,,,,,,1,56.994953870773315,D003,visual,1,[],"['1', '2', '3', '4']",1,2023.2.3,harveyvisual,2.1,[],8,0.75,
9,dot,0.3,['dot'],['density'],black,0,158,158,158,,,57.70020604133606,57.41637682914734,57.71635103225708,dot,"[0.06, 0.1, 0.08, 0.08, 0.08, 0.1, 0.08, 0.08, 0.06]","[[0.1897356465634014, 0.5279682873488559], [0.32378874068874214, 0.21764355715549547], [-0.02258392144612686, 0.1538672511300514], [0.18768343673053406, 0.06258281167321837], [0.4001161654736714, 0.031858124591620046], [0.03700916369328307, 0.37047593331345124], [0.18810723797826276, -0.14148750743097815], [-0.1502435433980558, -0.03059561201510329], [-0.21808568641731116, 0.28352793851031305]]",density,black,,,D003,visual,1,[],"['1', '2', '3', '4']",1,2023.2.3,harveyvisual,2.1,[],8,0.75,
0,pause,0.4,None,None,None,0,159,159,159,,,,,,,,,,,,,D003,visual,1,[],"['1', '2', '3', '4']",1,2023.2.3,harveyvisual,2.1,[],8,0.75,
9,dot,0.3,['dot'],['density'],black,0,160,160,160,,,58.40021085739136,58.116360902786255,58.41633105278015,dot,"[0.08, 0.1, 0.06, 0.06, 0.06, 0.1, 0.08, 0.1, 0.06]","[[0.27429149071172837, 0.34251676390746333], [0.46797507249945486, 0.005491811463162166], [0.21235580877939833, 0.08757146436558581], [0.046223583492975936, 0.2932249054251131], [0.07051592556679111, -0.0704922843318231], [0.30438918969270623, -0.13028831600800136], [0.11534598117609637, 0.5236829685630697], [-0.06673610159464062, 0.12515255452502297], [-0.14439101605953233, -0.1332028051536465]]",density,black,,,D003,visual,1,[],"['1', '2', '3', '4']",1,2023.2.3,harveyvisual,2.1,[],8,0.75,
0,pause,0.4,None,None,None,0,161,161,161,,,,,,,,,,,,,D003,visual,1,[],"['1', '2', '3', '4']",1,2023.2.3,harveyvisual,2.1,[],8,0.75,
9,dot,0.3,['dot'],['density'],white,0,162,162,162,,,59.100234031677246,58.81632995605469,59.116493940353394,dot,"[0.06, 0.08, 0.06, 0.06, 0.06, 0.08, 0.08, 0.08, 0.1]","[[-0.13146557112902973, 0.14116723461389186], [0.2951467361821443, -0.02824752732805288], [0.19428532799116477, -0.23589609671221848], [-0.28731157875063357, -0.1506919145754202], [-0.013954936164563217, -0.2914313940092583], [0.05437169614590384, 0.05057158482376688], [-0.11710547218270359, -0.5628603002908775], [-0.3181416531292253, -0.36750682532956547], [-0.10064922490671671, -0.07835054634105423]]",density,white,,,D003,visual,1,[],"['1', '2', '3', '4']",1,2023.2.3,harveyvisual,2.1,[],8,0.75,
0,pause,0.4,None,None,None,0,163,163,163,,,,,,,,,,,1,59.21845602989197,D003,visual,1,[],"['1', '2', '3', '4']",1,2023.2.3,harveyvisual,2.1,[],8,0.75,
9,dot,0.3,['dot'],['density'],black,0,164,164,164,,,59.80020594596863,59.516505002975464,59.816328048706055,dot,"[0.08, 0.1, 0.1, 0.08, 0.08, 0.08, 0.06, 0.06, 0.08]","[[-0.01550530976013749, -0.4685693709261764], [-0.18673980358629047, -0.03677939788938074], [-0.492500386343057, -0.31631588298646995], [-0.31211872613566405, -0.49615226168915794], [-0.29213402726227655, -0.2779210730957987], [-0.48141959868665407, -0.11483975315711048], [0.2805727548720413, -0.20550850813502752], [-0.0662162642732561, -0.2200496541038322], [0.06776853683421198, -0.046300179137656175]]",density,black,,,D003,visual,1,[],"['1', '2', '3', '4']",1,2023.2.3,harveyvisual,2.1,[],8,0.75,
0,pause,0.4,None,None,None,0,165,165,165,,,,,,,,,,,,,D003,visual,1,[],"['1', '2', '3', '4']",1,2023.2.3,harveyvisual,2.1,[],8,0.75,
9,dot,0.3,['dot'],['density'],black,0,166,166,166,,,60.50020885467529,60.21632504463196,60.5163049697876,dot,"[0.1, 0.08, 0.08, 0.06, 0.08, 0.06, 0.06, 0.1, 0.06]","[[0.16751238249231654, 0.5577961240465925], [-0.27296145406993233, 0.4862198967380745], [-0.029185467938656964, 0.15062746822878756], [-0.0646201772689005, 0.5687739076077192], [0.1739328392933146, 0.3418730943321047], [-0.141244529573345, 0.32572795328380527], [-0.5161698704605421, 0.1834233825743511], [0.21727962056556488, 0.12903401361548372], [-0.23724269532595021, 0.10991409904419316]]",density,black,,,D003,visual,1,[],"['1', '2', '3', '4']",1,2023.2.3,harveyvisual,2.1,[],8,0.75,
0,pause,0.4,None,None,None,0,167,167,167,,,,,,,,,,,,,D003,visual,1,[],"['1', '2', '3', '4']",1,2023.2.3,harveyvisual,2.1,[],8,0.75,
8,dot,0.3,['dot'],['density'],black,0,168,168,168,,,61.200214862823486,60.916239976882935,61.21627497673035,dot,"[0.1, 0.1, 0.1, 0.1, 0.06, 0.1, 0.1, 0.06]","[[0.3364035831170529, 0.12390393923093283], [0.4336864367158133, 0.35981147627037974], [0.06743640335689947, 0.0759148581953004], [-0.079559988999742, 0.39531058321326396], [0.21309668101319243, 0.48855257098982907], [0.23478258025928536, -0.08446837776908474], [-0.12854716397353463, 0.17339976512773136], [0.14965136140762586, 0.26897313353206964]]",density,black,,,D003,visual,1,[],"['1', '2', '3', '4']",1,2023.2.3,harveyvisual,2.1,[],8,0.75,
0,pause,0.4,None,None,None,0,169,169,169,,,,,,,,,,,,,D003,visual,1,[],"['1', '2', '3', '4']",1,2023.2.3,harveyvisual,2.1,[],8,0.75,
8,dot,0.3,['dot'],['density'],black,0,170,170,170,,,61.900224924087524,61.616238832473755,61.916247844696045,dot,"[0.06, 0.1, 0.08, 0.06, 0.08, 0.08, 0.1, 0.06]","[[-0.3167478768396544, -0.2124469325344782], [0.11150510454677101, -0.25361932254341324], [0.17657050060311263, -0.496926349220185], [0.20833757931744315, -0.0002320808252021913], [-0.0015234955214533466, 0.034722119540356526], [-0.10690598217119997, -0.19846612199298916], [0.32498422138424443, -0.23444872628509345], [-0.054741640541526956, -0.4230750989992696]]",density,black,,,D003,visual,1,[],"['1', '2', '3', '4']",1,2023.2.3,harveyvisual,2.1,[],8,0.75,
0,pause,0.4,None,None,None,0,171,171,171,,,,,,,,,,,,,D003,visual,1,[],"['1', '2', '3', '4']",1,2023.2.3,harveyvisual,2.1,[],8,0.75,
8,dot,0.3,['dot'],['density'],black,0,172,172,172,,,62.60022592544556,62.31626296043396,62.61624884605408,dot,"[0.06, 0.06, 0.1, 0.06, 0.06, 0.1, 0.1, 0.1]","[[0.28112832868380594, 0.3075763237432237], [-0.21381995858864508, 0.197554992839043], [0.14035436555963224, -0.1470740351963634], [-0.04856350071149823, -0.017306043905309515], [0.12070301707556046, 0.11279463428917226], [0.35236156425888765, 0.046198621115284964], [-0.012223412543992913, 0.3265760435025566], [0.11745206869397669, 0.49408919182137495]]",density,black,,,D003,visual,1,[],"['1', '2', '3', '4']",1,2023.2.3,harveyvisual,2.1,[],8,0.75,
0,pause,0.4,None,None,None,0,173,173,173,,,,,,,,,,,,,D003,visual,1,[],"['1', '2', '3', '4']",1,2023.2.3,harveyvisual,2.1,[],8,0.75,
8,dot,0.3,['dot'],['density'],black,0,174,174,174,,,63.300206899642944,63.0161828994751,63.31623291969299,dot,"[0.1, 0.08, 0.06, 0.06, 0.1, 0.06, 0.06, 0.1]","[[-0.2395708272612018, -0.3613018167456044], [-0.39529086986423073, -0.13116056396528103], [0.016143118738118, -0.3000453801144436], [-0.10247857353615338, 0.12176090555598315], [0.11784264820349834, -0.12422453235794288], [-0.1468533202112338, -0.18280007972172757], [-0.31504288856899026, 0.06147683711297207], [0.2614313121475242, -0.33215718180641224]]",density,black,,,D003,visual,1,[],"['1', '2', '3', '4']",1,2023.2.3,harveyvisual,2.1,[],8,0.75,
0,pause,0.4,None,None,None,0,175,175,175,,,,,,,,,,,,,D003,visual,1,[],"['1', '2', '3', '4']",1,2023.2.3,harveyvisual,2.1,[],8,0.75,
8,dot,0.3,['dot'],['density'],black,0,176,176,176,,,64.00021195411682,63.716228008270264,64.01621389389038,dot,"[0.06, 0.1, 0.06, 0.06, 0.1, 0.1, 0.06, 0.08]","[[-0.4639556696772753, 0.10472599959088454], [-0.22970357876872852, 0.24758381400794424], [-0.060094057158436125, -0.14613975383200573], [-0.022569829209962654, 0.2677975872319761], [-0.3077859326170116, -0.10488986274105515], [-0.16040535020917, 0.031608708128470005], [-0.5175577931920246, -0.20517812764611504], [0.1194024413118107, 0.007837779916585986]]",density,black,,,D003,visual,1,[],"['1', '2', '3', '4']",1,2023.2.3,harveyvisual,2.1,[],8,0.75,
0,pause,0.4,None,None,None,0,177,177,177,,,,,,,,,,,,,D003,visual,1,[],"['1', '2', '3', '4']",1,2023.2.3,harveyvisual,2.1,[],8,0.75,
8,dot,0.3,['dot'],['density'],black,0,178,178,178,,,64.70022583007812,64.41621804237366,64.7161910533905,dot,"[0.08, 0.06, 0.1, 0.08, 0.06, 0.06, 0.1, 0.06]","[[-0.3869743371455666, 0.15388434217336297], [0.11424038932868294, 0.18734519769139274], [-0.06602262913525138, -0.20199883598953133], [-0.13221522482970946, 0.16661696891490863], [-0.2408224703751142, -0.03724946932993881], [-0.01219752370661542, -0.004327099574405561], [-0.20345141844285677, 0.44978546357431476], [0.2450906497331586, -0.012808503174003826]]",density,black,,,D003,visual,1,[],"['1', '2', '3', '4']",1,2023.2.3,harveyvisual,2.1,[],8,0.75,
0,pause,0.4,None,None,None,0,179,179,179,,,,,,,,,,,,,D003,visual,1,[],"['1', '2', '3', '4']",1,2023.2.3,harveyvisual,2.1,[],8,0.75,
7,dot,0.3,['dot'],['density'],black,0,180,180,180,,,65.40021085739136,65.11613488197327,65.41611504554749,dot,"[0.1, 0.1, 0.06, 0.08, 0.1, 0.1, 0.06]","[[0.06935229908748385, 0.4911641494940837], [-0.19266199922505295, 0.07836852906048222], [0.055274369019684175, 0.020452523162812593], [0.26239471350362015, 0.1001529216481179], [-0.06036973858781391, 0.3360513952533211], [-0.2638544135394649, 0.29089327984911306], [0.14813816713374972, 0.28344041791591096]]",density,black,,,D003,visual,1,[],"['1', '2', '3', '4']",1,2023.2.3,harveyvisual,2.1,[],8,0.75,
0,pause,0.4,None,None,None,0,181,181,181,,,,,,,,,,,,,D003,visual,1,[],"['1', '2', '3', '4']",1,2023.2.3,harveyvisual,2.1,[],8,0.75,
7,dot,0.3,['dot'],['density'],black,0,182,182,182,,,66.10023093223572,65.81613397598267,66.11609482765198,dot,"[0.1, 0.08, 0.06, 0.06, 0.06, 0.06, 0.1]","[[-0.1635229753841098, 0.12186382262109141], [0.03437657187081179, 0.5178389267683822], [0.324184412335695, 0.17931743601205324], [0.08929018524031027, 0.11005745596178185], [-0.1318259817332877, 0.4026967659136047], [-0.053046683696667, -0.06058584598870606], [0.042745683665752716, 0.304616966822181]]",density,black,,,D003,visual,1,[],"['1', '2', '3', '4']",1,2023.2.3,harveyvisual,2.1,[],8,0.75,
0,pause,0.4,None,None,None,0,183,183,183,,,,,,,,,,,,,D003,visual,1,[],"['1', '2', '3', '4']",1,2023.2.3,harveyvisual,2.1,[],8,0.75,
7,dot,0.3,['dot'],['density'],black,0,184,184,184,,,66.80023002624512,66.51616287231445,66.81621503829956,dot,"[0.06, 0.1, 0.06, 0.06, 0.08, 0.06, 0.1]","[[-0.2877807563129739, -0.2392998172879968], [-0.4930284393840153, 0.02918626900802282], [-0.13307942101536208, -0.4135874564509098], [-0.1727922191076213, -0.04289663127052677], [-0.3943840059764042, -0.4351600913800347], [-0.03321109949484203, -0.21096883087625085], [-0.5418728138863746, -0.1990057631286019]]",density,black,,,D003,visual,1,[],"['1', '2', '3', '4']",1,2023.2.3,harveyvisual,2.1,[],8,0.75,
0,pause,0.4,None,None,None,0,185,185,185,,,,,,,,,,,,,D003,visual,1,[],"['1', '2', '3', '4']",1,2023.2.3,harveyvisual,2.1,[],8,0.75,
7,dot,0.3,['dot'],['density'],black,0,186,186,186,,,67.50021886825562,67.21612787246704,67.51607489585876,dot,"[0.1, 0.1, 0.08, 0.08, 0.1, 0.08, 0.06]","[[0.21536278937261513, -0.01733091677764761], [-0.08931035591216824, -0.05246349631749078], [0.21870610454298933, 0.21067491250041093], [-0.1587576617113587, 0.26068369883413384], [0.04623079518225047, 0.4568527369480977], [0.022942391481424712, 0.13939122930077608], [-0.27674911739568203, 0.09730719745121558]]",density,black,,,D003,visual,1,[],"['1', '2', '3', '4']",1,2023.2.3,harveyvisual,2.1,[],8,0.75,
0,pause,0.4,None,None,None,0,187,187,187,,,,,,,,,,,,,D003,visual,1,[],"['1', '2', '3', '4']",1,2023.2.3,harveyvisual,2.1,[],8,0.75,
7,dot,0.3,['dot'],['density'],black,0,188,188,188,,,68.2002329826355,67.9161229133606,68.21611905097961,dot,"[0.08, 0.1, 0.08, 0.06, 0.08, 0.08, 0.06]","[[-0.23675386446936744, -0.019099737415117023], [-0.3793299299598963, 0.3840296974489508], [0.16444052853698826, 0.25964081185693966], [-0.17441972694422359, 0.2376971805458075], [0.025313303261310992, 0.0859287266400301], [-0.3760941870171968, 0.1722047307528389], [-0.012854506600276856, 0.3778399739802858]]",density,black,,,D003,visual,1,[],"['1', '2', '3', '4']",1,2023.2.3,harveyvisual,2.1,[],8,0.75,
0,pause,0.4,None,None,None,0,189,189,189,,,,,,,,,,,,,D003,visual,1,[],"['1', '2', '3', '4']",1,2023.2.3,harveyvisual,2.1,[],8,0.75,
7,dot,0.3,['dot'],['density'],black,0,190,190,190,,,68.90021395683289,68.61613297462463,68.91614294052124,dot,"[0.1, 0.06, 0.1, 0.08, 0.08, 0.1, 0.08]","[[0.373835093542847, 0.13553027784675922], [0.025265531087721685, -0.15487691700731251], [0.38086488534306906, -0.0720131222026176], [0.4315741710459581, -0.28075472739566504], [0.18097069018870113, 0.01647246612045595], [0.1962900518120967, -0.2624101628120604], [0.08955660480178401, 0.2127528718980948]]",density,black,,,D003,visual,1,[],"['1', '2', '3', '4']",1,2023.2.3,harveyvisual,2.1,[],8,0.75,
0,pause,0.4,None,None,None,0,191,191,191,,,,,,,,,,,,,D003,visual,1,[],"['1', '2', '3', '4']",1,2023.2.3,harveyvisual,2.1,[],8,0.75,
6,dot,0.3,['dot'],['density'],black,0,192,192,192,,,69.60022592544556,69.31615900993347,69.61602997779846,dot,"[0.06, 0.06, 0.08, 0.08, 0.08, 0.06]","[[-0.21871154593458392, 0.523205648483303], [-0.10311842393244862, 0.3355489225101837], [0.008055670172287269, 0.5366903261171385], [0.1303263863168633, 0.3782575370349718], [0.03185769749340688, 0.17145177849191712], [-0.2810167974491763, 0.15418865533644557]]",density,black,,,D003,visual,1,[],"['1', '2', '3', '4']",1,2023.2.3,harveyvisual,2.1,[],8,0.75,
0,pause,0.4,None,None,None,0,193,193,193,,,,,,,,,,,,,D003,visual,1,[],"['1', '2', '3', '4']",1,2023.2.3,harveyvisual,2.1,[],8,0.75,
6,dot,0.3,['dot'],['density'],black,0,194,194,194,,,70.30022382736206,70.01601791381836,70.31600904464722,dot,"[0.08, 0.06, 0.06, 0.1, 0.06, 0.06]","[[-0.060066269329224556, -0.3459973645598818], [-0.2267112282887438, -0.46433083725857055], [-0.03368736353914721, -0.0592740518520544], [0.1129416353875032, -0.20466059509733167], [0.13908697530976044, -0.42386339769443276], [-0.2931789080149146, -0.2669036372638095]]",density,black,,,D003,visual,1,[],"['1', '2', '3', '4']",1,2023.2.3,harveyvisual,2.1,[],8,0.75,
0,pause,0.4,None,None,None,0,195,195,195,,,,,,,,,,,,,D003,visual,1,[],"['1', '2', '3', '4']",1,2023.2.3,harveyvisual,2.1,[],8,0.75,
6,dot,0.3,['dot'],['density'],black,0,196,196,196,,,71.00022983551025,70.71600604057312,71.01598882675171,dot,"[0.08, 0.08, 0.1, 0.08, 0.1, 0.06]","[[-0.25052904509636076, -0.46440103658729176], [-0.12772535636451293, 0.010821502090106766], [-0.031043743050516784, -0.3649555915866845], [-0.3754529733759062, -0.18839395716731677], [0.07378414788444272, -0.15062955699655364], [-0.17220243018048728, -0.20498996683935267]]",density,black,,,D003,visual,1,[],"['1', '2', '3', '4']",1,2023.2.3,harveyvisual,2.1,[],8,0.75,
0,pause,0.4,None,None,None,0,197,197,197,,,,,,,,,,,,,D003,visual,1,[],"['1', '2', '3', '4']",1,2023.2.3,harveyvisual,2.1,[],8,0.75,
6,dot,0.3,['dot'],['density'],white,0,198,198,198,,,71.70025205612183,71.41598582267761,71.71600198745728,dot,"[0.08, 0.1, 0.06, 0.1, 0.06, 0.1]","[[0.5108460974500976, 0.10904555526594768], [0.5033362887342737, -0.29902707163897635], [0.3062164979741722, 0.05793810054487639], [0.22849736264613016, -0.28041776899433873], [0.12909977445373055, -0.06500178518750158], [0.41889526300287094, -0.11616960582105396]]",density,white,,,D003,visual,1,[],"['1', '2', '3', '4']",1,2023.2.3,harveyvisual,2.1,[],8,0.75,
0,pause,0.4,None,None,None,0,199,199,199,,,,,,,,,,,1,71.78277206420898,D003,visual,1,[],"['1', '2', '3', '4']",1,2023.2.3,harveyvisual,2.1,[],8,0.75,
6,dot,0.3,['dot'],['density'],black,0,200,200,200,,,72.40022683143616,72.11601185798645,72.41595697402954,dot,"[0.08, 0.1, 0.08, 0.08, 0.06, 0.06]","[[-0.4130096743352808, -0.09152271377164663], [-0.19778223104980006, -0.03862987845790588], [-0.5782793278508197, 0.04067119283421001], [-0.2942915267906656, -0.3673297053134895], [-0.33560074172492643, 0.119885218799542], [-0.5263932498355091, -0.25924495598585295]]",density,black,,,D003,visual,1,[],"['1', '2', '3', '4']",1,2023.2.3,harveyvisual,2.1,[],8,0.75,
0,pause,0.4,None,None,None,0,201,201,201,,,,,,,,,,,,,D003,visual,1,[],"['1', '2', '3', '4']",1,2023.2.3,harveyvisual,2.1,[],8,0.75,
6,dot,0.3,['dot'],['density'],black,0,202,202,202,,,73.10023403167725,72.81593489646912,73.11592102050781,dot,"[0.08, 0.1, 0.08, 0.06, 0.08, 0.1]","[[0.3299424372810393, 0.4114780133894161], [0.051944887288218326, -0.03233758374135307], [0.4337222981537534, -0.07578498258626121], [0.10477943773033714, 0.1703675017914044], [0.3400878522727408, 0.20016066552806494], [0.2510029109880425, 0.01747244452819591]]",density,black,,,D003,visual,1,[],"['1', '2', '3', '4']",1,2023.2.3,harveyvisual,2.1,[],8,0.75,
0,pause,0.4,None,None,None,0,203,203,203,,,,,,,,,,,,,D003,visual,1,[],"['1', '2', '3', '4']",1,2023.2.3,harveyvisual,2.1,[],8,0.75,
5,dot,0.3,['dot'],['density'],black,0,204,204,204,,,73.80023002624512,73.5159080028534,73.81589984893799,dot,"[0.08, 0.06, 0.08, 0.06, 0.1]","[[-0.08906257038347729, 0.3326351968500321], [0.2173987091792188, 0.026220721131276364], [0.07996259445097068, 0.4821024141609844], [0.14345365083950706, 0.2501481494916038], [-0.03323208063638199, 0.08804517681276208]]",density,black,,,D003,visual,1,[],"['1', '2', '3', '4']",1,2023.2.3,harveyvisual,2.1,[],8,0.75,
0,pause,0.4,None,None,None,0,205,205,205,,,,,,,,,,,,,D003,visual,1,[],"['1', '2', '3', '4']",1,2023.2.3,harveyvisual,2.1,[],8,0.75,
5,dot,0.3,['dot'],['density'],black,0,206,206,206,,,74.5002088546753,74.2159059047699,74.51587986946106,dot,"[0.1, 0.06, 0.06, 0.08, 0.1]","[[-0.16893136043895146, -0.20127892763881453], [-0.5727216740452047, -0.07682091551650742], [-0.343702592036276, -0.060533526953518955], [-0.5038383983260774, 0.15268268748871192], [-0.379488354443274, -0.2704310218069364]]",density,black,,,D003,visual,1,[],"['1', '2', '3', '4']",1,2023.2.3,harveyvisual,2.1,[],8,0.75,
0,pause,0.4,None,None,None,0,207,207,207,,,,,,,,,,,,,D003,visual,1,[],"['1', '2', '3', '4']",1,2023.2.3,harveyvisual,2.1,[],8,0.75,
5,dot,0.3,['dot'],['density'],black,0,208,208,208,,,75.20020890235901,74.91587090492249,75.21595501899719,dot,"[0.1, 0.08, 0.08, 0.1, 0.06]","[[-0.0036269740154891753, 0.5431219823242713], [-0.2646325594942043, 0.5073179604697073], [-0.41902475937036154, 0.37311436690984484], [-0.007163214206743488, 0.2887893175302695], [-0.2156098228659233, 0.2684642371109035]]",density,black,,,D003,visual,1,[],"['1', '2', '3', '4']",1,2023.2.3,harveyvisual,2.1,[],8,0.75,
0,pause,0.4,None,None,None,0,209,209,209,,,,,,,,,,,,,D003,visual,1,[],"['1', '2', '3', '4']",1,2023.2.3,harveyvisual,2.1,[],8,0.75,
5,dot,0.3,['dot'],['density'],black,0,210,210,210,,,75.90023589134216,75.61584782600403,75.91585397720337,dot,"[0.06, 0.08, 0.06, 0.08, 0.08]","[[0.4409169755572007, 0.017856988789309493], [0.10933872532765951, -0.20637645515835812], [0.27728831588229885, 0.198954967346464], [0.3100556643305453, -0.16532657838491105], [0.11148968869271939, 0.006469487304542018]]",density,black,,,D003,visual,1,[],"['1', '2', '3', '4']",1,2023.2.3,harveyvisual,2.1,[],8,0.75,
0,pause,0.4,None,None,None,0,211,211,211,,,,,,,,,,,,,D003,visual,1,[],"['1', '2', '3', '4']",1,2023.2.3,harveyvisual,2.1,[],8,0.75,
5,dot,0.3,['dot'],['density'],black,0,212,212,212,,,76.60021805763245,76.31584405899048,76.6158299446106,dot,"[0.1, 0.1, 0.08, 0.06, 0.1]","[[-0.08906257038347729, 0.3326351968500321], [0.2173987091792188, 0.026220721131276364], [0.07996259445097068, 0.4821024141609844], [0.14345365083950706, 0.2501481494916038], [-0.03323208063638199, 0.08804517681276208]]",density,black,,,D003,visual,1,[],"['1', '2', '3', '4']",1,2023.2.3,harveyvisual,2.1,[],8,0.75,
0,pause,0.4,None,None,None,0,213,213,213,,,,,,,,,,,,,D003,visual,1,[],"['1', '2', '3', '4']",1,2023.2.3,harveyvisual,2.1,[],8,0.75,
5,dot,0.3,['dot'],['density'],black,0,214,214,214,,,77.3002359867096,77.01584005355835,77.31589889526367,dot,"[0.1, 0.06, 0.1, 0.08, 0.06]","[[-0.11834215492801986, 0.412508379109845], [0.31881799646300274, 0.30859303438359803], [-0.06368743078099719, 0.10105058071702504], [0.1133485112468387, 0.46262203184429457], [0.11957051434631445, 0.24197418837926052]]",density,black,,,D003,visual,1,[],"['1', '2', '3', '4']",1,2023.2.3,harveyvisual,2.1,[],8,0.75,
0,pause,0.4,None,None,None,0,215,215,215,,,,,,,,,,,,,D003,visual,1,[],"['1', '2', '3', '4']",1,2023.2.3,harveyvisual,2.1,[],8,0.75,
4,dot,0.3,['dot'],['density'],black,0,216,216,216,,,78.0002269744873,77.71582198143005,78.0158109664917,dot,"[0.08, 0.08, 0.1, 0.08]","[[0.041567121943163726, -0.05225384285034155], [-0.0805660347394345, -0.3501797602382367], [-0.1695568067340664, -0.0700859275369407], [0.1361950610904954, -0.2628340353233457]]",density,black,,,D003,visual,1,[],"['1', '2', '3', '4']",1,2023.2.3,harveyvisual,2.1,[],8,0.75,
0,pause,0.4,None,None,None,0,217,217,217,,,,,,,,,,,,,D003,visual,1,[],"['1', '2', '3', '4']",1,2023.2.3,harveyvisual,2.1,[],8,0.75,
4,dot,0.3,['dot'],['density'],black,0,218,218,218,,,78.70021104812622,78.41580390930176,78.7157850265503,dot,"[0.08, 0.06, 0.06, 0.06]","[[-0.5372831058023291, 0.07679305146548565], [-0.47746952625478134, -0.11455356156484316], [-0.2888199447118168, 0.02804534169422597], [-0.3317661241759115, -0.2533775510137967]]",density,black,,,D003,visual,1,[],"['1', '2', '3', '4']",1,2023.2.3,harveyvisual,2.1,[],8,0.75,
0,pause,0.4,None,None,None,0,219,219,219,,,,,,,,,,,,,D003,visual,1,[],"['1', '2', '3', '4']",1,2023.2.3,harveyvisual,2.1,[],8,0.75,
4,dot,0.3,['dot'],['density'],black,0,220,220,220,,,79.4002149105072,79.11578583717346,79.41576886177063,dot,"[0.06, 0.08, 0.1, 0.08]","[[-0.3130108772186628, 0.4658633188731559], [0.06875292536802097, 0.3619778545149697], [-0.12928423743784842, 0.28835211797578114], [-0.08764786508193922, 0.5151731075523892]]",density,black,,,D003,visual,1,[],"['1', '2', '3', '4']",1,2023.2.3,harveyvisual,2.1,[],8,0.75,
0,pause,0.4,None,None,None,0,221,221,221,,,,,,,,,,,,,D003,visual,1,[],"['1', '2', '3', '4']",1,2023.2.3,harveyvisual,2.1,[],8,0.75,
4,dot,0.3,['dot'],['density'],black,0,222,222,222,,,80.10022687911987,79.8157548904419,80.11574482917786,dot,"[0.1, 0.08, 0.1, 0.08]","[[-0.22375678750486633, 0.16938766720995918], [-0.03438308412182927, 0.2632029670309489], [0.15312837370161694, 0.1265605786946886], [-0.035433382102469414, 0.014828983441921377]]",density,black,,,D003,visual,1,[],"['1', '2', '3', '4']",1,2023.2.3,harveyvisual,2.1,[],8,0.75,
0,pause,0.4,None,None,None,0,223,223,223,,,,,,,,,,,,,D003,visual,1,[],"['1', '2', '3', '4']",1,2023.2.3,harveyvisual,2.1,[],8,0.75,
4,dot,0.3,['dot'],['density'],black,0,224,224,224,,,80.80022597312927,80.51574993133545,80.81573104858398,dot,"[0.1, 0.06, 0.06, 0.1]","[[-0.1807894278345534, -0.050693892368996955], [-0.03778933673514029, -0.29773510453537966], [0.0747201162679791, -0.1287424711559737], [-0.02241484737224569, 0.07404475448468936]]",density,black,,,D003,visual,1,[],"['1', '2', '3', '4']",1,2023.2.3,harveyvisual,2.1,[],8,0.75,
0,pause,0.4,None,None,None,0,225,225,225,,,,,,,,,,,,,D003,visual,1,[],"['1', '2', '3', '4']",1,2023.2.3,harveyvisual,2.1,[],8,0.75,
4,dot,0.3,['dot'],['density'],black,0,226,226,226,,,81.5002269744873,81.21580004692078,81.51577186584473,dot,"[0.06, 0.1, 0.06, 0.08]","[[-0.4116264312708952, 0.16775371224632304], [-0.5618780911112883, -0.04134114392370045], [-0.3363713887364365, -0.04915619770205748], [-0.48212301157369764, -0.2249233832905235]]",density,black,,,D003,visual,1,[],"['1', '2', '3', '4']",1,2023.2.3,harveyvisual,2.1,[],8,0.75,
0,pause,0.4,None,None,None,0,227,227,227,,,,,,,,,,,,,D003,visual,1,[],"['1', '2', '3', '4']",1,2023.2.3,harveyvisual,2.1,[],8,0.75,
3,dot,0.3,['dot'],['density'],black,0,228,228,228,,,82.20023202896118,81.91588497161865,82.21569204330444,dot,"[0.1, 0.1, 0.08]","[[-0.1599523582230929, -0.020289166781496174], [-0.3458010015304564, -0.14250622038001895], [-0.3538668896253721, 0.08903610231223419]]",density,black,,,D003,visual,1,[],"['1', '2', '3', '4']",1,2023.2.3,harveyvisual,2.1,[],8,0.75,
0,pause,0.4,None,None,None,0,229,229,229,,,,,,,,,,,,,D003,visual,1,[],"['1', '2', '3', '4']",1,2023.2.3,harveyvisual,2.1,[],8,0.75,
3,dot,0.3,['dot'],['density'],black,0,230,230,230,,,82.90022897720337,82.61569499969482,82.91574501991272,dot,"[0.08, 0.06, 0.1]","[[-0.15188894406744968, -0.195193050272512], [6.772800145782267e-05, -0.040844811103836635], [-0.2045693439875358, 0.0038115475482788236]]",density,black,,,D003,visual,1,[],"['1', '2', '3', '4']",1,2023.2.3,harveyvisual,2.1,[],8,0.75,
0,pause,0.4,None,None,None,0,231,231,231,,,,,,,,,,,,,D003,visual,1,[],"['1', '2', '3', '4']",1,2023.2.3,harveyvisual,2.1,[],8,0.75,
3,dot,0.3,['dot'],['density'],black,0,232,232,232,,,83.60023093223572,83.31576204299927,83.61575293540955,dot,"[0.08, 0.06, 0.1]","[[-0.3082868261871679, -0.3137599619928766], [-0.14816041357862977, -0.19371393562593295], [-0.35304767783039576, -0.10610354059871957]]",density,black,,,D003,visual,1,[],"['1', '2', '3', '4']",1,2023.2.3,harveyvisual,2.1,[],8,0.75,
0,pause,0.4,None,None,None,0,233,233,233,,,,,,,,,,,,,D003,visual,1,[],"['1', '2', '3', '4']",1,2023.2.3,harveyvisual,2.1,[],8,0.75,
3,dot,0.3,['dot'],['density'],black,0,234,234,234,,,84.30023694038391,84.01576590538025,84.3157708644867,dot,"[0.06, 0.08, 0.1]","[[0.06695044750400271, -0.4036822973150869], [0.2898428615912539, -0.43752325319744867], [0.2484486434572057, -0.2241911098289173]]",density,black,,,D003,visual,1,[],"['1', '2', '3', '4']",1,2023.2.3,harveyvisual,2.1,[],8,0.75,
0,pause,0.4,None,None,None,0,235,235,235,,,,,,,,,,,,,D003,visual,1,[],"['1', '2', '3', '4']",1,2023.2.3,harveyvisual,2.1,[],8,0.75,
3,dot,0.3,['dot'],['density'],black,0,236,236,236,,,85.00023484230042,84.71563982963562,85.015625,dot,"[0.08, 0.06, 0.1]","[[0.3835821938049364, -0.20766469641190155], [0.321707527308891, -0.4175939354614905], [0.1897943789354585, -0.2642367600490923]]",density,black,,,D003,visual,1,[],"['1', '2', '3', '4']",1,2023.2.3,harveyvisual,2.1,[],8,0.75,
0,pause,0.4,None,None,None,0,237,237,237,,,,,,,,,,,,,D003,visual,1,[],"['1', '2', '3', '4']",1,2023.2.3,harveyvisual,2.1,[],8,0.75,
3,dot,0.3,['dot'],['density'],black,0,238,238,238,,,85.70022797584534,85.41562390327454,85.71561694145203,dot,"[0.08, 0.06, 0.08]","[[-0.5081709494874314, 0.1572673197774781], [-0.37009835501087307, 0.006965763417246156], [-0.5707172634768017, -0.07177594851347295]]",density,black,,,D003,visual,1,[],"['1', '2', '3', '4']",1,2023.2.3,harveyvisual,2.1,[],8,0.75,
0,pause,0.4,None,None,None,0,239,239,239,,,,,,,,,,,,,D003,visual,1,[],"['1', '2', '3', '4']",1,2023.2.3,harveyvisual,2.1,[],8,0.75,
2,dot,0.3,['dot'],['density'],black,0,240,240,240,,,86.40023589134216,86.11560487747192,86.41561985015869,dot,"[0.1, 0.1]","[[-0.2277318593301165, -0.35289300204507235], [-0.09400723608355734, -0.20388512549033708]]",density,black,,,D003,visual,1,[],"['1', '2', '3', '4']",1,2023.2.3,harveyvisual,2.1,[],8,0.75,
0,pause,0.4,None,None,None,0,241,241,241,,,,,,,,,,,,,D003,visual,1,[],"['1', '2', '3', '4']",1,2023.2.3,harveyvisual,2.1,[],8,0.75,
2,dot,0.3,['dot'],['density'],black,0,242,242,242,,,87.10022902488708,86.81575298309326,87.11559796333313,dot,"[0.1, 0.08]","[[0.28379985726396956, 0.19228106150028407], [0.10160376615595414, 0.2763535177041957]]",density,black,,,D003,visual,1,[],"['1', '2', '3', '4']",1,2023.2.3,harveyvisual,2.1,[],8,0.75,
0,pause,0.4,None,None,None,0,243,243,243,,,,,,,,,,,,,D003,visual,1,[],"['1', '2', '3', '4']",1,2023.2.3,harveyvisual,2.1,[],8,0.75,
2,dot,0.3,['dot'],['density'],black,0,244,244,244,,,87.80023384094238,87.51560592651367,87.81553888320923,dot,"[0.06, 0.06]","[[0.29932439847351855, -0.2783039550742582], [0.14276117392638485, -0.15345139110726028]]",density,black,,,D003,visual,1,[],"['1', '2', '3', '4']",1,2023.2.3,harveyvisual,2.1,[],8,0.75,
0,pause,0.4,None,None,None,0,245,245,245,,,,,,,,,,,,,D003,visual,1,[],"['1', '2', '3', '4']",1,2023.2.3,harveyvisual,2.1,[],8,0.75,
2,dot,0.3,['dot'],['density'],black,0,246,246,246,,,88.50022983551025,88.21552896499634,88.51563382148743,dot,"[0.1, 0.06]","[[0.4298854344354601, 0.24556028782034023], [0.23727674624932948, 0.18886586315459258]]",density,black,,,D003,visual,1,[],"['1', '2', '3', '4']",1,2023.2.3,harveyvisual,2.1,[],8,0.75,
0,pause,0.4,None,None,None,0,247,247,247,,,,,,,,,,,,,D003,visual,1,[],"['1', '2', '3', '4']",1,2023.2.3,harveyvisual,2.1,[],8,0.75,
2,dot,0.3,['dot'],['density'],black,0,248,248,248,,,89.20022892951965,88.91556596755981,89.21552205085754,dot,"[0.06, 0.08]","[[-0.15489633838679245, 0.20775043904852977], [-0.02477214636975436, 0.05468251249351026]]",density,black,,,D003,visual,1,[],"['1', '2', '3', '4']",1,2023.2.3,harveyvisual,2.1,[],8,0.75,
0,pause,0.4,None,None,None,0,249,249,249,,,,,,,,,,,,,D003,visual,1,[],"['1', '2', '3', '4']",1,2023.2.3,harveyvisual,2.1,[],8,0.75,
2,dot,0.3,['dot'],['density'],black,0,250,250,250,,,89.900221824646,89.61556482315063,89.91550397872925,dot,"[0.08, 0.1]","[[0.24818458179829028, -0.5230613829255512], [0.05315527151035717, -0.47711981276458415]]",density,black,,,D003,visual,1,[],"['1', '2', '3', '4']",1,2023.2.3,harveyvisual,2.1,[],8,0.75,
0,pause,0.4,None,None,None,0,251,251,251,,,,,,,,,,,,,D003,visual,1,[],"['1', '2', '3', '4']",1,2023.2.3,harveyvisual,2.1,[],8,0.75,
1,dot,0.3,['dot'],['density'],white,0,252,252,252,,,90.60021090507507,90.3154969215393,90.61548185348511,dot,[0.06],"[0.5363314188299194, -0.14809861569100125]",density,white,,,D003,visual,1,[],"['1', '2', '3', '4']",1,2023.2.3,harveyvisual,2.1,[],8,0.75,
0,pause,0.4,None,None,None,0,253,253,253,,,,,,,,,,,1,90.68807601928711,D003,visual,1,[],"['1', '2', '3', '4']",1,2023.2.3,harveyvisual,2.1,[],8,0.75,
1,dot,0.3,['dot'],['density'],black,0,254,254,254,,,91.30021095275879,91.01545095443726,91.31544995307922,dot,[0.06],"[0.4765699730395091, 0.34560502551113614]",density,black,,,D003,visual,1,[],"['1', '2', '3', '4']",1,2023.2.3,harveyvisual,2.1,[],8,0.75,
0,pause,0.4,None,None,None,0,255,255,255,,,,,,,,,,,,,D003,visual,1,[],"['1', '2', '3', '4']",1,2023.2.3,harveyvisual,2.1,[],8,0.75,
1,dot,0.3,['dot'],['density'],black,0,256,256,256,,,92.00021386146545,91.71545100212097,92.01542687416077,dot,[0.1],"[-0.40242150741388927, 0.27329756427278695]",density,black,,,D003,visual,1,[],"['1', '2', '3', '4']",1,2023.2.3,harveyvisual,2.1,[],8,0.75,
0,pause,0.4,None,None,None,0,257,257,257,,,,,,,,,,,,,D003,visual,1,[],"['1', '2', '3', '4']",1,2023.2.3,harveyvisual,2.1,[],8,0.75,
1,dot,0.3,['dot'],['density'],black,0,258,258,258,,,92.70021605491638,92.41541886329651,92.7154049873352,dot,[0.06],"[0.0956549371127339, 0.09579573331985794]",density,black,,,D003,visual,1,[],"['1', '2', '3', '4']",1,2023.2.3,harveyvisual,2.1,[],8,0.75,
0,pause,0.4,None,None,None,0,259,259,259,,,,,,,,,,,,,D003,visual,1,[],"['1', '2', '3', '4']",1,2023.2.3,harveyvisual,2.1,[],8,0.75,
1,dot,0.3,['dot'],['density'],black,0,260,260,260,,,93.400221824646,93.11542105674744,93.41540193557739,dot,[0.06],"[0.2830289625583117, -0.03026882548871228]",density,black,,,D003,visual,1,[],"['1', '2', '3', '4']",1,2023.2.3,harveyvisual,2.1,[],8,0.75,
0,pause,0.4,None,None,None,0,261,261,261,,,,,,,,,,,,,D003,visual,1,[],"['1', '2', '3', '4']",1,2023.2.3,harveyvisual,2.1,[],8,0.75,
1,dot,0.3,['dot'],['density'],black,0,262,262,262,,,94.10023403167725,93.8153920173645,94.11538100242615,dot,[0.1],"[-0.31757534052014, 0.30709612076893067]",density,black,,,D003,visual,1,[],"['1', '2', '3', '4']",1,2023.2.3,harveyvisual,2.1,[],8,0.75,
0,pause,0.4,None,None,None,0,263,263,263,,,,,,,,,,,,,D003,visual,1,[],"['1', '2', '3', '4']",1,2023.2.3,harveyvisual,2.1,[],8,0.75,
20,dot,0.3,['dot'],['density'],black,0,264,264,264,,,94.80021786689758,94.51538586616516,94.81537795066833,dot,"[0.08, 0.1, 0.08, 0.06, 0.06, 0.1, 0.1, 0.08, 0.08, 0.06, 0.06, 0.06, 0.1, 0.08, 0.06, 0.1, 0.1, 0.08, 0.06, 0.08]","[[0.3964002231562357, 0.12103013392893136], [-0.5517587137185734, -0.12075862983298266], [-0.04408016040464424, 0.33474732109319016], [0.1386391440152298, -0.2889854989341876], [-0.4091965409403283, 0.3939027499176046], [0.47580695533067774, -0.08235312194629435], [-0.05144110287579984, -0.5013566789432122], [0.16018755366386017, 0.2138809042932045], [-0.3008041095187307, -0.3743081014145233], [-0.001110916206417345, 0.5356525195770814], [0.2533881762575442, -0.12166108916264512], [0.379416616301002, -0.3575677947340869], [0.278769327055027, 0.4092628350029778], [0.15813055077435156, -0.5679710993164124], [-0.3767723631389803, 0.15194394981877812], [-0.1996460031767931, 0.024396829475108683], [0.5271880565352828, 0.2753934842269134], [-0.5963245540463561, 0.08079643976225159], [0.004706314810246526, 0.05915099929049483], [-0.03318989209088863, -0.19007468674900319]]",density,black,,,D003,visual,1,[],"['1', '2', '3', '4']",1,2023.2.3,harveyvisual,2.1,[],8,0.75,
0,pause,0.4,None,None,None,0,265,265,265,,,,,,,,,,,,,D003,visual,1,[],"['1', '2', '3', '4']",1,2023.2.3,harveyvisual,2.1,[],8,0.75,
20,dot,0.3,['dot'],['density'],black,0,266,266,266,,,95.50022983551025,95.21536993980408,95.51535391807556,dot,"[0.1, 0.06, 0.08, 0.06, 0.06, 0.06, 0.08, 0.1, 0.06, 0.06, 0.08, 0.08, 0.06, 0.1, 0.1, 0.06, 0.08, 0.08, 0.08, 0.06]","[[-0.5449593754293262, 0.0764697324765044], [0.2980959364543717, 0.2810513445638039], [0.523523311690221, -0.005163483277993985], [0.2585023402462646, -0.5187085370618293], [0.5407923793326562, 0.19143291208234559], [-0.3114694716696778, 0.22929240719719923], [-0.20310545300755628, 0.5659887980163981], [-0.2349333887016432, -0.16461634689461763], [-0.17205672019690998, 0.08117191230557208], [-0.034421215106991254, -0.26613094891904737], [0.22831522414956862, -0.24183903453833688], [0.43436076735183626, -0.3760189213274426], [0.05155037617624503, 0.5376235294687739], [-0.4562353276822013, 0.363728332313027], [0.1556994928053812, 0.09575194957956956], [-0.12604992476911087, -0.5824244413321009], [-0.5305581262528031, -0.25513486661384166], [0.0355480291920085, -0.46164916311792825], [-0.32346559312175344, -0.3358992630056519], [0.028588589995316993, 0.31693066051353525]]",density,black,,,D003,visual,1,[],"['1', '2', '3', '4']",1,2023.2.3,harveyvisual,2.1,[],8,0.75,
0,pause,0.4,None,None,None,0,267,267,267,,,,,,,,,,,,,D003,visual,1,[],"['1', '2', '3', '4']",1,2023.2.3,harveyvisual,2.1,[],8,0.75,
