num,mod,duration,shape,ll_cond,colors,.thisRepN,.thisTrialN,.thisN,.thisIndex,thisRow.t,notes,raw_global_time,t_start,t_stop,shapes,size,pos,cond,color,button,RT,participant,session,starting_run,left button (match/odd),right button (non-match/even),samples_per_block,psychopy version,expName,offset,audio,number_runs,radius,
1,dot,0.3,['dot'],['density'],black,0,0,0,0,,,2.4001832008361816,2.115000009536743,2.4147801399230957,dot,[0.08],"[-0.1989246115662565, -0.15069844343359862]",density,black,,,D003,visual,1,[],"['1', '2', '3', '4']",1,2023.2.3,harveyvisual,2.1,[],8,0.75,
0,pause,0.4,None,None,None,0,1,1,1,,,,,,,,,,,,,D003,visual,1,[],"['1', '2', '3', '4']",1,2023.2.3,harveyvisual,2.1,[],8,0.75,
1,dot,0.3,['dot'],['density'],black,0,2,2,2,,,3.100182056427002,2.798091173171997,3.1155760288238525,dot,[0.06],"[-0.4913090862596544, 0.31587628757091063]",density,black,,,D003,visual,1,[],"['1', '2', '3', '4']",1,2023.2.3,harveyvisual,2.1,[],8,0.75,
0,pause,0.4,None,None,None,0,3,3,3,,,,,,,,,,,,,D003,visual,1,[],"['1', '2', '3', '4']",1,2023.2.3,harveyvisual,2.1,[],8,0.75,
1,dot,0.3,['dot'],['density'],white,0,4,4,4,,,3.800189971923828,3.51560115814209,3.8156251907348633,dot,[0.06],"[0.15956500649880873, 0.2640393008039057]",density,white,,,D003,visual,1,[],"['1', '2', '3', '4']",1,2023.2.3,harveyvisual,2.1,[],8,0.75,
0,pause,0.4,None,None,None,0,5,5,5,,,,,,,,,,,1,3.8440029621124268,D003,visual,1,[],"['1', '2', '3', '4']",1,2023.2.3,harveyvisual,2.1,[],8,0.75,
1,dot,0.3,['dot'],['density'],black,0,6,6,6,,,4.500176191329956,4.21525502204895,4.515242099761963,dot,[0.06],"[0.4765699730395091, 0.34560502551113614]",density,black,,,D003,visual,1,[],"['1', '2', '3', '4']",1,2023.2.3,harveyvisual,2.1,[],8,0.75,
0,pause,0.4,None,None,None,0,7,7,7,,,,,,,,,,,,,D003,visual,1,[],"['1', '2', '3', '4']",1,2023.2.3,harveyvisual,2.1,[],8,0.75,
1,dot,0.3,['dot'],['density'],black,0,8,8,8,,,5.200188159942627,4.91523814201355,5.215296030044556,dot,[0.06],"[-0.31757534052014, 0.30709612076893067]",density,black,,,D003,visual,1,[],"['1', '2', '3', '4']",1,2023.2.3,harveyvisual,2.1,[],8,0.75,
0,pause,0.4,None,None,None,0,9,9,9,,,,,,,,,,,,,D003,visual,1,[],"['1', '2', '3', '4']",1,2023.2.3,harveyvisual,2.1,[],8,0.75,
1,dot,0.3,['dot'],['density'],black,0,10,10,10,,,5.900187015533447,5.6175642013549805,5.9175050258636475,dot,[0.1],"[0.5668064281626585, -0.020013277593342628]",density,black,,,D003,visual,1,[],"['1', '2', '3', '4']",1,2023.2.3,harveyvisual,2.1,[],8,0.75,
0,pause,0.4,None,None,None,0,11,11,11,,,,,,,,,,,,,D003,visual,1,[],"['1', '2', '3', '4']",1,2023.2.3,harveyvisual,2.1,[],8,0.75,
2,dot,0.3,['dot'],['density'],white,0,12,12,12,,,6.600192070007324,6.317476034164429,6.617527008056641,dot,"[0.08, 0.1]","[[0.02987007740145294, 0.4330921892138179], [-0.1698845640653836, 0.4119973540264252]]",density,white,,,D003,visual,1,[],"['1', '2', '3', '4']",1,2023.2.3,harveyvisual,2.1,[],8,0.75,
0,pause,0.4,None,None,None,0,13,13,13,,,,,,,,,,,1,6.637213945388794,D003,visual,1,[],"['1', '2', '3', '4']",1,2023.2.3,harveyvisual,2.1,[],8,0.75,
2,dot,0.3,['dot'],['density'],black,0,14,14,14,,,7.300185203552246,7.017520189285278,7.31749701499939,dot,"[0.08, 0.06]","[[0.17083311991776792, -0.05558111512160733], [0.1461049568064877, -0.25438559320493304]]",density,black,,,D003,visual,1,[],"['1', '2', '3', '4']",1,2023.2.3,harveyvisual,2.1,[],8,0.75,
0,pause,0.4,None,None,None,0,15,15,15,,,,,,,,,,,,,D003,visual,1,[],"['1', '2', '3', '4']",1,2023.2.3,harveyvisual,2.1,[],8,0.75,
2,dot,0.3,['dot'],['density'],black,0,16,16,16,,,8.00018310546875,7.717496156692505,8.017595052719116,dot,"[0.1, 0.06]","[[-0.03288134563171543, -0.4238564918242606], [-0.10611641736664675, -0.2370354775439666]]",density,black,,,D003,visual,1,[],"['1', '2', '3', '4']",1,2023.2.3,harveyvisual,2.1,[],8,0.75,
0,pause,0.4,None,None,None,0,17,17,17,,,,,,,,,,,,,D003,visual,1,[],"['1', '2', '3', '4']",1,2023.2.3,harveyvisual,2.1,[],8,0.75,
2,dot,0.3,['dot'],['density'],black,0,18,18,18,,,8.700181007385254,8.417455196380615,8.717437028884888,dot,"[0.1, 0.1]","[[0.075840462383643, -0.21806900392302264], [0.2761252679018853, -0.22101292055433702]]",density,black,,,D003,visual,1,[],"['1', '2', '3', '4']",1,2023.2.3,harveyvisual,2.1,[],8,0.75,
0,pause,0.4,None,None,None,0,19,19,19,,,,,,,,,,,,,D003,visual,1,[],"['1', '2', '3', '4']",1,2023.2.3,harveyvisual,2.1,[],8,0.75,
2,dot,0.3,['dot'],['density'],black,0,20,20,20,,,9.400192022323608,9.117583990097046,9.417566061019897,dot,"[0.08, 0.08]","[[0.5159928458027473, 0.13749655768121952], [0.38343727829172375, 0.28833164788761484]]",density,black,,,D003,visual,1,[],"['1', '2', '3', '4']",1,2023.2.3,harveyvisual,2.1,[],8,0.75,
0,pause,0.4,None,None,None,0,21,21,21,,,,,,,,,,,,,D003,visual,1,[],"['1', '2', '3', '4']",1,2023.2.3,harveyvisual,2.1,[],8,0.75,
2,dot,0.3,['dot'],['density'],black,0,22,22,22,,,10.100183010101318,9.817430019378662,10.117585182189941,dot,"[0.06, 0.08]","[[0.500151128333041, 0.1656925720118866], [0.3771979967144504, 0.3235340638115745]]",density,black,,,D003,visual,1,[],"['1', '2', '3', '4']",1,2023.2.3,harveyvisual,2.1,[],8,0.75,
0,pause,0.4,None,None,None,0,23,23,23,,,,,,,,,,,,,D003,visual,1,[],"['1', '2', '3', '4']",1,2023.2.3,harveyvisual,2.1,[],8,0.75,
3,dot,0.3,['dot'],['density'],black,0,24,24,24,,,10.80018401145935,10.517369031906128,10.81736707687378,dot,"[0.06, 0.1, 0.08]","[[-0.3391924794566746, 0.43027756448319565], [-0.33080415183405026, 0.2112686575961512], [-0.14277619127331137, 0.29962579604826906]]",density,black,,,D003,visual,1,[],"['1', '2', '3', '4']",1,2023.2.3,harveyvisual,2.1,[],8,0.75,
0,pause,0.4,None,None,None,0,25,25,25,,,,,,,,,,,,,D003,visual,1,[],"['1', '2', '3', '4']",1,2023.2.3,harveyvisual,2.1,[],8,0.75,
3,dot,0.3,['dot'],['density'],black,0,26,26,26,,,11.500187158584595,11.217353105545044,11.517356157302856,dot,"[0.1, 0.08, 0.1]","[[0.1555504186016049, 0.15532406847092056], [-0.0680535881648269, 0.26220909641571793], [0.08533315121688807, 0.39122308779032533]]",density,black,,,D003,visual,1,[],"['1', '2', '3', '4']",1,2023.2.3,harveyvisual,2.1,[],8,0.75,
0,pause,0.4,None,None,None,0,27,27,27,,,,,,,,,,,,,D003,visual,1,[],"['1', '2', '3', '4']",1,2023.2.3,harveyvisual,2.1,[],8,0.75,
3,dot,0.3,['dot'],['density'],black,0,28,28,28,,,12.200185060501099,11.917328119277954,12.217351198196411,dot,"[0.1, 0.08, 0.1]","[[-0.32034981165049564, 0.18083778238314796], [-0.3344619052850136, -0.04022521570367012], [-0.13485517643248812, 0.10330846540140716]]",density,black,,,D003,visual,1,[],"['1', '2', '3', '4']",1,2023.2.3,harveyvisual,2.1,[],8,0.75,
0,pause,0.4,None,None,None,0,29,29,29,,,,,,,,,,,,,D003,visual,1,[],"['1', '2', '3', '4']",1,2023.2.3,harveyvisual,2.1,[],8,0.75,
3,dot,0.3,['dot'],['density'],black,0,30,30,30,,,12.900176048278809,12.617383003234863,12.917325019836426,dot,"[0.08, 0.1, 0.06]","[[-0.27441186418729774, -0.31428620701652393], [-0.10438281902574013, -0.2032379983598837], [-0.31523395761825285, -0.08768035506307631]]",density,black,,,D003,visual,1,[],"['1', '2', '3', '4']",1,2023.2.3,harveyvisual,2.1,[],8,0.75,
0,pause,0.4,None,None,None,0,31,31,31,,,,,,,,,,,,,D003,visual,1,[],"['1', '2', '3', '4']",1,2023.2.3,harveyvisual,2.1,[],8,0.75,
3,dot,0.3,['dot'],['density'],black,0,32,32,32,,,13.60018801689148,13.317331075668335,13.617323160171509,dot,"[0.1, 0.1, 0.1]","[[-0.015545778166788895, 0.3668732894324268], [-0.08169376046335623, 0.5804400028356697], [-0.24536523618143577, 0.46292967544173164]]",density,black,,,D003,visual,1,[],"['1', '2', '3', '4']",1,2023.2.3,harveyvisual,2.1,[],8,0.75,
0,pause,0.4,None,None,None,0,33,33,33,,,,,,,,,,,,,D003,visual,1,[],"['1', '2', '3', '4']",1,2023.2.3,harveyvisual,2.1,[],8,0.75,
3,dot,0.3,['dot'],['density'],black,0,34,34,34,,,14.30017900466919,14.018815994262695,14.317294120788574,dot,"[0.08, 0.1, 0.06]","[[0.29938275938101017, 0.44415474715472736], [0.13070782598704628, 0.5557174004537693], [0.11832456902218637, 0.3273615767427578]]",density,black,,,D003,visual,1,[],"['1', '2', '3', '4']",1,2023.2.3,harveyvisual,2.1,[],8,0.75,
0,pause,0.4,None,None,None,0,35,35,35,,,,,,,,,,,,,D003,visual,1,[],"['1', '2', '3', '4']",1,2023.2.3,harveyvisual,2.1,[],8,0.75,
4,dot,0.3,['dot'],['density'],white,0,36,36,36,,,15.000202178955078,14.717293977737427,15.017279148101807,dot,"[0.06, 0.08, 0.06, 0.1]","[[0.13421512820946938, -0.5336194340609706], [0.2622623892029083, -0.3575253733063478], [0.024533045116508903, -0.3376850530006363], [0.166924465117498, -0.0963569090623874]]",density,white,,,D003,visual,1,[],"['1', '2', '3', '4']",1,2023.2.3,harveyvisual,2.1,[],8,0.75,
0,pause,0.4,None,None,None,0,37,37,37,,,,,,,,,,,1,15.129556894302368,D003,visual,1,[],"['1', '2', '3', '4']",1,2023.2.3,harveyvisual,2.1,[],8,0.75,
4,dot,0.3,['dot'],['density'],black,0,38,38,38,,,15.700176000595093,15.417265176773071,15.717262983322144,dot,"[0.06, 0.08, 0.08, 0.1]","[[0.13421512820946938, -0.5336194340609706], [0.2622623892029083, -0.3575253733063478], [0.024533045116508903, -0.3376850530006363], [0.166924465117498, -0.0963569090623874]]",density,black,,,D003,visual,1,[],"['1', '2', '3', '4']",1,2023.2.3,harveyvisual,2.1,[],8,0.75,
0,pause,0.4,None,None,None,0,39,39,39,,,,,,,,,,,,,D003,visual,1,[],"['1', '2', '3', '4']",1,2023.2.3,harveyvisual,2.1,[],8,0.75,
4,dot,0.3,['dot'],['density'],black,0,40,40,40,,,16.40019702911377,16.117494106292725,16.417306184768677,dot,"[0.06, 0.08, 0.06, 0.1]","[[-0.24855901342904946, 0.4326179111294549], [-0.33066739519925503, 0.24314919490711104], [-0.015728317870896572, 0.5189617074191414], [-0.09686463175319387, 0.28200212383687606]]",density,black,,,D003,visual,1,[],"['1', '2', '3', '4']",1,2023.2.3,harveyvisual,2.1,[],8,0.75,
0,pause,0.4,None,None,None,0,41,41,41,,,,,,,,,,,,,D003,visual,1,[],"['1', '2', '3', '4']",1,2023.2.3,harveyvisual,2.1,[],8,0.75,
4,dot,0.3,['dot'],['density'],black,0,42,42,42,,,17.100179195404053,16.817249059677124,17.117367029190063,dot,"[0.06, 0.06, 0.08, 0.06]","[[-0.47693618450386616, -0.1525114564248906], [-0.12413069550496705, 0.03327587270375396], [-0.32964510574757994, -0.012304557788591533], [-0.22851041427491325, -0.22018408257550984]]",density,black,,,D003,visual,1,[],"['1', '2', '3', '4']",1,2023.2.3,harveyvisual,2.1,[],8,0.75,
0,pause,0.4,None,None,None,0,43,43,43,,,,,,,,,,,,,D003,visual,1,[],"['1', '2', '3', '4']",1,2023.2.3,harveyvisual,2.1,[],8,0.75,
4,dot,0.3,['dot'],['density'],black,0,44,44,44,,,17.800189971923828,17.517248153686523,17.81719708442688,dot,"[0.06, 0.1, 0.1, 0.06]","[[0.0015408600658227804, 0.35051751062746694], [-0.20674122870780898, 0.3211588031025307], [-0.08430622538187964, 0.13383917563087117], [0.1780252705082131, 0.19175915241248492]]",density,black,,,D003,visual,1,[],"['1', '2', '3', '4']",1,2023.2.3,harveyvisual,2.1,[],8,0.75,
0,pause,0.4,None,None,None,0,45,45,45,,,,,,,,,,,,,D003,visual,1,[],"['1', '2', '3', '4']",1,2023.2.3,harveyvisual,2.1,[],8,0.75,
4,dot,0.3,['dot'],['density'],black,0,46,46,46,,,18.500193119049072,18.217247009277344,18.517242193222046,dot,"[0.08, 0.08, 0.1, 0.08]","[[0.2593869086993074, -0.26887741013308497], [0.09674879007849839, -0.39609983087723066], [-0.011093693993988496, -0.14004324908426333], [0.28630805459639813, -0.4681830009867555]]",density,black,,,D003,visual,1,[],"['1', '2', '3', '4']",1,2023.2.3,harveyvisual,2.1,[],8,0.75,
0,pause,0.4,None,None,None,0,47,47,47,,,,,,,,,,,,,D003,visual,1,[],"['1', '2', '3', '4']",1,2023.2.3,harveyvisual,2.1,[],8,0.75,
5,dot,0.3,['dot'],['density'],black,0,48,48,48,,,19.200196981430054,18.917144060134888,19.217148065567017,dot,"[0.1, 0.06, 0.08, 0.08, 0.1]","[[0.21791283729510122, -0.3451859720731072], [0.5246150578842218, -0.1749209719782184], [0.23417080448362212, 0.06149420791510773], [0.21628546435715315, -0.14179681516434317], [0.46094971099473236, 0.03541120369123469]]",density,black,,,D003,visual,1,[],"['1', '2', '3', '4']",1,2023.2.3,harveyvisual,2.1,[],8,0.75,
0,pause,0.4,None,None,None,0,49,49,49,,,,,,,,,,,,,D003,visual,1,[],"['1', '2', '3', '4']",1,2023.2.3,harveyvisual,2.1,[],8,0.75,
5,dot,0.3,['dot'],['density'],black,0,50,50,50,,,19.90018606185913,19.61714220046997,19.91711711883545,dot,"[0.1, 0.1, 0.08, 0.1, 0.08]","[[-0.2338402938730933, 0.15846616122991625], [-0.3229678957369872, -0.0901175890533356], [-0.5034912146055804, 0.021834460539281654], [-0.23914892391179104, -0.28496604153387733], [-0.10132718886958789, -0.1172648190903725]]",density,black,,,D003,visual,1,[],"['1', '2', '3', '4']",1,2023.2.3,harveyvisual,2.1,[],8,0.75,
0,pause,0.4,None,None,None,0,51,51,51,,,,,,,,,,,,,D003,visual,1,[],"['1', '2', '3', '4']",1,2023.2.3,harveyvisual,2.1,[],8,0.75,
5,dot,0.3,['dot'],['density'],black,0,52,52,52,,,20.600197076797485,20.317121982574463,20.617099046707153,dot,"[0.1, 0.1, 0.1, 0.06, 0.06]","[[-0.24811222937808852, -0.0926462173418487], [-0.0684102839715827, 0.053707960252323945], [-0.4199359189551936, 0.028595247832400618], [-0.4311232183625476, -0.17348815390478414], [-0.08153496032007611, -0.23043043025001772]]",density,black,,,D003,visual,1,[],"['1', '2', '3', '4']",1,2023.2.3,harveyvisual,2.1,[],8,0.75,
0,pause,0.4,None,None,None,0,53,53,53,,,,,,,,,,,,,D003,visual,1,[],"['1', '2', '3', '4']",1,2023.2.3,harveyvisual,2.1,[],8,0.75,
5,dot,0.3,['dot'],['density'],black,0,54,54,54,,,21.300201177597046,21.01712417602539,21.317159175872803,dot,"[0.1, 0.06, 0.1, 0.1, 0.08]","[[-0.08538919239777085, -0.3767281323802813], [0.14382612128503536, -0.4947333592336123], [0.2503732289573559, -0.06783159190520484], [0.07777572498152553, -0.21879460077906046], [0.26544561712664855, -0.2975172507008621]]",density,black,,,D003,visual,1,[],"['1', '2', '3', '4']",1,2023.2.3,harveyvisual,2.1,[],8,0.75,
0,pause,0.4,None,None,None,0,55,55,55,,,,,,,,,,,,,D003,visual,1,[],"['1', '2', '3', '4']",1,2023.2.3,harveyvisual,2.1,[],8,0.75,
5,dot,0.3,['dot'],['density'],black,0,56,56,56,,,22.000203132629395,21.71715497970581,22.017122983932495,dot,"[0.08, 0.08, 0.1, 0.1, 0.08]","[[0.33660852042816714, -0.448935078303268], [0.16237328695183198, -0.028906365321866932], [0.003149504206933677, -0.1844463225559013], [0.4065340125681681, -0.22407981263326276], [0.20027486954239768, -0.2346061295568129]]",density,black,,,D003,visual,1,[],"['1', '2', '3', '4']",1,2023.2.3,harveyvisual,2.1,[],8,0.75,
0,pause,0.4,None,None,None,0,57,57,57,,,,,,,,,,,,,D003,visual,1,[],"['1', '2', '3', '4']",1,2023.2.3,harveyvisual,2.1,[],8,0.75,
5,dot,0.3,['dot'],['density'],black,0,58,58,58,,,22.70018219947815,22.41710114479065,22.717216968536377,dot,"[0.06, 0.06, 0.06, 0.08, 0.08]","[[-0.16893136043895146, -0.20127892763881453], [-0.5727216740452047, -0.07682091551650742], [-0.343702592036276, -0.060533526953518955], [-0.5038383983260774, 0.15268268748871192], [-0.379488354443274, -0.2704310218069364]]",density,black,,,D003,visual,1,[],"['1', '2', '3', '4']",1,2023.2.3,harveyvisual,2.1,[],8,0.75,
0,pause,0.4,None,None,None,0,59,59,59,,,,,,,,,,,,,D003,visual,1,[],"['1', '2', '3', '4']",1,2023.2.3,harveyvisual,2.1,[],8,0.75,
6,dot,0.3,['dot'],['density'],black,0,60,60,60,,,23.400196075439453,23.117075204849243,23.41705012321472,dot,"[0.1, 0.06, 0.08, 0.06, 0.06, 0.1]","[[-0.12151555870586603, -0.4812968000001843], [0.16790488833295267, -0.2471088416996458], [0.27214716196035416, -0.49820278546509117], [-0.038147587524033764, -0.29309333197091036], [0.014949188681413147, -0.08915939926713055], [0.06798063624072649, -0.5852336971646088]]",density,black,,,D003,visual,1,[],"['1', '2', '3', '4']",1,2023.2.3,harveyvisual,2.1,[],8,0.75,
0,pause,0.4,None,None,None,0,61,61,61,,,,,,,,,,,,,D003,visual,1,[],"['1', '2', '3', '4']",1,2023.2.3,harveyvisual,2.1,[],8,0.75,
6,dot,0.3,['dot'],['density'],black,0,62,62,62,,,24.100182056427002,23.817216157913208,24.117098093032837,dot,"[0.06, 0.08, 0.06, 0.08, 0.08, 0.06]","[[-0.3075905201299059, -0.4396409988488083], [-0.19740249700094745, -0.17714391351551703], [0.053731853964380204, -0.5240815929277938], [0.045148855841778586, -0.17580561296456876], [0.17596231810730836, -0.3386358025171148], [-0.08995737585576556, -0.36423659604885134]]",density,black,,,D003,visual,1,[],"['1', '2', '3', '4']",1,2023.2.3,harveyvisual,2.1,[],8,0.75,
0,pause,0.4,None,None,None,0,63,63,63,,,,,,,,,,,,,D003,visual,1,[],"['1', '2', '3', '4']",1,2023.2.3,harveyvisual,2.1,[],8,0.75,
6,dot,0.3,['dot'],['density'],black,0,64,64,64,,,24.800202131271362,24.51704716682434,24.81716012954712,dot,"[0.06, 0.1, 0.08, 0.08, 0.06, 0.06]","[[-0.36904347190091025, 0.2789229011504548], [-0.01038079434194998, 0.053649704929766846], [-0.08735338951653393, 0.578282782753283], [5.153534382930422e-05, 0.38446941554394387], [-0.22753401468201206, 0.43210907521897474], [-0.14647282530567177, 0.24517240432070728]]",density,black,,,D003,visual,1,[],"['1', '2', '3', '4']",1,2023.2.3,harveyvisual,2.1,[],8,0.75,
0,pause,0.4,None,None,None,0,65,65,65,,,,,,,,,,,,,D003,visual,1,[],"['1', '2', '3', '4']",1,2023.2.3,harveyvisual,2.1,[],8,0.75,
6,dot,0.3,['dot'],['density'],black,0,66,66,66,,,25.500200033187866,25.217060089111328,25.51698112487793,dot,"[0.08, 0.08, 0.1, 0.1, 0.06, 0.08]","[[-0.36874454135919904, -0.07559312273534534], [-0.010504004432700158, -0.20559114413973084], [-0.17044584652251332, 0.17221059634863578], [-0.26251446752681207, -0.3074850979938877], [0.06633568674208327, -0.020893677029436595], [-0.1538914639536258, -0.02772778393149798]]",density,black,,,D003,visual,1,[],"['1', '2', '3', '4']",1,2023.2.3,harveyvisual,2.1,[],8,0.75,
0,pause,0.4,None,None,None,0,67,67,67,,,,,,,,,,,,,D003,visual,1,[],"['1', '2', '3', '4']",1,2023.2.3,harveyvisual,2.1,[],8,0.75,
6,dot,0.3,['dot'],['density'],black,0,68,68,68,,,26.200191974639893,25.916969060897827,26.216948986053467,dot,"[0.08, 0.1, 0.06, 0.1, 0.08, 0.08]","[[0.0015484977009578463, -0.37153509484940705], [-0.24631791352898516, -0.16063896847060222], [-0.21037316856202723, -0.37491302730087106], [-0.14520134419833938, 0.05228402714841561], [-0.41979900021501537, -0.27073368115662844], [-0.020720382871846178, -0.14076137757070492]]",density,black,,,D003,visual,1,[],"['1', '2', '3', '4']",1,2023.2.3,harveyvisual,2.1,[],8,0.75,
0,pause,0.4,None,None,None,0,69,69,69,,,,,,,,,,,,,D003,visual,1,[],"['1', '2', '3', '4']",1,2023.2.3,harveyvisual,2.1,[],8,0.75,
6,dot,0.3,['dot'],['density'],black,0,70,70,70,,,26.900180101394653,26.61695909500122,26.916953086853027,dot,"[0.06, 0.1, 0.06, 0.06, 0.06, 0.06]","[[-0.11553075830627273, 0.47698778124428043], [-0.1112787518129194, 0.10456141670764223], [-0.48855705683845824, 0.21494657582805063], [-0.2538299919008863, 0.2532006538804931], [-0.3271837865365474, 0.4662148945367939], [0.006792750312598743, 0.27345996435494924]]",density,black,,,D003,visual,1,[],"['1', '2', '3', '4']",1,2023.2.3,harveyvisual,2.1,[],8,0.75,
0,pause,0.4,None,None,None,0,71,71,71,,,,,,,,,,,,,D003,visual,1,[],"['1', '2', '3', '4']",1,2023.2.3,harveyvisual,2.1,[],8,0.75,
7,dot,0.3,['dot'],['density'],black,0,72,72,72,,,27.600178003311157,27.31695008277893,27.616945028305054,dot,"[0.08, 0.06, 0.1, 0.1, 0.08, 0.06, 0.08]","[[-0.23867826801906328, -0.4967507610264224], [-0.008572732368673055, -0.07934474412745643], [-0.2066881937132076, -0.2790710878612567], [0.21709551483580575, -0.47507177834902015], [0.2058411173229685, -0.17553172422760346], [-0.015438952742397984, -0.3568653319460787], [-0.011603255668745115, -0.5749057065343526]]",density,black,,,D003,visual,1,[],"['1', '2', '3', '4']",1,2023.2.3,harveyvisual,2.1,[],8,0.75,
0,pause,0.4,None,None,None,0,73,73,73,,,,,,,,,,,,,D003,visual,1,[],"['1', '2', '3', '4']",1,2023.2.3,harveyvisual,2.1,[],8,0.75,
7,dot,0.3,['dot'],['density'],black,0,74,74,74,,,28.300193071365356,28.016957998275757,28.316967010498047,dot,"[0.06, 0.06, 0.08, 0.08, 0.1, 0.08, 0.1]","[[-0.3616029487054454, 0.4456424486886853], [-0.1496406170718537, 0.08450683720449656], [-0.4229793897960434, 0.19545916586121675], [-0.050735401720141765, 0.4582308035931027], [-0.23416009772798219, 0.28880413379285297], [0.00916417092529717, 0.20866532064640267], [0.0895043828575618, 0.020292244516940467]]",density,black,,,D003,visual,1,[],"['1', '2', '3', '4']",1,2023.2.3,harveyvisual,2.1,[],8,0.75,
0,pause,0.4,None,None,None,0,75,75,75,,,,,,,,,,,,,D003,visual,1,[],"['1', '2', '3', '4']",1,2023.2.3,harveyvisual,2.1,[],8,0.75,
7,dot,0.3,['dot'],['density'],black,0,76,76,76,,,29.000184059143066,28.716904163360596,29.017076015472412,dot,"[0.1, 0.1, 0.06, 0.1, 0.1, 0.06, 0.06]","[[0.373835093542847, 0.13553027784675922], [0.025265531087721685, -0.15487691700731251], [0.38086488534306906, -0.0720131222026176], [0.4315741710459581, -0.28075472739566504], [0.18097069018870113, 0.01647246612045595], [0.1962900518120967, -0.2624101628120604], [0.08955660480178401, 0.2127528718980948]]",density,black,,,D003,visual,1,[],"['1', '2', '3', '4']",1,2023.2.3,harveyvisual,2.1,[],8,0.75,
0,pause,0.4,None,None,None,0,77,77,77,,,,,,,,,,,,,D003,visual,1,[],"['1', '2', '3', '4']",1,2023.2.3,harveyvisual,2.1,[],8,0.75,
7,dot,0.3,['dot'],['density'],black,0,78,78,78,,,29.700191974639893,29.417044162750244,29.71703004837036,dot,"[0.08, 0.1, 0.1, 0.1, 0.06, 0.08, 0.08]","[[0.06935229908748385, 0.4911641494940837], [-0.19266199922505295, 0.07836852906048222], [0.055274369019684175, 0.020452523162812593], [0.26239471350362015, 0.1001529216481179], [-0.06036973858781391, 0.3360513952533211], [-0.2638544135394649, 0.29089327984911306], [0.14813816713374972, 0.28344041791591096]]",density,black,,,D003,visual,1,[],"['1', '2', '3', '4']",1,2023.2.3,harveyvisual,2.1,[],8,0.75,
0,pause,0.4,None,None,None,0,79,79,79,,,,,,,,,,,,,D003,visual,1,[],"['1', '2', '3', '4']",1,2023.2.3,harveyvisual,2.1,[],8,0.75,
7,dot,0.3,['dot'],['density'],black,0,80,80,80,,,30.400184154510498,30.116896152496338,30.417011976242065,dot,"[0.06, 0.1, 0.1, 0.08, 0.06, 0.08, 0.06]","[[0.12902113605384963, -0.35167066519854956], [0.3838909825822851, -0.05572740120406059], [-0.02857767273637445, 0.1549795872955612], [0.19333287999408408, 0.10698923431715611], [-0.08146847087507005, -0.06064403559207536], [0.18020694687254563, -0.15550905334431223], [-0.07225335190945896, -0.28606481362007624]]",density,black,,,D003,visual,1,[],"['1', '2', '3', '4']",1,2023.2.3,harveyvisual,2.1,[],8,0.75,
0,pause,0.4,None,None,None,0,81,81,81,,,,,,,,,,,,,D003,visual,1,[],"['1', '2', '3', '4']",1,2023.2.3,harveyvisual,2.1,[],8,0.75,
7,dot,0.3,['dot'],['density'],black,0,82,82,82,,,31.100205183029175,30.817008018493652,31.11700415611267,dot,"[0.08, 0.08, 0.06, 0.08, 0.06, 0.08, 0.06]","[[0.1318978468379982, 0.48780960721302624], [-0.15530952210580917, 0.2429536962773128], [0.21675324185561073, 0.09111206147250148], [0.13033099328542835, 0.28547066376201063], [0.3859901392997328, 0.20497483482614012], [0.014590257841440182, 0.0970646397970693], [0.1730960121663288, -0.1180805096677859]]",density,black,,,D003,visual,1,[],"['1', '2', '3', '4']",1,2023.2.3,harveyvisual,2.1,[],8,0.75,
0,pause,0.4,None,None,None,0,83,83,83,,,,,,,,,,,,,D003,visual,1,[],"['1', '2', '3', '4']",1,2023.2.3,harveyvisual,2.1,[],8,0.75,
8,dot,0.3,['dot'],['density'],black,0,84,84,84,,,31.80018711090088,31.516852140426636,31.81688117980957,dot,"[0.08, 0.1, 0.06, 0.1, 0.06, 0.08, 0.08, 0.08]","[[-0.4639556696772753, 0.10472599959088454], [-0.22970357876872852, 0.24758381400794424], [-0.060094057158436125, -0.14613975383200573], [-0.022569829209962654, 0.2677975872319761], [-0.3077859326170116, -0.10488986274105515], [-0.16040535020917, 0.031608708128470005], [-0.5175577931920246, -0.20517812764611504], [0.1194024413118107, 0.007837779916585986]]",density,black,,,D003,visual,1,[],"['1', '2', '3', '4']",1,2023.2.3,harveyvisual,2.1,[],8,0.75,
0,pause,0.4,None,None,None,0,85,85,85,,,,,,,,,,,,,D003,visual,1,[],"['1', '2', '3', '4']",1,2023.2.3,harveyvisual,2.1,[],8,0.75,
8,dot,0.3,['dot'],['density'],black,0,86,86,86,,,32.500190019607544,32.21698212623596,32.51695203781128,dot,"[0.08, 0.08, 0.1, 0.08, 0.08, 0.08, 0.08, 0.08]","[[-0.19469543066458847, -0.326291241472255], [0.30343637985980976, -0.10925869102227477], [-0.1969922581528186, -0.11664339975312436], [0.2570255161168456, -0.3247060146943647], [0.10684135558856425, -0.18174565546534566], [0.03482742583321104, -0.4893606045609451], [-0.015658395544436696, -0.0001692298399926468], [0.11980560642279467, 0.15585563517441894]]",density,black,,,D003,visual,1,[],"['1', '2', '3', '4']",1,2023.2.3,harveyvisual,2.1,[],8,0.75,
0,pause,0.4,None,None,None,0,87,87,87,,,,,,,,,,,,,D003,visual,1,[],"['1', '2', '3', '4']",1,2023.2.3,harveyvisual,2.1,[],8,0.75,
8,dot,0.3,['dot'],['density'],black,0,88,88,88,,,33.20018911361694,32.9167959690094,33.21683216094971,dot,"[0.08, 0.08, 0.1, 0.08, 0.08, 0.08, 0.1, 0.1]","[[-0.2875956673588428, -0.37608972473646446], [0.1738442798715151, -0.5418380206356169], [-0.005791994605287101, -0.36400925298789194], [0.15381919852689818, -0.2106776783026027], [-0.02243369038452208, -0.11017027562433494], [-0.1375601387891928, -0.5383184991665005], [0.3481619806761259, -0.4256719133417836], [-0.2437856683810358, -0.16373273019932677]]",density,black,,,D003,visual,1,[],"['1', '2', '3', '4']",1,2023.2.3,harveyvisual,2.1,[],8,0.75,
0,pause,0.4,None,None,None,0,89,89,89,,,,,,,,,,,,,D003,visual,1,[],"['1', '2', '3', '4']",1,2023.2.3,harveyvisual,2.1,[],8,0.75,
8,dot,0.3,['dot'],['density'],black,0,90,90,90,,,33.90018010139465,33.616779088974,33.91676211357117,dot,"[0.06, 0.1, 0.08, 0.06, 0.08, 0.08, 0.1, 0.1]","[[-0.012034279999911439, 0.06556808781241986], [-0.3446774290598954, 0.11122635080299646], [0.22428040003470762, 0.1796687910302273], [-0.037221971777983635, 0.5300244249381355], [-0.1456717336157172, 0.2672263832914442], [0.040508406505222534, 0.3412803201140432], [-0.26975617824218623, 0.48628578621654683], [0.24128509790231628, 0.4122343446782376]]",density,black,,,D003,visual,1,[],"['1', '2', '3', '4']",1,2023.2.3,harveyvisual,2.1,[],8,0.75,
0,pause,0.4,None,None,None,0,91,91,91,,,,,,,,,,,,,D003,visual,1,[],"['1', '2', '3', '4']",1,2023.2.3,harveyvisual,2.1,[],8,0.75,
8,dot,0.3,['dot'],['density'],black,0,92,92,92,,,34.60020112991333,34.31678819656372,34.616777181625366,dot,"[0.06, 0.06, 0.06, 0.08, 0.1, 0.1, 0.1, 0.06]","[[-0.3290570048964025, 0.45712517183014534], [-0.12351728740192595, 0.19722326774196852], [-0.44617383739254307, -0.0315435053038489], [0.05824565693526591, 0.08769012542188236], [-0.4904255353169048, 0.31423420558286136], [-0.32491150822629034, 0.16696319418744587], [-0.12614658653380179, 0.4043789036591275], [0.10044097339982726, 0.3130264767685494]]",density,black,,,D003,visual,1,[],"['1', '2', '3', '4']",1,2023.2.3,harveyvisual,2.1,[],8,0.75,
0,pause,0.4,None,None,None,0,93,93,93,,,,,,,,,,,,,D003,visual,1,[],"['1', '2', '3', '4']",1,2023.2.3,harveyvisual,2.1,[],8,0.75,
8,dot,0.3,['dot'],['density'],black,0,94,94,94,,,35.300191164016724,35.01673102378845,35.31672811508179,dot,"[0.08, 0.1, 0.06, 0.1, 0.06, 0.06, 0.06, 0.08]","[[-0.16499387414028463, -0.418455346753131], [0.031011941373623824, -0.006148034068666969], [-0.4150712424924157, -0.28668557629476243], [-0.199054958380199, -0.21375968732837633], [-0.4870789535587041, 0.00515905815181239], [-0.198479811208303, 0.006815000109153054], [-0.3273741662815474, 0.19008037141614484], [0.04340096687518584, -0.25044408321713213]]",density,black,,,D003,visual,1,[],"['1', '2', '3', '4']",1,2023.2.3,harveyvisual,2.1,[],8,0.75,
0,pause,0.4,None,None,None,0,95,95,95,,,,,,,,,,,,,D003,visual,1,[],"['1', '2', '3', '4']",1,2023.2.3,harveyvisual,2.1,[],8,0.75,
9,dot,0.3,['dot'],['density'],black,0,96,96,96,,,36.000203132629395,35.716716051101685,36.0167281627655,dot,"[0.08, 0.1, 0.1, 0.06, 0.08, 0.1, 0.08, 0.06, 0.06]","[[0.5610971552988853, -0.17060184332349634], [0.41375718760989944, -0.015869013459887487], [0.10524493337967332, -0.4151143617417518], [0.33762937987512565, -0.21166948995529247], [0.31978246251342735, -0.42403070142702926], [0.14918584865882126, 0.054317793641313596], [-0.13687229080136074, -0.3544767643123256], [-0.14284940328496695, -0.15361328447573858], [0.09035025664413378, -0.16809195260635462]]",density,black,,,D003,visual,1,[],"['1', '2', '3', '4']",1,2023.2.3,harveyvisual,2.1,[],8,0.75,
0,pause,0.4,None,None,None,0,97,97,97,,,,,,,,,,,,,D003,visual,1,[],"['1', '2', '3', '4']",1,2023.2.3,harveyvisual,2.1,[],8,0.75,
9,dot,0.3,['dot'],['density'],black,0,98,98,98,,,36.70018911361694,36.4167001247406,36.716756105422974,dot,"[0.1, 0.06, 0.1, 0.1, 0.1, 0.06, 0.06, 0.1, 0.06]","[[-0.1410632352740557, -0.317905811010377], [-0.01624442214728049, 0.1794094022286925], [0.09468404279643694, -0.24727132108451297], [-0.2758455249254349, -0.14491344886434532], [-0.07397021974914944, -0.09933967896750957], [-0.3580751224104431, 0.12641846535160695], [0.3672464474339042, -0.09947208873420914], [0.14679994141956812, -0.049441009882571184], [0.20049431506903384, 0.1443691092520585]]",density,black,,,D003,visual,1,[],"['1', '2', '3', '4']",1,2023.2.3,harveyvisual,2.1,[],8,0.75,
0,pause,0.4,None,None,None,0,99,99,99,,,,,,,,,,,,,D003,visual,1,[],"['1', '2', '3', '4']",1,2023.2.3,harveyvisual,2.1,[],8,0.75,
9,dot,0.3,['dot'],['density'],black,0,100,100,100,,,37.400206089019775,37.11673402786255,37.416691064834595,dot,"[0.1, 0.06, 0.06, 0.06, 0.08, 0.1, 0.1, 0.08, 0.06]","[[-0.05049485011715354, 0.3013521193238899], [0.15354596755057998, 0.36785015051376163], [0.22995749783639982, 0.07309138415424772], [0.13460311710395165, -0.18603378415368982], [0.33097739113381164, -0.13822260855557728], [-0.16464148731134703, 0.07190493829483618], [0.521154897315396, -0.007803673430992942], [0.02684304494395013, 0.0018704401699241912], [-0.15545279255173522, -0.15329938800760382]]",density,black,,,D003,visual,1,[],"['1', '2', '3', '4']",1,2023.2.3,harveyvisual,2.1,[],8,0.75,
0,pause,0.4,None,None,None,0,101,101,101,,,,,,,,,,,,,D003,visual,1,[],"['1', '2', '3', '4']",1,2023.2.3,harveyvisual,2.1,[],8,0.75,
9,dot,0.3,['dot'],['density'],black,0,102,102,102,,,38.100184202194214,37.816691160202026,38.11668515205383,dot,"[0.08, 0.06, 0.06, 0.08, 0.08, 0.08, 0.1, 0.1, 0.06]","[[0.5571797577834091, 0.07732674165650813], [0.16332656704353227, -0.09331314560094064], [0.4138178119161903, 0.3925230053806507], [0.28711316854655766, 0.07147022394212545], [0.052100496024031176, 0.3810199549023822], [0.2172039135420496, 0.26337040755706287], [-0.2646845915772586, 0.12849707234668142], [0.21844181080216274, 0.4926952285236599], [0.0761275456309072, 0.11718001140956479]]",density,black,,,D003,visual,1,[],"['1', '2', '3', '4']",1,2023.2.3,harveyvisual,2.1,[],8,0.75,
0,pause,0.4,None,None,None,0,103,103,103,,,,,,,,,,,,,D003,visual,1,[],"['1', '2', '3', '4']",1,2023.2.3,harveyvisual,2.1,[],8,0.75,
9,dot,0.3,['dot'],['density'],black,0,104,104,104,,,38.800199031829834,38.516730070114136,38.816686153411865,dot,"[0.1, 0.08, 0.08, 0.06, 0.08, 0.08, 0.08, 0.08, 0.06]","[[0.11766436913102363, -0.04327704920019282], [0.17973489876850246, -0.2957558932143311], [0.4322853556796634, 0.1292829237047714], [-0.0348924626991882, -0.2091692004054023], [0.511593351462966, -0.2715393032181878], [0.39631341359825684, -0.10388811790353111], [0.1759041025424718, 0.35783279634564974], [-0.11077337801993212, 0.08002505665429639], [0.1915495233696259, 0.15329463501335125]]",density,black,,,D003,visual,1,[],"['1', '2', '3', '4']",1,2023.2.3,harveyvisual,2.1,[],8,0.75,
0,pause,0.4,None,None,None,0,105,105,105,,,,,,,,,,,,,D003,visual,1,[],"['1', '2', '3', '4']",1,2023.2.3,harveyvisual,2.1,[],8,0.75,
9,dot,0.3,['dot'],['density'],black,0,106,106,106,,,39.50019717216492,39.216747999191284,39.51673197746277,dot,"[0.1, 0.1, 0.06, 0.1, 0.1, 0.1, 0.06, 0.1, 0.08]","[[0.08964926938552661, 0.05394775442474662], [0.013667798857315082, 0.3651287039276397], [-0.3518235196438996, 0.4482863301015001], [0.0843039828244993, 0.5528122926054443], [-0.16049547673848438, 0.0730005648255046], [-0.2144141911430125, 0.27623828598157274], [0.3465547907671387, 0.0307758660088046], [-0.13596480001028877, 0.5242376261272882], [0.2304522598158348, 0.3521277948761275]]",density,black,,,D003,visual,1,[],"['1', '2', '3', '4']",1,2023.2.3,harveyvisual,2.1,[],8,0.75,
0,pause,0.4,None,None,None,0,107,107,107,,,,,,,,,,,,,D003,visual,1,[],"['1', '2', '3', '4']",1,2023.2.3,harveyvisual,2.1,[],8,0.75,
20,dot,0.3,['dot'],['density'],black,0,108,108,108,,,40.2001850605011,39.91662406921387,40.21661615371704,dot,"[0.1, 0.1, 0.08, 0.08, 0.06, 0.08, 0.08, 0.08, 0.06, 0.08, 0.08, 0.06, 0.08, 0.06, 0.08, 0.08, 0.08, 0.08, 0.06, 0.06]","[[-0.4416260809264948, 0.3693104684311858], [-0.4867060518125216, -0.14489335346434112], [0.007217396901572748, 0.3840128121932207], [0.29050670569934045, 0.04109443120833589], [0.5300985019566643, 0.026979047947745416], [-0.1959579038495513, 0.4459488529269511], [-0.29598923989127307, 0.13752602113286927], [0.4240509004170717, -0.3769101515094479], [0.23356649702222432, -0.33045428249083353], [0.14156237703472008, 0.5430346435463008], [-0.5891031998368084, 0.11569344923940575], [0.4059208756347207, 0.31226681971435966], [-0.2687710795894209, -0.36261905654159315], [0.11279190191231847, 0.12007238288070876], [0.12829199969626126, -0.5756718675908415], [-0.0022595088416952347, -0.3282722189433834], [-0.0926495616819949, 0.011424289930786258], [0.47110198564236605, -0.19008248977367173], [-0.21831773915191804, -0.16744655344031406], [0.09476647459143872, -0.09675543915264928]]",density,black,,,D003,visual,1,[],"['1', '2', '3', '4']",1,2023.2.3,harveyvisual,2.1,[],8,0.75,
0,pause,0.4,None,None,None,0,109,109,109,,,,,,,,,,,,,D003,visual,1,[],"['1', '2', '3', '4']",1,2023.2.3,harveyvisual,2.1,[],8,0.75,
20,dot,0.3,['dot'],['density'],black,0,110,110,110,,,40.9001841545105,40.61661505699158,40.91657519340515,dot,"[0.1, 0.08, 0.08, 0.06, 0.06, 0.08, 0.08, 0.08, 0.1, 0.06, 0.1, 0.06, 0.06, 0.06, 0.06, 0.06, 0.08, 0.08, 0.08, 0.1]","[[0.21773525440268793, 0.2742356777046936], [0.5772325559285566, -0.09521148649917265], [-0.4396050482816516, 0.23675204808525613], [-0.3081275372139367, -0.41831293198105085], [0.05587001581926998, 0.4342864367422451], [-0.33856082576916796, -0.015884562794700963], [-0.49187929028856475, -0.14977750734571013], [0.11823711561924555, -0.4544454712968379], [0.5063473346561006, 0.32454893913592103], [0.4351969821582954, -0.25110369252006554], [-0.1487103502213465, -0.005971263925857007], [0.3336039688862722, 0.1110167516455477], [-0.23779671915633688, 0.21529117397196595], [-0.09412780180728153, -0.23945609857959677], [0.03850275517432489, -0.054801279363685174], [-0.0022013414204457016, 0.21669963849266238], [-0.4057302318970216, 0.44704249282301395], [0.5752259641170848, 0.10374654079412465], [0.3151688963959125, 0.5032243744374009], [0.24689515233973913, -0.08259677274037625]]",density,black,,,D003,visual,1,[],"['1', '2', '3', '4']",1,2023.2.3,harveyvisual,2.1,[],8,0.75,
0,pause,0.4,None,None,None,0,111,111,111,,,,,,,,,,,,,D003,visual,1,[],"['1', '2', '3', '4']",1,2023.2.3,harveyvisual,2.1,[],8,0.75,
20,dot,0.3,['dot'],['density'],black,0,112,112,112,,,41.60019612312317,41.31660509109497,41.616581201553345,dot,"[0.06, 0.06, 0.08, 0.1, 0.08, 0.06, 0.08, 0.08, 0.08, 0.1, 0.1, 0.08, 0.06, 0.08, 0.08, 0.06, 0.08, 0.1, 0.06, 0.06]","[[-0.137089700574842, 0.027838994927329996], [0.49034406957806176, 0.26521163108295526], [-0.30033312881749286, 0.26773884719271057], [0.44778762518793436, -0.004557145723875722], [0.412174701532969, -0.22014985081128013], [-0.10637860607512373, 0.27383402309609395], [-0.5811520820470556, -0.07259883888563384], [0.16296210322837834, -0.3546331327658524], [0.0678202865492129, -0.09676669351307565], [-0.46477056460238225, -0.2932967162751542], [-0.23054642049748036, 0.5191953773734325], [0.2375014962021338, 0.3741437744339011], [0.2956523184059551, -0.5221881020295771], [-0.4855836011931924, 0.21828958692510297], [0.2435209553241503, -0.023264952390745663], [-0.17589774412406334, -0.49085673477308245], [0.0655973127851146, -0.587923675360103], [0.08629106055134173, 0.10739175488286112], [-0.26563116000328957, -0.18914178744820442], [-0.038155008854729444, 0.46081455437769925]]",density,black,,,D003,visual,1,[],"['1', '2', '3', '4']",1,2023.2.3,harveyvisual,2.1,[],8,0.75,
0,pause,0.4,None,None,None,0,113,113,113,,,,,,,,,,,,,D003,visual,1,[],"['1', '2', '3', '4']",1,2023.2.3,harveyvisual,2.1,[],8,0.75,
20,dot,0.3,['dot'],['density'],black,0,114,114,114,,,42.300201177597046,42.01655197143555,42.3165500164032,dot,"[0.1, 0.08, 0.1, 0.1, 0.06, 0.08, 0.1, 0.08, 0.06, 0.1, 0.08, 0.08, 0.06, 0.08, 0.06, 0.06, 0.1, 0.08, 0.08, 0.06]","[[0.09660194011059886, -0.5044750800055031], [-0.05813204405734351, 0.476712605150195], [0.4801393895174534, 0.19936490650406585], [-0.3082527654242028, 0.007870906044218473], [-0.5065076216705207, -0.20643857307844113], [-0.1814181808229563, -0.41373180349691585], [-0.2506802916642676, 0.5173451243798931], [-0.5812222362132807, -0.015124737884984224], [0.07827408428337046, 0.27151248142558704], [0.25015303201250516, -0.08123780732011698], [-0.07404941696618761, 0.12304066883508336], [-0.19435908275864483, -0.1559504970995652], [0.22454203772986026, -0.2924900188046235], [-0.4367867195166516, 0.3985138470550247], [0.2523098695306132, 0.45856070179995323], [-0.40185558356748463, 0.18875714747918165], [-0.0020203863532185506, -0.3055869762038919], [0.5199828978067579, -0.2577349284661303], [0.38498753472553104, -0.39686514555330477], [0.5652612633523023, -0.038044231812010554]]",density,black,,,D003,visual,1,[],"['1', '2', '3', '4']",1,2023.2.3,harveyvisual,2.1,[],8,0.75,
0,pause,0.4,None,None,None,0,115,115,115,,,,,,,,,,,,,D003,visual,1,[],"['1', '2', '3', '4']",1,2023.2.3,harveyvisual,2.1,[],8,0.75,
20,dot,0.3,['dot'],['density'],black,0,116,116,116,,,43.00019097328186,42.71655511856079,43.01653504371643,dot,"[0.08, 0.1, 0.1, 0.06, 0.1, 0.08, 0.06, 0.1, 0.08, 0.06, 0.1, 0.1, 0.08, 0.08, 0.08, 0.08, 0.1, 0.08, 0.06, 0.06]","[[-0.09745757625061569, 0.08555138724911704], [-0.01528111129995402, 0.3923835366944999], [0.30347175619236166, 0.2863052742835528], [0.23436425160154273, -0.04832134689378875], [0.11289495540072825, -0.5383201670692785], [0.5493809564319084, -0.16378683602558433], [-0.4482792408234022, 0.1404702027965264], [-0.4718857266652865, -0.07691750031121569], [0.22822197564634983, -0.32099130396430436], [0.3251041789854838, 0.47882207298903656], [0.47601878661465535, -0.34895312270891204], [-0.30540342439272844, -0.23213008396894091], [-0.17813185109489554, -0.5581878118947051], [-0.1456409647269742, 0.5644264199020913], [0.047663087207949095, 0.5856868569296744], [-0.34056003058079976, 0.4905230656269294], [0.5838571534720546, 0.10370172753936208], [-0.04442968300548589, -0.3486353176432819], [0.49461221532042166, 0.32597672387365606], [-0.1970586011667257, 0.27665170186323207]]",density,black,,,D003,visual,1,[],"['1', '2', '3', '4']",1,2023.2.3,harveyvisual,2.1,[],8,0.75,
0,pause,0.4,None,None,None,0,117,117,117,,,,,,,,,,,,,D003,visual,1,[],"['1', '2', '3', '4']",1,2023.2.3,harveyvisual,2.1,[],8,0.75,
20,dot,0.3,['dot'],['density'],black,0,118,118,118,,,43.70020508766174,43.41651511192322,43.71659803390503,dot,"[0.06, 0.06, 0.1, 0.1, 0.1, 0.06, 0.06, 0.08, 0.08, 0.06, 0.06, 0.08, 0.08, 0.06, 0.08, 0.06, 0.1, 0.1, 0.1, 0.1]","[[-0.4976987166101362, -0.00935848047455573], [0.18430520142915663, -0.3692695624645578], [-0.22948374681208783, 0.19836956166695752], [0.3931979008187534, 0.16956866121696668], [-0.051269384019399955, 0.31735673309723766], [0.20413945745762918, 0.3224381778218658], [-0.1356344248004806, 0.5322245278231837], [0.11264261135551668, -0.1839344937059394], [-0.5140354939699471, -0.21691955861544934], [0.47791034707388114, -0.20905136313892614], [-0.2650875682184929, -0.03870467871161165], [0.21755692446407404, 0.06643090009331098], [-0.11796375256099023, -0.429053514803161], [-0.32963103124764503, -0.41080288005966037], [0.07606598242955975, 0.4945110690963469], [-0.501069789767235, 0.2276629742311711], [0.3935929263134428, -0.41315109259016947], [0.5943979803356613, -0.017031153893095716], [0.11621106697224426, -0.5821956174970241], [0.010278631067332289, 0.07752255881577186]]",density,black,,,D003,visual,1,[],"['1', '2', '3', '4']",1,2023.2.3,harveyvisual,2.1,[],8,0.75,
0,pause,0.4,None,None,None,0,119,119,119,,,,,,,,,,,,,D003,visual,1,[],"['1', '2', '3', '4']",1,2023.2.3,harveyvisual,2.1,[],8,0.75,
20,dot,0.3,['dot'],['density'],black,0,120,120,120,,,44.400185108184814,44.11672616004944,44.41649007797241,dot,"[0.08, 0.06, 0.1, 0.08, 0.06, 0.08, 0.08, 0.1, 0.1, 0.1, 0.06, 0.08, 0.1, 0.1, 0.1, 0.1, 0.08, 0.06, 0.08, 0.06]","[[-0.4206283328653388, 0.3402418248766021], [-0.028994800736439674, 0.030076841243392494], [-0.037858894505105045, -0.4639473869928421], [0.5843190494892078, 0.03727690523158639], [-0.2751150033071535, -0.4279216209856723], [0.4973627415548282, -0.1868671440472321], [-0.5634997388888845, 0.09794937158364803], [-0.4724307448669386, -0.06890464306221289], [-0.07646191963999427, 0.3691235574131616], [0.08296127285170185, -0.13482417953372433], [0.2556357172189334, 0.20464942400083563], [0.4668805160206543, 0.25514172919191136], [0.27025532750707015, 0.504961377304586], [0.2655779508457248, -0.5203874378004378], [0.3132090603334259, -0.0750897881342692], [-0.002513485395680748, 0.566073180996471], [0.22064567457798367, -0.2757787916554572], [-0.2854148741494184, 0.09533543417617751], [-0.11999798751558821, -0.22456303229674762], [-0.4628556988915362, -0.2703488279216216]]",density,black,,,D003,visual,1,[],"['1', '2', '3', '4']",1,2023.2.3,harveyvisual,2.1,[],8,0.75,
0,pause,0.4,None,None,None,0,121,121,121,,,,,,,,,,,,,D003,visual,1,[],"['1', '2', '3', '4']",1,2023.2.3,harveyvisual,2.1,[],8,0.75,
20,dot,0.3,['dot'],['density'],black,0,122,122,122,,,45.10018515586853,44.816752195358276,45.116734981536865,dot,"[0.06, 0.1, 0.08, 0.1, 0.06, 0.1, 0.08, 0.06, 0.08, 0.1, 0.08, 0.1, 0.1, 0.06, 0.06, 0.06, 0.1, 0.1, 0.08, 0.06]","[[-0.24223024275057203, 0.4052746617213421], [0.03913514082707925, -0.37905769384310756], [0.01899803409517231, 0.469075278457486], [0.11380451985238538, -0.14222291767430623], [-0.09099054750646851, 0.21359028598476648], [0.3113016838598315, 0.21787336203139818], [-0.5450076522561187, 0.19128869703990914], [-0.4287341982748981, -0.33456460863373516], [0.4314639698835393, -0.019645541817470358], [0.23809048788817933, -0.5265369292125662], [-0.5950981792374639, -0.06662653239173574], [-0.25548891730406986, 0.05686760379161693], [0.4349124656295519, -0.21842887488631085], [-0.3987097163114641, -0.1028917925785362], [-0.21949877520642858, -0.23166366354275175], [0.36387262216243144, 0.4125232184115579], [-0.1377096435466938, -0.502254615925165], [0.042775567223162, -0.588286358231803], [0.5520154634093334, 0.1371861096981503], [0.05572128793739628, 0.06551595735687765]]",density,black,,,D003,visual,1,[],"['1', '2', '3', '4']",1,2023.2.3,harveyvisual,2.1,[],8,0.75,
0,pause,0.4,None,None,None,0,123,123,123,,,,,,,,,,,,,D003,visual,1,[],"['1', '2', '3', '4']",1,2023.2.3,harveyvisual,2.1,[],8,0.75,
20,dot,0.3,['dot'],['density'],black,0,124,124,124,,,45.80019211769104,45.516637086868286,45.81664299964905,dot,"[0.06, 0.08, 0.06, 0.1, 0.1, 0.08, 0.06, 0.06, 0.08, 0.06, 0.06, 0.1, 0.06, 0.08, 0.06, 0.1, 0.06, 0.06, 0.08, 0.08]","[[0.4418230506371491, -0.3365226769344256], [-0.03881384630163076, 0.06509049153419377], [0.4662560109424291, 0.06875864210303817], [-0.5745472056943397, 0.143965105444867], [-0.014073802044641925, -0.5250056922168457], [-0.2538473209461023, 0.2320405589771367], [-0.1355221595400261, -0.22258220408877416], [-0.5173964134914171, -0.2892746741394835], [0.59351627875312, -0.11095444874501771], [-0.48900805639831163, -0.091201646115884], [-0.07369790060923487, 0.49148983272463564], [-0.3232778473969791, -0.4018041360454912], [0.27632786165078727, 0.5087300760688747], [0.21894610009894167, 0.0015231222282025003], [0.1550664886168902, 0.25520700569759136], [0.13280507055088453, -0.29022972429831634], [0.49347996910116454, 0.2940872144592168], [-0.20781688510682322, -0.5547227958717421], [-0.037569239554343103, 0.27989852348290634], [-0.25872124200543467, 0.0065311456179775185]]",density,black,,,D003,visual,1,[],"['1', '2', '3', '4']",1,2023.2.3,harveyvisual,2.1,[],8,0.75,
0,pause,0.4,None,None,None,0,125,125,125,,,,,,,,,,,,,D003,visual,1,[],"['1', '2', '3', '4']",1,2023.2.3,harveyvisual,2.1,[],8,0.75,
20,dot,0.3,['dot'],['density'],black,0,126,126,126,,,46.500184059143066,46.216655015945435,46.51649808883667,dot,"[0.06, 0.1, 0.08, 0.08, 0.06, 0.06, 0.08, 0.06, 0.1, 0.06, 0.08, 0.1, 0.08, 0.1, 0.06, 0.08, 0.06, 0.1, 0.08, 0.06]","[[0.3802669742136944, 0.11647760503299137], [-0.002940198854325393, 0.49577788358735975], [-0.5257484421205756, 0.11789198894069819], [-0.19707677764004655, -0.23793301925702104], [-0.3369365906655224, 0.32324233974944205], [-0.03781865571152532, -0.5168885230215564], [0.43774960499673277, -0.1939935826458917], [-0.04177345992034642, -0.04763505413637681], [0.43380932022103236, -0.4060060896480466], [-0.2924446716596888, -0.06440023318579219], [0.21480223793088915, 0.452412061726733], [-0.583129768082051, -0.15990744925174077], [0.42467963536812026, 0.3904701798706592], [0.5587797032034963, 0.22280680596907776], [-0.38798565929311934, -0.3782688284749177], [-0.1207067277985171, 0.16686259943384152], [0.1681997789676244, -0.4525836077544283], [0.0205640431141616, -0.31971229147764707], [0.16898374813910855, 0.1301959422017548], [-0.15298457674913468, 0.3685538159933548]]",density,black,,,D003,visual,1,[],"['1', '2', '3', '4']",1,2023.2.3,harveyvisual,2.1,[],8,0.75,
0,pause,0.4,None,None,None,0,127,127,127,,,,,,,,,,,,,D003,visual,1,[],"['1', '2', '3', '4']",1,2023.2.3,harveyvisual,2.1,[],8,0.75,
20,dot,0.3,['dot'],['density'],black,0,128,128,128,,,47.200181007385254,46.91649317741394,47.21645212173462,dot,"[0.1, 0.08, 0.08, 0.06, 0.06, 0.06, 0.06, 0.08, 0.1, 0.06, 0.06, 0.1, 0.06, 0.08, 0.1, 0.1, 0.1, 0.06, 0.08, 0.06]","[[0.2780191233312833, -0.4684380155380591], [-0.1565923988352464, -0.5424871912441417], [0.10582035177071014, 0.23372938970041568], [0.4644093606929659, 0.34268388162116803], [-0.07129472512083601, -0.13065044290871114], [-0.5142949938861741, 0.16851459033905325], [-0.2689497840856584, -0.18987026219797626], [-0.07175514571659947, 0.5821233652066142], [-0.21328573925115457, 0.2858252537913415], [0.3921892958020957, 0.058033687928693456], [-0.05317854487666518, -0.3363067403869641], [-0.5049656838879677, -0.15752170158970338], [0.509206847022769, -0.31566772426271045], [0.5825529866082658, 0.14098009991595858], [0.18427115049995868, 0.01573890654078347], [-0.39510801154119773, 0.3402862938768445], [0.3593960052225911, -0.17327986663039047], [-0.36897830474867366, 0.03315317779399368], [0.20130530795259383, -0.28201805089959026], [-0.43891914956092026, -0.3981416253012408]]",density,black,,,D003,visual,1,[],"['1', '2', '3', '4']",1,2023.2.3,harveyvisual,2.1,[],8,0.75,
0,pause,0.4,None,None,None,0,129,129,129,,,,,,,,,,,,,D003,visual,1,[],"['1', '2', '3', '4']",1,2023.2.3,harveyvisual,2.1,[],8,0.75,
20,dot,0.3,['dot'],['density'],black,0,130,130,130,,,47.900185108184814,47.616430044174194,47.91642212867737,dot,"[0.06, 0.08, 0.08, 0.08, 0.1, 0.1, 0.08, 0.08, 0.1, 0.08, 0.1, 0.06, 0.1, 0.1, 0.06, 0.1, 0.06, 0.06, 0.1, 0.1]","[[0.5631662405415697, -0.007018422501266108], [0.36870379886294147, -0.20459448523844753], [-0.36722629507301974, 0.23683845034531847], [0.2915552649397417, 0.08881341540259591], [0.03263993085644923, -0.3794216640591348], [0.43061810417320434, 0.3390043940216847], [-0.5270951400660685, -0.27951863338013244], [-0.3069198156684221, -0.2649856983237324], [0.04237907746212233, -0.0640932420499315], [-0.15753831565074106, -0.07506191078147884], [0.08431548143570344, 0.14295103348305227], [0.23846832349686886, 0.49477585457928785], [0.3769621772842964, -0.4088569518818318], [0.02862175157278246, 0.4197595425949926], [-0.059702116916771075, -0.5835739024979836], [-0.4726794010062695, 0.04103006454311653], [-0.19648759326296228, 0.4527313862605369], [-0.1796121755780113, 0.16142792485874113], [0.15408487927104364, -0.5328103700069204], [-0.29713399010691893, -0.4950285803609644]]",density,black,,,D003,visual,1,[],"['1', '2', '3', '4']",1,2023.2.3,harveyvisual,2.1,[],8,0.75,
0,pause,0.4,None,None,None,0,131,131,131,,,,,,,,,,,,,D003,visual,1,[],"['1', '2', '3', '4']",1,2023.2.3,harveyvisual,2.1,[],8,0.75,
20,dot,0.3,['dot'],['density'],black,0,132,132,132,,,48.600188970565796,48.31639909744263,48.616393089294434,dot,"[0.1, 0.08, 0.08, 0.06, 0.06, 0.08, 0.1, 0.06, 0.06, 0.06, 0.08, 0.1, 0.06, 0.1, 0.1, 0.06, 0.1, 0.08, 0.06, 0.06]","[[-0.18313491862418269, -0.24220487912735944], [0.5468711418345119, -0.19045556519722645], [0.09050285049995688, -0.0906472908924838], [-0.5829812789295096, 0.015141671226063802], [-0.2706427917367529, 0.3126202896298027], [-0.3319673736683952, 0.019838311372808892], [0.3310548090439007, 0.17741968932405394], [-0.4387229474772155, -0.33902740920623975], [0.2514531643995228, -0.2487964318356629], [-0.46984908381132084, 0.24997164221346813], [0.1721713438599466, -0.43564460103331243], [0.12546818482508182, 0.18542832569724188], [0.545452015135783, 0.2531226191470736], [-0.0035982245667952606, 0.3740244920568714], [-0.02691431989754678, -0.3836560887316347], [0.2778611949158759, 0.4784415732503382], [-0.12103752166608067, 0.5268394139207001], [0.5301852554273353, 0.006091786820549339], [-0.09223882205179079, 0.09744649468379607], [-0.15384615775895655, -0.5364582061691329]]",density,black,,,D003,visual,1,[],"['1', '2', '3', '4']",1,2023.2.3,harveyvisual,2.1,[],8,0.75,
0,pause,0.4,None,None,None,0,133,133,133,,,,,,,,,,,,,D003,visual,1,[],"['1', '2', '3', '4']",1,2023.2.3,harveyvisual,2.1,[],8,0.75,
20,dot,0.3,['dot'],['density'],black,0,134,134,134,,,49.300191164016724,49.0164270401001,49.31637501716614,dot,"[0.06, 0.1, 0.08, 0.08, 0.06, 0.1, 0.06, 0.1, 0.1, 0.08, 0.1, 0.1, 0.1, 0.06, 0.08, 0.06, 0.1, 0.1, 0.1, 0.06]","[[-0.0342681207821256, 0.13834111484199585], [-0.28654381436192333, -0.21532527312164507], [0.34902801173098474, 0.09759757291821564], [0.36075511311206254, -0.11842889116826938], [-0.37523846659898663, 0.014560327294171338], [0.5664896058163741, 0.07702429311583295], [0.2843787717252346, -0.4169346868578652], [0.43991655022223874, 0.3628435254689002], [0.023835962874448224, -0.1396137774507586], [0.02703095089508656, -0.46112431840953716], [-0.1075834156674838, 0.5930185980812714], [-0.46626772510764414, 0.26289937366428956], [0.5187951328886856, -0.3014195019568866], [-0.16737606655555898, -0.5309265214820081], [-0.5851469513567542, -0.05481538647776517], [-0.39745278548748897, -0.4299225409500258], [-0.29149264431787225, 0.40617722312090765], [-0.11897135691809468, -0.33668385981150045], [-0.11283757204549622, 0.336493329122328], [0.0878293460313131, 0.46858782824936074]]",density,black,,,D003,visual,1,[],"['1', '2', '3', '4']",1,2023.2.3,harveyvisual,2.1,[],8,0.75,
0,pause,0.4,None,None,None,0,135,135,135,,,,,,,,,,,,,D003,visual,1,[],"['1', '2', '3', '4']",1,2023.2.3,harveyvisual,2.1,[],8,0.75,
20,dot,0.3,['dot'],['density'],black,0,136,136,136,,,50.00020503997803,49.71636199951172,50.016348123550415,dot,"[0.1, 0.08, 0.06, 0.08, 0.08, 0.06, 0.08, 0.06, 0.08, 0.1, 0.1, 0.08, 0.08, 0.06, 0.06, 0.08, 0.06, 0.08, 0.1, 0.06]","[[0.1717223694176917, 0.07506803265058482], [-0.0256381214161574, -0.005311500650440504], [0.5279682478861903, 0.15393875805456286], [0.3860594815550936, -0.4018373770903039], [-0.24935997222887124, 0.033242435956224115], [-0.4520210834792955, 0.2996964049072345], [0.5537077739151669, -0.12520872710869813], [-0.43873654773680826, 0.038481547794565196], [-0.07023432097821325, 0.34491255051982095], [0.19676670035807742, -0.22132258088959644], [0.2866583321746279, 0.4651590477355352], [-0.26223321105137265, 0.2808271151466143], [-0.1192640299965052, -0.18550420599619194], [-0.30383092483795016, -0.48613376869078745], [-0.024461559669607724, -0.4234550279082916], [-0.43094936500778686, -0.33406884311977236], [0.37190267429441526, -0.04529232604578587], [-0.2251064882380716, 0.534351257886354], [-0.5116344337611778, -0.1518132360353926], [0.15339576557971546, -0.5238695120043108]]",density,black,,,D003,visual,1,[],"['1', '2', '3', '4']",1,2023.2.3,harveyvisual,2.1,[],8,0.75,
0,pause,0.4,None,None,None,0,137,137,137,,,,,,,,,,,,,D003,visual,1,[],"['1', '2', '3', '4']",1,2023.2.3,harveyvisual,2.1,[],8,0.75,
20,dot,0.3,['dot'],['density'],black,0,138,138,138,,,50.700206995010376,50.41634702682495,50.71634316444397,dot,"[0.1, 0.06, 0.08, 0.1, 0.1, 0.1, 0.1, 0.06, 0.08, 0.1, 0.06, 0.08, 0.06, 0.08, 0.08, 0.06, 0.06, 0.1, 0.1, 0.1]","[[0.19814492386102323, 0.03432078722903642], [0.3616078457503136, -0.1156935887483651], [-0.35157832779419074, -0.2545494683810906], [0.5739636928664466, -0.1628359286778312], [-0.18979905992863377, 0.027018380463019076], [0.005411343933125923, -0.11391351533794597], [0.5614540482318217, 0.20465164567358912], [0.3448729608344435, 0.25506293353149484], [-0.4637779515908671, 0.16466937859885156], [-0.19898727973159908, 0.28961465890221083], [-0.23511075610847837, -0.47675897301117215], [-0.5272834390597555, -0.12266187639611623], [-0.07414424636394279, 0.5332709396612165], [-0.39337363726027763, 0.402373422877119], [0.1914273241524127, -0.20834281561644996], [0.27212171785868733, -0.44941650696310825], [0.05490498247845932, 0.2566361054379799], [-0.030991330098356307, -0.353392291510487], [0.24772129500805784, 0.5207575270022], [0.4314862446010398, 0.4243776492553473]]",density,black,,,D003,visual,1,[],"['1', '2', '3', '4']",1,2023.2.3,harveyvisual,2.1,[],8,0.75,
0,pause,0.4,None,None,None,0,139,139,139,,,,,,,,,,,,,D003,visual,1,[],"['1', '2', '3', '4']",1,2023.2.3,harveyvisual,2.1,[],8,0.75,
20,dot,0.3,['dot'],['density'],black,0,140,140,140,,,51.40021014213562,51.116345167160034,51.41636300086975,dot,"[0.1, 0.08, 0.1, 0.08, 0.06, 0.06, 0.06, 0.06, 0.08, 0.1, 0.1, 0.06, 0.1, 0.06, 0.06, 0.08, 0.06, 0.08, 0.1, 0.08]","[[0.2438338368562054, 0.13526072107103682], [-0.3200831146177927, 0.069700947146491], [-0.4307930807848043, -0.08563252118235809], [-0.09040610940242311, 0.21170319599176113], [0.3403223549662815, -0.22783272118698045], [0.18204989695207285, 0.32719655556847616], [-0.0388151327642513, -0.34463467692921307], [0.6036014077039012, 0.030084050167400622], [0.12405341092602618, -0.2035023556311275], [0.4348016661152677, 0.2556330473953241], [-0.1981198079820804, -0.09448917651856792], [0.10294720547411229, -0.5149419412695702], [-0.4286193430605137, 0.382221870061229], [-0.5195266927593183, 0.2142703209382067], [-0.49807372051550597, -0.29912081543503516], [-0.2378711001152068, -0.45807732871644663], [-0.21536258012895043, 0.5340661431652002], [0.5600491646707227, -0.17579528656793322], [0.17738232704615775, 0.5687147073435843], [0.005446727031217402, 0.48106456846377077]]",density,black,,,D003,visual,1,[],"['1', '2', '3', '4']",1,2023.2.3,harveyvisual,2.1,[],8,0.75,
0,pause,0.4,None,None,None,0,141,141,141,,,,,,,,,,,,,D003,visual,1,[],"['1', '2', '3', '4']",1,2023.2.3,harveyvisual,2.1,[],8,0.75,
20,dot,0.3,['dot'],['density'],black,0,142,142,142,,,52.10018706321716,51.816375970840454,52.11637210845947,dot,"[0.1, 0.06, 0.06, 0.1, 0.06, 0.08, 0.06, 0.1, 0.08, 0.06, 0.08, 0.08, 0.1, 0.06, 0.1, 0.08, 0.06, 0.06, 0.08, 0.1]","[[-0.27365850796211744, 0.09842964787463238], [-0.28219379363862473, 0.5089239333493141], [0.49465489619601877, 0.0855149464190682], [0.2914683491194945, -0.4681136221460207], [0.07114315348606903, -0.42040752149659044], [0.1877168619915014, -0.0798251456823349], [-0.024057570052060107, 0.11913888958434793], [-0.49763645321225897, 0.10921702393318433], [-0.3901844225189095, -0.21395774444047053], [-0.1904118631998637, -0.30963103264768876], [0.44053915867497107, 0.3849263825855885], [-0.0395109989098128, 0.3269451884598479], [-0.12021486447804869, -0.048404423128821095], [0.07452241878698507, 0.5812578798393366], [0.30250717216834344, 0.2048881754163535], [0.5851912403104954, -0.10002223249639182], [-0.40173027339892686, 0.3163864424658812], [-0.11665276576503841, -0.5608640580314903], [0.4417030585416152, -0.23997268949935874], [-0.3587568276293889, -0.4386240571110851]]",density,black,,,D003,visual,1,[],"['1', '2', '3', '4']",1,2023.2.3,harveyvisual,2.1,[],8,0.75,
0,pause,0.4,None,None,None,0,143,143,143,,,,,,,,,,,,,D003,visual,1,[],"['1', '2', '3', '4']",1,2023.2.3,harveyvisual,2.1,[],8,0.75,
20,dot,0.3,['dot'],['density'],black,0,144,144,144,,,52.80020308494568,52.51630401611328,52.81629514694214,dot,"[0.1, 0.06, 0.1, 0.08, 0.06, 0.06, 0.06, 0.06, 0.1, 0.06, 0.08, 0.08, 0.1, 0.08, 0.1, 0.08, 0.06, 0.1, 0.08, 0.08]","[[0.530373605385794, -0.20511279860649098], [0.5985007007934963, -0.02695236207404432], [0.057537554985639394, 0.48345468576174133], [-0.11977785905561344, 0.06062177377742395], [-0.5805958888174751, 0.1228885036205569], [0.10962682163048476, 0.27659225980091895], [-0.19045714139259168, -0.1585469314616616], [-0.12277996822690884, -0.5038126104671826], [-0.3031035890170283, 0.2011589713339751], [0.5289201309264423, 0.2527829666829551], [-0.4134992775338972, -0.0606101130698527], [-0.4386021446771765, -0.2758072885119549], [0.15759527174870747, -0.546641155758677], [0.3091724323085123, 0.24724809349650012], [-0.1896018961884005, 0.3786860449754983], [0.33534097944670227, -0.33750873846371865], [0.38192303412016204, -0.06964056567047933], [0.05763077069570788, -0.0176853554372145], [0.06856892477659104, -0.2573338411835893], [-0.15933284966094113, 0.5732304434168085]]",density,black,,,D003,visual,1,[],"['1', '2', '3', '4']",1,2023.2.3,harveyvisual,2.1,[],8,0.75,
0,pause,0.4,None,None,None,0,145,145,145,,,,,,,,,,,,,D003,visual,1,[],"['1', '2', '3', '4']",1,2023.2.3,harveyvisual,2.1,[],8,0.75,
20,dot,0.3,['dot'],['density'],black,0,146,146,146,,,53.50020909309387,53.21629810333252,53.516276121139526,dot,"[0.06, 0.06, 0.1, 0.06, 0.1, 0.06, 0.08, 0.1, 0.06, 0.08, 0.08, 0.06, 0.08, 0.06, 0.06, 0.1, 0.06, 0.08, 0.06, 0.06]","[[0.5608517381431505, -0.22255310652996935], [0.048307870143714626, 0.3652411483670306], [-0.48373756674321333, -0.3089332481554947], [0.03430351572177648, -0.016586618617587146], [0.49691613151412406, 0.12649179667521065], [-0.4376219015592412, 0.09569334873249219], [-0.2840246087154774, 0.29757712230597677], [-0.06448678286260867, -0.48983558371949115], [0.22976178627585198, -0.5138311994787689], [0.3592275469499463, -0.26284764178350595], [0.12129902172061424, -0.2050740945458302], [0.18984104008574232, 0.22110692610492821], [-0.23811796969383642, -0.15571913947715088], [0.05535806827434919, 0.5864588824720754], [-0.20377401570852283, 0.49462187189962203], [-0.20671482057539287, 0.06481049324933164], [0.41101491084633934, -0.048184042457280085], [-0.5781435444289212, -0.06748738843346623], [-0.30604256649725764, -0.5020219991271265], [0.37596874931650615, 0.3624271014989255]]",density,black,,,D003,visual,1,[],"['1', '2', '3', '4']",1,2023.2.3,harveyvisual,2.1,[],8,0.75,
0,pause,0.4,None,None,None,0,147,147,147,,,,,,,,,,,,,D003,visual,1,[],"['1', '2', '3', '4']",1,2023.2.3,harveyvisual,2.1,[],8,0.75,
20,dot,0.3,['dot'],['density'],black,0,148,148,148,,,54.20020413398743,53.916293144226074,54.21626114845276,dot,"[0.06, 0.1, 0.08, 0.06, 0.1, 0.06, 0.08, 0.1, 0.1, 0.08, 0.1, 0.06, 0.06, 0.1, 0.08, 0.1, 0.1, 0.06, 0.1, 0.08]","[[-0.03774546303264292, -0.41350712221812314], [-0.25807176544224814, 0.44499372445780017], [0.22333919823909976, -0.18560619673546797], [0.17005870266422773, 0.1380081599584131], [-0.29333471077389006, -0.29037507136008733], [0.3837709564472842, 0.4281962384365078], [0.41829436122618124, -0.1807266995174459], [0.536855029009586, 0.16705334522310833], [-0.31720615784319256, -0.0016451573287468158], [-0.5910817817408666, -0.015971579919533532], [-0.04195856166056244, 0.37713817767474966], [-0.035876034851766825, 0.18361399639697928], [-0.4266836514206219, 0.24615427228187858], [-0.028113673742715117, -0.16964237570696167], [0.1875718636171766, -0.4738514885534796], [-0.5215050608256178, -0.24534972016952966], [0.5839737154539685, -0.07645399608652188], [0.3744606451230069, -0.40596844322842085], [-0.25365724546579027, -0.4793983911934813], [0.3473393646127221, 0.06680239784168435]]",density,black,,,D003,visual,1,[],"['1', '2', '3', '4']",1,2023.2.3,harveyvisual,2.1,[],8,0.75,
0,pause,0.4,None,None,None,0,149,149,149,,,,,,,,,,,,,D003,visual,1,[],"['1', '2', '3', '4']",1,2023.2.3,harveyvisual,2.1,[],8,0.75,
20,dot,0.3,['dot'],['density'],black,0,150,150,150,,,54.90021014213562,54.61629319190979,54.91621708869934,dot,"[0.08, 0.06, 0.06, 0.1, 0.08, 0.1, 0.08, 0.08, 0.08, 0.06, 0.08, 0.06, 0.08, 0.1, 0.08, 0.1, 0.1, 0.1, 0.08, 0.08]","[[-0.03404812305630467, -0.41777650713114145], [0.38416050259422996, -0.41796262306467996], [-0.4488738119887839, -0.03386395925004643], [0.0348214356435711, 0.43831709135317964], [0.12135955432337442, -0.09466477041219701], [-0.3061820948477126, -0.19115765833662735], [0.49862069534454034, 0.3260702952631901], [-0.35750096753689675, -0.3967803358684916], [0.4406082687142462, -0.0959820383283223], [-0.3876905983592812, 0.3310786525518789], [-0.26115970205412714, 0.06763525984833663], [0.1979272012923975, 0.29243193818631974], [-0.07803771217411926, -0.18575773207558038], [0.29025108999283933, 0.10725123592591923], [-0.3033749325541445, 0.5069429904175478], [-0.04547996518109798, 0.0064512936225366024], [0.5694933134059529, 0.054363865959140584], [-0.18995731554409878, -0.5347225535990121], [-0.569752994201698, -0.189246587786312], [0.25102960472242863, -0.27506754216872986]]",density,black,,,D003,visual,1,[],"['1', '2', '3', '4']",1,2023.2.3,harveyvisual,2.1,[],8,0.75,
0,pause,0.4,None,None,None,0,151,151,151,,,,,,,,,,,,,D003,visual,1,[],"['1', '2', '3', '4']",1,2023.2.3,harveyvisual,2.1,[],8,0.75,
20,dot,0.3,['dot'],['density'],black,0,152,152,152,,,55.60019898414612,55.31621813774109,55.616255044937134,dot,"[0.06, 0.08, 0.08, 0.1, 0.1, 0.06, 0.1, 0.1, 0.1, 0.1, 0.08, 0.06, 0.08, 0.06, 0.1, 0.08, 0.1, 0.06, 0.08, 0.08]","[[0.09137952005465177, -0.0724377030555069], [0.39340376600990046, 0.04876699688154801], [0.41369990301685566, -0.40441177284905233], [0.5991265013378145, 0.065238472631469], [0.26990443842065437, 0.4119973780181623], [-0.2787433624365479, -0.35071361944955354], [-0.20377350642310865, 0.2191349065137016], [-0.4135384904282028, 0.4313344545882252], [-0.6037855143665523, 0.0306697046628922], [-0.18354514263832783, -0.1609467631753831], [-0.46886795877187715, -0.2677224962634184], [-0.22610290598468974, 0.5593269561829196], [-0.2604132702122621, -0.5446278370057283], [-0.014697327273947014, 0.08663656063492386], [-0.011521447332588197, -0.6045750968006615], [-0.3866029165301478, -0.04834809685606006], [-0.05154519701958904, 0.3383016301026881], [0.3131718074014296, -0.1603661897684419], [0.2244203601630318, 0.17215408479932592], [-0.030648152929637296, 0.5549896366076978]]",density,black,,,D003,visual,1,[],"['1', '2', '3', '4']",1,2023.2.3,harveyvisual,2.1,[],8,0.75,
0,pause,0.4,None,None,None,0,153,153,153,,,,,,,,,,,,,D003,visual,1,[],"['1', '2', '3', '4']",1,2023.2.3,harveyvisual,2.1,[],8,0.75,
20,dot,0.3,['dot'],['density'],black,0,154,154,154,,,56.30020213127136,56.01624608039856,56.31618905067444,dot,"[0.1, 0.1, 0.1, 0.08, 0.08, 0.1, 0.1, 0.06, 0.08, 0.1, 0.08, 0.08, 0.08, 0.06, 0.1, 0.06, 0.08, 0.08, 0.06, 0.1]","[[-0.2834168654187826, -0.41248111418782085], [-0.3181977244258596, 0.33276177960346787], [-0.03125697861931864, 0.021840946124604077], [0.3250426671100558, 0.2882777612953633], [0.35901705225938174, -0.016966585787469513], [-0.5158455980723313, 0.1697599851896896], [0.18516706479081313, 0.4873420158048358], [-0.5857857849887409, -0.007879318457819806], [-0.54845327875555, -0.23106905909744163], [0.4238212193028129, -0.38147755728333593], [-0.028072326914455825, 0.42724281953360954], [0.0785931492170594, -0.2952358627471369], [0.5938654839696552, -0.04653006608153294], [0.5451966311717192, 0.14914714845636007], [-0.24580184477287542, -0.04545976874568347], [0.14413161017979903, -0.5783108221060639], [-0.03145086112237061, -0.4780647285838349], [0.2905594049652914, -0.23117757873995903], [-0.0782205644060755, 0.2298308727681586], [0.11198905880931587, 0.2639178144193851]]",density,black,,,D003,visual,1,[],"['1', '2', '3', '4']",1,2023.2.3,harveyvisual,2.1,[],8,0.75,
0,pause,0.4,None,None,None,0,155,155,155,,,,,,,,,,,,,D003,visual,1,[],"['1', '2', '3', '4']",1,2023.2.3,harveyvisual,2.1,[],8,0.75,
9,dot,0.3,['dot'],['density'],black,0,156,156,156,,,57.000187158584595,56.71621608734131,57.01616406440735,dot,"[0.1, 0.08, 0.06, 0.06, 0.06, 0.06, 0.06, 0.06, 0.1]","[[-0.05049485011715354, 0.3013521193238899], [0.15354596755057998, 0.36785015051376163], [0.22995749783639982, 0.07309138415424772], [0.13460311710395165, -0.18603378415368982], [0.33097739113381164, -0.13822260855557728], [-0.16464148731134703, 0.07190493829483618], [0.521154897315396, -0.007803673430992942], [0.02684304494395013, 0.0018704401699241912], [-0.15545279255173522, -0.15329938800760382]]",density,black,,,D003,visual,1,[],"['1', '2', '3', '4']",1,2023.2.3,harveyvisual,2.1,[],8,0.75,
0,pause,0.4,None,None,None,0,157,157,157,,,,,,,,,,,,,D003,visual,1,[],"['1', '2', '3', '4']",1,2023.2.3,harveyvisual,2.1,[],8,0.75,
9,dot,0.3,['dot'],['density'],black,0,158,158,158,,,57.70020508766174,57.41621112823486,57.716153144836426,dot,"[0.08, 0.1, 0.08, 0.08, 0.06, 0.1, 0.06, 0.06, 0.1]","[[-0.4219467838066047, -0.18114019941065054], [-0.2081543488995217, -0.4860059455967178], [-0.008274735502094755, -0.3457533902190916], [0.02376323820852766, -0.0891001390581758], [-0.4116277839025775, 0.058108040724694845], [-0.18144554169200455, -0.05292133149533743], [0.21944315682242976, -0.26450239569476724], [0.11466821484809545, 0.13327019789913197], [-0.2288148866166432, -0.2599929378926301]]",density,black,,,D003,visual,1,[],"['1', '2', '3', '4']",1,2023.2.3,harveyvisual,2.1,[],8,0.75,
0,pause,0.4,None,None,None,0,159,159,159,,,,,,,,,,,,,D003,visual,1,[],"['1', '2', '3', '4']",1,2023.2.3,harveyvisual,2.1,[],8,0.75,
9,dot,0.3,['dot'],['density'],black,0,160,160,160,,,58.40021109580994,58.11621308326721,58.416224002838135,dot,"[0.06, 0.1, 0.1, 0.1, 0.06, 0.1, 0.08, 0.1, 0.1]","[[0.5176022259896301, 0.07013652950073157], [0.29073914382076843, 0.49095716113391286], [0.25755010907869064, 0.10321661572421419], [0.11549350267606502, 0.37871636325142816], [-0.040248060121338324, 0.07603447111469516], [0.35733910828644905, -0.07238149579930037], [0.09184169877402729, -0.10424630849328012], [-0.10934901156313583, -0.14911132891814113], [0.4158094160330474, 0.26019999263529187]]",density,black,,,D003,visual,1,[],"['1', '2', '3', '4']",1,2023.2.3,harveyvisual,2.1,[],8,0.75,
0,pause,0.4,None,None,None,0,161,161,161,,,,,,,,,,,,,D003,visual,1,[],"['1', '2', '3', '4']",1,2023.2.3,harveyvisual,2.1,[],8,0.75,
9,dot,0.3,['dot'],['density'],black,0,162,162,162,,,59.10020303726196,58.81618618965149,59.11615014076233,dot,"[0.1, 0.1, 0.08, 0.08, 0.06, 0.08, 0.1, 0.1, 0.06]","[[-0.5242180236495622, 0.2097960018926228], [-0.2671382220306689, 0.3003190330968159], [-0.06183693718886379, 0.22592490829479475], [-0.2001015593906042, -0.14641750634996328], [-0.09246193223873551, 0.43765994221656135], [-0.29330373087767303, 0.05285487614136386], [0.007094383220706952, 0.008748553761596398], [0.1465325421295601, 0.294910430799518], [0.04425292235957525, -0.2230758375085622]]",density,black,,,D003,visual,1,[],"['1', '2', '3', '4']",1,2023.2.3,harveyvisual,2.1,[],8,0.75,
0,pause,0.4,None,None,None,0,163,163,163,,,,,,,,,,,,,D003,visual,1,[],"['1', '2', '3', '4']",1,2023.2.3,harveyvisual,2.1,[],8,0.75,
9,dot,0.3,['dot'],['density'],black,0,164,164,164,,,59.80020713806152,59.516160011291504,59.81613516807556,dot,"[0.06, 0.06, 0.06, 0.06, 0.1, 0.1, 0.06, 0.08, 0.08]","[[-0.25982930089867384, 0.41046177320377714], [0.2391912210628672, 0.4152301159030731], [-0.011899047454085643, 0.5103750441914148], [0.15826907621474634, 0.20577518054892585], [-0.29033424199965224, 0.2058356795488901], [-0.056026696670660174, 0.08152775180209879], [-0.32571421803823364, -0.002973879155612714], [0.39820859476685, 0.29236875228581105], [-0.06367065787951752, 0.28966088639372295]]",density,black,,,D003,visual,1,[],"['1', '2', '3', '4']",1,2023.2.3,harveyvisual,2.1,[],8,0.75,
0,pause,0.4,None,None,None,0,165,165,165,,,,,,,,,,,,,D003,visual,1,[],"['1', '2', '3', '4']",1,2023.2.3,harveyvisual,2.1,[],8,0.75,
9,dot,0.3,['dot'],['density'],black,0,166,166,166,,,60.50019812583923,60.21612620353699,60.516239166259766,dot,"[0.1, 0.1, 0.08, 0.1, 0.08, 0.1, 0.06, 0.08, 0.06]","[[0.22829877875946783, -0.39640994854570016], [0.3366371496270161, 0.05839125036393789], [-0.11436045239834208, -0.12024221759915668], [-0.02100147820737577, -0.3824026009196371], [0.08479146627654295, 0.024089629435920912], [0.16206374850784472, -0.16075841177209507], [0.38495438842944835, -0.24810596019115372], [-0.23418047716532614, 0.09565997955556291], [0.2111996426858246, 0.23215637940447356]]",density,black,,,D003,visual,1,[],"['1', '2', '3', '4']",1,2023.2.3,harveyvisual,2.1,[],8,0.75,
0,pause,0.4,None,None,None,0,167,167,167,,,,,,,,,,,,,D003,visual,1,[],"['1', '2', '3', '4']",1,2023.2.3,harveyvisual,2.1,[],8,0.75,
8,dot,0.3,['dot'],['density'],black,0,168,168,168,,,61.20021319389343,60.916107177734375,61.216228008270264,dot,"[0.08, 0.08, 0.06, 0.08, 0.06, 0.1, 0.1, 0.06]","[[-0.19427332908310624, 0.44975086906229733], [-0.40583056883657587, 0.41268852933836647], [-0.1064323235824443, 0.09134240931295125], [0.037438273390647224, 0.2873761216870531], [-0.27580465694358225, 0.2567900319995576], [0.047234249799456944, 0.4983172858691376], [0.15563182967593078, 0.1192504703698398], [-0.32834908909536226, -0.014402300111889832]]",density,black,,,D003,visual,1,[],"['1', '2', '3', '4']",1,2023.2.3,harveyvisual,2.1,[],8,0.75,
0,pause,0.4,None,None,None,0,169,169,169,,,,,,,,,,,,,D003,visual,1,[],"['1', '2', '3', '4']",1,2023.2.3,harveyvisual,2.1,[],8,0.75,
8,dot,0.3,['dot'],['density'],black,0,170,170,170,,,61.90019512176514,61.61607599258423,61.91611313819885,dot,"[0.08, 0.1, 0.08, 0.1, 0.1, 0.06, 0.08, 0.06]","[[0.28112832868380594, 0.3075763237432237], [-0.21381995858864508, 0.197554992839043], [0.14035436555963224, -0.1470740351963634], [-0.04856350071149823, -0.017306043905309515], [0.12070301707556046, 0.11279463428917226], [0.35236156425888765, 0.046198621115284964], [-0.012223412543992913, 0.3265760435025566], [0.11745206869397669, 0.49408919182137495]]",density,black,,,D003,visual,1,[],"['1', '2', '3', '4']",1,2023.2.3,harveyvisual,2.1,[],8,0.75,
0,pause,0.4,None,None,None,0,171,171,171,,,,,,,,,,,,,D003,visual,1,[],"['1', '2', '3', '4']",1,2023.2.3,harveyvisual,2.1,[],8,0.75,
8,dot,0.3,['dot'],['density'],black,0,172,172,172,,,62.60019898414612,62.31607103347778,62.61618208885193,dot,"[0.1, 0.08, 0.06, 0.06, 0.06, 0.08, 0.1, 0.06]","[[-0.4639556696772753, 0.10472599959088454], [-0.22970357876872852, 0.24758381400794424], [-0.060094057158436125, -0.14613975383200573], [-0.022569829209962654, 0.2677975872319761], [-0.3077859326170116, -0.10488986274105515], [-0.16040535020917, 0.031608708128470005], [-0.5175577931920246, -0.20517812764611504], [0.1194024413118107, 0.007837779916585986]]",density,black,,,D003,visual,1,[],"['1', '2', '3', '4']",1,2023.2.3,harveyvisual,2.1,[],8,0.75,
0,pause,0.4,None,None,None,0,173,173,173,,,,,,,,,,,,,D003,visual,1,[],"['1', '2', '3', '4']",1,2023.2.3,harveyvisual,2.1,[],8,0.75,
8,dot,0.3,['dot'],['density'],black,0,174,174,174,,,63.30021405220032,63.016189098358154,63.31603813171387,dot,"[0.08, 0.08, 0.08, 0.1, 0.06, 0.1, 0.06, 0.1]","[[0.2695774744445919, -0.006239189610034271], [0.562582848369008, 0.10338967896652898], [0.24075709842543627, 0.2415297589697605], [0.16944247952526825, 0.43473569867318385], [0.009973801462114143, 0.2622623098226203], [0.4378981685404615, 0.30984992123658367], [0.345623627049791, -0.19390063473497438], [0.01218861403819752, 6.35764658527089e-05]]",density,black,,,D003,visual,1,[],"['1', '2', '3', '4']",1,2023.2.3,harveyvisual,2.1,[],8,0.75,
0,pause,0.4,None,None,None,0,175,175,175,,,,,,,,,,,,,D003,visual,1,[],"['1', '2', '3', '4']",1,2023.2.3,harveyvisual,2.1,[],8,0.75,
8,dot,0.3,['dot'],['density'],black,0,176,176,176,,,64.0001950263977,63.716042041778564,64.01602697372437,dot,"[0.08, 0.08, 0.1, 0.08, 0.06, 0.1, 0.1, 0.06]","[[-0.43120034012996816, -0.3965796075128045], [0.1478983624034229, -0.46770986256388064], [-0.23058307999139557, -0.3238539366063682], [-0.07988642296593639, -0.13993938361429092], [-0.08664795903044427, -0.5418074813242995], [0.11879255589163208, -0.1637425359681226], [-0.09873641234556067, 0.08705286872936738], [-0.025120016651009644, -0.34045580780112095]]",density,black,,,D003,visual,1,[],"['1', '2', '3', '4']",1,2023.2.3,harveyvisual,2.1,[],8,0.75,
0,pause,0.4,None,None,None,0,177,177,177,,,,,,,,,,,,,D003,visual,1,[],"['1', '2', '3', '4']",1,2023.2.3,harveyvisual,2.1,[],8,0.75,
8,dot,0.3,['dot'],['density'],black,0,178,178,178,,,64.70019602775574,64.41602897644043,64.71601605415344,dot,"[0.1, 0.06, 0.1, 0.1, 0.1, 0.1, 0.08, 0.1]","[[0.43039348711459674, -0.2176132953198537], [0.11499515674856413, 0.2899266495440316], [0.12808102003139596, -0.009244067984354065], [-0.030386771168905473, -0.2551920291624523], [0.3118809155168881, 0.2081403981228026], [-0.06282563634610334, 0.11114412413027695], [0.22944900542930163, -0.23921835558115082], [0.33219925311336224, 0.0035410395788749187]]",density,black,,,D003,visual,1,[],"['1', '2', '3', '4']",1,2023.2.3,harveyvisual,2.1,[],8,0.75,
0,pause,0.4,None,None,None,0,179,179,179,,,,,,,,,,,,,D003,visual,1,[],"['1', '2', '3', '4']",1,2023.2.3,harveyvisual,2.1,[],8,0.75,
7,dot,0.3,['dot'],['density'],black,0,180,180,180,,,65.40019416809082,65.11600112915039,65.41601014137268,dot,"[0.08, 0.08, 0.06, 0.08, 0.1, 0.08, 0.1]","[[-0.2314520007693297, 0.33838000150240727], [-0.18132207761103206, 0.5552670473927488], [0.017458222085991553, 0.32213086183097556], [0.10538257653630445, 0.5364165263315271], [-0.32661765694444117, 0.13553859080651098], [0.2001110614088519, 0.2352342526365964], [-0.07707990285528175, 0.1388757586163816]]",density,black,,,D003,visual,1,[],"['1', '2', '3', '4']",1,2023.2.3,harveyvisual,2.1,[],8,0.75,
0,pause,0.4,None,None,None,0,181,181,181,,,,,,,,,,,,,D003,visual,1,[],"['1', '2', '3', '4']",1,2023.2.3,harveyvisual,2.1,[],8,0.75,
7,dot,0.3,['dot'],['density'],black,0,182,182,182,,,66.10019111633301,65.81600713729858,66.11598610877991,dot,"[0.08, 0.06, 0.06, 0.06, 0.06, 0.06, 0.06]","[[0.373835093542847, 0.13553027784675922], [0.025265531087721685, -0.15487691700731251], [0.38086488534306906, -0.0720131222026176], [0.4315741710459581, -0.28075472739566504], [0.18097069018870113, 0.01647246612045595], [0.1962900518120967, -0.2624101628120604], [0.08955660480178401, 0.2127528718980948]]",density,black,,,D003,visual,1,[],"['1', '2', '3', '4']",1,2023.2.3,harveyvisual,2.1,[],8,0.75,
0,pause,0.4,None,None,None,0,183,183,183,,,,,,,,,,,,,D003,visual,1,[],"['1', '2', '3', '4']",1,2023.2.3,harveyvisual,2.1,[],8,0.75,
7,dot,0.3,['dot'],['density'],black,0,184,184,184,,,66.80020213127136,66.51599216461182,66.81595396995544,dot,"[0.06, 0.06, 0.1, 0.1, 0.06, 0.1, 0.08]","[[-0.0840690222646118, 0.326581156863932], [0.2873095043411744, 0.40733497502034743], [0.3312644566818162, -0.06338498518608723], [-0.0506181805300269, 0.10889297565070959], [0.1236891467835978, 0.25045991881734525], [0.122473450616654, -0.061936092255746894], [0.3019459967494134, 0.15241064997072415]]",density,black,,,D003,visual,1,[],"['1', '2', '3', '4']",1,2023.2.3,harveyvisual,2.1,[],8,0.75,
0,pause,0.4,None,None,None,0,185,185,185,,,,,,,,,,,,,D003,visual,1,[],"['1', '2', '3', '4']",1,2023.2.3,harveyvisual,2.1,[],8,0.75,
7,dot,0.3,['dot'],['density'],black,0,186,186,186,,,67.5002121925354,67.21592712402344,67.51700115203857,dot,"[0.1, 0.06, 0.1, 0.1, 0.1, 0.06, 0.1]","[[-0.0009033409944170771, 0.42006327366100915], [0.07504475251916, -0.022201311189229547], [-0.3616170585675141, 0.16750883091546095], [0.025412283732210435, 0.18669523424894663], [-0.17132175432412022, 0.2677160973152203], [-0.13541388111710323, 0.00927786556165188], [-0.3032959001003911, -0.13806764794565113]]",density,black,,,D003,visual,1,[],"['1', '2', '3', '4']",1,2023.2.3,harveyvisual,2.1,[],8,0.75,
0,pause,0.4,None,None,None,0,187,187,187,,,,,,,,,,,,,D003,visual,1,[],"['1', '2', '3', '4']",1,2023.2.3,harveyvisual,2.1,[],8,0.75,
7,dot,0.3,['dot'],['density'],black,0,188,188,188,,,68.20020008087158,67.91595697402954,68.21605515480042,dot,"[0.08, 0.08, 0.08, 0.1, 0.08, 0.08, 0.06]","[[0.3350011905151264, 0.09255159473130091], [-0.07424962927914175, -0.2643067362759337], [-0.0068732696698998825, 0.04948606721470151], [0.12855319879406235, -0.3381192636220083], [0.11551090787938859, 0.24000211478775196], [0.3415900712266813, -0.1269386107563701], [0.14228147320501944, -0.08533637750285226]]",density,black,,,D003,visual,1,[],"['1', '2', '3', '4']",1,2023.2.3,harveyvisual,2.1,[],8,0.75,
0,pause,0.4,None,None,None,0,189,189,189,,,,,,,,,,,,,D003,visual,1,[],"['1', '2', '3', '4']",1,2023.2.3,harveyvisual,2.1,[],8,0.75,
7,dot,0.3,['dot'],['density'],black,0,190,190,190,,,68.9002001285553,68.61603713035583,68.91598916053772,dot,"[0.06, 0.08, 0.08, 0.06, 0.08, 0.08, 0.06]","[[-0.1639205104410485, 0.5375336320852997], [0.13665370749938832, 0.21910895384688228], [-0.33778978147358674, 0.04597826141406851], [-0.2268593015261854, 0.22000868921510455], [-0.39586497221419475, 0.3389169711393182], [-0.023188047053822363, 0.08417042442854547], [-0.025005414605345992, 0.38521147685537843]]",density,black,,,D003,visual,1,[],"['1', '2', '3', '4']",1,2023.2.3,harveyvisual,2.1,[],8,0.75,
0,pause,0.4,None,None,None,0,191,191,191,,,,,,,,,,,,,D003,visual,1,[],"['1', '2', '3', '4']",1,2023.2.3,harveyvisual,2.1,[],8,0.75,
6,dot,0.3,['dot'],['density'],black,0,192,192,192,,,69.60020613670349,69.31589007377625,69.61597108840942,dot,"[0.08, 0.1, 0.06, 0.08, 0.1, 0.08]","[[0.23625405956766557, 0.3892633732772463], [0.11760889656980711, -0.0038201085241890706], [0.42882153754783053, 0.07157264481568941], [0.22360409458703237, 0.16865996735680294], [-0.08582952339030024, 0.051003002567710905], [-0.0010028139275050567, 0.23222523166366787]]",density,black,,,D003,visual,1,[],"['1', '2', '3', '4']",1,2023.2.3,harveyvisual,2.1,[],8,0.75,
0,pause,0.4,None,None,None,0,193,193,193,,,,,,,,,,,,,D003,visual,1,[],"['1', '2', '3', '4']",1,2023.2.3,harveyvisual,2.1,[],8,0.75,
6,dot,0.3,['dot'],['density'],black,0,194,194,194,,,70.30020904541016,70.01597809791565,70.31587409973145,dot,"[0.08, 0.1, 0.06, 0.1, 0.06, 0.1]","[[0.21259181929123794, -0.28356491423097735], [0.48303195854319764, 0.06048455888335473], [0.22913681079270962, 0.07473613686017411], [0.4939377514137012, -0.2837040300549214], [0.055643620130747785, -0.14290468481535015], [0.3711413815128542, -0.10952979375652658]]",density,black,,,D003,visual,1,[],"['1', '2', '3', '4']",1,2023.2.3,harveyvisual,2.1,[],8,0.75,
0,pause,0.4,None,None,None,0,195,195,195,,,,,,,,,,,,,D003,visual,1,[],"['1', '2', '3', '4']",1,2023.2.3,harveyvisual,2.1,[],8,0.75,
6,dot,0.3,['dot'],['density'],black,0,196,196,196,,,71.00020718574524,70.71583414077759,71.01586103439331,dot,"[0.08, 0.1, 0.06, 0.1, 0.06, 0.1]","[[-0.3075905201299059, -0.4396409988488083], [-0.19740249700094745, -0.17714391351551703], [0.053731853964380204, -0.5240815929277938], [0.045148855841778586, -0.17580561296456876], [0.17596231810730836, -0.3386358025171148], [-0.08995737585576556, -0.36423659604885134]]",density,black,,,D003,visual,1,[],"['1', '2', '3', '4']",1,2023.2.3,harveyvisual,2.1,[],8,0.75,
0,pause,0.4,None,None,None,0,197,197,197,,,,,,,,,,,,,D003,visual,1,[],"['1', '2', '3', '4']",1,2023.2.3,harveyvisual,2.1,[],8,0.75,
6,dot,0.3,['dot'],['density'],black,0,198,198,198,,,71.7002100944519,71.41581106185913,71.7157940864563,dot,"[0.06, 0.1, 0.08, 0.06, 0.1, 0.08]","[[0.4838288853419304, 0.012393783640839304], [0.3357737587390128, 0.3939464288632381], [0.48781910936274964, 0.21484656822060386], [0.038497076365425514, 0.2266532147795764], [0.13074852606734502, 0.009493629341700475], [0.2855531954453259, 0.1811044151544938]]",density,black,,,D003,visual,1,[],"['1', '2', '3', '4']",1,2023.2.3,harveyvisual,2.1,[],8,0.75,
0,pause,0.4,None,None,None,0,199,199,199,,,,,,,,,,,,,D003,visual,1,[],"['1', '2', '3', '4']",1,2023.2.3,harveyvisual,2.1,[],8,0.75,
6,dot,0.3,['dot'],['density'],black,0,200,200,200,,,72.40019607543945,72.11579203605652,72.41577410697937,dot,"[0.08, 0.06, 0.1, 0.1, 0.06, 0.1]","[[0.3299424372810393, 0.4114780133894161], [0.051944887288218326, -0.03233758374135307], [0.4337222981537534, -0.07578498258626121], [0.10477943773033714, 0.1703675017914044], [0.3400878522727408, 0.20016066552806494], [0.2510029109880425, 0.01747244452819591]]",density,black,,,D003,visual,1,[],"['1', '2', '3', '4']",1,2023.2.3,harveyvisual,2.1,[],8,0.75,
0,pause,0.4,None,None,None,0,201,201,201,,,,,,,,,,,,,D003,visual,1,[],"['1', '2', '3', '4']",1,2023.2.3,harveyvisual,2.1,[],8,0.75,
6,dot,0.3,['dot'],['density'],black,0,202,202,202,,,73.10020899772644,72.81577706336975,73.11577200889587,dot,"[0.06, 0.06, 0.08, 0.1, 0.08, 0.08]","[[-0.4836161913484198, -0.3187453071493452], [-0.26471688047626735, -0.2860523134109648], [-0.41762950244179403, 0.08668289631298715], [-0.3878484475239729, -0.1200129628316565], [-0.19654931186518254, -0.017200237521102193], [-0.07523945320955261, -0.19429752312200124]]",density,black,,,D003,visual,1,[],"['1', '2', '3', '4']",1,2023.2.3,harveyvisual,2.1,[],8,0.75,
0,pause,0.4,None,None,None,0,203,203,203,,,,,,,,,,,,,D003,visual,1,[],"['1', '2', '3', '4']",1,2023.2.3,harveyvisual,2.1,[],8,0.75,
5,dot,0.3,['dot'],['density'],black,0,204,204,204,,,73.80018901824951,73.51576614379883,73.81573104858398,dot,"[0.1, 0.1, 0.08, 0.06, 0.08]","[[-0.082153098152829, -0.06894165798345762], [0.016766770742065788, -0.42680196676869325], [0.2961099764235258, -0.14925166127785872], [-0.1456021726000032, -0.26669195071034546], [0.10213220283607832, -0.23321095001989858]]",density,black,,,D003,visual,1,[],"['1', '2', '3', '4']",1,2023.2.3,harveyvisual,2.1,[],8,0.75,
0,pause,0.4,None,None,None,0,205,205,205,,,,,,,,,,,,,D003,visual,1,[],"['1', '2', '3', '4']",1,2023.2.3,harveyvisual,2.1,[],8,0.75,
5,dot,0.3,['dot'],['density'],black,0,206,206,206,,,74.50020813941956,74.21578407287598,74.51574206352234,dot,"[0.08, 0.1, 0.06, 0.1, 0.06]","[[0.45108699871130137, 0.12052648913612102], [0.3120839015871755, -0.055344110322042436], [0.5361186937318446, -0.08608482415671545], [0.24926945818158194, 0.15209517992691748], [0.3855135356736719, -0.25840400127360613]]",density,black,,,D003,visual,1,[],"['1', '2', '3', '4']",1,2023.2.3,harveyvisual,2.1,[],8,0.75,
0,pause,0.4,None,None,None,0,207,207,207,,,,,,,,,,,,,D003,visual,1,[],"['1', '2', '3', '4']",1,2023.2.3,harveyvisual,2.1,[],8,0.75,
5,dot,0.3,['dot'],['density'],black,0,208,208,208,,,75.20021104812622,74.91575407981873,75.21574401855469,dot,"[0.1, 0.06, 0.08, 0.1, 0.06]","[[-0.08906257038347729, 0.3326351968500321], [0.2173987091792188, 0.026220721131276364], [0.07996259445097068, 0.4821024141609844], [0.14345365083950706, 0.2501481494916038], [-0.03323208063638199, 0.08804517681276208]]",density,black,,,D003,visual,1,[],"['1', '2', '3', '4']",1,2023.2.3,harveyvisual,2.1,[],8,0.75,
0,pause,0.4,None,None,None,0,209,209,209,,,,,,,,,,,,,D003,visual,1,[],"['1', '2', '3', '4']",1,2023.2.3,harveyvisual,2.1,[],8,0.75,
5,dot,0.3,['dot'],['density'],black,0,210,210,210,,,75.90021109580994,75.61569118499756,75.91575002670288,dot,"[0.08, 0.1, 0.08, 0.06, 0.1]","[[0.08548847697718086, 0.4135790235028826], [-0.012611048966726563, 0.22662400259503446], [0.27435170057987585, 0.4853016025774898], [-0.23063129862993442, 0.3109017384705433], [-0.11887524344887646, 0.49040580377695175]]",density,black,,,D003,visual,1,[],"['1', '2', '3', '4']",1,2023.2.3,harveyvisual,2.1,[],8,0.75,
0,pause,0.4,None,None,None,0,211,211,211,,,,,,,,,,,,,D003,visual,1,[],"['1', '2', '3', '4']",1,2023.2.3,harveyvisual,2.1,[],8,0.75,
5,dot,0.3,['dot'],['density'],black,0,212,212,212,,,76.60019111633301,76.31569409370422,76.61590600013733,dot,"[0.1, 0.08, 0.1, 0.06, 0.1]","[[0.36014554898799966, 0.387810422325294], [0.055757472799778995, 0.16941293674392635], [0.2210739480460382, 0.008175952352481365], [0.48495712857242873, 0.07425785546611247], [0.25975240449222103, 0.2092734881649904]]",density,black,,,D003,visual,1,[],"['1', '2', '3', '4']",1,2023.2.3,harveyvisual,2.1,[],8,0.75,
0,pause,0.4,None,None,None,0,213,213,213,,,,,,,,,,,,,D003,visual,1,[],"['1', '2', '3', '4']",1,2023.2.3,harveyvisual,2.1,[],8,0.75,
5,dot,0.3,['dot'],['density'],black,0,214,214,214,,,77.30020117759705,77.01590204238892,77.31567597389221,dot,"[0.06, 0.1, 0.06, 0.1, 0.1]","[[-0.19096480170835262, 0.2202776521134577], [0.009488999043989208, 0.5721548226574139], [0.16477125949827795, 0.3732973518003487], [0.07476286221063107, 0.1476230553836633], [-0.051949696108355745, 0.36609537475325354]]",density,black,,,D003,visual,1,[],"['1', '2', '3', '4']",1,2023.2.3,harveyvisual,2.1,[],8,0.75,
0,pause,0.4,None,None,None,0,215,215,215,,,,,,,,,,,,,D003,visual,1,[],"['1', '2', '3', '4']",1,2023.2.3,harveyvisual,2.1,[],8,0.75,
4,dot,0.3,['dot'],['density'],black,0,216,216,216,,,78.00021004676819,77.71590209007263,78.0158941745758,dot,"[0.08, 0.08, 0.1, 0.1]","[[-0.5133923796685119, -0.13567638448558317], [-0.3102378593599109, -0.17790160316510653], [-0.5338837235738882, 0.07316730980410076], [-0.255286731521037, 0.022123457211080083]]",density,black,,,D003,visual,1,[],"['1', '2', '3', '4']",1,2023.2.3,harveyvisual,2.1,[],8,0.75,
0,pause,0.4,None,None,None,0,217,217,217,,,,,,,,,,,,,D003,visual,1,[],"['1', '2', '3', '4']",1,2023.2.3,harveyvisual,2.1,[],8,0.75,
4,dot,0.3,['dot'],['density'],black,0,218,218,218,,,78.70020604133606,78.4156641960144,78.7156970500946,dot,"[0.08, 0.1, 0.08, 0.08]","[[0.08172100217045614, 0.5402562525463245], [-0.024891988969352973, 0.31595276793208527], [-0.14685316472848742, 0.5184788481920529], [-0.2646655063210597, 0.3159281349431851]]",density,black,,,D003,visual,1,[],"['1', '2', '3', '4']",1,2023.2.3,harveyvisual,2.1,[],8,0.75,
0,pause,0.4,None,None,None,0,219,219,219,,,,,,,,,,,,,D003,visual,1,[],"['1', '2', '3', '4']",1,2023.2.3,harveyvisual,2.1,[],8,0.75,
4,dot,0.3,['dot'],['density'],white,0,220,220,220,,,79.4002001285553,79.1157660484314,79.41574811935425,dot,"[0.08, 0.1, 0.1, 0.1]","[[0.06019618102804278, 0.17823994931545822], [-0.1876584465411705, -0.07971170835358893], [0.026807447441335588, -0.04038633305360204], [-0.17818728785032123, 0.12753763641901858]]",density,white,,,D003,visual,1,[],"['1', '2', '3', '4']",1,2023.2.3,harveyvisual,2.1,[],8,0.75,
0,pause,0.4,None,None,None,0,221,221,221,,,,,,,,,,,1,79.45923399925232,D003,visual,1,[],"['1', '2', '3', '4']",1,2023.2.3,harveyvisual,2.1,[],8,0.75,
4,dot,0.3,['dot'],['density'],black,0,222,222,222,,,80.10019302368164,79.81575202941895,80.11558103561401,dot,"[0.08, 0.08, 0.1, 0.1]","[[-0.041173875632770134, -0.46498671258652186], [-0.2993670243960792, -0.1306311282158324], [-0.23343206187288035, -0.39905635110522214], [-0.1242366033797093, -0.2299834244258363]]",density,black,,,D003,visual,1,[],"['1', '2', '3', '4']",1,2023.2.3,harveyvisual,2.1,[],8,0.75,
0,pause,0.4,None,None,None,0,223,223,223,,,,,,,,,,,,,D003,visual,1,[],"['1', '2', '3', '4']",1,2023.2.3,harveyvisual,2.1,[],8,0.75,
4,dot,0.3,['dot'],['density'],black,0,224,224,224,,,80.80019116401672,80.5155611038208,80.81555318832397,dot,"[0.06, 0.08, 0.06, 0.08]","[[-0.1266132934267609, -0.4419116806690939], [0.09906976576587005, -0.33923851916676484], [0.1053941350115203, -0.5768907290059295], [0.29145715672269834, -0.49787884973145785]]",density,black,,,D003,visual,1,[],"['1', '2', '3', '4']",1,2023.2.3,harveyvisual,2.1,[],8,0.75,
0,pause,0.4,None,None,None,0,225,225,225,,,,,,,,,,,,,D003,visual,1,[],"['1', '2', '3', '4']",1,2023.2.3,harveyvisual,2.1,[],8,0.75,
4,dot,0.3,['dot'],['density'],black,0,226,226,226,,,81.50021004676819,81.21555709838867,81.51555299758911,dot,"[0.1, 0.06, 0.08, 0.06]","[[-0.22711054503220823, -0.5144049053218714], [-0.016307770745122817, -0.5558659767831347], [-0.26432457165568224, -0.2824025039497699], [-0.026303944553407815, -0.34464361634901186]]",density,black,,,D003,visual,1,[],"['1', '2', '3', '4']",1,2023.2.3,harveyvisual,2.1,[],8,0.75,
0,pause,0.4,None,None,None,0,227,227,227,,,,,,,,,,,,,D003,visual,1,[],"['1', '2', '3', '4']",1,2023.2.3,harveyvisual,2.1,[],8,0.75,
3,dot,0.3,['dot'],['density'],black,0,228,228,228,,,82.20020318031311,81.91555118560791,82.21553802490234,dot,"[0.08, 0.1, 0.1]","[[0.026071599024748527, -0.32860913997604846], [-0.11834724389398482, -0.18584523127985947], [0.10068982493997472, -0.12518245043845455]]",density,black,,,D003,visual,1,[],"['1', '2', '3', '4']",1,2023.2.3,harveyvisual,2.1,[],8,0.75,
0,pause,0.4,None,None,None,0,229,229,229,,,,,,,,,,,,,D003,visual,1,[],"['1', '2', '3', '4']",1,2023.2.3,harveyvisual,2.1,[],8,0.75,
3,dot,0.3,['dot'],['density'],black,0,230,230,230,,,82.90019798278809,82.61553406715393,82.91558718681335,dot,"[0.1, 0.1, 0.1]","[[0.315495050057846, 0.10724904305018564], [0.5180852452909619, 0.013799590611742229], [0.3819545826159732, -0.1334380777916547]]",density,black,,,D003,visual,1,[],"['1', '2', '3', '4']",1,2023.2.3,harveyvisual,2.1,[],8,0.75,
0,pause,0.4,None,None,None,0,231,231,231,,,,,,,,,,,,,D003,visual,1,[],"['1', '2', '3', '4']",1,2023.2.3,harveyvisual,2.1,[],8,0.75,
3,dot,0.3,['dot'],['density'],black,0,232,232,232,,,83.60018706321716,83.31557297706604,83.61549210548401,dot,"[0.1, 0.06, 0.1]","[[0.35100391059830643, -0.4491085892346253], [0.13011513135189492, -0.5590284990295896], [0.16905753934955023, -0.35714526366544236]]",density,black,,,D003,visual,1,[],"['1', '2', '3', '4']",1,2023.2.3,harveyvisual,2.1,[],8,0.75,
0,pause,0.4,None,None,None,0,233,233,233,,,,,,,,,,,,,D003,visual,1,[],"['1', '2', '3', '4']",1,2023.2.3,harveyvisual,2.1,[],8,0.75,
3,dot,0.3,['dot'],['density'],black,0,234,234,234,,,84.30019998550415,84.01554012298584,84.3156361579895,dot,"[0.1, 0.08, 0.06]","[[0.16698284004709638, 0.14340522813657522], [0.014382160343152013, -0.0120418799203457], [0.17626274868444566, -0.13037823744598942]]",density,black,,,D003,visual,1,[],"['1', '2', '3', '4']",1,2023.2.3,harveyvisual,2.1,[],8,0.75,
0,pause,0.4,None,None,None,0,235,235,235,,,,,,,,,,,,,D003,visual,1,[],"['1', '2', '3', '4']",1,2023.2.3,harveyvisual,2.1,[],8,0.75,
3,dot,0.3,['dot'],['density'],white,0,236,236,236,,,85.0002031326294,84.715665102005,85.01561903953552,dot,"[0.1, 0.08, 0.06]","[[-0.1591938184585166, 0.2573970255855866], [-0.049574382916532336, 0.44031337398050124], [0.08264166875933507, 0.262381570646859]]",density,white,,,D003,visual,1,[],"['1', '2', '3', '4']",1,2023.2.3,harveyvisual,2.1,[],8,0.75,
0,pause,0.4,None,None,None,0,237,237,237,,,,,,,,,,,1,85.0589029788971,D003,visual,1,[],"['1', '2', '3', '4']",1,2023.2.3,harveyvisual,2.1,[],8,0.75,
3,dot,0.3,['dot'],['density'],black,0,238,238,238,,,85.70021605491638,85.41545414924622,85.71546506881714,dot,"[0.1, 0.06, 0.06]","[[-0.1591938184585166, 0.2573970255855866], [-0.049574382916532336, 0.44031337398050124], [0.08264166875933507, 0.262381570646859]]",density,black,,,D003,visual,1,[],"['1', '2', '3', '4']",1,2023.2.3,harveyvisual,2.1,[],8,0.75,
0,pause,0.4,None,None,None,0,239,239,239,,,,,,,,,,,,,D003,visual,1,[],"['1', '2', '3', '4']",1,2023.2.3,harveyvisual,2.1,[],8,0.75,
2,dot,0.3,['dot'],['density'],black,0,240,240,240,,,86.40019202232361,86.11544799804688,86.41562008857727,dot,"[0.08, 0.08]","[[0.500151128333041, 0.1656925720118866], [0.3771979967144504, 0.3235340638115745]]",density,black,,,D003,visual,1,[],"['1', '2', '3', '4']",1,2023.2.3,harveyvisual,2.1,[],8,0.75,
0,pause,0.4,None,None,None,0,241,241,241,,,,,,,,,,,,,D003,visual,1,[],"['1', '2', '3', '4']",1,2023.2.3,harveyvisual,2.1,[],8,0.75,
2,dot,0.3,['dot'],['density'],black,0,242,242,242,,,87.10020017623901,86.81549501419067,87.11543011665344,dot,"[0.08, 0.08]","[[-0.19482721327365293, -0.5079820576301489], [-0.36119809377872014, -0.396546877814361]]",density,black,,,D003,visual,1,[],"['1', '2', '3', '4']",1,2023.2.3,harveyvisual,2.1,[],8,0.75,
0,pause,0.4,None,None,None,0,243,243,243,,,,,,,,,,,,,D003,visual,1,[],"['1', '2', '3', '4']",1,2023.2.3,harveyvisual,2.1,[],8,0.75,
2,dot,0.3,['dot'],['density'],black,0,244,244,244,,,87.80019402503967,87.51556897163391,87.81554913520813,dot,"[0.08, 0.08]","[[-0.15001882639889116, 0.48719053997247297], [-0.1736568080125972, 0.28835755901726084]]",density,black,,,D003,visual,1,[],"['1', '2', '3', '4']",1,2023.2.3,harveyvisual,2.1,[],8,0.75,
0,pause,0.4,None,None,None,0,245,245,245,,,,,,,,,,,,,D003,visual,1,[],"['1', '2', '3', '4']",1,2023.2.3,harveyvisual,2.1,[],8,0.75,
2,dot,0.3,['dot'],['density'],black,0,246,246,246,,,88.50020217895508,88.2154471874237,88.51542401313782,dot,"[0.08, 0.08]","[[0.1851205616289071, -0.3624876981064337], [0.3405923022038234, -0.23608025195482504]]",density,black,,,D003,visual,1,[],"['1', '2', '3', '4']",1,2023.2.3,harveyvisual,2.1,[],8,0.75,
0,pause,0.4,None,None,None,0,247,247,247,,,,,,,,,,,,,D003,visual,1,[],"['1', '2', '3', '4']",1,2023.2.3,harveyvisual,2.1,[],8,0.75,
2,dot,0.3,['dot'],['density'],black,0,248,248,248,,,89.20020508766174,88.91540598869324,89.21533799171448,dot,"[0.1, 0.1]","[[-0.09730612249650272, 0.4989075015380273], [-0.22752244688881013, 0.34485221713342457]]",density,black,,,D003,visual,1,[],"['1', '2', '3', '4']",1,2023.2.3,harveyvisual,2.1,[],8,0.75,
0,pause,0.4,None,None,None,0,249,249,249,,,,,,,,,,,,,D003,visual,1,[],"['1', '2', '3', '4']",1,2023.2.3,harveyvisual,2.1,[],8,0.75,
2,dot,0.3,['dot'],['density'],black,0,250,250,250,,,89.90019798278809,89.61533713340759,89.91531300544739,dot,"[0.1, 0.08]","[[0.1734117655345296, 0.46860731914486053], [-0.01847566562869785, 0.52581935004857]]",density,black,,,D003,visual,1,[],"['1', '2', '3', '4']",1,2023.2.3,harveyvisual,2.1,[],8,0.75,
0,pause,0.4,None,None,None,0,251,251,251,,,,,,,,,,,,,D003,visual,1,[],"['1', '2', '3', '4']",1,2023.2.3,harveyvisual,2.1,[],8,0.75,
1,dot,0.3,['dot'],['density'],white,0,252,252,252,,,90.60019707679749,90.31533002853394,90.61531519889832,dot,[0.06],"[-0.045934412585722416, -0.12236734128406912]",density,white,,,D003,visual,1,[],"['1', '2', '3', '4']",1,2023.2.3,harveyvisual,2.1,[],8,0.75,
0,pause,0.4,None,None,None,0,253,253,253,,,,,,,,,,,1,90.80856084823608,D003,visual,1,[],"['1', '2', '3', '4']",1,2023.2.3,harveyvisual,2.1,[],8,0.75,
1,dot,0.3,['dot'],['density'],black,0,254,254,254,,,91.30021905899048,91.01531219482422,91.31531620025635,dot,[0.08],"[-0.30422713965878023, 0.0739284850406325]",density,black,,,D003,visual,1,[],"['1', '2', '3', '4']",1,2023.2.3,harveyvisual,2.1,[],8,0.75,
0,pause,0.4,None,None,None,0,255,255,255,,,,,,,,,,,,,D003,visual,1,[],"['1', '2', '3', '4']",1,2023.2.3,harveyvisual,2.1,[],8,0.75,
1,dot,0.3,['dot'],['density'],black,0,256,256,256,,,92.0002121925354,91.71534299850464,92.01530313491821,dot,[0.1],"[0.21839164384074103, 0.06179923858190914]",density,black,,,D003,visual,1,[],"['1', '2', '3', '4']",1,2023.2.3,harveyvisual,2.1,[],8,0.75,
0,pause,0.4,None,None,None,0,257,257,257,,,,,,,,,,,,,D003,visual,1,[],"['1', '2', '3', '4']",1,2023.2.3,harveyvisual,2.1,[],8,0.75,
1,dot,0.3,['dot'],['density'],black,0,258,258,258,,,92.70019507408142,92.41532611846924,92.71634817123413,dot,[0.06],"[0.1771264825789444, 0.012298414170669998]",density,black,,,D003,visual,1,[],"['1', '2', '3', '4']",1,2023.2.3,harveyvisual,2.1,[],8,0.75,
0,pause,0.4,None,None,None,0,259,259,259,,,,,,,,,,,,,D003,visual,1,[],"['1', '2', '3', '4']",1,2023.2.3,harveyvisual,2.1,[],8,0.75,
1,dot,0.3,['dot'],['density'],white,0,260,260,260,,,93.40020799636841,93.11543011665344,93.41541409492493,dot,[0.1],"[0.5286010678554951, -0.2554598500704326]",density,white,,,D003,visual,1,[],"['1', '2', '3', '4']",1,2023.2.3,harveyvisual,2.1,[],8,0.75,
0,pause,0.4,None,None,None,0,261,261,261,,,,,,,,,,,1,93.51997780799866,D003,visual,1,[],"['1', '2', '3', '4']",1,2023.2.3,harveyvisual,2.1,[],8,0.75,
1,dot,0.3,['dot'],['density'],black,0,262,262,262,,,94.10020303726196,93.81540107727051,94.11540603637695,dot,[0.06],"[0.19623115665255414, 0.1676894875529279]",density,black,,,D003,visual,1,[],"['1', '2', '3', '4']",1,2023.2.3,harveyvisual,2.1,[],8,0.75,
0,pause,0.4,None,None,None,0,263,263,263,,,,,,,,,,,,,D003,visual,1,[],"['1', '2', '3', '4']",1,2023.2.3,harveyvisual,2.1,[],8,0.75,
20,dot,0.3,['dot'],['density'],black,0,264,264,264,,,94.80020308494568,94.51538705825806,94.81537508964539,dot,"[0.1, 0.08, 0.06, 0.1, 0.1, 0.08, 0.08, 0.1, 0.08, 0.06, 0.08, 0.06, 0.1, 0.1, 0.1, 0.1, 0.06, 0.08, 0.06, 0.1]","[[0.5172574823960133, 0.1979819177967017], [0.07733850007416077, 0.46245403323363987], [-0.36598543863665933, 0.46828655666672453], [0.5429161097391998, -0.1219116925214506], [0.32813687873456254, -0.4803967392585111], [-0.19593482384691252, -0.16152866385391768], [-0.13859523768195536, 0.5172685598900999], [0.22004593890474056, 0.01878766460832426], [-0.0642810306966104, 0.21970028196080293], [0.266267003734296, 0.2906703548390035], [-0.3986008544590646, 0.21942681748524712], [-0.34568415539190334, -0.3782149678416145], [-0.01862775523531257, -0.5371064958300553], [-0.5010335049063883, -0.2343259834099446], [-0.006319375820539208, -0.05640505774454696], [-0.5311851881684992, -0.04067550637187056], [0.262069518053789, -0.20856010558712534], [0.2650121576482133, 0.5248596122456389], [0.1439514604631098, -0.3599673468545572], [-0.013648415947876358, -0.24967595571009538]]",density,black,,,D003,visual,1,[],"['1', '2', '3', '4']",1,2023.2.3,harveyvisual,2.1,[],8,0.75,
0,pause,0.4,None,None,None,0,265,265,265,,,,,,,,,,,,,D003,visual,1,[],"['1', '2', '3', '4']",1,2023.2.3,harveyvisual,2.1,[],8,0.75,
20,dot,0.3,['dot'],['density'],black,0,266,266,266,,,95.50021719932556,95.21538305282593,95.51524209976196,dot,"[0.06, 0.06, 0.1, 0.1, 0.06, 0.1, 0.1, 0.06, 0.06, 0.06, 0.1, 0.1, 0.08, 0.08, 0.08, 0.06, 0.06, 0.08, 0.08, 0.1]","[[-0.3809016946832723, -0.2083524726850554], [-0.38271025628179, 0.26726919422549994], [0.13254518851888952, 0.33736045095381395], [0.50718571404931, 0.1381803353030458], [0.1832530286954367, -0.43665852038741304], [0.4159282698597174, -0.1180222771298553], [0.15675964363910155, 0.5273255392566705], [-0.3595924978515107, 0.025628899440118647], [-0.08986269415584358, 0.39949296390023625], [0.37433208403555995, -0.3747895223965453], [-0.15995215641892102, -0.04925256051136628], [0.16187422175508814, -0.16446467904755224], [-0.5555180864498284, 0.09037799015230025], [-0.01591339064477648, 0.18622609255035183], [-0.5822176104138784, -0.14165384655536908], [-0.038697387240069214, -0.4714519540017347], [-0.41689806080784964, -0.4176921249334941], [0.3073004672277194, 0.17396127440944886], [-0.13800314365751998, -0.3062789612857146], [0.12509242691214406, 0.057835224681659136]]",density,black,,,D003,visual,1,[],"['1', '2', '3', '4']",1,2023.2.3,harveyvisual,2.1,[],8,0.75,
0,pause,0.4,None,None,None,0,267,267,267,,,,,,,,,,,,,D003,visual,1,[],"['1', '2', '3', '4']",1,2023.2.3,harveyvisual,2.1,[],8,0.75,
