num,mod,duration,shape,ll_cond,colors,.thisRepN,.thisTrialN,.thisN,.thisIndex,thisRow.t,notes,raw_global_time,t_start,t_stop,shapes,size,pos,cond,color,button,RT,participant,session,starting_run,left button (match/odd),right button (non-match/even),samples_per_block,psychopy version,expName,offset,audio,number_runs,radius,
1,dot,0.3,['dot'],['density'],black,0,0,0,0,,,2.4002058506011963,2.107041835784912,2.406932830810547,dot,[0.1],"[-0.1989246115662565, -0.15069844343359862]",density,black,,,D003,visual,1,[],"['1', '2', '3', '4']",1,2023.2.3,harveyvisual,2.1,[],8,0.75,
0,pause,0.4,None,None,None,0,1,1,1,,,,,,,,,,,,,D003,visual,1,[],"['1', '2', '3', '4']",1,2023.2.3,harveyvisual,2.1,[],8,0.75,
1,dot,0.3,['dot'],['density'],black,0,2,2,2,,,3.100198984146118,2.8069348335266113,3.1074697971343994,dot,[0.08],"[0.4420174282329864, -0.3383815273201445]",density,black,,,D003,visual,1,[],"['1', '2', '3', '4']",1,2023.2.3,harveyvisual,2.1,[],8,0.75,
0,pause,0.4,None,None,None,0,3,3,3,,,,,,,,,,,,,D003,visual,1,[],"['1', '2', '3', '4']",1,2023.2.3,harveyvisual,2.1,[],8,0.75,
1,dot,0.3,['dot'],['density'],black,0,4,4,4,,,3.8002119064331055,3.5077919960021973,3.8076229095458984,dot,[0.06],"[0.15956500649880873, 0.2640393008039057]",density,black,,,D003,visual,1,[],"['1', '2', '3', '4']",1,2023.2.3,harveyvisual,2.1,[],8,0.75,
0,pause,0.4,None,None,None,0,5,5,5,,,,,,,,,,,,,D003,visual,1,[],"['1', '2', '3', '4']",1,2023.2.3,harveyvisual,2.1,[],8,0.75,
1,dot,0.3,['dot'],['density'],black,0,6,6,6,,,4.500211954116821,4.207401990890503,4.50737190246582,dot,[0.1],"[-0.4519365434524677, 0.22287683068434597]",density,black,,,D003,visual,1,[],"['1', '2', '3', '4']",1,2023.2.3,harveyvisual,2.1,[],8,0.75,
0,pause,0.4,None,None,None,0,7,7,7,,,,,,,,,,,,,D003,visual,1,[],"['1', '2', '3', '4']",1,2023.2.3,harveyvisual,2.1,[],8,0.75,
1,dot,0.3,['dot'],['density'],black,0,8,8,8,,,5.200210809707642,4.907375812530518,5.207356929779053,dot,[0.06],"[0.39967490259390637, -0.2576437183111264]",density,black,,,D003,visual,1,[],"['1', '2', '3', '4']",1,2023.2.3,harveyvisual,2.1,[],8,0.75,
0,pause,0.4,None,None,None,0,9,9,9,,,,,,,,,,,,,D003,visual,1,[],"['1', '2', '3', '4']",1,2023.2.3,harveyvisual,2.1,[],8,0.75,
1,dot,0.3,['dot'],['density'],black,0,10,10,10,,,5.90019679069519,5.609689950942993,5.909671783447266,dot,[0.1],"[0.19623115665255414, 0.1676894875529279]",density,black,,,D003,visual,1,[],"['1', '2', '3', '4']",1,2023.2.3,harveyvisual,2.1,[],8,0.75,
0,pause,0.4,None,None,None,0,11,11,11,,,,,,,,,,,,,D003,visual,1,[],"['1', '2', '3', '4']",1,2023.2.3,harveyvisual,2.1,[],8,0.75,
2,dot,0.3,['dot'],['density'],black,0,12,12,12,,,6.600219964981079,6.30966591835022,6.6096508502960205,dot,"[0.08, 0.1]","[[0.06661886780735636, -0.3109770134588511], [-0.03502229105109153, -0.4833380692870097]]",density,black,1,6.368941068649292,D003,visual,1,[],"['1', '2', '3', '4']",1,2023.2.3,harveyvisual,2.1,[],8,0.75,
0,pause,0.4,None,None,None,0,13,13,13,,,,,,,,,,,,,D003,visual,1,[],"['1', '2', '3', '4']",1,2023.2.3,harveyvisual,2.1,[],8,0.75,
2,dot,0.3,['dot'],['density'],black,0,14,14,14,,,7.300194978713989,7.009643793106079,7.309600830078125,dot,"[0.1, 0.08]","[[0.002249876020969301, 0.20442088447143333], [-0.056293345030126195, 0.39599742374220376]]",density,black,,,D003,visual,1,[],"['1', '2', '3', '4']",1,2023.2.3,harveyvisual,2.1,[],8,0.75,
0,pause,0.4,None,None,None,0,15,15,15,,,,,,,,,,,,,D003,visual,1,[],"['1', '2', '3', '4']",1,2023.2.3,harveyvisual,2.1,[],8,0.75,
2,dot,0.3,['dot'],['density'],black,0,16,16,16,,,8.000189781188965,7.709621906280518,8.009683847427368,dot,"[0.08, 0.1]","[[-0.2277318593301165, -0.35289300204507235], [-0.09400723608355734, -0.20388512549033708]]",density,black,,,D003,visual,1,[],"['1', '2', '3', '4']",1,2023.2.3,harveyvisual,2.1,[],8,0.75,
0,pause,0.4,None,None,None,0,17,17,17,,,,,,,,,,,,,D003,visual,1,[],"['1', '2', '3', '4']",1,2023.2.3,harveyvisual,2.1,[],8,0.75,
2,dot,0.3,['dot'],['density'],white,0,18,18,18,,,8.700212001800537,8.40961480140686,8.70958685874939,dot,"[0.1, 0.08]","[[-0.22226122312079244, -0.00806926593831646], [-0.023245446524914906, -0.037240983575548024]]",density,white,,,D003,visual,1,[],"['1', '2', '3', '4']",1,2023.2.3,harveyvisual,2.1,[],8,0.75,
0,pause,0.4,None,None,None,0,19,19,19,,,,,,,,,,,1,8.761421918869019,D003,visual,1,[],"['1', '2', '3', '4']",1,2023.2.3,harveyvisual,2.1,[],8,0.75,
2,dot,0.3,['dot'],['density'],black,0,20,20,20,,,9.400202989578247,9.109578847885132,9.409568786621094,dot,"[0.08, 0.06]","[[0.19540278997321237, -0.319457995891214], [0.34462774624387493, -0.4544903302695001]]",density,black,,,D003,visual,1,[],"['1', '2', '3', '4']",1,2023.2.3,harveyvisual,2.1,[],8,0.75,
0,pause,0.4,None,None,None,0,21,21,21,,,,,,,,,,,,,D003,visual,1,[],"['1', '2', '3', '4']",1,2023.2.3,harveyvisual,2.1,[],8,0.75,
2,dot,0.3,['dot'],['density'],black,0,22,22,22,,,10.100197792053223,9.809562921524048,10.109556913375854,dot,"[0.08, 0.06]","[[0.21195259569903124, -0.4986433684978455], [0.023877440871594643, -0.42921284787985464]]",density,black,,,D003,visual,1,[],"['1', '2', '3', '4']",1,2023.2.3,harveyvisual,2.1,[],8,0.75,
0,pause,0.4,None,None,None,0,23,23,23,,,,,,,,,,,,,D003,visual,1,[],"['1', '2', '3', '4']",1,2023.2.3,harveyvisual,2.1,[],8,0.75,
3,dot,0.3,['dot'],['density'],black,0,24,24,24,,,10.800204992294312,10.509557962417603,10.809542894363403,dot,"[0.08, 0.06, 0.08]","[[-0.42255820389626353, 0.35871945956833473], [-0.19896656331745483, 0.3032224324013186], [-0.25553590712368324, 0.5056038804507684]]",density,black,,,D003,visual,1,[],"['1', '2', '3', '4']",1,2023.2.3,harveyvisual,2.1,[],8,0.75,
0,pause,0.4,None,None,None,0,25,25,25,,,,,,,,,,,,,D003,visual,1,[],"['1', '2', '3', '4']",1,2023.2.3,harveyvisual,2.1,[],8,0.75,
3,dot,0.3,['dot'],['density'],black,0,26,26,26,,,11.500194787979126,11.209542989730835,11.50957179069519,dot,"[0.08, 0.1, 0.1]","[[-0.1591938184585166, 0.2573970255855866], [-0.049574382916532336, 0.44031337398050124], [0.08264166875933507, 0.262381570646859]]",density,black,,,D003,visual,1,[],"['1', '2', '3', '4']",1,2023.2.3,harveyvisual,2.1,[],8,0.75,
0,pause,0.4,None,None,None,0,27,27,27,,,,,,,,,,,,,D003,visual,1,[],"['1', '2', '3', '4']",1,2023.2.3,harveyvisual,2.1,[],8,0.75,
3,dot,0.3,['dot'],['density'],black,0,28,28,28,,,12.200206995010376,11.909587860107422,12.209553956985474,dot,"[0.06, 0.1, 0.08]","[[-0.32624451712468355, -0.43854848545497693], [-0.39409142490376414, -0.22516425170789148], [-0.152352104904091, -0.33204091051628687]]",density,black,,,D003,visual,1,[],"['1', '2', '3', '4']",1,2023.2.3,harveyvisual,2.1,[],8,0.75,
0,pause,0.4,None,None,None,0,29,29,29,,,,,,,,,,,,,D003,visual,1,[],"['1', '2', '3', '4']",1,2023.2.3,harveyvisual,2.1,[],8,0.75,
3,dot,0.3,['dot'],['density'],black,0,30,30,30,,,12.900208950042725,12.609485864639282,12.9095139503479,dot,"[0.08, 0.06, 0.1]","[[-0.18534860244577742, 0.5145019772121514], [0.05660586421610542, 0.42456432010350276], [-0.11463700911578348, 0.31489985189225056]]",density,black,,,D003,visual,1,[],"['1', '2', '3', '4']",1,2023.2.3,harveyvisual,2.1,[],8,0.75,
0,pause,0.4,None,None,None,0,31,31,31,,,,,,,,,,,,,D003,visual,1,[],"['1', '2', '3', '4']",1,2023.2.3,harveyvisual,2.1,[],8,0.75,
3,dot,0.3,['dot'],['density'],white,0,32,32,32,,,13.600200891494751,13.309526920318604,13.609514951705933,dot,"[0.1, 0.06, 0.06]","[[-0.09236249555143743, 0.14437879021360575], [0.06053771141254397, 0.008702735453236923], [-0.17336599953316903, -0.04113967592870183]]",density,white,,,D003,visual,1,[],"['1', '2', '3', '4']",1,2023.2.3,harveyvisual,2.1,[],8,0.75,
0,pause,0.4,None,None,None,0,33,33,33,,,,,,,,,,,1,13.61583399772644,D003,visual,1,[],"['1', '2', '3', '4']",1,2023.2.3,harveyvisual,2.1,[],8,0.75,
3,dot,0.3,['dot'],['density'],black,0,34,34,34,,,14.30019998550415,14.009450912475586,14.309452772140503,dot,"[0.1, 0.1, 0.08]","[[-0.1599523582230929, -0.020289166781496174], [-0.3458010015304564, -0.14250622038001895], [-0.3538668896253721, 0.08903610231223419]]",density,black,,,D003,visual,1,[],"['1', '2', '3', '4']",1,2023.2.3,harveyvisual,2.1,[],8,0.75,
0,pause,0.4,None,None,None,0,35,35,35,,,,,,,,,,,,,D003,visual,1,[],"['1', '2', '3', '4']",1,2023.2.3,harveyvisual,2.1,[],8,0.75,
4,dot,0.3,['dot'],['density'],black,0,36,36,36,,,15.000197887420654,14.709423780441284,15.009418964385986,dot,"[0.06, 0.08, 0.06, 0.08]","[[0.06241226843583792, -0.3147100539198924], [0.2553405417111816, -0.24584579293690137], [0.0027514156828475403, -0.09786489187307437], [0.1660279615748852, 0.026007470517245626]]",density,black,,,D003,visual,1,[],"['1', '2', '3', '4']",1,2023.2.3,harveyvisual,2.1,[],8,0.75,
0,pause,0.4,None,None,None,0,37,37,37,,,,,,,,,,,,,D003,visual,1,[],"['1', '2', '3', '4']",1,2023.2.3,harveyvisual,2.1,[],8,0.75,
4,dot,0.3,['dot'],['density'],black,0,38,38,38,,,15.700212001800537,15.409451961517334,15.709389925003052,dot,"[0.1, 0.06, 0.1, 0.08]","[[0.06241226843583792, -0.3147100539198924], [0.2553405417111816, -0.24584579293690137], [0.0027514156828475403, -0.09786489187307437], [0.1660279615748852, 0.026007470517245626]]",density,black,,,D003,visual,1,[],"['1', '2', '3', '4']",1,2023.2.3,harveyvisual,2.1,[],8,0.75,
0,pause,0.4,None,None,None,0,39,39,39,,,,,,,,,,,,,D003,visual,1,[],"['1', '2', '3', '4']",1,2023.2.3,harveyvisual,2.1,[],8,0.75,
4,dot,0.3,['dot'],['density'],black,0,40,40,40,,,16.400213956832886,16.109469890594482,16.409421920776367,dot,"[0.1, 0.1, 0.06, 0.06]","[[-0.24855901342904946, 0.4326179111294549], [-0.33066739519925503, 0.24314919490711104], [-0.015728317870896572, 0.5189617074191414], [-0.09686463175319387, 0.28200212383687606]]",density,black,,,D003,visual,1,[],"['1', '2', '3', '4']",1,2023.2.3,harveyvisual,2.1,[],8,0.75,
0,pause,0.4,None,None,None,0,41,41,41,,,,,,,,,,,,,D003,visual,1,[],"['1', '2', '3', '4']",1,2023.2.3,harveyvisual,2.1,[],8,0.75,
4,dot,0.3,['dot'],['density'],black,0,42,42,42,,,17.100196838378906,16.80941891670227,17.10940980911255,dot,"[0.1, 0.1, 0.06, 0.1]","[[0.17852470546651972, -0.2012438881607824], [-0.031034799765910746, -0.12466087783573923], [0.008996399474264666, -0.3229379719524122], [0.15114343287780646, 0.03986859122442722]]",density,black,,,D003,visual,1,[],"['1', '2', '3', '4']",1,2023.2.3,harveyvisual,2.1,[],8,0.75,
0,pause,0.4,None,None,None,0,43,43,43,,,,,,,,,,,,,D003,visual,1,[],"['1', '2', '3', '4']",1,2023.2.3,harveyvisual,2.1,[],8,0.75,
4,dot,0.3,['dot'],['density'],black,0,44,44,44,,,17.800192832946777,17.50943684577942,17.80941390991211,dot,"[0.08, 0.1, 0.08, 0.08]","[[-0.03907102058372138, -0.1723346686752248], [0.13255167928633116, -0.03782047714335622], [0.2720101467217329, -0.23443565690461937], [0.07080951743106016, -0.35239766365090747]]",density,black,,,D003,visual,1,[],"['1', '2', '3', '4']",1,2023.2.3,harveyvisual,2.1,[],8,0.75,
0,pause,0.4,None,None,None,0,45,45,45,,,,,,,,,,,,,D003,visual,1,[],"['1', '2', '3', '4']",1,2023.2.3,harveyvisual,2.1,[],8,0.75,
4,dot,0.3,['dot'],['density'],black,0,46,46,46,,,18.50019383430481,18.209436893463135,18.509422779083252,dot,"[0.08, 0.08, 0.06, 0.06]","[[0.2472118047986834, -0.10298318101898082], [0.5832669122255578, -0.0503561045998346], [0.411076479450662, -0.2641061246578253], [0.42907679660555237, 0.09101913809416001]]",density,black,,,D003,visual,1,[],"['1', '2', '3', '4']",1,2023.2.3,harveyvisual,2.1,[],8,0.75,
0,pause,0.4,None,None,None,0,47,47,47,,,,,,,,,,,,,D003,visual,1,[],"['1', '2', '3', '4']",1,2023.2.3,harveyvisual,2.1,[],8,0.75,
5,dot,0.3,['dot'],['density'],black,0,48,48,48,,,19.200193881988525,18.9095778465271,19.226051807403564,dot,"[0.1, 0.06, 0.1, 0.06, 0.08]","[[-0.15120343604734773, 0.13880483605515373], [-0.27543704003083597, 0.3074941448909677], [-0.47853302670601033, 0.30949922786165307], [-0.3682774975032249, -0.13900280599659498], [-0.34692227301900613, 0.0889564565184539]]",density,black,,,D003,visual,1,[],"['1', '2', '3', '4']",1,2023.2.3,harveyvisual,2.1,[],8,0.75,
0,pause,0.4,None,None,None,0,49,49,49,,,,,,,,,,,,,D003,visual,1,[],"['1', '2', '3', '4']",1,2023.2.3,harveyvisual,2.1,[],8,0.75,
5,dot,0.3,['dot'],['density'],black,0,50,50,50,,,19.900200843811035,19.609469890594482,19.909466981887817,dot,"[0.06, 0.1, 0.06, 0.06, 0.08]","[[-0.0036269740154891753, 0.5431219823242713], [-0.2646325594942043, 0.5073179604697073], [-0.41902475937036154, 0.37311436690984484], [-0.007163214206743488, 0.2887893175302695], [-0.2156098228659233, 0.2684642371109035]]",density,black,,,D003,visual,1,[],"['1', '2', '3', '4']",1,2023.2.3,harveyvisual,2.1,[],8,0.75,
0,pause,0.4,None,None,None,0,51,51,51,,,,,,,,,,,,,D003,visual,1,[],"['1', '2', '3', '4']",1,2023.2.3,harveyvisual,2.1,[],8,0.75,
5,dot,0.3,['dot'],['density'],black,0,52,52,52,,,20.60020685195923,20.309494972229004,20.60944890975952,dot,"[0.08, 0.1, 0.08, 0.1, 0.08]","[[-0.15120343604734773, 0.13880483605515373], [-0.27543704003083597, 0.3074941448909677], [-0.47853302670601033, 0.30949922786165307], [-0.3682774975032249, -0.13900280599659498], [-0.34692227301900613, 0.0889564565184539]]",density,black,,,D003,visual,1,[],"['1', '2', '3', '4']",1,2023.2.3,harveyvisual,2.1,[],8,0.75,
0,pause,0.4,None,None,None,0,53,53,53,,,,,,,,,,,,,D003,visual,1,[],"['1', '2', '3', '4']",1,2023.2.3,harveyvisual,2.1,[],8,0.75,
5,dot,0.3,['dot'],['density'],black,0,54,54,54,,,21.300211906433105,21.00945496559143,21.309292793273926,dot,"[0.06, 0.1, 0.08, 0.06, 0.08]","[[-0.006164932418690097, -0.4528126201229341], [-0.1681524682570009, -0.11721653268637569], [-0.1959903964051736, -0.3710708837277218], [0.03544926667602863, -0.1302589477940128], [0.16830580561999814, -0.32298356607012285]]",density,black,,,D003,visual,1,[],"['1', '2', '3', '4']",1,2023.2.3,harveyvisual,2.1,[],8,0.75,
0,pause,0.4,None,None,None,0,55,55,55,,,,,,,,,,,,,D003,visual,1,[],"['1', '2', '3', '4']",1,2023.2.3,harveyvisual,2.1,[],8,0.75,
5,dot,0.3,['dot'],['density'],black,0,56,56,56,,,22.0002179145813,21.709537982940674,22.009456872940063,dot,"[0.08, 0.06, 0.06, 0.1, 0.08]","[[0.10176071415026891, -0.0029310292721688898], [0.32748853803000494, -0.2831003617774451], [0.10999898603900501, -0.23076615641811304], [0.2383494361888625, 0.16403485824849598], [0.3558293804179042, -0.08171974316418079]]",density,black,,,D003,visual,1,[],"['1', '2', '3', '4']",1,2023.2.3,harveyvisual,2.1,[],8,0.75,
0,pause,0.4,None,None,None,0,57,57,57,,,,,,,,,,,,,D003,visual,1,[],"['1', '2', '3', '4']",1,2023.2.3,harveyvisual,2.1,[],8,0.75,
5,dot,0.3,['dot'],['density'],black,0,58,58,58,,,22.700203895568848,22.409501791000366,22.70951795578003,dot,"[0.06, 0.1, 0.06, 0.1, 0.1]","[[-0.10197385386246118, 0.24760023034087644], [-0.014646448823952617, 0.47519555304773536], [-0.21360058910662874, 0.441350445979826], [-0.3878570731713836, 0.20534708698022924], [-0.24187982362067023, 0.06730525069120082]]",density,black,,,D003,visual,1,[],"['1', '2', '3', '4']",1,2023.2.3,harveyvisual,2.1,[],8,0.75,
0,pause,0.4,None,None,None,0,59,59,59,,,,,,,,,,,,,D003,visual,1,[],"['1', '2', '3', '4']",1,2023.2.3,harveyvisual,2.1,[],8,0.75,
6,dot,0.3,['dot'],['density'],black,0,60,60,60,,,23.40019392967224,23.109463930130005,23.40940284729004,dot,"[0.08, 0.08, 0.06, 0.1, 0.08, 0.06]","[[-0.36874454135919904, -0.07559312273534534], [-0.010504004432700158, -0.20559114413973084], [-0.17044584652251332, 0.17221059634863578], [-0.26251446752681207, -0.3074850979938877], [0.06633568674208327, -0.020893677029436595], [-0.1538914639536258, -0.02772778393149798]]",density,black,,,D003,visual,1,[],"['1', '2', '3', '4']",1,2023.2.3,harveyvisual,2.1,[],8,0.75,
0,pause,0.4,None,None,None,0,61,61,61,,,,,,,,,,,,,D003,visual,1,[],"['1', '2', '3', '4']",1,2023.2.3,harveyvisual,2.1,[],8,0.75,
6,dot,0.3,['dot'],['density'],black,0,62,62,62,,,24.100197792053223,23.809359788894653,24.109386920928955,dot,"[0.08, 0.1, 0.06, 0.06, 0.06, 0.08]","[[0.3299424372810393, 0.4114780133894161], [0.051944887288218326, -0.03233758374135307], [0.4337222981537534, -0.07578498258626121], [0.10477943773033714, 0.1703675017914044], [0.3400878522727408, 0.20016066552806494], [0.2510029109880425, 0.01747244452819591]]",density,black,,,D003,visual,1,[],"['1', '2', '3', '4']",1,2023.2.3,harveyvisual,2.1,[],8,0.75,
0,pause,0.4,None,None,None,0,63,63,63,,,,,,,,,,,,,D003,visual,1,[],"['1', '2', '3', '4']",1,2023.2.3,harveyvisual,2.1,[],8,0.75,
6,dot,0.3,['dot'],['density'],black,0,64,64,64,,,24.8002028465271,24.509217977523804,24.809345960617065,dot,"[0.06, 0.06, 0.06, 0.1, 0.08, 0.06]","[[-0.25199583264674774, 0.1645076628059283], [-0.30980015185235615, -0.30059811601219943], [-0.3416104032120793, -0.08609002542292095], [-0.44539923421558947, 0.10453038353258776], [-0.10444623085343022, 0.0009067836503606603], [-0.5495015018291214, -0.1770200348029928]]",density,black,,,D003,visual,1,[],"['1', '2', '3', '4']",1,2023.2.3,harveyvisual,2.1,[],8,0.75,
0,pause,0.4,None,None,None,0,65,65,65,,,,,,,,,,,,,D003,visual,1,[],"['1', '2', '3', '4']",1,2023.2.3,harveyvisual,2.1,[],8,0.75,
6,dot,0.3,['dot'],['density'],black,0,66,66,66,,,25.500194787979126,25.209329843521118,25.509220838546753,dot,"[0.1, 0.06, 0.08, 0.08, 0.08, 0.08]","[[-0.5042184434856596, 0.24959378884587158], [-0.14877643798118484, -0.059020126001740114], [-0.46546181494132466, -0.1471818588402077], [-0.26957518187208745, -0.22263810459524838], [-0.2342448443914648, 0.21754944417529726], [-0.37109182385784195, 0.03297203532481631]]",density,black,,,D003,visual,1,[],"['1', '2', '3', '4']",1,2023.2.3,harveyvisual,2.1,[],8,0.75,
0,pause,0.4,None,None,None,0,67,67,67,,,,,,,,,,,,,D003,visual,1,[],"['1', '2', '3', '4']",1,2023.2.3,harveyvisual,2.1,[],8,0.75,
6,dot,0.3,['dot'],['density'],black,0,68,68,68,,,26.20020294189453,25.90920090675354,26.20917797088623,dot,"[0.06, 0.08, 0.1, 0.08, 0.1, 0.08]","[[-0.11553075830627273, 0.47698778124428043], [-0.1112787518129194, 0.10456141670764223], [-0.48855705683845824, 0.21494657582805063], [-0.2538299919008863, 0.2532006538804931], [-0.3271837865365474, 0.4662148945367939], [0.006792750312598743, 0.27345996435494924]]",density,black,,,D003,visual,1,[],"['1', '2', '3', '4']",1,2023.2.3,harveyvisual,2.1,[],8,0.75,
0,pause,0.4,None,None,None,0,69,69,69,,,,,,,,,,,,,D003,visual,1,[],"['1', '2', '3', '4']",1,2023.2.3,harveyvisual,2.1,[],8,0.75,
6,dot,0.3,['dot'],['density'],black,0,70,70,70,,,26.90021777153015,26.609290838241577,26.909276962280273,dot,"[0.06, 0.1, 0.08, 0.1, 0.08, 0.06]","[[-0.25199583264674774, 0.1645076628059283], [-0.30980015185235615, -0.30059811601219943], [-0.3416104032120793, -0.08609002542292095], [-0.44539923421558947, 0.10453038353258776], [-0.10444623085343022, 0.0009067836503606603], [-0.5495015018291214, -0.1770200348029928]]",density,black,,,D003,visual,1,[],"['1', '2', '3', '4']",1,2023.2.3,harveyvisual,2.1,[],8,0.75,
0,pause,0.4,None,None,None,0,71,71,71,,,,,,,,,,,,,D003,visual,1,[],"['1', '2', '3', '4']",1,2023.2.3,harveyvisual,2.1,[],8,0.75,
7,dot,0.3,['dot'],['density'],black,0,72,72,72,,,27.60019588470459,27.30929684638977,27.609254837036133,dot,"[0.1, 0.1, 0.08, 0.06, 0.1, 0.1, 0.08]","[[0.3302081014073935, 0.19448071361351732], [-0.22286629369238187, 0.3450023392305547], [-0.11533339293480348, 0.13926201039730488], [0.12023407780451623, 0.21240672508650668], [0.2659789407074307, 0.3894086603790018], [0.026604934602130894, 0.39133200849180605], [0.212400253920387, 0.027377351413115796]]",density,black,,,D003,visual,1,[],"['1', '2', '3', '4']",1,2023.2.3,harveyvisual,2.1,[],8,0.75,
0,pause,0.4,None,None,None,0,73,73,73,,,,,,,,,,,,,D003,visual,1,[],"['1', '2', '3', '4']",1,2023.2.3,harveyvisual,2.1,[],8,0.75,
7,dot,0.3,['dot'],['density'],black,0,74,74,74,,,28.30020499229431,28.00913691520691,28.309111833572388,dot,"[0.06, 0.1, 0.1, 0.1, 0.06, 0.1, 0.1]","[[-0.2877807563129739, -0.2392998172879968], [-0.4930284393840153, 0.02918626900802282], [-0.13307942101536208, -0.4135874564509098], [-0.1727922191076213, -0.04289663127052677], [-0.3943840059764042, -0.4351600913800347], [-0.03321109949484203, -0.21096883087625085], [-0.5418728138863746, -0.1990057631286019]]",density,black,,,D003,visual,1,[],"['1', '2', '3', '4']",1,2023.2.3,harveyvisual,2.1,[],8,0.75,
0,pause,0.4,None,None,None,0,75,75,75,,,,,,,,,,,,,D003,visual,1,[],"['1', '2', '3', '4']",1,2023.2.3,harveyvisual,2.1,[],8,0.75,
7,dot,0.3,['dot'],['density'],black,0,76,76,76,,,29.000208854675293,28.709139823913574,29.009063959121704,dot,"[0.1, 0.08, 0.08, 0.1, 0.08, 0.06, 0.06]","[[-0.39883248072855915, 0.30823732592088265], [-0.041341486549100435, 0.2390478988097413], [-0.013495537319202725, 0.5211111720540192], [-0.2415889716500472, 0.10795059447242317], [-0.023803066389735523, 0.02076064871433158], [0.14387498046506175, 0.3548008600093999], [-0.24331877599120405, 0.46521846842164205]]",density,black,,,D003,visual,1,[],"['1', '2', '3', '4']",1,2023.2.3,harveyvisual,2.1,[],8,0.75,
0,pause,0.4,None,None,None,0,77,77,77,,,,,,,,,,,,,D003,visual,1,[],"['1', '2', '3', '4']",1,2023.2.3,harveyvisual,2.1,[],8,0.75,
7,dot,0.3,['dot'],['density'],black,0,78,78,78,,,29.70021080970764,29.40905499458313,29.709028005599976,dot,"[0.1, 0.06, 0.06, 0.06, 0.06, 0.1, 0.06]","[[-0.1635229753841098, 0.12186382262109141], [0.03437657187081179, 0.5178389267683822], [0.324184412335695, 0.17931743601205324], [0.08929018524031027, 0.11005745596178185], [-0.1318259817332877, 0.4026967659136047], [-0.053046683696667, -0.06058584598870606], [0.042745683665752716, 0.304616966822181]]",density,black,,,D003,visual,1,[],"['1', '2', '3', '4']",1,2023.2.3,harveyvisual,2.1,[],8,0.75,
0,pause,0.4,None,None,None,0,79,79,79,,,,,,,,,,,,,D003,visual,1,[],"['1', '2', '3', '4']",1,2023.2.3,harveyvisual,2.1,[],8,0.75,
7,dot,0.3,['dot'],['density'],black,0,80,80,80,,,30.40021300315857,30.109041929244995,30.409024000167847,dot,"[0.08, 0.1, 0.06, 0.06, 0.1, 0.1, 0.08]","[[0.06935229908748385, 0.4911641494940837], [-0.19266199922505295, 0.07836852906048222], [0.055274369019684175, 0.020452523162812593], [0.26239471350362015, 0.1001529216481179], [-0.06036973858781391, 0.3360513952533211], [-0.2638544135394649, 0.29089327984911306], [0.14813816713374972, 0.28344041791591096]]",density,black,,,D003,visual,1,[],"['1', '2', '3', '4']",1,2023.2.3,harveyvisual,2.1,[],8,0.75,
0,pause,0.4,None,None,None,0,81,81,81,,,,,,,,,,,,,D003,visual,1,[],"['1', '2', '3', '4']",1,2023.2.3,harveyvisual,2.1,[],8,0.75,
7,dot,0.3,['dot'],['density'],black,0,82,82,82,,,31.10020899772644,30.8090238571167,31.109063863754272,dot,"[0.06, 0.06, 0.1, 0.1, 0.1, 0.1, 0.08]","[[-0.23022292756182125, -0.05768485575552839], [-0.3970021412728509, -0.1722837668104814], [-0.2989980436724142, -0.5015189566068301], [-0.1887121522124618, -0.3052937986494308], [-0.001193606839323686, -0.45187687349833133], [-0.45251418858811787, -0.367940027934103], [0.11213422846620591, -0.19711986939188722]]",density,black,,,D003,visual,1,[],"['1', '2', '3', '4']",1,2023.2.3,harveyvisual,2.1,[],8,0.75,
0,pause,0.4,None,None,None,0,83,83,83,,,,,,,,,,,,,D003,visual,1,[],"['1', '2', '3', '4']",1,2023.2.3,harveyvisual,2.1,[],8,0.75,
8,dot,0.3,['dot'],['density'],black,0,84,84,84,,,31.80020499229431,31.509063005447388,31.80905294418335,dot,"[0.1, 0.08, 0.1, 0.1, 0.08, 0.08, 0.06, 0.08]","[[0.11895989691250043, -0.4531686673706004], [-0.16516506104640707, -0.03240926074491446], [0.03539791161122963, 0.017706842047032937], [0.2602726326243711, -0.2021454296306109], [-0.07993394910368964, -0.42305571474287856], [-0.2833532244481061, -0.22994433794129646], [0.3633812293108319, -0.4186270945829863], [-0.04042382183071007, -0.1991401458565282]]",density,black,,,D003,visual,1,[],"['1', '2', '3', '4']",1,2023.2.3,harveyvisual,2.1,[],8,0.75,
0,pause,0.4,None,None,None,0,85,85,85,,,,,,,,,,,,,D003,visual,1,[],"['1', '2', '3', '4']",1,2023.2.3,harveyvisual,2.1,[],8,0.75,
8,dot,0.3,['dot'],['density'],black,0,86,86,86,,,32.500216007232666,32.20902490615845,32.50896692276001,dot,"[0.08, 0.06, 0.06, 0.06, 0.1, 0.08, 0.06, 0.08]","[[-0.3167478768396544, -0.2124469325344782], [0.11150510454677101, -0.25361932254341324], [0.17657050060311263, -0.496926349220185], [0.20833757931744315, -0.0002320808252021913], [-0.0015234955214533466, 0.034722119540356526], [-0.10690598217119997, -0.19846612199298916], [0.32498422138424443, -0.23444872628509345], [-0.054741640541526956, -0.4230750989992696]]",density,black,,,D003,visual,1,[],"['1', '2', '3', '4']",1,2023.2.3,harveyvisual,2.1,[],8,0.75,
0,pause,0.4,None,None,None,0,87,87,87,,,,,,,,,,,,,D003,visual,1,[],"['1', '2', '3', '4']",1,2023.2.3,harveyvisual,2.1,[],8,0.75,
8,dot,0.3,['dot'],['density'],black,0,88,88,88,,,33.20020580291748,32.90895390510559,33.20894694328308,dot,"[0.06, 0.1, 0.06, 0.08, 0.06, 0.06, 0.08, 0.1]","[[0.43039348711459674, -0.2176132953198537], [0.11499515674856413, 0.2899266495440316], [0.12808102003139596, -0.009244067984354065], [-0.030386771168905473, -0.2551920291624523], [0.3118809155168881, 0.2081403981228026], [-0.06282563634610334, 0.11114412413027695], [0.22944900542930163, -0.23921835558115082], [0.33219925311336224, 0.0035410395788749187]]",density,black,,,D003,visual,1,[],"['1', '2', '3', '4']",1,2023.2.3,harveyvisual,2.1,[],8,0.75,
0,pause,0.4,None,None,None,0,89,89,89,,,,,,,,,,,,,D003,visual,1,[],"['1', '2', '3', '4']",1,2023.2.3,harveyvisual,2.1,[],8,0.75,
8,dot,0.3,['dot'],['density'],white,0,90,90,90,,,33.9001989364624,33.608943939208984,33.908933877944946,dot,"[0.08, 0.06, 0.08, 0.06, 0.06, 0.06, 0.06, 0.08]","[[0.5011924336457421, -0.024432440978935197], [0.2806328112604475, -0.04317330297599672], [0.4832514634589159, 0.31109822070486504], [0.16408111659662816, 0.42847901077729456], [0.23688927214560462, 0.23559820796421724], [0.07772697954394367, 0.06196890701796274], [0.10192126774068293, -0.18867749580812243], [-0.012619648351882298, 0.24997239668137242]]",density,white,,,D003,visual,1,[],"['1', '2', '3', '4']",1,2023.2.3,harveyvisual,2.1,[],8,0.75,
0,pause,0.4,None,None,None,0,91,91,91,,,,,,,,,,,1,33.923311948776245,D003,visual,1,[],"['1', '2', '3', '4']",1,2023.2.3,harveyvisual,2.1,[],8,0.75,
8,dot,0.3,['dot'],['density'],black,0,92,92,92,,,34.60021090507507,34.30893588066101,34.6089289188385,dot,"[0.06, 0.08, 0.1, 0.1, 0.06, 0.08, 0.06, 0.06]","[[0.2564657333297123, -0.5164120873644681], [0.16207736998829034, -0.17430025554579232], [0.3801370228700199, -0.12440354324600712], [0.3861419762144276, -0.3474957963553726], [0.023072413076989942, -0.006703975881976366], [-0.07114697953604181, -0.35683211304459495], [0.45447188669532573, 0.06927659529933487], [0.23571610799738704, 0.02784742549372824]]",density,black,,,D003,visual,1,[],"['1', '2', '3', '4']",1,2023.2.3,harveyvisual,2.1,[],8,0.75,
0,pause,0.4,None,None,None,0,93,93,93,,,,,,,,,,,,,D003,visual,1,[],"['1', '2', '3', '4']",1,2023.2.3,harveyvisual,2.1,[],8,0.75,
8,dot,0.3,['dot'],['density'],black,0,94,94,94,,,35.30019688606262,35.00892877578735,35.308910846710205,dot,"[0.1, 0.1, 0.06, 0.1, 0.1, 0.06, 0.1, 0.1]","[[0.3129921899656287, 0.2226642157048143], [0.41298599633021416, -0.001766323215076977], [0.013785601627645026, 0.39275307090924344], [-0.009407606244017683, 0.02333367620517349], [0.20163499737495916, -0.08731087547331118], [0.31235423233837933, 0.42762820752661124], [0.10705959187470679, 0.21318577255187057], [-0.13233007013452783, 0.20605257250075132]]",density,black,,,D003,visual,1,[],"['1', '2', '3', '4']",1,2023.2.3,harveyvisual,2.1,[],8,0.75,
0,pause,0.4,None,None,None,0,95,95,95,,,,,,,,,,,,,D003,visual,1,[],"['1', '2', '3', '4']",1,2023.2.3,harveyvisual,2.1,[],8,0.75,
9,dot,0.3,['dot'],['density'],black,0,96,96,96,,,36.0002179145813,35.708921909332275,36.00896978378296,dot,"[0.08, 0.08, 0.06, 0.1, 0.08, 0.08, 0.08, 0.06, 0.08]","[[0.08305850914464513, -0.5442468290176591], [0.035628337695759515, -0.10623885656661826], [-0.40455734034313895, -0.4103448572564978], [-0.27695520492017833, -0.22921059622728732], [-0.0679181879583315, -0.31282249044743377], [0.15394835823740735, -0.27999833282003045], [0.36545074601266236, -0.2024769979494575], [-0.18616414474285772, -0.004612976462616847], [-0.15152437179077458, -0.5570863580044498]]",density,black,,,D003,visual,1,[],"['1', '2', '3', '4']",1,2023.2.3,harveyvisual,2.1,[],8,0.75,
0,pause,0.4,None,None,None,0,97,97,97,,,,,,,,,,,,,D003,visual,1,[],"['1', '2', '3', '4']",1,2023.2.3,harveyvisual,2.1,[],8,0.75,
9,dot,0.3,['dot'],['density'],black,0,98,98,98,,,36.70021891593933,36.40890383720398,36.70889091491699,dot,"[0.08, 0.1, 0.08, 0.06, 0.06, 0.06, 0.1, 0.06, 0.06]","[[-0.3974741157875733, -0.3691322615124248], [0.01813275331019438, -0.041305186939584786], [-0.297817964195003, 0.1404435238036691], [-0.24996212712231053, -0.10674501212047392], [-0.45607543705465475, -0.10954340680539053], [-0.5097726394514722, 0.08872958744943038], [-0.16376728557074105, -0.3354799619734228], [-0.07115584905184995, 0.17737469530672276], [-0.4529869372404742, 0.29851616761646654]]",density,black,,,D003,visual,1,[],"['1', '2', '3', '4']",1,2023.2.3,harveyvisual,2.1,[],8,0.75,
0,pause,0.4,None,None,None,0,99,99,99,,,,,,,,,,,,,D003,visual,1,[],"['1', '2', '3', '4']",1,2023.2.3,harveyvisual,2.1,[],8,0.75,
9,dot,0.3,['dot'],['density'],black,0,100,100,100,,,37.40019488334656,37.108879804611206,37.40886878967285,dot,"[0.08, 0.08, 0.08, 0.08, 0.06, 0.1, 0.06, 0.08, 0.06]","[[0.31750259908069645, 0.09103062301409195], [-0.10814993995151222, -0.14883262012051235], [0.2615101699546999, -0.13245952524223892], [0.014531427323725789, 0.3887544696515085], [-0.1117096847062306, 0.09593752649312724], [0.07810272484559946, -0.019955638642360052], [-0.26173373106631487, 0.2840804484106463], [0.4370020372247476, 0.2669512546191977], [0.11115841416421544, 0.18722161068425575]]",density,black,,,D003,visual,1,[],"['1', '2', '3', '4']",1,2023.2.3,harveyvisual,2.1,[],8,0.75,
0,pause,0.4,None,None,None,0,101,101,101,,,,,,,,,,,,,D003,visual,1,[],"['1', '2', '3', '4']",1,2023.2.3,harveyvisual,2.1,[],8,0.75,
9,dot,0.3,['dot'],['density'],black,0,102,102,102,,,38.10020399093628,37.80886888504028,38.10880899429321,dot,"[0.06, 0.06, 0.06, 0.06, 0.06, 0.1, 0.1, 0.1, 0.08]","[[0.23250081832313607, -0.03448075506690146], [0.3034476098774822, 0.1830296703973891], [-0.18904104685434053, 0.18833284185042862], [0.2553794676357457, 0.5314352583170906], [0.16363099535363254, 0.3461022642192175], [-0.0841935017478271, 0.3664174397160571], [-0.26748786402911323, -0.05736109653727262], [0.043842773669028334, 0.577246673499167], [0.02102957219118283, 0.0979254794926055]]",density,black,,,D003,visual,1,[],"['1', '2', '3', '4']",1,2023.2.3,harveyvisual,2.1,[],8,0.75,
0,pause,0.4,None,None,None,0,103,103,103,,,,,,,,,,,,,D003,visual,1,[],"['1', '2', '3', '4']",1,2023.2.3,harveyvisual,2.1,[],8,0.75,
9,dot,0.3,['dot'],['density'],black,0,104,104,104,,,38.80020499229431,38.50881290435791,38.808793783187866,dot,"[0.06, 0.08, 0.1, 0.1, 0.06, 0.1, 0.1, 0.06, 0.08]","[[-0.01550530976013749, -0.4685693709261764], [-0.18673980358629047, -0.03677939788938074], [-0.492500386343057, -0.31631588298646995], [-0.31211872613566405, -0.49615226168915794], [-0.29213402726227655, -0.2779210730957987], [-0.48141959868665407, -0.11483975315711048], [0.2805727548720413, -0.20550850813502752], [-0.0662162642732561, -0.2200496541038322], [0.06776853683421198, -0.046300179137656175]]",density,black,,,D003,visual,1,[],"['1', '2', '3', '4']",1,2023.2.3,harveyvisual,2.1,[],8,0.75,
0,pause,0.4,None,None,None,0,105,105,105,,,,,,,,,,,,,D003,visual,1,[],"['1', '2', '3', '4']",1,2023.2.3,harveyvisual,2.1,[],8,0.75,
9,dot,0.3,['dot'],['density'],black,0,106,106,106,,,39.50021481513977,39.20880389213562,39.508780002593994,dot,"[0.08, 0.1, 0.08, 0.1, 0.1, 0.1, 0.08, 0.08, 0.1]","[[-0.08830733675648182, -0.32541118850070216], [0.2573655446525002, -0.0029570100823114536], [0.27547652153196345, -0.34332263321768475], [-0.10322368112243578, -0.12113330350182801], [-0.09512634339583304, 0.07974184968350245], [0.1087639633701519, -0.14934854126711464], [-0.2976800736237512, -0.022953619774800198], [0.014308470788770018, -0.5004438889851849], [-0.3557422450128242, -0.24953541402881954]]",density,black,,,D003,visual,1,[],"['1', '2', '3', '4']",1,2023.2.3,harveyvisual,2.1,[],8,0.75,
0,pause,0.4,None,None,None,0,107,107,107,,,,,,,,,,,,,D003,visual,1,[],"['1', '2', '3', '4']",1,2023.2.3,harveyvisual,2.1,[],8,0.75,
20,dot,0.3,['dot'],['density'],black,0,108,108,108,,,40.20021986961365,39.92544889450073,40.208889961242676,dot,"[0.06, 0.1, 0.06, 0.06, 0.08, 0.08, 0.08, 0.08, 0.08, 0.08, 0.06, 0.06, 0.08, 0.06, 0.08, 0.08, 0.08, 0.08, 0.06, 0.1]","[[0.2924645062642721, -0.2929937872332997], [-0.4661179711138289, -0.283446335397037], [0.5468960832036697, -0.030495305637155745], [-0.40466468298908953, 0.3813123317838727], [0.4902546228929564, 0.34986522445473056], [-0.5930278802767665, 0.07306750429814295], [-0.08573733353079815, -0.17434140615948862], [-0.20424496745598558, 0.33996222994360525], [0.502280104648159, -0.30059297597295126], [-0.048135014440182755, 0.048177090037896386], [0.12552867227188313, -0.4783935275388915], [0.2622490342377438, 0.34796705952940876], [-0.26359375331882884, -0.45816627656796893], [0.387541699218399, 0.1734087611044317], [-0.28373289932287993, -0.0617470358782406], [0.20276428132086566, 0.548635935462312], [0.14443788012873404, 0.05860102831463143], [-0.11039483121760901, 0.5264565439130172], [0.10063570906525032, -0.2405539944266113], [-0.0020761916673509573, 0.23276286455724615]]",density,black,,,D003,visual,1,[],"['1', '2', '3', '4']",1,2023.2.3,harveyvisual,2.1,[],8,0.75,
0,pause,0.4,None,None,None,0,109,109,109,,,,,,,,,,,,,D003,visual,1,[],"['1', '2', '3', '4']",1,2023.2.3,harveyvisual,2.1,[],8,0.75,
20,dot,0.3,['dot'],['density'],black,0,110,110,110,,,40.90019488334656,40.62544584274292,40.90876793861389,dot,"[0.1, 0.1, 0.1, 0.06, 0.06, 0.06, 0.1, 0.08, 0.1, 0.1, 0.1, 0.06, 0.1, 0.1, 0.1, 0.08, 0.1, 0.1, 0.06, 0.1]","[[-0.4067062407293276, 0.04537126534116731], [0.08530432165896407, 0.12104964900893], [-0.5795951150457256, -0.10054203087376959], [-0.07267351954790013, -0.1803009598006728], [0.335748709358906, -0.3770282818430687], [-0.040053601396825234, 0.2757345926500301], [-0.2487308130877639, -0.4848183764540246], [0.45975410473814693, -0.21825758169597295], [-0.3329616945318199, -0.21601976694876635], [0.5441610446283865, 0.13438083589511324], [0.07523199205625619, 0.5755911023633943], [0.3521883504707177, 0.2216501120275498], [0.11652240221872234, -0.2779872552779368], [-0.4665528067152882, -0.3816468231037735], [0.1651488488049233, 0.328165270539162], [-0.2655726085854154, 0.48948192889003506], [0.3356930699620283, 0.46226361179047415], [0.2617452220465222, 0.032509144223404784], [-0.5098069951989441, 0.2740272474335318], [-0.00868513666161086, -0.4708601502408247]]",density,black,,,D003,visual,1,[],"['1', '2', '3', '4']",1,2023.2.3,harveyvisual,2.1,[],8,0.75,
0,pause,0.4,None,None,None,0,111,111,111,,,,,,,,,,,,,D003,visual,1,[],"['1', '2', '3', '4']",1,2023.2.3,harveyvisual,2.1,[],8,0.75,
20,dot,0.3,['dot'],['density'],black,0,112,112,112,,,41.600199937820435,41.3256049156189,41.60878300666809,dot,"[0.08, 0.1, 0.08, 0.1, 0.08, 0.06, 0.06, 0.08, 0.08, 0.06, 0.06, 0.08, 0.08, 0.06, 0.1, 0.1, 0.06, 0.06, 0.08, 0.1]","[[-0.17308215638574176, 0.026338534603519537], [0.11080692857078078, -0.0003929367608639378], [-0.5929775116808905, -0.01416710184936576], [0.5254995944545598, -0.28568442475931866], [-0.4346590383054277, 0.39237034434000034], [-0.13573438678636945, 0.5511363516560454], [-0.13903728387809472, 0.2894611507621584], [0.22764591515450983, -0.22960046703667714], [0.3939678767235114, 0.1940181554410923], [-0.3999376234599199, -0.1289211219556261], [-0.17461523343278862, -0.48735227824438654], [0.03612790738650373, -0.3098524207781013], [0.10393082579249635, 0.23756034133895787], [0.384233958981693, 0.3842526196460724], [0.5955414648654217, -0.10194928931984291], [-0.38221448661262913, -0.3992944703851029], [0.05407816175111291, 0.5165977602241534], [-0.19002080282831985, -0.1848757122920327], [-0.4519920616987144, 0.11247428716042607], [0.1006864656221379, -0.5581700176792352]]",density,black,,,D003,visual,1,[],"['1', '2', '3', '4']",1,2023.2.3,harveyvisual,2.1,[],8,0.75,
0,pause,0.4,None,None,None,0,113,113,113,,,,,,,,,,,,,D003,visual,1,[],"['1', '2', '3', '4']",1,2023.2.3,harveyvisual,2.1,[],8,0.75,
20,dot,0.3,['dot'],['density'],black,0,114,114,114,,,42.30020880699158,42.025407791137695,42.3087317943573,dot,"[0.08, 0.08, 0.06, 0.08, 0.08, 0.08, 0.08, 0.06, 0.06, 0.08, 0.08, 0.06, 0.06, 0.08, 0.1, 0.1, 0.08, 0.06, 0.06, 0.1]","[[-0.1675532677089439, -0.05749245343874709], [-0.5876062771148078, 0.048032332767680375], [0.4940983710441188, -0.25255344593362017], [0.09248397478051895, 0.3517989859365296], [-0.4314164359073106, 0.42442441508272094], [-0.0698321294929849, 0.5919115081222546], [-0.26983815039449227, 0.10917047401915214], [0.34402215774875045, 0.3934493937909502], [-0.5415651942600677, -0.21455535771247192], [-0.10588686481011178, -0.515424518948671], [0.5269894282929165, 0.26977428427801464], [0.2243326328594012, 0.09122129722982408], [0.2760720360151828, -0.4779297373528626], [0.06527820842450471, -0.07123298701114256], [0.004833189537162608, 0.17996708751239865], [-0.30017796078349973, -0.32621403196918974], [0.28611886803662945, -0.09587961322880012], [-0.13548868938017372, 0.39607573424756115], [0.08205362502835922, -0.39589947852521457], [0.4148161916711156, 0.06467120277449218]]",density,black,,,D003,visual,1,[],"['1', '2', '3', '4']",1,2023.2.3,harveyvisual,2.1,[],8,0.75,
0,pause,0.4,None,None,None,0,115,115,115,,,,,,,,,,,,,D003,visual,1,[],"['1', '2', '3', '4']",1,2023.2.3,harveyvisual,2.1,[],8,0.75,
20,dot,0.3,['dot'],['density'],black,0,116,116,116,,,43.00019884109497,42.72540283203125,43.00870990753174,dot,"[0.1, 0.1, 0.06, 0.1, 0.06, 0.08, 0.1, 0.1, 0.06, 0.08, 0.08, 0.08, 0.06, 0.1, 0.1, 0.06, 0.08, 0.1, 0.08, 0.1]","[[-0.2413186398958011, 0.38282126626527624], [-0.3593443175841239, -0.3870957041975156], [-0.45414032408035265, 0.24664345844607122], [0.2510128132524204, -0.10772964778970018], [0.3128248463309733, 0.3906927032799984], [0.327857076959746, 0.18921580313084374], [-0.11778456253074443, -0.1833890600920643], [0.019608341665687035, 0.17157077769517592], [-0.5277902834668635, -0.2424972581055475], [0.537397518231406, -0.25493945084013886], [0.15898944124373027, 0.5589642102088612], [0.5783643711575833, 0.0379943856190669], [-0.06896578895928318, -0.5637814273891101], [-0.2550777715942089, 0.0710932767675595], [-0.09912469570772209, 0.5336010213362581], [0.14344654873108287, -0.3893053840665453], [-0.41182807679099936, -0.04150375882858737], [0.06440683819085458, -0.042423979963037595], [0.5241150674989506, 0.25083352480075743], [-0.6015905016392256, -0.0554578882967051]]",density,black,,,D003,visual,1,[],"['1', '2', '3', '4']",1,2023.2.3,harveyvisual,2.1,[],8,0.75,
0,pause,0.4,None,None,None,0,117,117,117,,,,,,,,,,,,,D003,visual,1,[],"['1', '2', '3', '4']",1,2023.2.3,harveyvisual,2.1,[],8,0.75,
20,dot,0.3,['dot'],['density'],black,0,118,118,118,,,43.700217962265015,43.42535877227783,43.708685874938965,dot,"[0.1, 0.08, 0.06, 0.08, 0.1, 0.06, 0.06, 0.1, 0.06, 0.1, 0.1, 0.1, 0.08, 0.08, 0.1, 0.1, 0.08, 0.06, 0.1, 0.08]","[[-0.5904695807062188, -0.0611862696306953], [-0.41735909300242424, -0.4296863372862968], [0.2923174008503516, -0.1318751885563576], [0.035042845307280523, -0.11217420023822788], [-0.1914755641597352, -0.08969144004609414], [0.0303400249122312, 0.1882411943092831], [-0.4781344836702158, 0.2965789555777492], [0.0011480393732986593, 0.45913556067813943], [0.4708034532265698, -0.24020719091312148], [-0.4177010899536666, 0.057979284770220185], [0.5176536351381199, 0.2997762553497375], [0.24387947931902543, -0.5043297995858881], [0.4893317976707311, 0.10246268396858871], [0.3285486774971995, 0.4740648753549691], [-0.06661790559262148, -0.565796664499206], [0.10025585998110043, -0.3279662934812851], [0.3045391390121043, 0.26369637693052395], [-0.4259489310527256, -0.20880634210821478], [-0.22195466513747814, -0.3856246782871654], [-0.19512978415262033, 0.14088121973481893]]",density,black,,,D003,visual,1,[],"['1', '2', '3', '4']",1,2023.2.3,harveyvisual,2.1,[],8,0.75,
0,pause,0.4,None,None,None,0,119,119,119,,,,,,,,,,,,,D003,visual,1,[],"['1', '2', '3', '4']",1,2023.2.3,harveyvisual,2.1,[],8,0.75,
20,dot,0.3,['dot'],['density'],black,0,120,120,120,,,44.40020680427551,44.12534284591675,44.40868878364563,dot,"[0.06, 0.08, 0.06, 0.1, 0.06, 0.1, 0.1, 0.06, 0.1, 0.06, 0.06, 0.06, 0.1, 0.06, 0.06, 0.06, 0.06, 0.08, 0.1, 0.08]","[[0.47435471378162075, -0.2794912319975908], [-0.15068790935881898, -0.08731559628624186], [0.3410706609921522, -0.004302963517244851], [0.11136091710113838, -0.03587309425696783], [-0.41726035941494155, -0.15154597035498169], [0.40239509007458396, 0.19313170720336686], [-0.12736891657734672, -0.5594904904002035], [0.31466256569359285, -0.5126683028980954], [-0.3575991008984839, 0.05079350100895752], [-0.42716969619168677, 0.34967633584558655], [-0.18110227079509544, 0.12518905185627838], [0.028433848581449928, 0.24000323244515975], [-0.34364272013328945, -0.46122845343467184], [-0.25746800893298394, 0.4786898256472554], [-0.5558541127536782, 0.1555517444854108], [0.3391715843501203, 0.45543558853822264], [0.1507632580162307, 0.4264382927727558], [0.5974364244713709, 0.03833435309999712], [0.2892157642785982, -0.3237390577500654], [-0.12092075360074206, -0.341371564456675]]",density,black,,,D003,visual,1,[],"['1', '2', '3', '4']",1,2023.2.3,harveyvisual,2.1,[],8,0.75,
0,pause,0.4,None,None,None,0,121,121,121,,,,,,,,,,,,,D003,visual,1,[],"['1', '2', '3', '4']",1,2023.2.3,harveyvisual,2.1,[],8,0.75,
20,dot,0.3,['dot'],['density'],black,0,122,122,122,,,45.10020685195923,44.82534384727478,45.10866379737854,dot,"[0.06, 0.08, 0.1, 0.06, 0.1, 0.08, 0.06, 0.1, 0.1, 0.06, 0.06, 0.1, 0.06, 0.1, 0.06, 0.06, 0.08, 0.06, 0.08, 0.06]","[[-0.558156250130616, 0.09555940590789733], [0.3632163656073113, -0.3940499028407085], [0.24481887842201766, 0.2259316455750423], [0.035002658487550464, -0.17884104338112516], [-0.006598068333188878, -0.5691888635334371], [-0.30383424677812604, 0.330657266497713], [0.10957190737358158, 0.05812292367314109], [-0.40690630964401553, -0.08592544077265729], [0.4961842297945799, 0.07289351664804411], [0.508602689168799, 0.2991508415434808], [-0.26662995772233017, -0.47790406608581626], [0.16317854730768966, 0.4561899622625196], [0.41556917210358846, -0.1708676761744643], [-0.22687002629556868, -0.20140321493365482], [-0.004109834963290981, 0.36407031914111754], [-0.4962284793300679, -0.262518954666135], [-0.23130215565824463, 0.12316585211543585], [-0.05221699873032615, -0.37628204627874867], [0.22597669665869757, -0.1506835151458169], [-0.03386414758915712, 0.5591174120884479]]",density,black,,,D003,visual,1,[],"['1', '2', '3', '4']",1,2023.2.3,harveyvisual,2.1,[],8,0.75,
0,pause,0.4,None,None,None,0,123,123,123,,,,,,,,,,,,,D003,visual,1,[],"['1', '2', '3', '4']",1,2023.2.3,harveyvisual,2.1,[],8,0.75,
20,dot,0.3,['dot'],['density'],black,0,124,124,124,,,45.800198793411255,45.525314807891846,45.80864691734314,dot,"[0.08, 0.08, 0.08, 0.06, 0.06, 0.08, 0.08, 0.08, 0.1, 0.1, 0.08, 0.1, 0.08, 0.06, 0.06, 0.06, 0.06, 0.08, 0.1, 0.06]","[[0.5718882406278601, 0.19794640348978984], [-0.5181146441687516, 0.22952029066957919], [-0.1874624682275411, 0.27700818796292037], [0.11508187851241214, 0.25342440065099936], [0.0004567307463230197, 0.41687721756446694], [-0.37709170229104594, 0.4199041541427358], [-0.05767457952608357, -0.042824967795078606], [0.31334072182683437, 0.23479958069234474], [-0.2566442093476883, -0.24289756639017424], [0.43601122756893484, -0.33410446371339664], [0.0027690232014884186, -0.3474943960872607], [-0.5549797947385342, -0.04526751282161179], [0.38674616997645883, 0.4172834890342896], [0.5995442099972378, -0.0743621000501278], [0.1374333566400201, -0.5439224075997396], [0.3440943498439816, 0.0067823626664948455], [0.26966532779397556, -0.20700406584713194], [-0.08744785955398238, -0.5263570286729211], [0.1253411682457285, 0.010750484480162803], [-0.17549460574702097, 0.5143485960642917]]",density,black,,,D003,visual,1,[],"['1', '2', '3', '4']",1,2023.2.3,harveyvisual,2.1,[],8,0.75,
0,pause,0.4,None,None,None,0,125,125,125,,,,,,,,,,,,,D003,visual,1,[],"['1', '2', '3', '4']",1,2023.2.3,harveyvisual,2.1,[],8,0.75,
20,dot,0.3,['dot'],['density'],black,0,126,126,126,,,46.50021290779114,46.225324869155884,46.50861096382141,dot,"[0.08, 0.08, 0.08, 0.08, 0.06, 0.06, 0.1, 0.1, 0.1, 0.1, 0.08, 0.06, 0.06, 0.08, 0.1, 0.1, 0.06, 0.08, 0.06, 0.06]","[[0.37213649999683085, -0.463874582953487], [-0.5531009525797047, -0.15216893896209988], [0.14599275290755687, 0.2937523846510093], [0.3710244433281982, -0.12204119901408672], [-0.4157489979089114, 0.07193431384436233], [0.5965568820021124, 0.09425712400223527], [-0.409362689036593, -0.29686088417221346], [0.09769262811160129, -0.27464203195182907], [-0.4561618385286477, 0.3366915827166601], [-0.26547501519293343, 0.33270509956395844], [-0.24300203195881742, -0.4743169709862255], [0.21618434986041501, 0.5280185330742544], [0.4291404962302897, 0.22053759484267987], [-0.1645428161074723, -0.08167358557479609], [-0.0815065870297238, -0.5750867156734971], [-0.2207321779166342, 0.1339859449170795], [-0.1012147998455899, 0.461695785703792], [-0.03206245213710435, 0.10195643598204007], [0.13858387740996436, 0.0017112070612497199], [0.5940397698218268, -0.10249377586302155]]",density,black,,,D003,visual,1,[],"['1', '2', '3', '4']",1,2023.2.3,harveyvisual,2.1,[],8,0.75,
0,pause,0.4,None,None,None,0,127,127,127,,,,,,,,,,,,,D003,visual,1,[],"['1', '2', '3', '4']",1,2023.2.3,harveyvisual,2.1,[],8,0.75,
20,dot,0.3,['dot'],['density'],black,0,128,128,128,,,47.20020890235901,46.925264835357666,47.20859885215759,dot,"[0.1, 0.1, 0.08, 0.08, 0.1, 0.06, 0.06, 0.06, 0.06, 0.08, 0.06, 0.08, 0.06, 0.08, 0.1, 0.06, 0.1, 0.1, 0.1, 0.1]","[[0.026931683160112074, 0.36378187537101836], [0.5375726395874346, 0.059037991478196605], [0.446422040222615, -0.2800639216902866], [0.28527807966821883, -0.49209563710274196], [-0.05437457367033205, -0.28995529329736325], [-0.15128597341736738, 0.21124289765278204], [0.11973078891671018, -0.12662260165464578], [-0.3711335783843992, 0.41392297990821364], [-0.39766315556603354, 0.1917911372305599], [-0.4292517141959643, -0.03703150054131832], [-0.33624192500898337, -0.4412123237859596], [0.07266274689324015, 0.12828214441696084], [0.3224575493688314, 0.04395973515660667], [0.43280796344627015, 0.2706473188316232], [-0.2331871667620925, -0.0327168552906123], [-0.1748370974407253, -0.5448805047972723], [-0.03498099674344557, 0.5609725237561267], [0.2256762217726298, 0.24644551234787782], [0.06524940178593341, -0.5743401978176912], [-0.5496039098422524, -0.21059376646850458]]",density,black,,,D003,visual,1,[],"['1', '2', '3', '4']",1,2023.2.3,harveyvisual,2.1,[],8,0.75,
0,pause,0.4,None,None,None,0,129,129,129,,,,,,,,,,,,,D003,visual,1,[],"['1', '2', '3', '4']",1,2023.2.3,harveyvisual,2.1,[],8,0.75,
20,dot,0.3,['dot'],['density'],black,0,130,130,130,,,47.900197982788086,47.625340938568115,47.908644914627075,dot,"[0.06, 0.08, 0.08, 0.06, 0.08, 0.06, 0.08, 0.1, 0.06, 0.08, 0.08, 0.06, 0.06, 0.08, 0.06, 0.08, 0.08, 0.1, 0.1, 0.1]","[[-0.30053103990307944, -0.4410055780820983], [0.020912362557558906, -0.5372919423375334], [-0.3752030558158429, 0.35905299095254073], [-0.02873517737511333, -0.08593830408362257], [0.06871360402886684, 0.2394895182577217], [0.2940413073146809, -0.3461980267235937], [0.5819434904155091, -0.09863785445977667], [-0.5348503499051023, -0.25909783387841967], [-0.34961048781879067, -0.13517913158135292], [0.20870397315815348, -0.14740022947172432], [0.29492884310951895, 0.08437202313062331], [-0.5881432911191131, 0.06090034562306129], [-0.5354842709992836, 0.2540274400046358], [-0.07475660506490722, 0.5845934216029506], [-0.3161207696285966, 0.17187940153198045], [0.2755829651518411, 0.5136153619127382], [-0.17104431792119962, 0.3799006131901963], [0.41649224604997837, 0.28698253622297326], [-0.052011836342939044, -0.29609285441366506], [0.5832774073081165, 0.1510963560343395]]",density,black,,,D003,visual,1,[],"['1', '2', '3', '4']",1,2023.2.3,harveyvisual,2.1,[],8,0.75,
0,pause,0.4,None,None,None,0,131,131,131,,,,,,,,,,,,,D003,visual,1,[],"['1', '2', '3', '4']",1,2023.2.3,harveyvisual,2.1,[],8,0.75,
20,dot,0.3,['dot'],['density'],black,0,132,132,132,,,48.60020995140076,48.325315952301025,48.608601808547974,dot,"[0.08, 0.1, 0.1, 0.1, 0.06, 0.06, 0.08, 0.08, 0.1, 0.1, 0.1, 0.06, 0.08, 0.06, 0.1, 0.08, 0.1, 0.08, 0.06, 0.06]","[[-0.05190655043538683, 0.5900468396597198], [-0.5809446720028333, -0.16244043848195097], [-0.31542039891430995, -0.4697575836207131], [-0.24518590013557479, -0.2298529656149907], [-0.02389617226763252, 0.009450422642291456], [0.4142857963518559, -0.14791804185593715], [-0.28125455727343607, 0.32204835013887023], [0.3614908979349518, 0.0474902542761334], [0.6033642237354356, 0.025671189184599], [-0.10846608250808676, -0.5868519697982961], [-0.45849876236448067, 0.1343099895710097], [0.15720391885885776, 0.15919359145191136], [0.10000582051782947, -0.29507519976409535], [0.2661434948035575, 0.3372290253837843], [-0.2408285688925605, -0.04023625281488241], [0.32983778814635667, -0.4568277741014335], [-0.14577085600743045, 0.18003843290609822], [0.01824571263806496, 0.29381057408691325], [0.10804177535041515, 0.4644523219377824], [0.5164431284645069, 0.30290447217073396]]",density,black,,,D003,visual,1,[],"['1', '2', '3', '4']",1,2023.2.3,harveyvisual,2.1,[],8,0.75,
0,pause,0.4,None,None,None,0,133,133,133,,,,,,,,,,,,,D003,visual,1,[],"['1', '2', '3', '4']",1,2023.2.3,harveyvisual,2.1,[],8,0.75,
20,dot,0.3,['dot'],['density'],black,0,134,134,134,,,49.30021381378174,49.02528095245361,49.3085777759552,dot,"[0.08, 0.08, 0.06, 0.08, 0.06, 0.06, 0.1, 0.06, 0.08, 0.08, 0.1, 0.06, 0.08, 0.08, 0.1, 0.1, 0.1, 0.08, 0.08, 0.1]","[[0.39106887096026666, -0.16763305458142552], [0.1376116606014055, 0.1366712667335922], [-0.13788454580473164, -0.20372279649591962], [-0.04824255116501408, 0.3335622588539633], [0.29669091785018864, -0.33448020796026123], [0.1545966816452402, -0.4991151760295533], [-0.3717440952961233, -0.03130434647863484], [0.3700251659764425, 0.37309919520882356], [-0.16652115843024662, -0.5764860336861154], [-0.49438316427320367, 0.29962555249053324], [-0.4876958913711268, -0.35585112048128986], [0.3729704435938672, 0.03147349990965104], [0.6015474167120726, -0.05543673975551488], [-0.2368642852900455, 0.2989687354306989], [0.07273953316759652, -0.18967585425277333], [-0.5658505308850394, 0.002553461321075867], [0.1254519771414151, 0.46294379229299587], [-0.2132874176005115, 0.07401544256616932], [-0.21696694989878806, 0.5445001051679744], [0.5650651434153265, 0.20560343090467303]]",density,black,,,D003,visual,1,[],"['1', '2', '3', '4']",1,2023.2.3,harveyvisual,2.1,[],8,0.75,
0,pause,0.4,None,None,None,0,135,135,135,,,,,,,,,,,,,D003,visual,1,[],"['1', '2', '3', '4']",1,2023.2.3,harveyvisual,2.1,[],8,0.75,
20,dot,0.3,['dot'],['density'],black,0,136,136,136,,,50.00021481513977,49.72522592544556,50.00865077972412,dot,"[0.06, 0.08, 0.06, 0.08, 0.1, 0.06, 0.1, 0.06, 0.08, 0.1, 0.08, 0.06, 0.1, 0.08, 0.08, 0.08, 0.06, 0.1, 0.08, 0.1]","[[-0.270519919707509, 0.0621987115813214], [-0.003326046031225549, 0.2475097417300136], [-0.21377640657478736, -0.5428787400092345], [0.2504035971660985, -0.4721693258932179], [0.36918936633386557, 0.12581019202033855], [0.04182654119965701, -0.011759246431486958], [0.5679370861952971, -0.19933303240246952], [-0.42698313693386286, 0.3198041980097249], [-0.4947252521469702, -0.02958984677319898], [-0.5721585360951872, 0.19636123483490864], [0.5844894619398394, 0.1458685590900122], [0.051779981570187705, 0.5961685508450806], [0.395783477696538, 0.34990743028651905], [-0.4657426460495155, -0.30928332751474213], [-0.2574587401097465, -0.1329400901064942], [-0.22981429233395273, 0.3999162569547944], [0.29292107073038554, -0.12771544837235815], [0.12363870767151508, -0.24973976509704038], [0.19978426929689996, 0.4358730378078006], [-0.1278427621605399, -0.2815107516696175]]",density,black,,,D003,visual,1,[],"['1', '2', '3', '4']",1,2023.2.3,harveyvisual,2.1,[],8,0.75,
0,pause,0.4,None,None,None,0,137,137,137,,,,,,,,,,,,,D003,visual,1,[],"['1', '2', '3', '4']",1,2023.2.3,harveyvisual,2.1,[],8,0.75,
20,dot,0.3,['dot'],['density'],black,0,138,138,138,,,50.70020794868469,50.42518377304077,50.70850992202759,dot,"[0.06, 0.06, 0.1, 0.08, 0.06, 0.06, 0.08, 0.08, 0.08, 0.06, 0.08, 0.1, 0.08, 0.06, 0.1, 0.06, 0.1, 0.1, 0.08, 0.08]","[[0.33183889658545696, -0.20897008938120737], [-0.4024393705631744, 0.06982871513116373], [-0.33170555864564444, -0.3815946981622192], [-0.22945546750081025, 0.4892188021557652], [0.12976214208560644, 0.27783635234741766], [-0.03214531814269472, 0.5265749585764057], [-0.48087118856237265, 0.25532357130198363], [0.3431852306745993, 0.32254213457279235], [-0.18745863980941613, -0.5520160940713223], [0.5534868013765527, 0.04320702955983696], [0.29836768640260725, 0.01084712945667421], [-0.16986757376869932, -0.26198536529036076], [-0.36285343213027577, -0.17557713351968085], [-0.6005786445590895, 0.012194608705288462], [-0.04701309424401878, -0.063205465298661], [0.24234500601640985, 0.5079076429857221], [0.08783208849165813, -0.46767802509729695], [0.3878880398692758, -0.46165967130414515], [0.5077667385265462, -0.3043506486160298], [-0.05879083688130471, 0.15646913984702382]]",density,black,,,D003,visual,1,[],"['1', '2', '3', '4']",1,2023.2.3,harveyvisual,2.1,[],8,0.75,
0,pause,0.4,None,None,None,0,139,139,139,,,,,,,,,,,,,D003,visual,1,[],"['1', '2', '3', '4']",1,2023.2.3,harveyvisual,2.1,[],8,0.75,
20,dot,0.3,['dot'],['density'],black,0,140,140,140,,,51.400205850601196,51.12517285346985,51.40900683403015,dot,"[0.08, 0.06, 0.1, 0.06, 0.1, 0.1, 0.1, 0.1, 0.08, 0.08, 0.1, 0.06, 0.1, 0.06, 0.08, 0.1, 0.08, 0.06, 0.1, 0.06]","[[-0.5604110570776252, -0.009918886038696811], [0.052953887909805375, 0.3360789708499756], [0.16270029363348337, -0.06353479941891504], [0.23702710438241437, -0.4385970809537401], [0.4660268613476578, 0.15192485995920474], [0.2695106846601243, 0.20034934422044093], [0.011053052836043853, 0.05954597760878011], [0.4085174417550549, 0.4208400578591874], [0.3313310433737554, -0.23395823156058282], [-0.3402781877089281, 0.2007209382068723], [-0.20830586395556905, -0.037940027379531505], [-0.05557777568789957, -0.4756170924019725], [0.1833673032814045, 0.5470911430384965], [-0.5328600628993361, -0.28111642222561145], [-0.3598217717881442, 0.4673228032644964], [0.4985550843145664, -0.06439485727943356], [-0.10833863152444723, 0.5340909853241873], [-0.3332000799379689, -0.4997497976716824], [-0.1706103506248351, -0.25846899130471057], [0.10455537964841166, -0.2793773424463138]]",density,black,,,D003,visual,1,[],"['1', '2', '3', '4']",1,2023.2.3,harveyvisual,2.1,[],8,0.75,
0,pause,0.4,None,None,None,0,141,141,141,,,,,,,,,,,,,D003,visual,1,[],"['1', '2', '3', '4']",1,2023.2.3,harveyvisual,2.1,[],8,0.75,
20,dot,0.3,['dot'],['density'],black,0,142,142,142,,,52.10021495819092,51.82512593269348,52.108465909957886,dot,"[0.06, 0.1, 0.08, 0.1, 0.1, 0.06, 0.1, 0.06, 0.06, 0.08, 0.1, 0.08, 0.1, 0.1, 0.06, 0.08, 0.06, 0.1, 0.06, 0.1]","[[-0.5816610764548134, 0.12858454697107158], [0.3026973928330158, -0.16609531032518604], [-0.32995595823214174, 0.019246744175038355], [0.519052978868053, 0.016792694541188646], [-0.17767085383323422, -0.2632523797657451], [0.3083289809096831, 0.3770601663731944], [-0.5038062477577385, -0.1527873466567957], [0.17814244318311634, -0.3580139523059622], [0.3754527469563578, -0.45322729418066715], [0.3681530149006661, 0.1436467805965435], [-0.071942631288748, 0.44299619767311116], [-0.04754138040927969, -0.10871858121000394], [-0.07554850153896353, -0.4329132268974059], [-0.26790193925981637, -0.5274954412727058], [-0.13988131984960295, 0.08095164060739468], [0.5488862966446605, 0.2371107163766954], [-0.35951299918330326, 0.23541169532700557], [0.05539121990351048, 0.08935941543946946], [-0.32196949259992275, 0.4722401817006755], [0.08769374835803767, 0.554195692128011]]",density,black,,,D003,visual,1,[],"['1', '2', '3', '4']",1,2023.2.3,harveyvisual,2.1,[],8,0.75,
0,pause,0.4,None,None,None,0,143,143,143,,,,,,,,,,,,,D003,visual,1,[],"['1', '2', '3', '4']",1,2023.2.3,harveyvisual,2.1,[],8,0.75,
20,dot,0.3,['dot'],['density'],black,0,144,144,144,,,52.80021095275879,52.52512192726135,52.80848979949951,dot,"[0.08, 0.06, 0.1, 0.06, 0.1, 0.06, 0.06, 0.08, 0.1, 0.1, 0.1, 0.1, 0.06, 0.1, 0.06, 0.08, 0.06, 0.08, 0.1, 0.06]","[[0.4729142813994732, 0.22771776805635818], [0.027760227686234207, -0.5068870220469563], [-0.4834669584425487, -0.07799738019556429], [-0.18148875110604773, -0.47076915268458713], [-0.3069894134444463, 0.3981104947879607], [0.5392063614102424, -0.1612767970658967], [-0.08009667436350187, 0.16459772909314185], [0.3035656952145197, -0.046669568290929886], [-0.402736464183307, 0.21130558348786088], [0.4020504950036735, -0.3163870441800796], [-0.251230782293759, -0.17182488849597688], [0.05276088146737046, -0.12425555682045325], [0.22917388557246687, 0.4608834235215101], [0.26828490512421743, -0.5239395994553478], [-0.5308246674664011, -0.2781162713771234], [0.04695475770207058, 0.6033892715314612], [0.5157509933250494, 0.031317312916204765], [0.19439288954377554, 0.12508798271464194], [-0.11052948868234258, 0.41198099090345], [0.14674285615033678, -0.3186400816888143]]",density,black,,,D003,visual,1,[],"['1', '2', '3', '4']",1,2023.2.3,harveyvisual,2.1,[],8,0.75,
0,pause,0.4,None,None,None,0,145,145,145,,,,,,,,,,,,,D003,visual,1,[],"['1', '2', '3', '4']",1,2023.2.3,harveyvisual,2.1,[],8,0.75,
20,dot,0.3,['dot'],['density'],black,0,146,146,146,,,53.50022482872009,53.225135803222656,53.5084228515625,dot,"[0.06, 0.08, 0.06, 0.1, 0.08, 0.08, 0.06, 0.08, 0.08, 0.1, 0.1, 0.1, 0.1, 0.08, 0.1, 0.06, 0.08, 0.1, 0.06, 0.08]","[[-0.5805756572069956, -0.09933890518994574], [-0.2110042270579111, 0.48490268217996446], [0.054875877003345175, -0.1702797127750646], [0.032014118582357254, 0.41884940091474165], [0.3151657294565481, -0.5121009504386738], [0.05996317108886018, -0.4093465086498035], [-0.38850115413595654, 0.34399476266413714], [0.39132417701377253, 0.11411338579891794], [0.43139663284752217, -0.2926551755333445], [-0.26778544068205634, -0.005146235339035465], [0.4958337287011235, 0.30494783772983025], [0.2628488402564858, -0.1478550541146066], [0.28247935775454514, 0.27873938594021297], [-0.21004653275000312, -0.4199532987780472], [-0.4647023365888976, -0.3020003996647655], [-0.1482540996746523, -0.19298158187323067], [0.5779798179512684, -0.14278703298308376], [0.11893633161796668, -0.5910202316191625], [-0.0027984240673908367, 0.08753230646342713], [0.6007964474577957, 0.05653401000195367]]",density,black,,,D003,visual,1,[],"['1', '2', '3', '4']",1,2023.2.3,harveyvisual,2.1,[],8,0.75,
0,pause,0.4,None,None,None,0,147,147,147,,,,,,,,,,,,,D003,visual,1,[],"['1', '2', '3', '4']",1,2023.2.3,harveyvisual,2.1,[],8,0.75,
20,dot,0.3,['dot'],['density'],black,0,148,148,148,,,54.200199842453,53.92509889602661,54.20840382575989,dot,"[0.08, 0.06, 0.1, 0.08, 0.08, 0.08, 0.1, 0.06, 0.1, 0.08, 0.08, 0.08, 0.1, 0.08, 0.1, 0.08, 0.06, 0.1, 0.08, 0.06]","[[0.543580771188371, 0.17770796757447233], [0.1847474350645688, -0.3484430712466362], [-0.013553013435159134, -0.15221354885912497], [0.39126635141208144, -0.05154370867936131], [-0.2314090308860361, -0.0038662479307849384], [0.588179190598681, -0.11389287593601882], [0.2985499668534799, 0.45549972514298953], [-0.38803741316994056, 0.273978320017571], [0.1108920068747743, 0.3407853107908031], [-0.5878814748954555, 0.062442959011105026], [-0.5590921311615306, -0.1497721357584591], [0.3296360268558598, 0.20820616099965583], [-0.16194527131606978, 0.2971202306787879], [-0.003142232855683713, -0.46557964367349847], [-0.15515277278314932, -0.34595967271179123], [0.41335071910238097, -0.3428353682405586], [-0.37349234881979193, -0.38796162070806034], [-0.21540833409420257, 0.5169963110769906], [0.012566439673176055, 0.05007561455262688], [0.13486195886431485, 0.5637968505500649]]",density,black,,,D003,visual,1,[],"['1', '2', '3', '4']",1,2023.2.3,harveyvisual,2.1,[],8,0.75,
0,pause,0.4,None,None,None,0,149,149,149,,,,,,,,,,,,,D003,visual,1,[],"['1', '2', '3', '4']",1,2023.2.3,harveyvisual,2.1,[],8,0.75,
20,dot,0.3,['dot'],['density'],black,0,150,150,150,,,54.90021586418152,54.62507677078247,54.908379793167114,dot,"[0.1, 0.1, 0.06, 0.1, 0.08, 0.06, 0.06, 0.08, 0.1, 0.08, 0.06, 0.08, 0.08, 0.06, 0.1, 0.08, 0.06, 0.08, 0.06, 0.06]","[[0.15998141393424947, -0.36290973509084523], [-0.03838193719406602, -0.35441581703191516], [0.21672296739890085, -0.0035183024719004363], [0.29814113629098904, 0.32199551307847996], [-0.5568868947784286, 0.21748492809315054], [-0.3650559024822056, 0.1274915076676228], [-0.039160509919023645, -0.5752460938988033], [-0.40705209616917404, -0.31908818954230095], [-0.050594449741377834, 0.45023682854601077], [0.3208040344083972, -0.17829471442625888], [-0.22734164029209836, -0.030205824918448587], [-0.12832943347311293, 0.1691975913598146], [0.14718527217476607, 0.44345607571818424], [-0.2592698875891308, 0.36160827225663816], [0.37287557946135297, -0.4438731621120489], [-0.5743733901848025, -0.12852733016743242], [0.48424168614981544, 0.007339167409211866], [0.5373824510215693, -0.2490284493421855], [0.07104923639958238, -0.16142372145530298], [0.5293646276921663, 0.23269196366190997]]",density,black,,,D003,visual,1,[],"['1', '2', '3', '4']",1,2023.2.3,harveyvisual,2.1,[],8,0.75,
0,pause,0.4,None,None,None,0,151,151,151,,,,,,,,,,,,,D003,visual,1,[],"['1', '2', '3', '4']",1,2023.2.3,harveyvisual,2.1,[],8,0.75,
20,dot,0.3,['dot'],['density'],black,0,152,152,152,,,55.60020899772644,55.32504677772522,55.60839891433716,dot,"[0.08, 0.08, 0.06, 0.1, 0.08, 0.08, 0.1, 0.1, 0.06, 0.06, 0.06, 0.08, 0.06, 0.08, 0.1, 0.1, 0.1, 0.1, 0.06, 0.06]","[[0.2351276283042577, -0.3436271627221176], [-0.3927697368162073, 0.22879290278384473], [0.38762088161954045, 0.08127718253420246], [0.1112179632249366, 0.3888205003303601], [0.5664681453870289, 0.21198329322482443], [-0.1776751704207174, -0.3274341663740852], [0.5716629924390985, -0.0069725203295938065], [0.028835002497228923, 0.055453364967624874], [0.016614194991913078, -0.4686757062431044], [0.46822684854687646, -0.20426496019575388], [0.24103030908938416, -0.15328055443140254], [-0.47617288382976736, -0.0418436446180539], [0.007639791224252845, 0.5602072261230515], [-0.41748492345540955, -0.34365226870139315], [-0.08195825988723116, -0.10975865119865796], [-0.2619780295470301, -0.03212949357921291], [-0.08937140481158867, 0.21793704656340274], [0.4290966534151993, 0.4168117140731995], [-0.5637809311804787, -0.21147783732338632], [0.42244690896127557, -0.42142491649211977]]",density,black,,,D003,visual,1,[],"['1', '2', '3', '4']",1,2023.2.3,harveyvisual,2.1,[],8,0.75,
0,pause,0.4,None,None,None,0,153,153,153,,,,,,,,,,,,,D003,visual,1,[],"['1', '2', '3', '4']",1,2023.2.3,harveyvisual,2.1,[],8,0.75,
20,dot,0.3,['dot'],['density'],black,0,154,154,154,,,56.30020880699158,56.02502989768982,56.30835580825806,dot,"[0.06, 0.1, 0.1, 0.06, 0.06, 0.1, 0.1, 0.1, 0.1, 0.1, 0.08, 0.08, 0.06, 0.06, 0.1, 0.06, 0.1, 0.1, 0.1, 0.1]","[[0.2683702956579117, -0.38724052216941324], [0.43171631119545595, 0.04192223577764953], [0.29931863897177713, 0.20021764151530397], [0.46532209911801947, -0.3494656809716419], [0.08445031375165912, 0.23738342781506283], [0.13247107088915977, -0.0884940187657568], [-0.5358019064163007, 0.09881100706116397], [0.11438266569270494, 0.4972703538778315], [-0.08337361644772823, 0.5779855316869292], [-0.16205151868596385, 0.1653861471090533], [0.5629131739219356, -0.17058687045524026], [-0.48108420187871626, -0.1936915470470091], [-0.4510064469295527, 0.3517517294684606], [-0.3064692876780252, -0.3608654774338507], [0.2829566283431115, 0.39071117375738973], [0.042158209022188475, -0.42607524764724103], [0.32428992862270944, -0.1480987073639738], [-0.25606714209405185, 0.41493348434967325], [-0.18701819262173458, -0.5136495641222817], [0.17117297417332222, -0.5706399964545962]]",density,black,,,D003,visual,1,[],"['1', '2', '3', '4']",1,2023.2.3,harveyvisual,2.1,[],8,0.75,
0,pause,0.4,None,None,None,0,155,155,155,,,,,,,,,,,,,D003,visual,1,[],"['1', '2', '3', '4']",1,2023.2.3,harveyvisual,2.1,[],8,0.75,
9,dot,0.3,['dot'],['density'],white,0,156,156,156,,,57.000218868255615,56.70851492881775,57.008503913879395,dot,"[0.06, 0.06, 0.1, 0.08, 0.08, 0.08, 0.06, 0.06, 0.1]","[[0.34043128493099817, 0.2271075800100716], [0.2702764120171402, -0.10456749967376819], [-0.1274635928921129, -0.04210317806044915], [-0.03460273614387521, 0.1795356259369138], [0.14470969472881007, 0.3391925298523705], [0.06761060508642219, 0.0060094309834155335], [0.5117869412029185, -0.12050585585317111], [0.07404675892906432, -0.22660478390602867], [0.35723900661310204, -0.3185591288757]]",density,white,,,D003,visual,1,[],"['1', '2', '3', '4']",1,2023.2.3,harveyvisual,2.1,[],8,0.75,
0,pause,0.4,None,None,None,0,157,157,157,,,,,,,,,,,1,57.114129066467285,D003,visual,1,[],"['1', '2', '3', '4']",1,2023.2.3,harveyvisual,2.1,[],8,0.75,
9,dot,0.3,['dot'],['density'],black,0,158,158,158,,,57.700214862823486,57.408490896224976,57.708473920822144,dot,"[0.1, 0.06, 0.06, 0.06, 0.1, 0.08, 0.1, 0.1, 0.08]","[[0.16751238249231654, 0.5577961240465925], [-0.27296145406993233, 0.4862198967380745], [-0.029185467938656964, 0.15062746822878756], [-0.0646201772689005, 0.5687739076077192], [0.1739328392933146, 0.3418730943321047], [-0.141244529573345, 0.32572795328380527], [-0.5161698704605421, 0.1834233825743511], [0.21727962056556488, 0.12903401361548372], [-0.23724269532595021, 0.10991409904419316]]",density,black,,,D003,visual,1,[],"['1', '2', '3', '4']",1,2023.2.3,harveyvisual,2.1,[],8,0.75,
0,pause,0.4,None,None,None,0,159,159,159,,,,,,,,,,,,,D003,visual,1,[],"['1', '2', '3', '4']",1,2023.2.3,harveyvisual,2.1,[],8,0.75,
9,dot,0.3,['dot'],['density'],black,0,160,160,160,,,58.400211811065674,58.10833978652954,58.40834999084473,dot,"[0.06, 0.1, 0.08, 0.06, 0.06, 0.1, 0.08, 0.06, 0.06]","[[-0.03413633707233166, 0.539775862693792], [0.03045342777742709, 0.14881397110038386], [0.3968101769942594, 0.3516381959676015], [-0.12464897846505978, 0.27513009849494485], [0.24828272947848068, 0.13372878599656182], [0.1825630446668698, 0.5466865974155928], [-0.40057775338259505, 0.3148646888607764], [0.06988801613907401, -0.06658504348068199], [0.07277149512897427, 0.3699912437376705]]",density,black,,,D003,visual,1,[],"['1', '2', '3', '4']",1,2023.2.3,harveyvisual,2.1,[],8,0.75,
0,pause,0.4,None,None,None,0,161,161,161,,,,,,,,,,,,,D003,visual,1,[],"['1', '2', '3', '4']",1,2023.2.3,harveyvisual,2.1,[],8,0.75,
9,dot,0.3,['dot'],['density'],black,0,162,162,162,,,59.10020995140076,58.80847883224487,59.10847496986389,dot,"[0.08, 0.08, 0.06, 0.06, 0.06, 0.08, 0.08, 0.06, 0.1]","[[0.22829877875946783, -0.39640994854570016], [0.3366371496270161, 0.05839125036393789], [-0.11436045239834208, -0.12024221759915668], [-0.02100147820737577, -0.3824026009196371], [0.08479146627654295, 0.024089629435920912], [0.16206374850784472, -0.16075841177209507], [0.38495438842944835, -0.24810596019115372], [-0.23418047716532614, 0.09565997955556291], [0.2111996426858246, 0.23215637940447356]]",density,black,,,D003,visual,1,[],"['1', '2', '3', '4']",1,2023.2.3,harveyvisual,2.1,[],8,0.75,
0,pause,0.4,None,None,None,0,163,163,163,,,,,,,,,,,,,D003,visual,1,[],"['1', '2', '3', '4']",1,2023.2.3,harveyvisual,2.1,[],8,0.75,
9,dot,0.3,['dot'],['density'],white,0,164,164,164,,,59.80022096633911,59.50846481323242,59.808451890945435,dot,"[0.06, 0.06, 0.06, 0.06, 0.06, 0.08, 0.08, 0.08, 0.08]","[[-0.08858128315591524, -0.3480052213079807], [0.37291707470974605, -0.0809562497479422], [-0.04311872097798103, 0.23152249840731254], [0.1734412630875083, -0.16491363602164627], [-0.024044713080900382, -0.04824256513196188], [0.126438571592319, 0.09122014985587756], [-0.2168202887682383, 0.11190421567656858], [-0.23215605484234547, -0.20356583507002532], [0.291417597339289, 0.24351333182926893]]",density,white,,,D003,visual,1,[],"['1', '2', '3', '4']",1,2023.2.3,harveyvisual,2.1,[],8,0.75,
0,pause,0.4,None,None,None,0,165,165,165,,,,,,,,,,,1,59.885814905166626,D003,visual,1,[],"['1', '2', '3', '4']",1,2023.2.3,harveyvisual,2.1,[],8,0.75,
9,dot,0.3,['dot'],['density'],black,0,166,166,166,,,60.50020098686218,60.20844578742981,60.50840377807617,dot,"[0.1, 0.08, 0.06, 0.08, 0.06, 0.1, 0.1, 0.1, 0.08]","[[0.1897356465634014, 0.5279682873488559], [0.32378874068874214, 0.21764355715549547], [-0.02258392144612686, 0.1538672511300514], [0.18768343673053406, 0.06258281167321837], [0.4001161654736714, 0.031858124591620046], [0.03700916369328307, 0.37047593331345124], [0.18810723797826276, -0.14148750743097815], [-0.1502435433980558, -0.03059561201510329], [-0.21808568641731116, 0.28352793851031305]]",density,black,,,D003,visual,1,[],"['1', '2', '3', '4']",1,2023.2.3,harveyvisual,2.1,[],8,0.75,
0,pause,0.4,None,None,None,0,167,167,167,,,,,,,,,,,,,D003,visual,1,[],"['1', '2', '3', '4']",1,2023.2.3,harveyvisual,2.1,[],8,0.75,
8,dot,0.3,['dot'],['density'],black,0,168,168,168,,,61.20020294189453,60.90840196609497,61.20838785171509,dot,"[0.06, 0.06, 0.06, 0.08, 0.06, 0.06, 0.06, 0.08]","[[-0.20800618360187478, -0.297823595680997], [0.0208603014005115, -0.46570844314230314], [-0.33947416747489917, -0.46414587466331364], [-0.2657502487478435, -0.0024929956194721667], [-0.07971030345085922, -0.1368829558420488], [0.12327021606192319, -0.12614842517591618], [-0.10944837079043952, 0.12795643756026515], [-0.4050023469846894, -0.16101207847090707]]",density,black,,,D003,visual,1,[],"['1', '2', '3', '4']",1,2023.2.3,harveyvisual,2.1,[],8,0.75,
0,pause,0.4,None,None,None,0,169,169,169,,,,,,,,,,,,,D003,visual,1,[],"['1', '2', '3', '4']",1,2023.2.3,harveyvisual,2.1,[],8,0.75,
8,dot,0.3,['dot'],['density'],black,0,170,170,170,,,61.900216817855835,61.60822081565857,61.90819787979126,dot,"[0.06, 0.06, 0.1, 0.1, 0.06, 0.1, 0.08, 0.08]","[[-0.13214754069031825, -0.5402677255150703], [0.1288984478000013, -0.5519726475135984], [0.27401725229332, -0.34994268047279037], [-0.052680844420756816, 0.006786609240531098], [0.03557367748195712, -0.3699094958310016], [-0.23170140006741713, -0.18198058676873416], [-0.33504621301322857, -0.3611685350886627], [0.0760940577115827, -0.14857148175569432]]",density,black,,,D003,visual,1,[],"['1', '2', '3', '4']",1,2023.2.3,harveyvisual,2.1,[],8,0.75,
0,pause,0.4,None,None,None,0,171,171,171,,,,,,,,,,,,,D003,visual,1,[],"['1', '2', '3', '4']",1,2023.2.3,harveyvisual,2.1,[],8,0.75,
8,dot,0.3,['dot'],['density'],black,0,172,172,172,,,62.600220918655396,62.30836200714111,62.60835099220276,dot,"[0.06, 0.1, 0.08, 0.06, 0.08, 0.06, 0.1, 0.08]","[[0.1740819983727909, -0.16863019829442621], [0.14644114519141543, -0.4524198896657212], [0.0024885361438939093, 0.023531574910491997], [-0.23717340943857948, -0.31112918658627675], [-0.11311749148073028, -0.46867866316561874], [-0.17928248077090506, -0.060241557052319365], [-0.03957999532622772, -0.24759906754331504], [-0.4644327601918011, -0.3627803331480915]]",density,black,,,D003,visual,1,[],"['1', '2', '3', '4']",1,2023.2.3,harveyvisual,2.1,[],8,0.75,
0,pause,0.4,None,None,None,0,173,173,173,,,,,,,,,,,,,D003,visual,1,[],"['1', '2', '3', '4']",1,2023.2.3,harveyvisual,2.1,[],8,0.75,
8,dot,0.3,['dot'],['density'],black,0,174,174,174,,,63.3002028465271,63.00835299491882,63.30833983421326,dot,"[0.08, 0.1, 0.1, 0.08, 0.1, 0.06, 0.06, 0.1]","[[0.2564657333297123, -0.5164120873644681], [0.16207736998829034, -0.17430025554579232], [0.3801370228700199, -0.12440354324600712], [0.3861419762144276, -0.3474957963553726], [0.023072413076989942, -0.006703975881976366], [-0.07114697953604181, -0.35683211304459495], [0.45447188669532573, 0.06927659529933487], [0.23571610799738704, 0.02784742549372824]]",density,black,,,D003,visual,1,[],"['1', '2', '3', '4']",1,2023.2.3,harveyvisual,2.1,[],8,0.75,
0,pause,0.4,None,None,None,0,175,175,175,,,,,,,,,,,,,D003,visual,1,[],"['1', '2', '3', '4']",1,2023.2.3,harveyvisual,2.1,[],8,0.75,
8,dot,0.3,['dot'],['density'],black,0,176,176,176,,,64.00020790100098,63.708361864089966,64.0083339214325,dot,"[0.08, 0.08, 0.08, 0.06, 0.1, 0.06, 0.1, 0.08]","[[0.15461278376755175, 0.017690045563684864], [0.4404146441246234, 0.21813023399178458], [0.05487595867990863, 0.4084021637362207], [-0.13585566436679766, 0.08658391491112073], [0.3753260993018466, -0.0029057217730488138], [0.24206240898487613, 0.3367355195829085], [0.06992318211572668, 0.2078151862649802], [0.2541279777615451, -0.17357647893213385]]",density,black,,,D003,visual,1,[],"['1', '2', '3', '4']",1,2023.2.3,harveyvisual,2.1,[],8,0.75,
0,pause,0.4,None,None,None,0,177,177,177,,,,,,,,,,,,,D003,visual,1,[],"['1', '2', '3', '4']",1,2023.2.3,harveyvisual,2.1,[],8,0.75,
8,dot,0.3,['dot'],['density'],black,0,178,178,178,,,64.70020985603333,64.40831780433655,64.70829677581787,dot,"[0.1, 0.08, 0.1, 0.08, 0.1, 0.1, 0.1, 0.1]","[[0.3364035831170529, 0.12390393923093283], [0.4336864367158133, 0.35981147627037974], [0.06743640335689947, 0.0759148581953004], [-0.079559988999742, 0.39531058321326396], [0.21309668101319243, 0.48855257098982907], [0.23478258025928536, -0.08446837776908474], [-0.12854716397353463, 0.17339976512773136], [0.14965136140762586, 0.26897313353206964]]",density,black,,,D003,visual,1,[],"['1', '2', '3', '4']",1,2023.2.3,harveyvisual,2.1,[],8,0.75,
0,pause,0.4,None,None,None,0,179,179,179,,,,,,,,,,,,,D003,visual,1,[],"['1', '2', '3', '4']",1,2023.2.3,harveyvisual,2.1,[],8,0.75,
7,dot,0.3,['dot'],['density'],black,0,180,180,180,,,65.40022277832031,65.10828995704651,65.40827584266663,dot,"[0.06, 0.06, 0.08, 0.1, 0.08, 0.1, 0.08]","[[-0.2314520007693297, 0.33838000150240727], [-0.18132207761103206, 0.5552670473927488], [0.017458222085991553, 0.32213086183097556], [0.10538257653630445, 0.5364165263315271], [-0.32661765694444117, 0.13553859080651098], [0.2001110614088519, 0.2352342526365964], [-0.07707990285528175, 0.1388757586163816]]",density,black,,,D003,visual,1,[],"['1', '2', '3', '4']",1,2023.2.3,harveyvisual,2.1,[],8,0.75,
0,pause,0.4,None,None,None,0,181,181,181,,,,,,,,,,,,,D003,visual,1,[],"['1', '2', '3', '4']",1,2023.2.3,harveyvisual,2.1,[],8,0.75,
7,dot,0.3,['dot'],['density'],black,0,182,182,182,,,66.10020589828491,65.80812478065491,66.10825681686401,dot,"[0.06, 0.06, 0.06, 0.1, 0.1, 0.06, 0.08]","[[-0.0009033409944170771, 0.42006327366100915], [0.07504475251916, -0.022201311189229547], [-0.3616170585675141, 0.16750883091546095], [0.025412283732210435, 0.18669523424894663], [-0.17132175432412022, 0.2677160973152203], [-0.13541388111710323, 0.00927786556165188], [-0.3032959001003911, -0.13806764794565113]]",density,black,,,D003,visual,1,[],"['1', '2', '3', '4']",1,2023.2.3,harveyvisual,2.1,[],8,0.75,
0,pause,0.4,None,None,None,0,183,183,183,,,,,,,,,,,,,D003,visual,1,[],"['1', '2', '3', '4']",1,2023.2.3,harveyvisual,2.1,[],8,0.75,
7,dot,0.3,['dot'],['density'],black,0,184,184,184,,,66.80019998550415,66.50825381278992,66.8081328868866,dot,"[0.08, 0.1, 0.08, 0.1, 0.06, 0.1, 0.08]","[[-0.23022292756182125, -0.05768485575552839], [-0.3970021412728509, -0.1722837668104814], [-0.2989980436724142, -0.5015189566068301], [-0.1887121522124618, -0.3052937986494308], [-0.001193606839323686, -0.45187687349833133], [-0.45251418858811787, -0.367940027934103], [0.11213422846620591, -0.19711986939188722]]",density,black,,,D003,visual,1,[],"['1', '2', '3', '4']",1,2023.2.3,harveyvisual,2.1,[],8,0.75,
0,pause,0.4,None,None,None,0,185,185,185,,,,,,,,,,,,,D003,visual,1,[],"['1', '2', '3', '4']",1,2023.2.3,harveyvisual,2.1,[],8,0.75,
7,dot,0.3,['dot'],['density'],black,0,186,186,186,,,67.5002019405365,67.20815682411194,67.50812983512878,dot,"[0.06, 0.08, 0.1, 0.1, 0.1, 0.06, 0.08]","[[-0.137089699111686, -0.0603537150230737], [-0.5113647139476066, -0.13847335204066147], [-0.15813839015967857, -0.36469710156031643], [-0.2936616210719107, -0.2141411575526577], [-0.32787652212665946, 0.04250548396893007], [0.004093135922799089, -0.22788394746255153], [-0.17456170860443615, 0.20133573380951708]]",density,black,,,D003,visual,1,[],"['1', '2', '3', '4']",1,2023.2.3,harveyvisual,2.1,[],8,0.75,
0,pause,0.4,None,None,None,0,187,187,187,,,,,,,,,,,,,D003,visual,1,[],"['1', '2', '3', '4']",1,2023.2.3,harveyvisual,2.1,[],8,0.75,
7,dot,0.3,['dot'],['density'],black,0,188,188,188,,,68.20022487640381,67.90812993049622,68.20811295509338,dot,"[0.08, 0.06, 0.08, 0.1, 0.06, 0.08, 0.06]","[[-0.0015444251822213466, 0.17452400993182896], [-0.3864233363803332, 0.3856338194384884], [-0.45841970572989144, 0.11901701190004808], [-0.23552014845846486, 0.11986313412455778], [-0.06694767956243396, -0.029831379541550785], [-0.3576154478026905, -0.11072010138878656], [-0.17113735677840214, 0.37123035181888253]]",density,black,,,D003,visual,1,[],"['1', '2', '3', '4']",1,2023.2.3,harveyvisual,2.1,[],8,0.75,
0,pause,0.4,None,None,None,0,189,189,189,,,,,,,,,,,,,D003,visual,1,[],"['1', '2', '3', '4']",1,2023.2.3,harveyvisual,2.1,[],8,0.75,
7,dot,0.3,['dot'],['density'],black,0,190,190,190,,,68.90022397041321,68.60810780525208,68.90809297561646,dot,"[0.1, 0.08, 0.06, 0.08, 0.1, 0.08, 0.06]","[[0.14162553822338392, 0.3850374027840034], [0.14862566890709045, -0.11120959689479885], [0.39332636479883865, 0.3869926518090174], [0.40462455387813373, -0.12110830933676162], [0.23143806607869288, 0.12402376181071403], [0.031443448417621304, 0.15083815177969048], [0.4360523150463376, 0.1818515773867412]]",density,black,,,D003,visual,1,[],"['1', '2', '3', '4']",1,2023.2.3,harveyvisual,2.1,[],8,0.75,
0,pause,0.4,None,None,None,0,191,191,191,,,,,,,,,,,,,D003,visual,1,[],"['1', '2', '3', '4']",1,2023.2.3,harveyvisual,2.1,[],8,0.75,
6,dot,0.3,['dot'],['density'],black,0,192,192,192,,,69.60021996498108,69.3081738948822,69.60816383361816,dot,"[0.1, 0.08, 0.06, 0.1, 0.08, 0.1]","[[0.3299424372810393, 0.4114780133894161], [0.051944887288218326, -0.03233758374135307], [0.4337222981537534, -0.07578498258626121], [0.10477943773033714, 0.1703675017914044], [0.3400878522727408, 0.20016066552806494], [0.2510029109880425, 0.01747244452819591]]",density,black,,,D003,visual,1,[],"['1', '2', '3', '4']",1,2023.2.3,harveyvisual,2.1,[],8,0.75,
0,pause,0.4,None,None,None,0,193,193,193,,,,,,,,,,,,,D003,visual,1,[],"['1', '2', '3', '4']",1,2023.2.3,harveyvisual,2.1,[],8,0.75,
6,dot,0.3,['dot'],['density'],black,0,194,194,194,,,70.30022597312927,70.00816798210144,70.30801391601562,dot,"[0.08, 0.08, 0.06, 0.1, 0.1, 0.1]","[[-0.3075905201299059, -0.4396409988488083], [-0.19740249700094745, -0.17714391351551703], [0.053731853964380204, -0.5240815929277938], [0.045148855841778586, -0.17580561296456876], [0.17596231810730836, -0.3386358025171148], [-0.08995737585576556, -0.36423659604885134]]",density,black,,,D003,visual,1,[],"['1', '2', '3', '4']",1,2023.2.3,harveyvisual,2.1,[],8,0.75,
0,pause,0.4,None,None,None,0,195,195,195,,,,,,,,,,,,,D003,visual,1,[],"['1', '2', '3', '4']",1,2023.2.3,harveyvisual,2.1,[],8,0.75,
6,dot,0.3,['dot'],['density'],black,0,196,196,196,,,71.00020790100098,70.70798778533936,71.00812697410583,dot,"[0.1, 0.08, 0.1, 0.06, 0.1, 0.1]","[[-0.4836161913484198, -0.3187453071493452], [-0.26471688047626735, -0.2860523134109648], [-0.41762950244179403, 0.08668289631298715], [-0.3878484475239729, -0.1200129628316565], [-0.19654931186518254, -0.017200237521102193], [-0.07523945320955261, -0.19429752312200124]]",density,black,,,D003,visual,1,[],"['1', '2', '3', '4']",1,2023.2.3,harveyvisual,2.1,[],8,0.75,
0,pause,0.4,None,None,None,0,197,197,197,,,,,,,,,,,,,D003,visual,1,[],"['1', '2', '3', '4']",1,2023.2.3,harveyvisual,2.1,[],8,0.75,
6,dot,0.3,['dot'],['density'],black,0,198,198,198,,,71.7002158164978,71.40811491012573,71.7081229686737,dot,"[0.1, 0.06, 0.1, 0.1, 0.1, 0.06]","[[-0.25052904509636076, -0.46440103658729176], [-0.12772535636451293, 0.010821502090106766], [-0.031043743050516784, -0.3649555915866845], [-0.3754529733759062, -0.18839395716731677], [0.07378414788444272, -0.15062955699655364], [-0.17220243018048728, -0.20498996683935267]]",density,black,,,D003,visual,1,[],"['1', '2', '3', '4']",1,2023.2.3,harveyvisual,2.1,[],8,0.75,
0,pause,0.4,None,None,None,0,199,199,199,,,,,,,,,,,,,D003,visual,1,[],"['1', '2', '3', '4']",1,2023.2.3,harveyvisual,2.1,[],8,0.75,
6,dot,0.3,['dot'],['density'],black,0,200,200,200,,,72.400221824646,72.10810899734497,72.40810799598694,dot,"[0.06, 0.1, 0.1, 0.06, 0.08, 0.06]","[[-0.24492162854676555, 0.16704436901929823], [-0.3861886513150086, 0.35601694661450933], [-0.48514013682315105, 0.15596888098880124], [-0.5451465436738104, -0.12931683943359434], [-0.11772959853104834, 0.007676420150436517], [-0.35755989064212684, -0.03355234579502648]]",density,black,,,D003,visual,1,[],"['1', '2', '3', '4']",1,2023.2.3,harveyvisual,2.1,[],8,0.75,
0,pause,0.4,None,None,None,0,201,201,201,,,,,,,,,,,,,D003,visual,1,[],"['1', '2', '3', '4']",1,2023.2.3,harveyvisual,2.1,[],8,0.75,
6,dot,0.3,['dot'],['density'],black,0,202,202,202,,,73.10021996498108,72.808100938797,73.1079649925232,dot,"[0.08, 0.1, 0.1, 0.06, 0.1, 0.08]","[[0.4249538099490167, -0.025354946498656116], [0.305005901383002, 0.397829445973664], [0.04954868862097969, 0.09819418046919175], [0.452299537631068, 0.2574679639516015], [0.21081936584905453, -0.08903757916275208], [0.27954488569289765, 0.14103100078867375]]",density,black,,,D003,visual,1,[],"['1', '2', '3', '4']",1,2023.2.3,harveyvisual,2.1,[],8,0.75,
0,pause,0.4,None,None,None,0,203,203,203,,,,,,,,,,,,,D003,visual,1,[],"['1', '2', '3', '4']",1,2023.2.3,harveyvisual,2.1,[],8,0.75,
5,dot,0.3,['dot'],['density'],black,0,204,204,204,,,73.80022192001343,73.50796890258789,73.80788898468018,dot,"[0.1, 0.06, 0.1, 0.08, 0.08]","[[-0.3632963637400461, -0.33792544526642676], [-0.48189922448633543, -0.036156829306921726], [-0.2958020468624338, 0.07292024124872273], [-0.10639492237515816, -0.0008972940205680791], [-0.20818262001932955, -0.17666930306052683]]",density,black,,,D003,visual,1,[],"['1', '2', '3', '4']",1,2023.2.3,harveyvisual,2.1,[],8,0.75,
0,pause,0.4,None,None,None,0,205,205,205,,,,,,,,,,,,,D003,visual,1,[],"['1', '2', '3', '4']",1,2023.2.3,harveyvisual,2.1,[],8,0.75,
5,dot,0.3,['dot'],['density'],black,0,206,206,206,,,74.5002269744873,74.20788788795471,74.50788688659668,dot,"[0.1, 0.08, 0.06, 0.1, 0.06]","[[0.36014554898799966, 0.387810422325294], [0.055757472799778995, 0.16941293674392635], [0.2210739480460382, 0.008175952352481365], [0.48495712857242873, 0.07425785546611247], [0.25975240449222103, 0.2092734881649904]]",density,black,,,D003,visual,1,[],"['1', '2', '3', '4']",1,2023.2.3,harveyvisual,2.1,[],8,0.75,
0,pause,0.4,None,None,None,0,207,207,207,,,,,,,,,,,,,D003,visual,1,[],"['1', '2', '3', '4']",1,2023.2.3,harveyvisual,2.1,[],8,0.75,
5,dot,0.3,['dot'],['density'],black,0,208,208,208,,,75.20020294189453,74.90790891647339,75.20787596702576,dot,"[0.06, 0.08, 0.1, 0.08, 0.08]","[[-0.08906257038347729, 0.3326351968500321], [0.2173987091792188, 0.026220721131276364], [0.07996259445097068, 0.4821024141609844], [0.14345365083950706, 0.2501481494916038], [-0.03323208063638199, 0.08804517681276208]]",density,black,,,D003,visual,1,[],"['1', '2', '3', '4']",1,2023.2.3,harveyvisual,2.1,[],8,0.75,
0,pause,0.4,None,None,None,0,209,209,209,,,,,,,,,,,,,D003,visual,1,[],"['1', '2', '3', '4']",1,2023.2.3,harveyvisual,2.1,[],8,0.75,
5,dot,0.3,['dot'],['density'],black,0,210,210,210,,,75.90021181106567,75.60785293579102,75.90790486335754,dot,"[0.06, 0.1, 0.1, 0.06, 0.08]","[[0.36014554898799966, 0.387810422325294], [0.055757472799778995, 0.16941293674392635], [0.2210739480460382, 0.008175952352481365], [0.48495712857242873, 0.07425785546611247], [0.25975240449222103, 0.2092734881649904]]",density,black,,,D003,visual,1,[],"['1', '2', '3', '4']",1,2023.2.3,harveyvisual,2.1,[],8,0.75,
0,pause,0.4,None,None,None,0,211,211,211,,,,,,,,,,,,,D003,visual,1,[],"['1', '2', '3', '4']",1,2023.2.3,harveyvisual,2.1,[],8,0.75,
5,dot,0.3,['dot'],['density'],black,0,212,212,212,,,76.60022592544556,76.30790781974792,76.6078839302063,dot,"[0.08, 0.08, 0.1, 0.06, 0.1]","[[-0.08906257038347729, 0.3326351968500321], [0.2173987091792188, 0.026220721131276364], [0.07996259445097068, 0.4821024141609844], [0.14345365083950706, 0.2501481494916038], [-0.03323208063638199, 0.08804517681276208]]",density,black,,,D003,visual,1,[],"['1', '2', '3', '4']",1,2023.2.3,harveyvisual,2.1,[],8,0.75,
0,pause,0.4,None,None,None,0,213,213,213,,,,,,,,,,,,,D003,visual,1,[],"['1', '2', '3', '4']",1,2023.2.3,harveyvisual,2.1,[],8,0.75,
5,dot,0.3,['dot'],['density'],black,0,214,214,214,,,77.30021595954895,77.00788187980652,77.30783891677856,dot,"[0.06, 0.1, 0.08, 0.08, 0.1]","[[0.45108699871130137, 0.12052648913612102], [0.3120839015871755, -0.055344110322042436], [0.5361186937318446, -0.08608482415671545], [0.24926945818158194, 0.15209517992691748], [0.3855135356736719, -0.25840400127360613]]",density,black,,,D003,visual,1,[],"['1', '2', '3', '4']",1,2023.2.3,harveyvisual,2.1,[],8,0.75,
0,pause,0.4,None,None,None,0,215,215,215,,,,,,,,,,,,,D003,visual,1,[],"['1', '2', '3', '4']",1,2023.2.3,harveyvisual,2.1,[],8,0.75,
4,dot,0.3,['dot'],['density'],black,0,216,216,216,,,78.00020289421082,77.70781779289246,78.00785779953003,dot,"[0.08, 0.08, 0.08, 0.08]","[[-0.041173875632770134, -0.46498671258652186], [-0.2993670243960792, -0.1306311282158324], [-0.23343206187288035, -0.39905635110522214], [-0.1242366033797093, -0.2299834244258363]]",density,black,,,D003,visual,1,[],"['1', '2', '3', '4']",1,2023.2.3,harveyvisual,2.1,[],8,0.75,
0,pause,0.4,None,None,None,0,217,217,217,,,,,,,,,,,,,D003,visual,1,[],"['1', '2', '3', '4']",1,2023.2.3,harveyvisual,2.1,[],8,0.75,
4,dot,0.3,['dot'],['density'],black,0,218,218,218,,,78.70022392272949,78.40778994560242,78.70782780647278,dot,"[0.08, 0.08, 0.06, 0.08]","[[0.37520814465037905, -0.4432880181017862], [0.4692830223283075, -0.19655799526205012], [0.3063896805601884, -0.036788685454167226], [0.2471196723673293, -0.2344474043623998]]",density,black,,,D003,visual,1,[],"['1', '2', '3', '4']",1,2023.2.3,harveyvisual,2.1,[],8,0.75,
0,pause,0.4,None,None,None,0,219,219,219,,,,,,,,,,,,,D003,visual,1,[],"['1', '2', '3', '4']",1,2023.2.3,harveyvisual,2.1,[],8,0.75,
4,dot,0.3,['dot'],['density'],white,0,220,220,220,,,79.40020489692688,79.10784077644348,79.40783190727234,dot,"[0.1, 0.08, 0.06, 0.06]","[[-0.47693618450386616, -0.1525114564248906], [-0.12413069550496705, 0.03327587270375396], [-0.32964510574757994, -0.012304557788591533], [-0.22851041427491325, -0.22018408257550984]]",density,white,,,D003,visual,1,[],"['1', '2', '3', '4']",1,2023.2.3,harveyvisual,2.1,[],8,0.75,
0,pause,0.4,None,None,None,0,221,221,221,,,,,,,,,,,1,79.47392797470093,D003,visual,1,[],"['1', '2', '3', '4']",1,2023.2.3,harveyvisual,2.1,[],8,0.75,
4,dot,0.3,['dot'],['density'],white,0,222,222,222,,,80.10021591186523,79.80773782730103,80.10767078399658,dot,"[0.08, 0.1, 0.06, 0.08]","[[-0.22711054503220823, -0.5144049053218714], [-0.016307770745122817, -0.5558659767831347], [-0.26432457165568224, -0.2824025039497699], [-0.026303944553407815, -0.34464361634901186]]",density,white,,,D003,visual,1,[],"['1', '2', '3', '4']",1,2023.2.3,harveyvisual,2.1,[],8,0.75,
0,pause,0.4,None,None,None,0,223,223,223,,,,,,,,,,,1,80.12800097465515,D003,visual,1,[],"['1', '2', '3', '4']",1,2023.2.3,harveyvisual,2.1,[],8,0.75,
4,dot,0.3,['dot'],['density'],white,0,224,224,224,,,80.80022597312927,80.50778293609619,80.80766296386719,dot,"[0.1, 0.08, 0.06, 0.1]","[[-0.1266132934267609, -0.4419116806690939], [0.09906976576587005, -0.33923851916676484], [0.1053941350115203, -0.5768907290059295], [0.29145715672269834, -0.49787884973145785]]",density,white,1,80.76000785827637,D003,visual,1,[],"['1', '2', '3', '4']",1,2023.2.3,harveyvisual,2.1,[],8,0.75,
0,pause,0.4,None,None,None,0,225,225,225,,,,,,,,,,,,,D003,visual,1,[],"['1', '2', '3', '4']",1,2023.2.3,harveyvisual,2.1,[],8,0.75,
4,dot,0.3,['dot'],['density'],black,0,226,226,226,,,81.50022578239441,81.20777297019958,81.5081307888031,dot,"[0.08, 0.1, 0.1, 0.08]","[[0.012521055699324385, 0.11356654047594222], [0.23234191260135498, 0.08597184236642744], [-0.1711309036876675, 0.020891973622313913], [0.11376048882462075, -0.09104804463782627]]",density,black,,,D003,visual,1,[],"['1', '2', '3', '4']",1,2023.2.3,harveyvisual,2.1,[],8,0.75,
0,pause,0.4,None,None,None,0,227,227,227,,,,,,,,,,,,,D003,visual,1,[],"['1', '2', '3', '4']",1,2023.2.3,harveyvisual,2.1,[],8,0.75,
3,dot,0.3,['dot'],['density'],black,0,228,228,228,,,82.20021200180054,81.90785694122314,82.20766687393188,dot,"[0.08, 0.1, 0.1]","[[0.026071599024748527, -0.32860913997604846], [-0.11834724389398482, -0.18584523127985947], [0.10068982493997472, -0.12518245043845455]]",density,black,,,D003,visual,1,[],"['1', '2', '3', '4']",1,2023.2.3,harveyvisual,2.1,[],8,0.75,
0,pause,0.4,None,None,None,0,229,229,229,,,,,,,,,,,,,D003,visual,1,[],"['1', '2', '3', '4']",1,2023.2.3,harveyvisual,2.1,[],8,0.75,
3,dot,0.3,['dot'],['density'],black,0,230,230,230,,,82.90022087097168,82.60787677764893,82.90786099433899,dot,"[0.06, 0.08, 0.08]","[[0.3835821938049364, -0.20766469641190155], [0.321707527308891, -0.4175939354614905], [0.1897943789354585, -0.2642367600490923]]",density,black,,,D003,visual,1,[],"['1', '2', '3', '4']",1,2023.2.3,harveyvisual,2.1,[],8,0.75,
0,pause,0.4,None,None,None,0,231,231,231,,,,,,,,,,,,,D003,visual,1,[],"['1', '2', '3', '4']",1,2023.2.3,harveyvisual,2.1,[],8,0.75,
3,dot,0.3,['dot'],['density'],black,0,232,232,232,,,83.6002209186554,83.30788493156433,83.60763096809387,dot,"[0.08, 0.06, 0.06]","[[0.29938275938101017, 0.44415474715472736], [0.13070782598704628, 0.5557174004537693], [0.11832456902218637, 0.3273615767427578]]",density,black,,,D003,visual,1,[],"['1', '2', '3', '4']",1,2023.2.3,harveyvisual,2.1,[],8,0.75,
0,pause,0.4,None,None,None,0,233,233,233,,,,,,,,,,,,,D003,visual,1,[],"['1', '2', '3', '4']",1,2023.2.3,harveyvisual,2.1,[],8,0.75,
3,dot,0.3,['dot'],['density'],black,0,234,234,234,,,84.30020380020142,84.00779485702515,84.30779099464417,dot,"[0.1, 0.1, 0.1]","[[-0.42255820389626353, 0.35871945956833473], [-0.19896656331745483, 0.3032224324013186], [-0.25553590712368324, 0.5056038804507684]]",density,black,,,D003,visual,1,[],"['1', '2', '3', '4']",1,2023.2.3,harveyvisual,2.1,[],8,0.75,
0,pause,0.4,None,None,None,0,235,235,235,,,,,,,,,,,,,D003,visual,1,[],"['1', '2', '3', '4']",1,2023.2.3,harveyvisual,2.1,[],8,0.75,
3,dot,0.3,['dot'],['density'],black,0,236,236,236,,,85.00021481513977,84.70768785476685,85.02426886558533,dot,"[0.08, 0.06, 0.1]","[[-0.17592395544936776, 0.40510565415719324], [-0.30566154612550034, 0.21848422264492345], [-0.39822260978708685, 0.43144058222919995]]",density,black,,,D003,visual,1,[],"['1', '2', '3', '4']",1,2023.2.3,harveyvisual,2.1,[],8,0.75,
0,pause,0.4,None,None,None,0,237,237,237,,,,,,,,,,,,,D003,visual,1,[],"['1', '2', '3', '4']",1,2023.2.3,harveyvisual,2.1,[],8,0.75,
3,dot,0.3,['dot'],['density'],black,0,238,238,238,,,85.70021486282349,85.40763187408447,85.70780181884766,dot,"[0.1, 0.06, 0.06]","[[-0.15674404860239688, -0.25078459247658497], [0.006578924124220241, -0.41324131210186005], [0.06959682433872849, -0.20549031443856539]]",density,black,,,D003,visual,1,[],"['1', '2', '3', '4']",1,2023.2.3,harveyvisual,2.1,[],8,0.75,
0,pause,0.4,None,None,None,0,239,239,239,,,,,,,,,,,,,D003,visual,1,[],"['1', '2', '3', '4']",1,2023.2.3,harveyvisual,2.1,[],8,0.75,
2,dot,0.3,['dot'],['density'],black,0,240,240,240,,,86.40022587776184,86.10775399208069,86.40765500068665,dot,"[0.1, 0.06]","[[0.4101371699595759, -0.046236245446824746], [0.42481245787877703, -0.24684889303111815]]",density,black,,,D003,visual,1,[],"['1', '2', '3', '4']",1,2023.2.3,harveyvisual,2.1,[],8,0.75,
0,pause,0.4,None,None,None,0,241,241,241,,,,,,,,,,,,,D003,visual,1,[],"['1', '2', '3', '4']",1,2023.2.3,harveyvisual,2.1,[],8,0.75,
2,dot,0.3,['dot'],['density'],black,0,242,242,242,,,87.10021686553955,86.80760192871094,87.12440395355225,dot,"[0.1, 0.1]","[[0.5590929928249944, 0.05901985638302875], [0.5065513741473344, -0.13409141480534237]]",density,black,,,D003,visual,1,[],"['1', '2', '3', '4']",1,2023.2.3,harveyvisual,2.1,[],8,0.75,
0,pause,0.4,None,None,None,0,243,243,243,,,,,,,,,,,,,D003,visual,1,[],"['1', '2', '3', '4']",1,2023.2.3,harveyvisual,2.1,[],8,0.75,
2,dot,0.3,['dot'],['density'],black,0,244,244,244,,,87.80021691322327,87.50772380828857,87.824373960495,dot,"[0.1, 0.1]","[[-0.4579128382498026, -0.013317831223324628], [-0.28624676016543393, -0.11681778735554697]]",density,black,,,D003,visual,1,[],"['1', '2', '3', '4']",1,2023.2.3,harveyvisual,2.1,[],8,0.75,
0,pause,0.4,None,None,None,0,245,245,245,,,,,,,,,,,,,D003,visual,1,[],"['1', '2', '3', '4']",1,2023.2.3,harveyvisual,2.1,[],8,0.75,
2,dot,0.3,['dot'],['density'],black,0,246,246,246,,,88.50020480155945,88.20769596099854,88.5243468284607,dot,"[0.1, 0.08]","[[-0.020654750029313704, 0.3891656546739414], [-0.0007759068931318763, 0.19000611836641118]]",density,black,,,D003,visual,1,[],"['1', '2', '3', '4']",1,2023.2.3,harveyvisual,2.1,[],8,0.75,
0,pause,0.4,None,None,None,0,247,247,247,,,,,,,,,,,,,D003,visual,1,[],"['1', '2', '3', '4']",1,2023.2.3,harveyvisual,2.1,[],8,0.75,
2,dot,0.3,['dot'],['density'],black,0,248,248,248,,,89.20022177696228,88.9075357913971,89.22434782981873,dot,"[0.1, 0.1]","[[-0.3970652553054307, 0.36151140161898554], [-0.22306532646831484, 0.26288994227005946]]",density,black,,,D003,visual,1,[],"['1', '2', '3', '4']",1,2023.2.3,harveyvisual,2.1,[],8,0.75,
0,pause,0.4,None,None,None,0,249,249,249,,,,,,,,,,,,,D003,visual,1,[],"['1', '2', '3', '4']",1,2023.2.3,harveyvisual,2.1,[],8,0.75,
2,dot,0.3,['dot'],['density'],black,0,250,250,250,,,89.90021681785583,89.6076488494873,89.92432188987732,dot,"[0.08, 0.1]","[[0.3859848860398513, -0.03650274153894256], [0.5613034441480618, 0.06134992989862206]]",density,black,,,D003,visual,1,[],"['1', '2', '3', '4']",1,2023.2.3,harveyvisual,2.1,[],8,0.75,
0,pause,0.4,None,None,None,0,251,251,251,,,,,,,,,,,,,D003,visual,1,[],"['1', '2', '3', '4']",1,2023.2.3,harveyvisual,2.1,[],8,0.75,
1,dot,0.3,['dot'],['density'],black,0,252,252,252,,,90.6002287864685,90.30764698982239,90.60759592056274,dot,[0.1],"[-0.4519365434524677, 0.22287683068434597]",density,black,,,D003,visual,1,[],"['1', '2', '3', '4']",1,2023.2.3,harveyvisual,2.1,[],8,0.75,
0,pause,0.4,None,None,None,0,253,253,253,,,,,,,,,,,,,D003,visual,1,[],"['1', '2', '3', '4']",1,2023.2.3,harveyvisual,2.1,[],8,0.75,
1,dot,0.3,['dot'],['density'],black,0,254,254,254,,,91.30020689964294,91.00766682624817,91.30756688117981,dot,[0.1],"[-0.22364231775977078, 0.4637426405669522]",density,black,,,D003,visual,1,[],"['1', '2', '3', '4']",1,2023.2.3,harveyvisual,2.1,[],8,0.75,
0,pause,0.4,None,None,None,0,255,255,255,,,,,,,,,,,,,D003,visual,1,[],"['1', '2', '3', '4']",1,2023.2.3,harveyvisual,2.1,[],8,0.75,
1,dot,0.3,['dot'],['density'],black,0,256,256,256,,,92.00023078918457,91.70763278007507,92.02428483963013,dot,[0.06],"[0.2830289625583117, -0.03026882548871228]",density,black,,,D003,visual,1,[],"['1', '2', '3', '4']",1,2023.2.3,harveyvisual,2.1,[],8,0.75,
0,pause,0.4,None,None,None,0,257,257,257,,,,,,,,,,,,,D003,visual,1,[],"['1', '2', '3', '4']",1,2023.2.3,harveyvisual,2.1,[],8,0.75,
1,dot,0.3,['dot'],['density'],black,0,258,258,258,,,92.70022487640381,92.4076099395752,92.70755100250244,dot,[0.08],"[-0.22356924330877379, 0.41145231278245986]",density,black,,,D003,visual,1,[],"['1', '2', '3', '4']",1,2023.2.3,harveyvisual,2.1,[],8,0.75,
0,pause,0.4,None,None,None,0,259,259,259,,,,,,,,,,,,,D003,visual,1,[],"['1', '2', '3', '4']",1,2023.2.3,harveyvisual,2.1,[],8,0.75,
1,dot,0.3,['dot'],['density'],black,0,260,260,260,,,93.4002149105072,93.10760283470154,93.4242959022522,dot,[0.08],"[-0.13294789447644317, -0.0050084293737640015]",density,black,,,D003,visual,1,[],"['1', '2', '3', '4']",1,2023.2.3,harveyvisual,2.1,[],8,0.75,
0,pause,0.4,None,None,None,0,261,261,261,,,,,,,,,,,,,D003,visual,1,[],"['1', '2', '3', '4']",1,2023.2.3,harveyvisual,2.1,[],8,0.75,
1,dot,0.3,['dot'],['density'],black,0,262,262,262,,,94.10022592544556,93.8073878288269,94.12428998947144,dot,[0.06],"[-0.0300711363278092, -0.16168860719337894]",density,black,,,D003,visual,1,[],"['1', '2', '3', '4']",1,2023.2.3,harveyvisual,2.1,[],8,0.75,
0,pause,0.4,None,None,None,0,263,263,263,,,,,,,,,,,,,D003,visual,1,[],"['1', '2', '3', '4']",1,2023.2.3,harveyvisual,2.1,[],8,0.75,
20,dot,0.3,['dot'],['density'],black,0,264,264,264,,,94.80022692680359,94.52407598495483,94.82411980628967,dot,"[0.1, 0.08, 0.08, 0.08, 0.1, 0.1, 0.1, 0.06, 0.08, 0.1, 0.08, 0.08, 0.1, 0.08, 0.08, 0.08, 0.06, 0.1, 0.08, 0.08]","[[0.3179025118277896, -0.13615973992725372], [-0.07820736624151436, -0.46345301498188535], [0.11854861557249596, -0.2515150981946633], [-0.5473740119450176, -0.13019961944401448], [0.5382598617304629, -0.1124704276816566], [-0.312661364447174, -0.04766208382744641], [-0.4012988861048712, -0.4083275361703239], [0.044660992865119264, 0.17005661024604246], [-0.1355487315263883, 0.38116347782856275], [0.1745854638218325, 0.5582826536134107], [0.3106134018116684, 0.1374823136970692], [0.5845652509945111, 0.10888951644136208], [0.4819987713463373, 0.27366667077039847], [0.1989709846370311, -0.5146263913715042], [-0.15274848360488813, -0.15769493648615818], [-0.02853404791649894, 0.5425141784342821], [0.32978979098218586, 0.3928561129498742], [-0.5250619793522168, 0.18509009434791573], [-0.3382691003657176, 0.28461489762998793], [0.32973936027412876, -0.3432158898373757]]",density,black,,,D003,visual,1,[],"['1', '2', '3', '4']",1,2023.2.3,harveyvisual,2.1,[],8,0.75,
0,pause,0.4,None,None,None,0,265,265,265,,,,,,,,,,,,,D003,visual,1,[],"['1', '2', '3', '4']",1,2023.2.3,harveyvisual,2.1,[],8,0.75,
20,dot,0.3,['dot'],['density'],black,0,266,266,266,,,95.50021886825562,95.22410678863525,95.52411198616028,dot,"[0.06, 0.1, 0.08, 0.06, 0.08, 0.06, 0.06, 0.06, 0.1, 0.1, 0.06, 0.1, 0.06, 0.1, 0.06, 0.06, 0.06, 0.1, 0.08, 0.06]","[[-0.5404234145532474, 0.046879061535554156], [0.26687985607526166, 0.3591893950656422], [0.4697206533492505, -0.11188449454552157], [-0.17212500614238918, -0.5701451448614256], [0.021336856779866964, -0.43085336479783787], [-0.29441708888728313, -0.08856562505226628], [0.008453997664404023, 0.4238574122923888], [0.4485400891160404, -0.34863373805726006], [0.17678321983576184, -0.023608583695405416], [-0.1868414124846839, 0.5083768991014137], [0.2096838127894859, -0.30047043258853123], [0.40730508859310743, 0.13844831593876777], [-0.39746815682216186, 0.24468191214127338], [-0.4924909569210575, -0.31741381721554257], [0.5979439726591252, 0.06006213272455835], [-0.02877667898320857, -0.04239198825134993], [0.09098092787188383, 0.14728718668094654], [0.4594128606511717, 0.3348275328892749], [-0.12188577007048929, 0.18394547360588442], [-0.23395918762020845, -0.2770500426697309]]",density,black,,,D003,visual,1,[],"['1', '2', '3', '4']",1,2023.2.3,harveyvisual,2.1,[],8,0.75,
0,pause,0.4,None,None,None,0,267,267,267,,,,,,,,,,,,,D003,visual,1,[],"['1', '2', '3', '4']",1,2023.2.3,harveyvisual,2.1,[],8,0.75,
