num,mod,duration,shape,ll_cond,colors,.thisRepN,.thisTrialN,.thisN,.thisIndex,thisRow.t,notes,raw_global_time,t_start,t_stop,shapes,size,pos,cond,color,button,RT,participant,session,starting_run,left button (match/odd),right button (non-match/even),samples_per_block,psychopy version,expName,offset,audio,number_runs,radius,
1,dot,0.3,['dot'],['density'],black,0,0,0,0,,,2.4001941680908203,2.100210189819336,2.416826009750366,dot,[0.1],"[-0.06064478149429028, 0.10204082006191012]",density,black,,,D003,visual,1,[],"['1', '2', '3', '4']",1,2023.2.3,harveyvisual,2.1,[],8,0.75,
0,pause,0.4,None,None,None,0,1,1,1,,,,,,,,,,,,,D003,visual,1,[],"['1', '2', '3', '4']",1,2023.2.3,harveyvisual,2.1,[],8,0.75,
1,dot,0.3,['dot'],['density'],black,0,2,2,2,,,3.100187063217163,2.8001480102539062,3.1177351474761963,dot,[0.06],"[0.5668064281626585, -0.020013277593342628]",density,black,,,D003,visual,1,[],"['1', '2', '3', '4']",1,2023.2.3,harveyvisual,2.1,[],8,0.75,
0,pause,0.4,None,None,None,0,3,3,3,,,,,,,,,,,,,D003,visual,1,[],"['1', '2', '3', '4']",1,2023.2.3,harveyvisual,2.1,[],8,0.75,
1,dot,0.3,['dot'],['density'],black,0,4,4,4,,,3.8001890182495117,3.5006630420684814,3.8176231384277344,dot,[0.06],"[-0.2532192430475575, -0.5275431624831907]",density,black,,,D003,visual,1,[],"['1', '2', '3', '4']",1,2023.2.3,harveyvisual,2.1,[],8,0.75,
0,pause,0.4,None,None,None,0,5,5,5,,,,,,,,,,,,,D003,visual,1,[],"['1', '2', '3', '4']",1,2023.2.3,harveyvisual,2.1,[],8,0.75,
1,dot,0.3,['dot'],['density'],black,0,6,6,6,,,4.500195026397705,4.200695991516113,4.517297029495239,dot,[0.08],"[0.1771264825789444, 0.012298414170669998]",density,black,,,D003,visual,1,[],"['1', '2', '3', '4']",1,2023.2.3,harveyvisual,2.1,[],8,0.75,
0,pause,0.4,None,None,None,0,7,7,7,,,,,,,,,,,,,D003,visual,1,[],"['1', '2', '3', '4']",1,2023.2.3,harveyvisual,2.1,[],8,0.75,
1,dot,0.3,['dot'],['density'],white,0,8,8,8,,,5.200188159942627,4.9006311893463135,5.21738600730896,dot,[0.08],"[0.2830289625583117, -0.03026882548871228]",density,white,,,D003,visual,1,[],"['1', '2', '3', '4']",1,2023.2.3,harveyvisual,2.1,[],8,0.75,
0,pause,0.4,None,None,None,0,9,9,9,,,,,,,,,,,1,5.339226007461548,D003,visual,1,[],"['1', '2', '3', '4']",1,2023.2.3,harveyvisual,2.1,[],8,0.75,
1,dot,0.3,['dot'],['density'],black,0,10,10,10,,,5.900192975997925,5.619538068771362,5.919571161270142,dot,[0.08],"[-0.2532192430475575, -0.5275431624831907]",density,black,,,D003,visual,1,[],"['1', '2', '3', '4']",1,2023.2.3,harveyvisual,2.1,[],8,0.75,
0,pause,0.4,None,None,None,0,11,11,11,,,,,,,,,,,,,D003,visual,1,[],"['1', '2', '3', '4']",1,2023.2.3,harveyvisual,2.1,[],8,0.75,
2,dot,0.3,['dot'],['density'],black,0,12,12,12,,,6.600203990936279,6.319563150405884,6.619680166244507,dot,"[0.06, 0.08]","[[-0.22897676209827808, 0.468650264003531], [-0.0598036877009514, 0.5760211786176329]]",density,black,,,D003,visual,1,[],"['1', '2', '3', '4']",1,2023.2.3,harveyvisual,2.1,[],8,0.75,
0,pause,0.4,None,None,None,0,13,13,13,,,,,,,,,,,,,D003,visual,1,[],"['1', '2', '3', '4']",1,2023.2.3,harveyvisual,2.1,[],8,0.75,
2,dot,0.3,['dot'],['density'],black,0,14,14,14,,,7.300198078155518,7.019706964492798,7.3196940422058105,dot,"[0.06, 0.1]","[[0.11825467712572878, -0.39617910972508336], [0.05459236086910312, -0.5860717982025758]]",density,black,,,D003,visual,1,[],"['1', '2', '3', '4']",1,2023.2.3,harveyvisual,2.1,[],8,0.75,
0,pause,0.4,None,None,None,0,15,15,15,,,,,,,,,,,,,D003,visual,1,[],"['1', '2', '3', '4']",1,2023.2.3,harveyvisual,2.1,[],8,0.75,
2,dot,0.3,['dot'],['density'],black,0,16,16,16,,,8.000193119049072,7.719506025314331,8.019505023956299,dot,"[0.08, 0.06]","[[0.3859848860398513, -0.03650274153894256], [0.5613034441480618, 0.06134992989862206]]",density,black,,,D003,visual,1,[],"['1', '2', '3', '4']",1,2023.2.3,harveyvisual,2.1,[],8,0.75,
0,pause,0.4,None,None,None,0,17,17,17,,,,,,,,,,,,,D003,visual,1,[],"['1', '2', '3', '4']",1,2023.2.3,harveyvisual,2.1,[],8,0.75,
2,dot,0.3,['dot'],['density'],black,0,18,18,18,,,8.700193166732788,8.419461965560913,8.719500064849854,dot,"[0.1, 0.08]","[[0.002249876020969301, 0.20442088447143333], [-0.056293345030126195, 0.39599742374220376]]",density,black,,,D003,visual,1,[],"['1', '2', '3', '4']",1,2023.2.3,harveyvisual,2.1,[],8,0.75,
0,pause,0.4,None,None,None,0,19,19,19,,,,,,,,,,,,,D003,visual,1,[],"['1', '2', '3', '4']",1,2023.2.3,harveyvisual,2.1,[],8,0.75,
2,dot,0.3,['dot'],['density'],black,0,20,20,20,,,9.400205135345459,9.119471073150635,9.42041802406311,dot,"[0.06, 0.06]","[[-0.2277318593301165, -0.35289300204507235], [-0.09400723608355734, -0.20388512549033708]]",density,black,,,D003,visual,1,[],"['1', '2', '3', '4']",1,2023.2.3,harveyvisual,2.1,[],8,0.75,
0,pause,0.4,None,None,None,0,21,21,21,,,,,,,,,,,,,D003,visual,1,[],"['1', '2', '3', '4']",1,2023.2.3,harveyvisual,2.1,[],8,0.75,
2,dot,0.3,['dot'],['density'],white,0,22,22,22,,,10.100200176239014,9.819453001022339,10.119440078735352,dot,"[0.1, 0.1]","[[0.4298854344354601, 0.24556028782034023], [0.23727674624932948, 0.18886586315459258]]",density,white,,,D003,visual,1,[],"['1', '2', '3', '4']",1,2023.2.3,harveyvisual,2.1,[],8,0.75,
0,pause,0.4,None,None,None,0,23,23,23,,,,,,,,,,,1,10.192040205001831,D003,visual,1,[],"['1', '2', '3', '4']",1,2023.2.3,harveyvisual,2.1,[],8,0.75,
3,dot,0.3,['dot'],['density'],black,0,24,24,24,,,10.800204992294312,10.519411087036133,10.819473028182983,dot,"[0.06, 0.08, 0.08]","[[-0.17720328293608806, -0.4514300161601115], [0.022754438065530718, -0.42143894503716073], [-0.10940085810899225, -0.24791511077847575]]",density,black,,,D003,visual,1,[],"['1', '2', '3', '4']",1,2023.2.3,harveyvisual,2.1,[],8,0.75,
0,pause,0.4,None,None,None,0,25,25,25,,,,,,,,,,,,,D003,visual,1,[],"['1', '2', '3', '4']",1,2023.2.3,harveyvisual,2.1,[],8,0.75,
3,dot,0.3,['dot'],['density'],black,0,26,26,26,,,11.500205993652344,11.219465017318726,11.51946210861206,dot,"[0.08, 0.08, 0.08]","[[0.2768253388883432, 0.03346297355107007], [0.11287187477499526, -0.09417797505773098], [0.09003622344097514, 0.12370024427926096]]",density,black,,,D003,visual,1,[],"['1', '2', '3', '4']",1,2023.2.3,harveyvisual,2.1,[],8,0.75,
0,pause,0.4,None,None,None,0,27,27,27,,,,,,,,,,,,,D003,visual,1,[],"['1', '2', '3', '4']",1,2023.2.3,harveyvisual,2.1,[],8,0.75,
3,dot,0.3,['dot'],['density'],black,0,28,28,28,,,12.200194120407104,11.919442176818848,12.219439029693604,dot,"[0.1, 0.1, 0.06]","[[0.03752440580708033, 0.5298990797186869], [-0.14535247226304113, 0.44143535861080874], [0.07857889528852925, 0.30774558950641073]]",density,black,,,D003,visual,1,[],"['1', '2', '3', '4']",1,2023.2.3,harveyvisual,2.1,[],8,0.75,
0,pause,0.4,None,None,None,0,29,29,29,,,,,,,,,,,,,D003,visual,1,[],"['1', '2', '3', '4']",1,2023.2.3,harveyvisual,2.1,[],8,0.75,
3,dot,0.3,['dot'],['density'],black,0,30,30,30,,,12.900200128555298,12.619405031204224,12.919517040252686,dot,"[0.08, 0.08, 0.06]","[[-0.27441186418729774, -0.31428620701652393], [-0.10438281902574013, -0.2032379983598837], [-0.31523395761825285, -0.08768035506307631]]",density,black,,,D003,visual,1,[],"['1', '2', '3', '4']",1,2023.2.3,harveyvisual,2.1,[],8,0.75,
0,pause,0.4,None,None,None,0,31,31,31,,,,,,,,,,,,,D003,visual,1,[],"['1', '2', '3', '4']",1,2023.2.3,harveyvisual,2.1,[],8,0.75,
3,dot,0.3,['dot'],['density'],black,0,32,32,32,,,13.600196123123169,13.319517135620117,13.619420051574707,dot,"[0.06, 0.1, 0.08]","[[-0.17592395544936776, 0.40510565415719324], [-0.30566154612550034, 0.21848422264492345], [-0.39822260978708685, 0.43144058222919995]]",density,black,,,D003,visual,1,[],"['1', '2', '3', '4']",1,2023.2.3,harveyvisual,2.1,[],8,0.75,
0,pause,0.4,None,None,None,0,33,33,33,,,,,,,,,,,,,D003,visual,1,[],"['1', '2', '3', '4']",1,2023.2.3,harveyvisual,2.1,[],8,0.75,
3,dot,0.3,['dot'],['density'],white,0,34,34,34,,,14.30019497871399,14.019345998764038,14.319331169128418,dot,"[0.08, 0.06, 0.1]","[[-0.17720328293608806, -0.4514300161601115], [0.022754438065530718, -0.42143894503716073], [-0.10940085810899225, -0.24791511077847575]]",density,white,,,D003,visual,1,[],"['1', '2', '3', '4']",1,2023.2.3,harveyvisual,2.1,[],8,0.75,
0,pause,0.4,None,None,None,0,35,35,35,,,,,,,,,,,1,14.378371000289917,D003,visual,1,[],"['1', '2', '3', '4']",1,2023.2.3,harveyvisual,2.1,[],8,0.75,
4,dot,0.3,['dot'],['density'],black,0,36,36,36,,,15.00020718574524,14.719336986541748,15.0193030834198,dot,"[0.1, 0.06, 0.1, 0.1]","[[0.2593869086993074, -0.26887741013308497], [0.09674879007849839, -0.39609983087723066], [-0.011093693993988496, -0.14004324908426333], [0.28630805459639813, -0.4681830009867555]]",density,black,,,D003,visual,1,[],"['1', '2', '3', '4']",1,2023.2.3,harveyvisual,2.1,[],8,0.75,
0,pause,0.4,None,None,None,0,37,37,37,,,,,,,,,,,,,D003,visual,1,[],"['1', '2', '3', '4']",1,2023.2.3,harveyvisual,2.1,[],8,0.75,
4,dot,0.3,['dot'],['density'],white,0,38,38,38,,,15.700206995010376,15.419296026229858,15.719283103942871,dot,"[0.06, 0.06, 0.1, 0.08]","[[-0.24855901342904946, 0.4326179111294549], [-0.33066739519925503, 0.24314919490711104], [-0.015728317870896572, 0.5189617074191414], [-0.09686463175319387, 0.28200212383687606]]",density,white,,,D003,visual,1,[],"['1', '2', '3', '4']",1,2023.2.3,harveyvisual,2.1,[],8,0.75,
0,pause,0.4,None,None,None,0,39,39,39,,,,,,,,,,,1,15.771551132202148,D003,visual,1,[],"['1', '2', '3', '4']",1,2023.2.3,harveyvisual,2.1,[],8,0.75,
4,dot,0.3,['dot'],['density'],black,0,40,40,40,,,16.400207042694092,16.119295120239258,16.419263124465942,dot,"[0.1, 0.06, 0.06, 0.06]","[[0.010836700166572746, 0.3385055392368038], [-0.21755291078517647, 0.23172276430217797], [0.04881011250022837, 0.13413393103699342], [-0.16894730197854985, 0.4434327172909165]]",density,black,,,D003,visual,1,[],"['1', '2', '3', '4']",1,2023.2.3,harveyvisual,2.1,[],8,0.75,
0,pause,0.4,None,None,None,0,41,41,41,,,,,,,,,,,,,D003,visual,1,[],"['1', '2', '3', '4']",1,2023.2.3,harveyvisual,2.1,[],8,0.75,
4,dot,0.3,['dot'],['density'],black,0,42,42,42,,,17.100193977355957,16.81926918029785,17.11924695968628,dot,"[0.1, 0.06, 0.06, 0.06]","[[-0.42715721775789556, -0.3806885655784049], [-0.5104054706627589, -0.18016651458941194], [-0.409412055521987, 0.008153849732111747], [-0.2456709064377862, -0.21492281530681134]]",density,black,,,D003,visual,1,[],"['1', '2', '3', '4']",1,2023.2.3,harveyvisual,2.1,[],8,0.75,
0,pause,0.4,None,None,None,0,43,43,43,,,,,,,,,,,,,D003,visual,1,[],"['1', '2', '3', '4']",1,2023.2.3,harveyvisual,2.1,[],8,0.75,
4,dot,0.3,['dot'],['density'],white,0,44,44,44,,,17.800211191177368,17.51923704147339,17.819221019744873,dot,"[0.08, 0.08, 0.08, 0.06]","[[0.08172100217045614, 0.5402562525463245], [-0.024891988969352973, 0.31595276793208527], [-0.14685316472848742, 0.5184788481920529], [-0.2646655063210597, 0.3159281349431851]]",density,white,,,D003,visual,1,[],"['1', '2', '3', '4']",1,2023.2.3,harveyvisual,2.1,[],8,0.75,
0,pause,0.4,None,None,None,0,45,45,45,,,,,,,,,,,1,17.833842039108276,D003,visual,1,[],"['1', '2', '3', '4']",1,2023.2.3,harveyvisual,2.1,[],8,0.75,
4,dot,0.3,['dot'],['density'],white,0,46,46,46,,,18.5002121925354,18.219228982925415,18.519214153289795,dot,"[0.06, 0.06, 0.08, 0.06]","[[-0.43942495523079517, -0.22401056498097033], [-0.009260832099230759, -0.1633376679159051], [-0.21598309108097546, -0.10172603009605206], [-0.2278206133413005, -0.33154874685782076]]",density,white,,,D003,visual,1,[],"['1', '2', '3', '4']",1,2023.2.3,harveyvisual,2.1,[],8,0.75,
0,pause,0.4,None,None,None,0,47,47,47,,,,,,,,,,,1,18.520934104919434,D003,visual,1,[],"['1', '2', '3', '4']",1,2023.2.3,harveyvisual,2.1,[],8,0.75,
5,dot,0.3,['dot'],['density'],black,0,48,48,48,,,19.200204133987427,18.919206142425537,19.21917700767517,dot,"[0.08, 0.1, 0.08, 0.06, 0.06]","[[-0.24811222937808852, -0.0926462173418487], [-0.0684102839715827, 0.053707960252323945], [-0.4199359189551936, 0.028595247832400618], [-0.4311232183625476, -0.17348815390478414], [-0.08153496032007611, -0.23043043025001772]]",density,black,,,D003,visual,1,[],"['1', '2', '3', '4']",1,2023.2.3,harveyvisual,2.1,[],8,0.75,
0,pause,0.4,None,None,None,0,49,49,49,,,,,,,,,,,,,D003,visual,1,[],"['1', '2', '3', '4']",1,2023.2.3,harveyvisual,2.1,[],8,0.75,
5,dot,0.3,['dot'],['density'],black,0,50,50,50,,,19.900196075439453,19.61918807029724,19.919173002243042,dot,"[0.06, 0.08, 0.06, 0.08, 0.1]","[[0.4409169755572007, 0.017856988789309493], [0.10933872532765951, -0.20637645515835812], [0.27728831588229885, 0.198954967346464], [0.3100556643305453, -0.16532657838491105], [0.11148968869271939, 0.006469487304542018]]",density,black,,,D003,visual,1,[],"['1', '2', '3', '4']",1,2023.2.3,harveyvisual,2.1,[],8,0.75,
0,pause,0.4,None,None,None,0,51,51,51,,,,,,,,,,,,,D003,visual,1,[],"['1', '2', '3', '4']",1,2023.2.3,harveyvisual,2.1,[],8,0.75,
5,dot,0.3,['dot'],['density'],white,0,52,52,52,,,20.600207090377808,20.319255113601685,20.61918306350708,dot,"[0.08, 0.1, 0.08, 0.08, 0.08]","[[-0.20882687658313398, 0.05979685123170853], [0.07709165915785691, 0.33819008637117026], [0.02323578322535992, 0.12175330968231063], [0.02522363087913582, -0.08718927316059993], [-0.12152044988768049, 0.28453648995279207]]",density,white,,,D003,visual,1,[],"['1', '2', '3', '4']",1,2023.2.3,harveyvisual,2.1,[],8,0.75,
0,pause,0.4,None,None,None,0,53,53,53,,,,,,,,,,,1,20.625189065933228,D003,visual,1,[],"['1', '2', '3', '4']",1,2023.2.3,harveyvisual,2.1,[],8,0.75,
5,dot,0.3,['dot'],['density'],black,0,54,54,54,,,21.300201177597046,21.01913809776306,21.3193039894104,dot,"[0.1, 0.06, 0.08, 0.06, 0.1]","[[-0.19096480170835262, 0.2202776521134577], [0.009488999043989208, 0.5721548226574139], [0.16477125949827795, 0.3732973518003487], [0.07476286221063107, 0.1476230553836633], [-0.051949696108355745, 0.36609537475325354]]",density,black,,,D003,visual,1,[],"['1', '2', '3', '4']",1,2023.2.3,harveyvisual,2.1,[],8,0.75,
0,pause,0.4,None,None,None,0,55,55,55,,,,,,,,,,,,,D003,visual,1,[],"['1', '2', '3', '4']",1,2023.2.3,harveyvisual,2.1,[],8,0.75,
5,dot,0.3,['dot'],['density'],black,0,56,56,56,,,22.000200033187866,21.719313144683838,22.019148111343384,dot,"[0.08, 0.06, 0.08, 0.1, 0.1]","[[-0.5348211864270219, -0.08335004612931018], [-0.428892633085643, 0.14758700623805307], [-0.3277098387322906, -0.27887202276080253], [-0.29687101947458117, -0.03792463078145938], [-0.23363771935579355, 0.21194794904782605]]",density,black,,,D003,visual,1,[],"['1', '2', '3', '4']",1,2023.2.3,harveyvisual,2.1,[],8,0.75,
0,pause,0.4,None,None,None,0,57,57,57,,,,,,,,,,,,,D003,visual,1,[],"['1', '2', '3', '4']",1,2023.2.3,harveyvisual,2.1,[],8,0.75,
5,dot,0.3,['dot'],['density'],black,0,58,58,58,,,22.700210094451904,22.419340133666992,22.71910810470581,dot,"[0.06, 0.08, 0.08, 0.08, 0.1]","[[0.21791283729510122, -0.3451859720731072], [0.5246150578842218, -0.1749209719782184], [0.23417080448362212, 0.06149420791510773], [0.21628546435715315, -0.14179681516434317], [0.46094971099473236, 0.03541120369123469]]",density,black,,,D003,visual,1,[],"['1', '2', '3', '4']",1,2023.2.3,harveyvisual,2.1,[],8,0.75,
0,pause,0.4,None,None,None,0,59,59,59,,,,,,,,,,,,,D003,visual,1,[],"['1', '2', '3', '4']",1,2023.2.3,harveyvisual,2.1,[],8,0.75,
6,dot,0.3,['dot'],['density'],black,0,60,60,60,,,23.40019702911377,23.119347095489502,23.41934299468994,dot,"[0.08, 0.08, 0.08, 0.06, 0.08, 0.06]","[[0.500827999951601, -0.23304028533624072], [0.20916386845998064, 0.08030245107060778], [0.27809793757338463, -0.1905950399710685], [0.08327260932553728, -0.13599284299194644], [0.16768982653485215, -0.38480252821003114], [0.4174962964646186, 0.01069632702004041]]",density,black,,,D003,visual,1,[],"['1', '2', '3', '4']",1,2023.2.3,harveyvisual,2.1,[],8,0.75,
0,pause,0.4,None,None,None,0,61,61,61,,,,,,,,,,,,,D003,visual,1,[],"['1', '2', '3', '4']",1,2023.2.3,harveyvisual,2.1,[],8,0.75,
6,dot,0.3,['dot'],['density'],black,0,62,62,62,,,24.10019302368164,23.819115161895752,24.11905813217163,dot,"[0.08, 0.08, 0.06, 0.1, 0.06, 0.1]","[[-0.362545063880459, -0.421860962952156], [-0.24010638466002518, -0.0327569241266412], [-0.22622339336134992, -0.23590116153186103], [-0.41823503972227205, -0.14060420183103206], [-0.028992295722001654, -0.1293578273409096], [-0.1459617666416116, -0.4591052827033254]]",density,black,,,D003,visual,1,[],"['1', '2', '3', '4']",1,2023.2.3,harveyvisual,2.1,[],8,0.75,
0,pause,0.4,None,None,None,0,63,63,63,,,,,,,,,,,,,D003,visual,1,[],"['1', '2', '3', '4']",1,2023.2.3,harveyvisual,2.1,[],8,0.75,
6,dot,0.3,['dot'],['density'],black,0,64,64,64,,,24.800198078155518,24.519062042236328,24.8190860748291,dot,"[0.08, 0.08, 0.08, 0.08, 0.1, 0.08]","[[-0.06594826066790033, 0.1051940440944823], [0.15491437476435005, 0.24610541937573027], [-0.07004887042171212, 0.3755397070333221], [0.22920853754483062, 0.04629278748534093], [0.14611265926610215, 0.46549762069565603], [0.352938231914746, 0.33060025924169734]]",density,black,,,D003,visual,1,[],"['1', '2', '3', '4']",1,2023.2.3,harveyvisual,2.1,[],8,0.75,
0,pause,0.4,None,None,None,0,65,65,65,,,,,,,,,,,,,D003,visual,1,[],"['1', '2', '3', '4']",1,2023.2.3,harveyvisual,2.1,[],8,0.75,
6,dot,0.3,['dot'],['density'],black,0,66,66,66,,,25.500214099884033,25.219046115875244,25.51911497116089,dot,"[0.1, 0.06, 0.06, 0.1, 0.1, 0.1]","[[0.500827999951601, -0.23304028533624072], [0.20916386845998064, 0.08030245107060778], [0.27809793757338463, -0.1905950399710685], [0.08327260932553728, -0.13599284299194644], [0.16768982653485215, -0.38480252821003114], [0.4174962964646186, 0.01069632702004041]]",density,black,,,D003,visual,1,[],"['1', '2', '3', '4']",1,2023.2.3,harveyvisual,2.1,[],8,0.75,
0,pause,0.4,None,None,None,0,67,67,67,,,,,,,,,,,,,D003,visual,1,[],"['1', '2', '3', '4']",1,2023.2.3,harveyvisual,2.1,[],8,0.75,
6,dot,0.3,['dot'],['density'],black,0,68,68,68,,,26.20019817352295,25.9190411567688,26.219073057174683,dot,"[0.06, 0.1, 0.08, 0.1, 0.08, 0.08]","[[-0.5379788740814003, -0.011730333491669416], [-0.1820890739253136, -0.27973544868684425], [-0.07809457889047756, -0.09124846264896269], [-0.30616251401069866, -0.45101817852416426], [-0.44200878281119743, -0.26991620184617166], [-0.3315938551005316, -0.08696624632848979]]",density,black,,,D003,visual,1,[],"['1', '2', '3', '4']",1,2023.2.3,harveyvisual,2.1,[],8,0.75,
0,pause,0.4,None,None,None,0,69,69,69,,,,,,,,,,,,,D003,visual,1,[],"['1', '2', '3', '4']",1,2023.2.3,harveyvisual,2.1,[],8,0.75,
6,dot,0.3,['dot'],['density'],black,0,70,70,70,,,26.900192975997925,26.61917996406555,26.919042110443115,dot,"[0.06, 0.08, 0.1, 0.1, 0.06, 0.1]","[[-0.521575560759306, -0.09896409503936293], [-0.11005055439098525, 0.007412765662050641], [-0.2691644509192311, -0.32034241736757013], [-0.33082776037640693, 0.11579187391948328], [-0.031037041641207554, -0.21820435357846482], [-0.2943013415457968, -0.09543215727460275]]",density,black,,,D003,visual,1,[],"['1', '2', '3', '4']",1,2023.2.3,harveyvisual,2.1,[],8,0.75,
0,pause,0.4,None,None,None,0,71,71,71,,,,,,,,,,,,,D003,visual,1,[],"['1', '2', '3', '4']",1,2023.2.3,harveyvisual,2.1,[],8,0.75,
7,dot,0.3,['dot'],['density'],black,0,72,72,72,,,27.600195169448853,27.319000959396362,27.61897897720337,dot,"[0.06, 0.06, 0.1, 0.06, 0.06, 0.1, 0.1]","[[0.2037857981676222, -0.1815971672986122], [0.4890839798603071, 0.25295445478885614], [0.1294833597440532, 0.050421522491765555], [0.5249724357971474, 0.014331621614536631], [0.4084294087299191, -0.1546943519977724], [0.31356179590401956, 0.13415696527685209], [-0.016262925640377804, -0.1588315022511765]]",density,black,,,D003,visual,1,[],"['1', '2', '3', '4']",1,2023.2.3,harveyvisual,2.1,[],8,0.75,
0,pause,0.4,None,None,None,0,73,73,73,,,,,,,,,,,,,D003,visual,1,[],"['1', '2', '3', '4']",1,2023.2.3,harveyvisual,2.1,[],8,0.75,
7,dot,0.3,['dot'],['density'],black,0,74,74,74,,,28.300189971923828,28.01905918121338,28.31897497177124,dot,"[0.1, 0.08, 0.06, 0.08, 0.1, 0.06, 0.1]","[[-0.3025445156539714, -0.42280529123536587], [0.12162933753582021, -0.2851722644810181], [-0.2753205641105948, -0.038672864930592576], [-0.4202189534315163, -0.18742991959605093], [-0.15636117447925973, -0.27217203193286355], [-0.09967880665522989, -0.47242523529006747], [-0.06261398545311019, -0.08879309989794046]]",density,black,,,D003,visual,1,[],"['1', '2', '3', '4']",1,2023.2.3,harveyvisual,2.1,[],8,0.75,
0,pause,0.4,None,None,None,0,75,75,75,,,,,,,,,,,,,D003,visual,1,[],"['1', '2', '3', '4']",1,2023.2.3,harveyvisual,2.1,[],8,0.75,
7,dot,0.3,['dot'],['density'],black,0,76,76,76,,,29.00020718574524,28.7189621925354,29.019042015075684,dot,"[0.08, 0.06, 0.08, 0.1, 0.1, 0.1, 0.08]","[[-0.4123410031792677, -0.32555807737620884], [-0.11281232420725038, -0.2658066965482441], [-0.16970574590124413, 0.10972852905085191], [-0.380148642061964, 0.19816541478521793], [-0.49975943015608576, -0.10400723965324657], [-0.30003386022098844, -0.09340949099572564], [-0.0679185705411078, -0.06780919729272472]]",density,black,,,D003,visual,1,[],"['1', '2', '3', '4']",1,2023.2.3,harveyvisual,2.1,[],8,0.75,
0,pause,0.4,None,None,None,0,77,77,77,,,,,,,,,,,,,D003,visual,1,[],"['1', '2', '3', '4']",1,2023.2.3,harveyvisual,2.1,[],8,0.75,
7,dot,0.3,['dot'],['density'],black,0,78,78,78,,,29.70020604133606,29.418944120407104,29.71894407272339,dot,"[0.1, 0.08, 0.1, 0.1, 0.08, 0.08, 0.08]","[[0.14162553822338392, 0.3850374027840034], [0.14862566890709045, -0.11120959689479885], [0.39332636479883865, 0.3869926518090174], [0.40462455387813373, -0.12110830933676162], [0.23143806607869288, 0.12402376181071403], [0.031443448417621304, 0.15083815177969048], [0.4360523150463376, 0.1818515773867412]]",density,black,,,D003,visual,1,[],"['1', '2', '3', '4']",1,2023.2.3,harveyvisual,2.1,[],8,0.75,
0,pause,0.4,None,None,None,0,79,79,79,,,,,,,,,,,,,D003,visual,1,[],"['1', '2', '3', '4']",1,2023.2.3,harveyvisual,2.1,[],8,0.75,
7,dot,0.3,['dot'],['density'],black,0,80,80,80,,,30.400206089019775,30.118946075439453,30.418920040130615,dot,"[0.08, 0.06, 0.1, 0.1, 0.1, 0.08, 0.08]","[[-0.23675386446936744, -0.019099737415117023], [-0.3793299299598963, 0.3840296974489508], [0.16444052853698826, 0.25964081185693966], [-0.17441972694422359, 0.2376971805458075], [0.025313303261310992, 0.0859287266400301], [-0.3760941870171968, 0.1722047307528389], [-0.012854506600276856, 0.3778399739802858]]",density,black,,,D003,visual,1,[],"['1', '2', '3', '4']",1,2023.2.3,harveyvisual,2.1,[],8,0.75,
0,pause,0.4,None,None,None,0,81,81,81,,,,,,,,,,,,,D003,visual,1,[],"['1', '2', '3', '4']",1,2023.2.3,harveyvisual,2.1,[],8,0.75,
7,dot,0.3,['dot'],['density'],black,0,82,82,82,,,31.10020899772644,30.818921089172363,31.118916988372803,dot,"[0.1, 0.1, 0.08, 0.08, 0.06, 0.06, 0.08]","[[-0.3025445156539714, -0.42280529123536587], [0.12162933753582021, -0.2851722644810181], [-0.2753205641105948, -0.038672864930592576], [-0.4202189534315163, -0.18742991959605093], [-0.15636117447925973, -0.27217203193286355], [-0.09967880665522989, -0.47242523529006747], [-0.06261398545311019, -0.08879309989794046]]",density,black,,,D003,visual,1,[],"['1', '2', '3', '4']",1,2023.2.3,harveyvisual,2.1,[],8,0.75,
0,pause,0.4,None,None,None,0,83,83,83,,,,,,,,,,,,,D003,visual,1,[],"['1', '2', '3', '4']",1,2023.2.3,harveyvisual,2.1,[],8,0.75,
8,dot,0.3,['dot'],['density'],black,0,84,84,84,,,31.80021595954895,31.51888418197632,31.818926095962524,dot,"[0.08, 0.1, 0.1, 0.08, 0.08, 0.08, 0.1, 0.06]","[[-0.012034279999911439, 0.06556808781241986], [-0.3446774290598954, 0.11122635080299646], [0.22428040003470762, 0.1796687910302273], [-0.037221971777983635, 0.5300244249381355], [-0.1456717336157172, 0.2672263832914442], [0.040508406505222534, 0.3412803201140432], [-0.26975617824218623, 0.48628578621654683], [0.24128509790231628, 0.4122343446782376]]",density,black,,,D003,visual,1,[],"['1', '2', '3', '4']",1,2023.2.3,harveyvisual,2.1,[],8,0.75,
0,pause,0.4,None,None,None,0,85,85,85,,,,,,,,,,,,,D003,visual,1,[],"['1', '2', '3', '4']",1,2023.2.3,harveyvisual,2.1,[],8,0.75,
8,dot,0.3,['dot'],['density'],black,0,86,86,86,,,32.50020098686218,32.21891117095947,32.519004106521606,dot,"[0.1, 0.1, 0.06, 0.08, 0.08, 0.06, 0.08, 0.08]","[[0.32983457944800887, -0.09988122376634187], [0.002544499336209532, 0.05447162498302279], [0.49322357980250997, 0.04173156098678792], [0.3398992085464782, -0.3241559212022164], [0.12656458423521935, -0.36323236959635974], [0.5072737450674915, -0.19500703868861743], [0.06482113683766944, -0.1422911224505784], [0.25865538318477954, 0.20042726536108785]]",density,black,,,D003,visual,1,[],"['1', '2', '3', '4']",1,2023.2.3,harveyvisual,2.1,[],8,0.75,
0,pause,0.4,None,None,None,0,87,87,87,,,,,,,,,,,,,D003,visual,1,[],"['1', '2', '3', '4']",1,2023.2.3,harveyvisual,2.1,[],8,0.75,
8,dot,0.3,['dot'],['density'],black,0,88,88,88,,,33.200222969055176,32.9189989566803,33.21890115737915,dot,"[0.1, 0.06, 0.1, 0.06, 0.1, 0.1, 0.06, 0.08]","[[-0.3167478768396544, -0.2124469325344782], [0.11150510454677101, -0.25361932254341324], [0.17657050060311263, -0.496926349220185], [0.20833757931744315, -0.0002320808252021913], [-0.0015234955214533466, 0.034722119540356526], [-0.10690598217119997, -0.19846612199298916], [0.32498422138424443, -0.23444872628509345], [-0.054741640541526956, -0.4230750989992696]]",density,black,,,D003,visual,1,[],"['1', '2', '3', '4']",1,2023.2.3,harveyvisual,2.1,[],8,0.75,
0,pause,0.4,None,None,None,0,89,89,89,,,,,,,,,,,,,D003,visual,1,[],"['1', '2', '3', '4']",1,2023.2.3,harveyvisual,2.1,[],8,0.75,
8,dot,0.3,['dot'],['density'],black,0,90,90,90,,,33.900209188461304,33.618826150894165,33.91880702972412,dot,"[0.1, 0.08, 0.06, 0.06, 0.06, 0.06, 0.1, 0.08]","[[-0.20800618360187478, -0.297823595680997], [0.0208603014005115, -0.46570844314230314], [-0.33947416747489917, -0.46414587466331364], [-0.2657502487478435, -0.0024929956194721667], [-0.07971030345085922, -0.1368829558420488], [0.12327021606192319, -0.12614842517591618], [-0.10944837079043952, 0.12795643756026515], [-0.4050023469846894, -0.16101207847090707]]",density,black,,,D003,visual,1,[],"['1', '2', '3', '4']",1,2023.2.3,harveyvisual,2.1,[],8,0.75,
0,pause,0.4,None,None,None,0,91,91,91,,,,,,,,,,,,,D003,visual,1,[],"['1', '2', '3', '4']",1,2023.2.3,harveyvisual,2.1,[],8,0.75,
8,dot,0.3,['dot'],['density'],black,0,92,92,92,,,34.60019397735596,34.3188099861145,34.618788957595825,dot,"[0.08, 0.08, 0.08, 0.1, 0.08, 0.06, 0.06, 0.06]","[[-0.17001050475317317, -0.17367687575201368], [0.3600613666554234, 0.010096468830953859], [-0.08326222131596324, 0.04242117989324811], [0.04296950773068638, 0.29875887990525135], [0.04919814700692566, -0.23206276490508926], [0.2733682510361541, 0.19343137942482672], [0.15974695196996483, -0.02827404827190698], [-0.2919014881818027, 0.0006738684867251376]]",density,black,,,D003,visual,1,[],"['1', '2', '3', '4']",1,2023.2.3,harveyvisual,2.1,[],8,0.75,
0,pause,0.4,None,None,None,0,93,93,93,,,,,,,,,,,,,D003,visual,1,[],"['1', '2', '3', '4']",1,2023.2.3,harveyvisual,2.1,[],8,0.75,
8,dot,0.3,['dot'],['density'],black,0,94,94,94,,,35.300201177597046,35.01879596710205,35.318767070770264,dot,"[0.06, 0.1, 0.08, 0.08, 0.08, 0.06, 0.1, 0.06]","[[-0.13470540342303577, 0.06408260861786476], [-0.32633744656496655, 0.15045505181492372], [-0.2908673593763413, -0.0762007135190446], [-0.5368971138264618, 0.18470905249118252], [0.055331558945424124, 0.1732254888039505], [-0.30909967543404826, 0.3845911877556102], [-0.0777863596696305, 0.41921053595603236], [0.03181857584637903, -0.08967320215721851]]",density,black,,,D003,visual,1,[],"['1', '2', '3', '4']",1,2023.2.3,harveyvisual,2.1,[],8,0.75,
0,pause,0.4,None,None,None,0,95,95,95,,,,,,,,,,,,,D003,visual,1,[],"['1', '2', '3', '4']",1,2023.2.3,harveyvisual,2.1,[],8,0.75,
9,dot,0.3,['dot'],['density'],black,0,96,96,96,,,36.000219106674194,35.71879005432129,36.01875901222229,dot,"[0.06, 0.06, 0.1, 0.08, 0.1, 0.06, 0.08, 0.08, 0.08]","[[-0.2844843713072754, 0.22325415166673976], [-0.1819235275981482, -0.2724209396165719], [-0.4663757242286994, 0.0951888680112534], [-0.002662519752874684, 0.12526046944360225], [-0.2804516333182533, -0.07461618094684651], [-0.06266188203573825, -0.10246171469469513], [0.05562179911838863, -0.3774952117829348], [-0.29777175193284133, -0.43797360937606633], [-0.44596842075831894, -0.24145786298940805]]",density,black,,,D003,visual,1,[],"['1', '2', '3', '4']",1,2023.2.3,harveyvisual,2.1,[],8,0.75,
0,pause,0.4,None,None,None,0,97,97,97,,,,,,,,,,,,,D003,visual,1,[],"['1', '2', '3', '4']",1,2023.2.3,harveyvisual,2.1,[],8,0.75,
9,dot,0.3,['dot'],['density'],black,0,98,98,98,,,36.700215101242065,36.41875410079956,36.71873903274536,dot,"[0.08, 0.08, 0.08, 0.1, 0.1, 0.06, 0.08, 0.1, 0.1]","[[-0.23139737267821464, 0.4582894628988488], [-0.22563640623437264, 0.09161215191469056], [0.08653997658409265, 0.18408404769425912], [-0.34134765149242685, 0.2795210921938051], [-0.45752590330905135, 0.08752711185150099], [-0.035040587470716034, -0.07657027701648178], [-0.27120713465948276, -0.1309343981320133], [-0.3537313425617488, -0.374673418779248], [-0.09309732942360581, 0.2754840453600595]]",density,black,,,D003,visual,1,[],"['1', '2', '3', '4']",1,2023.2.3,harveyvisual,2.1,[],8,0.75,
0,pause,0.4,None,None,None,0,99,99,99,,,,,,,,,,,,,D003,visual,1,[],"['1', '2', '3', '4']",1,2023.2.3,harveyvisual,2.1,[],8,0.75,
9,dot,0.3,['dot'],['density'],white,0,100,100,100,,,37.40019416809082,37.11883997917175,37.4187970161438,dot,"[0.1, 0.08, 0.06, 0.1, 0.06, 0.08, 0.08, 0.1, 0.1]","[[-0.03413633707233166, 0.539775862693792], [0.03045342777742709, 0.14881397110038386], [0.3968101769942594, 0.3516381959676015], [-0.12464897846505978, 0.27513009849494485], [0.24828272947848068, 0.13372878599656182], [0.1825630446668698, 0.5466865974155928], [-0.40057775338259505, 0.3148646888607764], [0.06988801613907401, -0.06658504348068199], [0.07277149512897427, 0.3699912437376705]]",density,white,,,D003,visual,1,[],"['1', '2', '3', '4']",1,2023.2.3,harveyvisual,2.1,[],8,0.75,
0,pause,0.4,None,None,None,0,101,101,101,,,,,,,,,,,1,37.46528506278992,D003,visual,1,[],"['1', '2', '3', '4']",1,2023.2.3,harveyvisual,2.1,[],8,0.75,
9,dot,0.3,['dot'],['density'],black,0,102,102,102,,,38.10019397735596,37.81879210472107,38.118699073791504,dot,"[0.06, 0.08, 0.06, 0.08, 0.08, 0.08, 0.08, 0.08, 0.08]","[[0.31750259908069645, 0.09103062301409195], [-0.10814993995151222, -0.14883262012051235], [0.2615101699546999, -0.13245952524223892], [0.014531427323725789, 0.3887544696515085], [-0.1117096847062306, 0.09593752649312724], [0.07810272484559946, -0.019955638642360052], [-0.26173373106631487, 0.2840804484106463], [0.4370020372247476, 0.2669512546191977], [0.11115841416421544, 0.18722161068425575]]",density,black,,,D003,visual,1,[],"['1', '2', '3', '4']",1,2023.2.3,harveyvisual,2.1,[],8,0.75,
0,pause,0.4,None,None,None,0,103,103,103,,,,,,,,,,,,,D003,visual,1,[],"['1', '2', '3', '4']",1,2023.2.3,harveyvisual,2.1,[],8,0.75,
9,dot,0.3,['dot'],['density'],black,0,104,104,104,,,38.80019807815552,38.51873302459717,38.81869316101074,dot,"[0.08, 0.1, 0.08, 0.06, 0.08, 0.08, 0.06, 0.06, 0.06]","[[-0.5242180236495622, 0.2097960018926228], [-0.2671382220306689, 0.3003190330968159], [-0.06183693718886379, 0.22592490829479475], [-0.2001015593906042, -0.14641750634996328], [-0.09246193223873551, 0.43765994221656135], [-0.29330373087767303, 0.05285487614136386], [0.007094383220706952, 0.008748553761596398], [0.1465325421295601, 0.294910430799518], [0.04425292235957525, -0.2230758375085622]]",density,black,,,D003,visual,1,[],"['1', '2', '3', '4']",1,2023.2.3,harveyvisual,2.1,[],8,0.75,
0,pause,0.4,None,None,None,0,105,105,105,,,,,,,,,,,,,D003,visual,1,[],"['1', '2', '3', '4']",1,2023.2.3,harveyvisual,2.1,[],8,0.75,
9,dot,0.3,['dot'],['density'],black,0,106,106,106,,,39.500203132629395,39.21868705749512,39.51882314682007,dot,"[0.06, 0.06, 0.08, 0.1, 0.1, 0.06, 0.08, 0.1, 0.08]","[[-0.4007656520072294, -0.25517300445391483], [-0.002534053661406415, -0.03841937385778563], [0.03867088550537559, -0.37109058839216275], [0.14298263539714814, -0.19121790068267305], [-0.18592892280395246, 0.09800459324165622], [-0.17114407793371844, -0.47763389460370764], [0.20594417137152282, 0.033112046987541804], [-0.3669302527083935, -0.010624696365658668], [-0.20182203610849478, -0.19970173151634407]]",density,black,,,D003,visual,1,[],"['1', '2', '3', '4']",1,2023.2.3,harveyvisual,2.1,[],8,0.75,
0,pause,0.4,None,None,None,0,107,107,107,,,,,,,,,,,,,D003,visual,1,[],"['1', '2', '3', '4']",1,2023.2.3,harveyvisual,2.1,[],8,0.75,
20,dot,0.3,['dot'],['density'],black,0,108,108,108,,,40.200217962265015,39.91881608963013,40.21883201599121,dot,"[0.06, 0.08, 0.1, 0.08, 0.06, 0.06, 0.06, 0.1, 0.08, 0.08, 0.1, 0.1, 0.1, 0.1, 0.06, 0.06, 0.08, 0.08, 0.06, 0.06]","[[-0.35853714638376627, -0.02226023413453937], [-0.599479557477624, -0.007166562454657896], [-0.21661235777465893, -0.38150065246800013], [-0.008996056642782246, 0.4576278199325251], [0.426951631729397, -0.3333894609912512], [-0.22556716592746012, 0.4154847296918881], [0.5327516149675288, -0.024374849214917615], [-0.4684612505866622, 0.20395841023363742], [0.12114987967016777, -0.3185645031518413], [-0.48909935388884995, -0.2081394856924517], [0.0477646083201374, 0.019658728922407054], [0.07075232277668342, -0.5348055994099326], [-0.4305687491550588, -0.3971906641022745], [-0.1727167469404054, 0.03840426948208686], [0.24188553546539582, 0.5467268100978397], [0.2113868535353235, -0.12908176148050987], [0.2137655047287066, 0.14232895561893277], [0.26558644557768885, -0.46311259187683207], [-0.29632940702791566, -0.2057066728359776], [0.38652628274752865, 0.3073215022277881]]",density,black,,,D003,visual,1,[],"['1', '2', '3', '4']",1,2023.2.3,harveyvisual,2.1,[],8,0.75,
0,pause,0.4,None,None,None,0,109,109,109,,,,,,,,,,,,,D003,visual,1,[],"['1', '2', '3', '4']",1,2023.2.3,harveyvisual,2.1,[],8,0.75,
20,dot,0.3,['dot'],['density'],black,0,110,110,110,,,40.90020298957825,40.61869406700134,40.91868710517883,dot,"[0.08, 0.08, 0.08, 0.06, 0.06, 0.08, 0.1, 0.1, 0.1, 0.1, 0.08, 0.06, 0.06, 0.06, 0.06, 0.06, 0.06, 0.08, 0.1, 0.06]","[[0.1191510527878934, -0.10814148635075543], [0.2540004276360436, 0.06277840571925841], [-0.3421679399659255, 0.11636478407015632], [-0.19749943772929474, -0.226043719124707], [0.035136240712378086, 0.08839629632294699], [0.38959259177876193, 0.42377409954949463], [0.4230557851048461, -0.4019935687713735], [0.5306790492715333, -0.09854873183291321], [-0.4546435874466911, -0.08823331910708604], [0.418945166261406, 0.20650550419322433], [-0.1018395604439043, 0.2653870397172283], [-0.31136632158797983, -0.4034569143835598], [-0.5921739532398531, 0.12316955369529353], [-0.01466468144325761, -0.4049156177455645], [0.18754608048834664, -0.4876957121740244], [0.22575240374289285, 0.558020536600045], [-0.4721994778802537, -0.2873155922022923], [0.3636504106087265, -0.20052389798757542], [-0.01819255220845728, 0.49742697071030473], [-0.4208235808155435, 0.3662210210381359]]",density,black,,,D003,visual,1,[],"['1', '2', '3', '4']",1,2023.2.3,harveyvisual,2.1,[],8,0.75,
0,pause,0.4,None,None,None,0,111,111,111,,,,,,,,,,,,,D003,visual,1,[],"['1', '2', '3', '4']",1,2023.2.3,harveyvisual,2.1,[],8,0.75,
20,dot,0.3,['dot'],['density'],white,0,112,112,112,,,41.60020399093628,41.3186559677124,41.61864709854126,dot,"[0.08, 0.06, 0.08, 0.08, 0.1, 0.08, 0.1, 0.08, 0.06, 0.08, 0.1, 0.06, 0.1, 0.06, 0.08, 0.1, 0.1, 0.06, 0.06, 0.08]","[[0.013543366479555674, -0.451329185588352], [0.59388715628771, -0.09810043105716708], [0.3099108373402647, -0.06044936865562883], [-0.2259189666379468, 0.3805288962962926], [-0.03099254147648134, 0.3559885780828824], [0.3494714847239605, 0.1594507604226002], [-0.5714480897230991, -0.1340754653802454], [0.034601688022084964, -0.21315565791862756], [-0.22072937953769328, -0.3342542062612925], [0.03503243132548306, 0.09802788091479286], [0.42624275780906984, -0.3445087484812978], [0.21289611531651198, -0.3385275351413003], [-0.2597813325396255, 0.058606569673818054], [0.14238715243888167, 0.46848680490297223], [-0.4261792905454683, 0.38319445071091063], [0.5061713275175367, 0.27486555185269645], [-0.4736076396183345, 0.11082863426161571], [-0.32856836440993686, -0.4905775193518984], [-0.40953665576968845, -0.311850408380002], [-0.28706723843753146, -0.13523399024277166]]",density,white,,,D003,visual,1,[],"['1', '2', '3', '4']",1,2023.2.3,harveyvisual,2.1,[],8,0.75,
0,pause,0.4,None,None,None,0,113,113,113,,,,,,,,,,,1,41.57273006439209,D003,visual,1,[],"['1', '2', '3', '4']",1,2023.2.3,harveyvisual,2.1,[],8,0.75,
20,dot,0.3,['dot'],['density'],black,0,114,114,114,,,42.30019998550415,42.01861000061035,42.31860399246216,dot,"[0.1, 0.08, 0.08, 0.1, 0.1, 0.1, 0.06, 0.08, 0.1, 0.08, 0.1, 0.08, 0.1, 0.06, 0.06, 0.1, 0.06, 0.08, 0.08, 0.1]","[[0.4886278265868277, 0.10642405617684753], [0.11075296698915948, 0.1768456106845414], [-0.11088360336343983, -0.30372766786976224], [0.1099266022760984, -0.0800323194713114], [-0.48223270371311433, -0.01981416419765547], [0.17787614301366295, 0.3752828924760844], [-0.34060420377108097, -0.26333287387117416], [0.442625057727292, -0.2820322849312206], [-0.23273943104900618, -0.47797808505652467], [-0.10175423183739896, 0.24728104689243902], [-0.36368131406195214, 0.13824556367500723], [-0.09742246980994573, 0.45341403359147636], [-0.5433633958867768, -0.22093431254284376], [0.31457967749486626, -0.4991664895364086], [0.09354517511119032, -0.5154561814377809], [0.5518209132557205, -0.08889714389444167], [-0.2886881502514194, -0.05180897284529168], [0.30065638386560156, -0.1399493325544358], [-0.37435321000167343, 0.3601892227745997], [-0.09012410591275688, -0.02424264675687926]]",density,black,,,D003,visual,1,[],"['1', '2', '3', '4']",1,2023.2.3,harveyvisual,2.1,[],8,0.75,
0,pause,0.4,None,None,None,0,115,115,115,,,,,,,,,,,,,D003,visual,1,[],"['1', '2', '3', '4']",1,2023.2.3,harveyvisual,2.1,[],8,0.75,
20,dot,0.3,['dot'],['density'],black,0,116,116,116,,,43.00021505355835,42.71861696243286,43.01860809326172,dot,"[0.06, 0.06, 0.06, 0.08, 0.08, 0.06, 0.1, 0.1, 0.08, 0.1, 0.08, 0.1, 0.1, 0.06, 0.08, 0.08, 0.08, 0.1, 0.1, 0.06]","[[0.003506399856823772, -0.17519298515287485], [-0.0055003203419735636, 0.2601325679330231], [0.5586329993902842, -0.18702885416711235], [0.37481614125210694, 0.20280537907667096], [-0.34645781125092073, 0.05399425584826395], [-0.09530978318484074, -0.5360775874097874], [-0.1836222874482027, 0.4765224138944115], [-0.24142470612521444, -0.34875397445486267], [-0.5665227021227088, -0.0898972899834355], [0.5640935755233912, 0.142690743667357], [0.3289132683745014, -0.34293082333185154], [0.2179818409449915, 0.42848707080815895], [0.3871984418550277, -0.02765153265051784], [-0.34496312331699996, -0.15612590802406123], [-0.3943126253561415, 0.4194840315108833], [0.005370376089165241, 0.5122685600322817], [-0.5188116320129732, 0.1509857003504756], [0.19685698620934045, -0.09190810574227637], [-0.07467747768413857, 0.023204737962535416], [0.440729693396975, 0.3870522800274579]]",density,black,,,D003,visual,1,[],"['1', '2', '3', '4']",1,2023.2.3,harveyvisual,2.1,[],8,0.75,
0,pause,0.4,None,None,None,0,117,117,117,,,,,,,,,,,,,D003,visual,1,[],"['1', '2', '3', '4']",1,2023.2.3,harveyvisual,2.1,[],8,0.75,
20,dot,0.3,['dot'],['density'],black,0,118,118,118,,,43.70020413398743,43.418596029281616,43.71872115135193,dot,"[0.06, 0.1, 0.08, 0.08, 0.06, 0.08, 0.06, 0.1, 0.08, 0.08, 0.1, 0.1, 0.08, 0.1, 0.06, 0.1, 0.1, 0.08, 0.1, 0.1]","[[0.19398395251586242, -0.2653695335029174], [-0.4982794446474007, -0.09649771546035471], [-0.1470048800211184, -0.15020876580053116], [-0.2899827042233381, 0.20558673602991018], [-0.5493455699748913, 0.12484082423460607], [0.4440174787891943, -0.33242127420104256], [0.5870586444799731, -0.13637101496266169], [-0.10036079951308785, -0.35572558730208503], [-0.057107955286468615, 0.2558040334080329], [0.1410252986864856, -0.07353499631946825], [0.4912941548469233, 0.10984666567682144], [0.3554374002739653, -0.11462266642531932], [-0.32040388710279044, 0.4017374360844944], [0.19425520005233965, 0.1595417191033679], [-0.29717053567496804, -0.3489566734439861], [0.011326815606315765, 0.5158312791515958], [0.3569877198549358, 0.33521709251294785], [-0.04260898023997339, 0.054043853891227456], [-0.21905139024035675, -0.5631602424407504], [0.16370882120732078, -0.5509454370251052]]",density,black,,,D003,visual,1,[],"['1', '2', '3', '4']",1,2023.2.3,harveyvisual,2.1,[],8,0.75,
0,pause,0.4,None,None,None,0,119,119,119,,,,,,,,,,,,,D003,visual,1,[],"['1', '2', '3', '4']",1,2023.2.3,harveyvisual,2.1,[],8,0.75,
20,dot,0.3,['dot'],['density'],black,0,120,120,120,,,44.400206089019775,44.11855602264404,44.41858911514282,dot,"[0.06, 0.1, 0.06, 0.08, 0.08, 0.06, 0.06, 0.08, 0.06, 0.06, 0.1, 0.06, 0.1, 0.1, 0.06, 0.06, 0.08, 0.1, 0.08, 0.08]","[[0.04365758735473402, -0.5801997552590512], [-0.3628993740500098, 0.21741104218526086], [0.2741849701153838, 0.4268227990769643], [-0.5565285816604864, -0.03360909369425252], [0.20088566292391563, -0.049155565548509084], [0.4994487489721734, 0.10179267228820915], [-0.4811009285129618, -0.29134544497310855], [-0.06585112407521765, -0.27048686190911114], [-0.14630267307232425, 0.42787977167120383], [0.36235886292017605, -0.37168939530012923], [0.061841820558683924, 0.6014025764510285], [-0.31176410659396475, -0.16459868320192717], [0.07630801205767235, 0.35413755654396073], [0.46024880125563594, 0.3857881049625139], [-0.21312546258978737, -0.4585263775914034], [0.5675920481859166, -0.19679961302575588], [-0.07045270118683622, 0.05499855479716442], [0.14257220517444824, -0.3460922686140313], [-0.4265556694659828, 0.4288410163366192], [0.11722339824602845, 0.16810203751788433]]",density,black,,,D003,visual,1,[],"['1', '2', '3', '4']",1,2023.2.3,harveyvisual,2.1,[],8,0.75,
0,pause,0.4,None,None,None,0,121,121,121,,,,,,,,,,,,,D003,visual,1,[],"['1', '2', '3', '4']",1,2023.2.3,harveyvisual,2.1,[],8,0.75,
20,dot,0.3,['dot'],['density'],black,0,122,122,122,,,45.10020899772644,44.81860399246216,45.11858797073364,dot,"[0.08, 0.06, 0.08, 0.06, 0.1, 0.08, 0.06, 0.06, 0.06, 0.08, 0.08, 0.06, 0.06, 0.06, 0.06, 0.08, 0.08, 0.08, 0.1, 0.06]","[[-0.4463726021793246, 0.0028596982213218713], [0.45382832821475405, -0.12264914990403736], [0.1280855371169911, -0.4697716206649064], [-0.13143997935421492, -0.3969622979731295], [0.11014003246464321, -0.11058727877729685], [0.2354028442877295, 0.047806722187597295], [-0.20387634956893075, -0.06291080964743123], [-0.43271973388975493, -0.33392165358119], [0.5229214708359627, 0.24002205822458045], [0.11053122127115156, 0.41583010426055544], [-0.15989018035370567, 0.2801696687298394], [-0.41680792592769045, 0.4272268245949852], [-0.0633996233558114, 0.59133392979409], [0.4054162627062313, -0.3820120460506051], [-0.3699510753567079, 0.20369872242936427], [0.3462959579416387, 0.41462612382896014], [0.03691735427045051, -0.28940657143888615], [0.5954249643712243, 0.05933969298595798], [-0.2941546861726338, -0.5156470492588388], [-0.030347828562943935, -0.5741809142228257]]",density,black,,,D003,visual,1,[],"['1', '2', '3', '4']",1,2023.2.3,harveyvisual,2.1,[],8,0.75,
0,pause,0.4,None,None,None,0,123,123,123,,,,,,,,,,,,,D003,visual,1,[],"['1', '2', '3', '4']",1,2023.2.3,harveyvisual,2.1,[],8,0.75,
20,dot,0.3,['dot'],['density'],black,0,124,124,124,,,45.800204038619995,45.51856517791748,45.818544149398804,dot,"[0.1, 0.08, 0.1, 0.1, 0.1, 0.08, 0.1, 0.08, 0.06, 0.06, 0.1, 0.1, 0.06, 0.08, 0.1, 0.06, 0.08, 0.06, 0.08, 0.1]","[[-0.2293889027489393, 0.27597349786558667], [-0.03305320974377357, -0.5967141387249032], [0.2590604092390145, -0.5445457321235541], [0.2551761062457414, 0.11498559733257085], [0.2956702606115966, 0.3025011789323445], [0.5316927658703078, -0.03438529111405114], [-0.32338869681548915, 0.5087962848694738], [-0.22094302709508562, -0.41625400119334344], [-0.507185620593456, -0.09395350654425294], [0.069560570381351, -0.27387302568630867], [0.5401875567345346, 0.15829904302960063], [-0.5154110973370706, 0.12856775193547842], [-0.4122818199918315, -0.31724204468767425], [-0.019849586399289465, 0.5558175113453971], [0.09534751237717698, -0.05703616325265837], [-0.18929087085743107, -0.015444447530458039], [0.05622708865262871, 0.35849863535257365], [0.05566503251527721, 0.1454968907527736], [-0.26104020196940075, -0.19857010406539932], [0.21173062242450347, 0.47730449039247913]]",density,black,,,D003,visual,1,[],"['1', '2', '3', '4']",1,2023.2.3,harveyvisual,2.1,[],8,0.75,
0,pause,0.4,None,None,None,0,125,125,125,,,,,,,,,,,,,D003,visual,1,[],"['1', '2', '3', '4']",1,2023.2.3,harveyvisual,2.1,[],8,0.75,
20,dot,0.3,['dot'],['density'],black,0,126,126,126,,,46.50019407272339,46.218510150909424,46.51851415634155,dot,"[0.06, 0.06, 0.08, 0.06, 0.08, 0.06, 0.1, 0.1, 0.08, 0.06, 0.08, 0.08, 0.06, 0.1, 0.06, 0.06, 0.08, 0.08, 0.1, 0.06]","[[-0.22737937787366092, 0.2537462875006904], [0.1905212313805862, -0.2086144088853013], [0.49745504704990606, -0.22747740843140302], [0.04478545879441698, 0.3192947752729983], [-0.2563184128470159, -0.3449009601179023], [-0.3679737180549636, 0.44794886823281654], [0.31035135917111434, 0.010284018810030937], [0.038374366486865874, 0.5479765222896453], [0.5657809995973494, 0.09850177022755865], [-0.12165667134842212, 0.030598580323778157], [-0.5610423437873121, -0.1808429560663408], [0.22657000250674242, -0.4992752892337346], [0.3219151763948783, 0.45374348145129795], [-0.3384833856168659, 0.005315811628578193], [-0.23000206817197466, -0.5386263705553764], [0.258175333142482, 0.2596278643097182], [-0.1725828559292824, 0.5753852866607687], [0.01662521092376945, -0.4194242982321874], [-0.4529117058285325, 0.252166263313565], [0.1263803355295252, 0.12251019781238115]]",density,black,,,D003,visual,1,[],"['1', '2', '3', '4']",1,2023.2.3,harveyvisual,2.1,[],8,0.75,
0,pause,0.4,None,None,None,0,127,127,127,,,,,,,,,,,,,D003,visual,1,[],"['1', '2', '3', '4']",1,2023.2.3,harveyvisual,2.1,[],8,0.75,
20,dot,0.3,['dot'],['density'],black,0,128,128,128,,,47.20020008087158,46.91871213912964,47.21868896484375,dot,"[0.08, 0.08, 0.06, 0.06, 0.1, 0.08, 0.1, 0.1, 0.1, 0.1, 0.1, 0.06, 0.06, 0.08, 0.06, 0.1, 0.08, 0.06, 0.06, 0.08]","[[-0.5387497022072638, 0.09683485935071068], [0.3579224563901867, -0.47797171158069895], [-0.276974693214306, 0.18198554389346544], [-0.006206398974235694, 0.4917791468867748], [-0.2793625018791391, 0.37978078246819735], [0.36287936370863605, -0.23842261256276348], [0.24052843665306534, 0.14966473257311452], [0.03525391535247402, -0.06407506655951944], [0.16943055016803132, -0.30685218634707345], [0.5598161758597274, 0.028175614262362203], [-0.23655503290976998, -0.38968766406061794], [-0.509143495373232, -0.21258932953981702], [-0.28094569836146477, -0.18163440694725208], [0.049443677595075175, 0.2715466963792089], [0.029134827058416857, -0.46962326223387785], [0.5540176713352473, -0.17103691276088698], [0.2883012924613555, 0.43341550050283373], [0.4864322267778173, 0.30151808273130565], [0.2767789591942742, -0.05315114949270128], [-0.08857527650258568, 0.12403716485244687]]",density,black,,,D003,visual,1,[],"['1', '2', '3', '4']",1,2023.2.3,harveyvisual,2.1,[],8,0.75,
0,pause,0.4,None,None,None,0,129,129,129,,,,,,,,,,,,,D003,visual,1,[],"['1', '2', '3', '4']",1,2023.2.3,harveyvisual,2.1,[],8,0.75,
20,dot,0.3,['dot'],['density'],black,0,130,130,130,,,47.90022110939026,47.618704080581665,47.918493032455444,dot,"[0.1, 0.1, 0.1, 0.06, 0.1, 0.1, 0.08, 0.1, 0.06, 0.06, 0.08, 0.08, 0.06, 0.08, 0.1, 0.1, 0.08, 0.06, 0.08, 0.08]","[[-0.0877092601337579, 0.0854288261744709], [0.47563685380343845, -0.18243096624152555], [-0.6023450344401193, 0.023232050900657927], [-0.3444141280712562, 0.17537519847167826], [-0.40615482539090464, -0.2301509704245213], [0.4195523430228122, 0.08012616285811686], [0.32808532466573836, -0.49954621420184814], [-0.3576190897844682, -0.4692191932894725], [0.0063023921543683414, -0.32781003214811827], [0.2486701490667398, 0.3317640406857719], [0.1880280175723511, -0.24587754335207362], [-0.12621712674680752, 0.554047372971723], [0.15540267818580922, 0.05519974178461906], [0.47959997681990985, 0.2790794989278379], [0.15630865392397597, 0.5657498453521838], [0.01713389222589723, 0.25193228415186997], [-0.23264982441705667, 0.3880683550824938], [-0.06400148979491005, -0.1103819106595848], [0.6001960553842501, -0.008910054356107033], [0.39136243868732434, 0.459598622600816]]",density,black,,,D003,visual,1,[],"['1', '2', '3', '4']",1,2023.2.3,harveyvisual,2.1,[],8,0.75,
0,pause,0.4,None,None,None,0,131,131,131,,,,,,,,,,,,,D003,visual,1,[],"['1', '2', '3', '4']",1,2023.2.3,harveyvisual,2.1,[],8,0.75,
20,dot,0.3,['dot'],['density'],black,0,132,132,132,,,48.6002140045166,48.31844902038574,48.61841917037964,dot,"[0.08, 0.06, 0.1, 0.1, 0.08, 0.06, 0.06, 0.06, 0.06, 0.06, 0.08, 0.08, 0.08, 0.06, 0.08, 0.1, 0.08, 0.1, 0.06, 0.1]","[[-0.2741024183267225, 0.2893468229965669], [0.5393168162699312, 0.11006582262631376], [0.08175840819574265, -0.3713174580212143], [0.3745714257824314, -0.3112614505247795], [0.5731452389197808, -0.09371755169934695], [0.42100744817633917, 0.3071722080119751], [0.11115132453514287, -0.07008029100842228], [-0.14474845533608477, -0.40354714655941026], [-0.4578824964939346, -0.11898672224869417], [0.3543088938919866, 0.06730540290890186], [-0.274862058906755, -0.016893551921768335], [-0.06957621219825705, 0.20406618368818596], [-0.3785119743023647, -0.33297291120922834], [-0.13622204327236348, -0.18256390971141923], [-0.5448676303682104, 0.12848867510884515], [-0.16056283218660766, 0.5457644928284808], [-0.4773915710165279, 0.35320593362440633], [0.02649059039414048, 0.45149959310583176], [0.14501996769219017, 0.11772507053858428], [0.2315025964780527, 0.5180326001113053]]",density,black,,,D003,visual,1,[],"['1', '2', '3', '4']",1,2023.2.3,harveyvisual,2.1,[],8,0.75,
0,pause,0.4,None,None,None,0,133,133,133,,,,,,,,,,,,,D003,visual,1,[],"['1', '2', '3', '4']",1,2023.2.3,harveyvisual,2.1,[],8,0.75,
20,dot,0.3,['dot'],['density'],white,0,134,134,134,,,49.30019497871399,49.01848101615906,49.31845211982727,dot,"[0.08, 0.08, 0.06, 0.08, 0.06, 0.08, 0.06, 0.06, 0.08, 0.1, 0.1, 0.06, 0.06, 0.08, 0.08, 0.1, 0.08, 0.06, 0.08, 0.06]","[[0.14068696461881436, -0.48472418157904246], [0.2943636425453767, -0.3403835004646326], [-0.44219642144065485, -0.3632391099826309], [-0.5988266402242538, 0.019682098033645984], [-0.5651480725260236, -0.1993931773383006], [-0.2857630405160701, 0.3365026559591745], [0.116993268703391, 0.4130106709152537], [-0.18327629379867366, 0.5273073754314543], [0.3689498386984882, 0.4403695177241487], [-0.1093541810022094, -0.29095990643926883], [-0.3809393010595886, -0.045669306761723705], [0.4425952637445282, -0.1673879915148757], [0.24001641033802013, -0.013554477851982827], [0.4993455500591141, 0.2770203864957302], [-0.007321570417164858, -0.05419368732646346], [-0.0203351615419477, -0.5877444187766704], [-0.028895319644170803, 0.21733908983009187], [-0.504179362032304, 0.27579544997782257], [0.5833076427880214, 0.07714556321123117], [-0.20293168709358173, 0.11501680447131679]]",density,white,,,D003,visual,1,[],"['1', '2', '3', '4']",1,2023.2.3,harveyvisual,2.1,[],8,0.75,
0,pause,0.4,None,None,None,0,135,135,135,,,,,,,,,,,1,49.27466320991516,D003,visual,1,[],"['1', '2', '3', '4']",1,2023.2.3,harveyvisual,2.1,[],8,0.75,
20,dot,0.3,['dot'],['density'],black,0,136,136,136,,,50.00019407272339,49.71846103668213,50.01845908164978,dot,"[0.1, 0.08, 0.08, 0.08, 0.08, 0.08, 0.08, 0.1, 0.06, 0.06, 0.06, 0.08, 0.08, 0.1, 0.06, 0.1, 0.06, 0.06, 0.1, 0.06]","[[0.5919334529213628, -0.03389031006318195], [-0.0952001399807253, -0.3236077898630022], [0.16799655204082498, -0.058523262801804754], [-0.18486571041030225, -0.5480290548741481], [-0.5510106803048833, -0.1281933138581833], [-0.3211639604059973, -0.06240477278433193], [0.397548566921753, 0.25600839730020264], [-0.5525239850693803, 0.12942763578747832], [0.3044465691145194, 0.43186634639425425], [-0.10093516448388651, 0.2672734311590764], [-0.17021050363244844, 0.5606910106829196], [0.15155091702948575, 0.1952211893051914], [0.40205225321833693, -0.25345474246044375], [0.16037900914164238, -0.4358512940703271], [-0.3427959229873898, 0.4222114027466102], [-0.14778172728496825, 0.03214847432078172], [-0.28923861000237117, -0.35409954261980314], [0.358625326036471, 0.04132381671021812], [-0.36051030564262226, 0.21493964201710203], [0.045659869890712135, 0.5754067797288234]]",density,black,,,D003,visual,1,[],"['1', '2', '3', '4']",1,2023.2.3,harveyvisual,2.1,[],8,0.75,
0,pause,0.4,None,None,None,0,137,137,137,,,,,,,,,,,,,D003,visual,1,[],"['1', '2', '3', '4']",1,2023.2.3,harveyvisual,2.1,[],8,0.75,
20,dot,0.3,['dot'],['density'],black,0,138,138,138,,,50.70020508766174,50.418424129486084,50.7185640335083,dot,"[0.1, 0.08, 0.08, 0.06, 0.06, 0.08, 0.08, 0.1, 0.1, 0.08, 0.1, 0.1, 0.1, 0.08, 0.06, 0.08, 0.06, 0.1, 0.1, 0.08]","[[-0.32946743850014687, 0.4469484192924247], [-0.2328360038815071, -0.26611254826448383], [0.033159673114328214, 0.5037564958382931], [-0.5206333323680978, -0.18400834282922118], [-0.4712826560716837, 0.3029135732149177], [0.2693747330560081, 0.052110183834239376], [-0.17207641328507756, 0.02109184296747646], [-0.011173832792553351, 0.315823008991872], [0.5047020356587949, 0.05794089144834591], [-0.321855915926561, -0.4636003799326609], [0.08959498891617812, -0.5750264559951636], [0.22394589620417504, -0.43340673311536426], [-0.40735514156613545, -0.009311621690150984], [0.37790843780311456, 0.37136387743113536], [0.02893918627685954, 0.10972097508958245], [0.014315708513171543, -0.17164720334624584], [0.46219389357541163, -0.2938725125811523], [0.20511459021642753, 0.2516558526910184], [-0.5827652754032372, 0.0935509162588043], [-0.23644769076901612, 0.2345040827850512]]",density,black,,,D003,visual,1,[],"['1', '2', '3', '4']",1,2023.2.3,harveyvisual,2.1,[],8,0.75,
0,pause,0.4,None,None,None,0,139,139,139,,,,,,,,,,,,,D003,visual,1,[],"['1', '2', '3', '4']",1,2023.2.3,harveyvisual,2.1,[],8,0.75,
20,dot,0.3,['dot'],['density'],black,0,140,140,140,,,51.400222063064575,51.11857795715332,51.41839408874512,dot,"[0.06, 0.08, 0.08, 0.1, 0.1, 0.1, 0.06, 0.08, 0.1, 0.1, 0.08, 0.08, 0.08, 0.06, 0.1, 0.1, 0.08, 0.1, 0.1, 0.06]","[[0.24716726068448525, 0.09064853487731717], [0.5577543932057553, 0.019968555452031578], [-0.49199070670921674, 0.23438163751415886], [0.12135256627788282, 0.2759393843449077], [-0.5351568709893203, 0.017518260399945362], [-0.16962754563611715, -0.01653106188958864], [-0.3921908256939842, -0.4239610026897965], [0.22377302698148338, -0.3165374116434969], [-0.31395378317200817, -0.15854207974596646], [-0.31174272652528695, 0.3793435513873128], [0.4380466744205388, 0.18532356035571934], [-0.1583191843568198, 0.5620184283610109], [0.1309556813578645, 0.5478439417561914], [-0.036222559017891176, -0.27708832142823686], [0.10816049224995838, -0.0733220311436179], [-0.14728684734998138, -0.5833844293295682], [0.30240426238035745, -0.11797996775598607], [0.0862590903123176, -0.5484085576330037], [-0.11991629048266211, 0.18134628594983526], [0.5024691678859069, -0.16416215228767128]]",density,black,,,D003,visual,1,[],"['1', '2', '3', '4']",1,2023.2.3,harveyvisual,2.1,[],8,0.75,
0,pause,0.4,None,None,None,0,141,141,141,,,,,,,,,,,,,D003,visual,1,[],"['1', '2', '3', '4']",1,2023.2.3,harveyvisual,2.1,[],8,0.75,
20,dot,0.3,['dot'],['density'],black,0,142,142,142,,,52.10021901130676,51.818371057510376,52.11836099624634,dot,"[0.08, 0.08, 0.08, 0.06, 0.06, 0.06, 0.08, 0.06, 0.1, 0.08, 0.08, 0.06, 0.06, 0.08, 0.08, 0.08, 0.06, 0.08, 0.06, 0.08]","[[0.0024689653587085525, 0.10432410225403543], [0.464456159003395, 0.08475793785998653], [-0.407723632599507, 0.24486538902958632], [-0.28064865511742165, 0.49426020168510854], [-0.3725988544690481, -0.19284512222614303], [0.18599060986864513, -0.1797121073985659], [-0.49243165092512053, 0.0328129013425687], [0.430959482548568, 0.33149832260690765], [0.236343036991982, 0.45039087220748164], [-0.17532853746180838, -0.11532883304362684], [0.09649522733232563, -0.39222879237487374], [0.38819541672293034, -0.17782661083086704], [-0.37480835849073524, -0.42554751691060805], [-0.02395540220354564, 0.43678993795505416], [-0.1963176775556738, 0.1933392148291433], [0.21731448666445508, 0.22958325746354413], [0.43271368604464844, -0.3685021386528719], [0.2874892093738842, -0.006169473992908681], [0.5809633083224449, -0.06822481450641814], [-0.10018671615028141, -0.31483320040078583]]",density,black,,,D003,visual,1,[],"['1', '2', '3', '4']",1,2023.2.3,harveyvisual,2.1,[],8,0.75,
0,pause,0.4,None,None,None,0,143,143,143,,,,,,,,,,,,,D003,visual,1,[],"['1', '2', '3', '4']",1,2023.2.3,harveyvisual,2.1,[],8,0.75,
20,dot,0.3,['dot'],['density'],black,0,144,144,144,,,52.80022311210632,52.51835608482361,52.81834411621094,dot,"[0.06, 0.1, 0.08, 0.06, 0.1, 0.1, 0.08, 0.08, 0.06, 0.06, 0.06, 0.08, 0.08, 0.06, 0.1, 0.1, 0.06, 0.1, 0.1, 0.1]","[[-0.115918430200118, -0.48515706313323104], [-0.5610842955037897, 0.04792874511863146], [0.25124192095478937, 0.4455130294871249], [0.11077255917194628, 0.271198767462866], [0.5763989469045313, -0.11810232551781202], [0.07332094639546083, 0.04490335503484855], [0.46296782012476767, 0.312330516798484], [-0.3703313630059138, -0.17732002123638102], [0.02124564643520599, 0.5846931436133511], [-0.04562038269719404, -0.11131329023913483], [0.42209245453425337, -0.32680937523521497], [-0.17371547871939413, 0.08876796122929564], [-0.2074959273527998, 0.5606129807027582], [0.292960572650684, 0.011555536679592193], [-0.2193281620180823, -0.3019846657572571], [0.5440025492563175, 0.08081260537910379], [0.2324750941633974, -0.48077781418682114], [-0.46315781379775645, 0.3387109041331125], [-0.24610919128547737, 0.2886309112094604], [-0.3352333406995148, -0.4595871727338457]]",density,black,,,D003,visual,1,[],"['1', '2', '3', '4']",1,2023.2.3,harveyvisual,2.1,[],8,0.75,
0,pause,0.4,None,None,None,0,145,145,145,,,,,,,,,,,,,D003,visual,1,[],"['1', '2', '3', '4']",1,2023.2.3,harveyvisual,2.1,[],8,0.75,
20,dot,0.3,['dot'],['density'],black,0,146,146,146,,,53.500205993652344,53.21833610534668,53.5183470249176,dot,"[0.08, 0.06, 0.08, 0.1, 0.08, 0.1, 0.06, 0.08, 0.08, 0.1, 0.08, 0.08, 0.08, 0.08, 0.06, 0.1, 0.06, 0.06, 0.08, 0.08]","[[0.08506221627506516, 0.5235021426525055], [0.30160931671081037, 0.196774064090263], [0.3130361306357977, -0.45161342097619583], [0.226313783190367, 0.39015631276317564], [0.467617690122628, 0.3217167739141523], [-0.37948676459150854, 0.10626636168084597], [0.06662378196946173, -0.505703442764179], [-0.22925123628092137, 0.489174976652905], [-0.4041404027488592, 0.3064371676745525], [-0.18737590016632188, -0.1549276993868518], [0.5221701108525963, 0.13826416150649512], [0.14312559640457367, -0.2623413625112884], [0.5824271400880908, -0.047373205335634966], [0.4788803399039926, -0.28034996891475605], [-0.5961556215003552, -0.09295782255371085], [0.37185878626472935, 0.016485211549815193], [-0.2728966103323428, -0.4499965231765265], [-0.46480800115032994, -0.3049520329756214], [-0.04479825299241613, 0.13939522903319856], [-0.00172844628083213, -0.07873484689773413]]",density,black,,,D003,visual,1,[],"['1', '2', '3', '4']",1,2023.2.3,harveyvisual,2.1,[],8,0.75,
0,pause,0.4,None,None,None,0,147,147,147,,,,,,,,,,,,,D003,visual,1,[],"['1', '2', '3', '4']",1,2023.2.3,harveyvisual,2.1,[],8,0.75,
20,dot,0.3,['dot'],['density'],white,0,148,148,148,,,54.20020604133606,53.918315172195435,54.218353033065796,dot,"[0.1, 0.06, 0.1, 0.1, 0.08, 0.1, 0.08, 0.08, 0.06, 0.08, 0.06, 0.08, 0.06, 0.08, 0.1, 0.06, 0.06, 0.06, 0.1, 0.1]","[[-0.05055669937522811, -0.4483460326853509], [-0.3529617656619785, -0.006385586471263804], [-0.04304332949134093, -0.14683770757003917], [-0.33996714752991486, -0.30583713315844874], [-0.6000024027025719, 0.019414364964154468], [-0.26180184745361385, 0.42179467498637646], [0.4764338364161841, 0.17268729238137592], [0.4631528348148334, -0.3548872128586655], [-0.37495852736082774, 0.24518504886480397], [0.5642239684614189, -0.12512868249763093], [0.3391953020128642, -0.03670735209090925], [-0.10165874002484743, 0.18001876154339325], [0.1908446190782348, -0.38037698536593156], [0.07340693782300522, 0.2835195302811513], [0.18466572495718925, 0.5054699045746397], [0.45009378357034324, 0.4028526850366742], [0.13952082918804687, -0.022386251579756378], [0.09559624387524313, -0.5775062472765659], [-0.22237341442641367, -0.5311730615253731], [0.00276503078333179, 0.5612737654682767]]",density,white,,,D003,visual,1,[],"['1', '2', '3', '4']",1,2023.2.3,harveyvisual,2.1,[],8,0.75,
0,pause,0.4,None,None,None,0,149,149,149,,,,,,,,,,,1,54.267362117767334,D003,visual,1,[],"['1', '2', '3', '4']",1,2023.2.3,harveyvisual,2.1,[],8,0.75,
20,dot,0.3,['dot'],['density'],black,0,150,150,150,,,54.9002161026001,54.618285179138184,54.918275117874146,dot,"[0.06, 0.1, 0.08, 0.06, 0.08, 0.1, 0.1, 0.1, 0.08, 0.06, 0.08, 0.1, 0.1, 0.1, 0.08, 0.06, 0.08, 0.06, 0.06, 0.06]","[[-0.0324775439353896, -0.22857913100656518], [-0.27312864587713986, -0.4832203222162521], [-0.10863332463662329, 0.1428829379461698], [0.45486091772637594, -0.27250322231236623], [-0.31033380669908656, 0.3390409897563038], [0.11302412903403303, 0.4688348011912159], [-0.5933482621998901, 0.018539147841972622], [0.36013626308968827, 0.31275584209539575], [-0.4887217042567335, -0.272436091326711], [0.12710888548717492, 0.13722347294713844], [-0.05646856582472348, -0.5425866080478037], [0.5855478048161383, -0.052961070069540414], [0.2951362142936781, -0.46620311259237884], [0.2222659951706465, -0.2556208423916118], [0.14217735387799746, -0.5851120257227973], [-0.18488462856793503, -0.03213889588124397], [0.47796873364214265, 0.1395181058124494], [-0.3312659520520473, -0.15706932887601288], [0.16732070766085094, -0.07176616005126324], [-0.4905628324680855, 0.25301650225764905]]",density,black,,,D003,visual,1,[],"['1', '2', '3', '4']",1,2023.2.3,harveyvisual,2.1,[],8,0.75,
0,pause,0.4,None,None,None,0,151,151,151,,,,,,,,,,,,,D003,visual,1,[],"['1', '2', '3', '4']",1,2023.2.3,harveyvisual,2.1,[],8,0.75,
20,dot,0.3,['dot'],['density'],black,0,152,152,152,,,55.6001980304718,55.31831502914429,55.61826705932617,dot,"[0.06, 0.08, 0.08, 0.1, 0.08, 0.06, 0.08, 0.06, 0.1, 0.08, 0.08, 0.06, 0.1, 0.1, 0.08, 0.1, 0.1, 0.08, 0.08, 0.08]","[[-0.5386031849699263, 0.006949790963153901], [-0.03330489901454314, -0.3671356119639375], [-0.48209000533128554, -0.318602482458311], [0.24564732523879185, 0.08959270543117703], [-0.32851740772223603, -0.030877689471780934], [0.4972540031037237, -0.29836846991957144], [-0.11348532904418374, -0.04709656717912869], [-0.2318532779833219, -0.44446737990974405], [-0.0652673644911389, 0.36986973471435625], [0.1982128174277814, 0.4506660200361925], [-0.258221608744701, 0.338540712454799], [0.49188706600216114, 0.14174819715550124], [0.07855556443684042, -0.0919636350129518], [0.30323933433565187, -0.21668980999580267], [-0.21678574047258548, 0.5347196623137418], [-0.06631055105940609, -0.5881279219774707], [0.1655270243503595, -0.39353328726850106], [0.011810224738663666, 0.5784647009427175], [-0.46149855487148905, 0.1991531805457244], [0.5015475223485412, 0.3344239050735534]]",density,black,,,D003,visual,1,[],"['1', '2', '3', '4']",1,2023.2.3,harveyvisual,2.1,[],8,0.75,
0,pause,0.4,None,None,None,0,153,153,153,,,,,,,,,,,,,D003,visual,1,[],"['1', '2', '3', '4']",1,2023.2.3,harveyvisual,2.1,[],8,0.75,
20,dot,0.3,['dot'],['density'],black,0,154,154,154,,,56.3001971244812,56.01829409599304,56.31827902793884,dot,"[0.08, 0.08, 0.08, 0.1, 0.08, 0.08, 0.1, 0.06, 0.08, 0.06, 0.08, 0.06, 0.08, 0.08, 0.1, 0.06, 0.1, 0.06, 0.06, 0.08]","[[0.010667621459269805, 0.15213791055342574], [-0.03537418824245386, -0.2667932159695174], [0.6045466002867729, 0.021087197217637202], [0.38052188249133245, -0.1578479051473391], [-0.19895889851552268, 0.04355619291693369], [-0.45949528701435843, 0.036839645226538875], [-0.3118611397767868, -0.46143431843263716], [0.19660446873474746, -0.30885576438626394], [0.36173688193017817, 0.13812198518436752], [-0.48163340436275826, -0.22043553768697544], [0.12876329711445433, -0.06024343646231389], [0.2805213298233803, 0.47447192284256834], [-0.2278862489655466, 0.3383313945981028], [-0.018474786634021245, -0.5273908387584695], [-0.42373403536875553, 0.34487815364772056], [-0.2743236122701889, -0.25122873599937334], [0.06551426194848387, 0.44387997065908125], [0.49393903652157023, -0.34524402237236396], [-0.16397514808556107, 0.5246737725671924], [0.19961150103863123, 0.2549800499104271]]",density,black,,,D003,visual,1,[],"['1', '2', '3', '4']",1,2023.2.3,harveyvisual,2.1,[],8,0.75,
0,pause,0.4,None,None,None,0,155,155,155,,,,,,,,,,,,,D003,visual,1,[],"['1', '2', '3', '4']",1,2023.2.3,harveyvisual,2.1,[],8,0.75,
9,dot,0.3,['dot'],['density'],white,0,156,156,156,,,57.00020098686218,56.71828103065491,57.018269062042236,dot,"[0.06, 0.1, 0.06, 0.1, 0.1, 0.1, 0.06, 0.1, 0.08]","[[0.005765111513037631, -0.143111035787845], [-0.396275933094447, -0.3321437400526764], [0.037546025436095476, -0.5612590109297682], [-0.23561619682408028, -0.19372599185683617], [-0.24582953746203298, -0.47553838121684505], [-0.07047609790874906, -0.3562711323606942], [-0.09403038697424164, 0.06164574472317626], [0.13577280496850042, -0.3868547356250126], [0.15608206217807025, 0.06264253907795621]]",density,white,,,D003,visual,1,[],"['1', '2', '3', '4']",1,2023.2.3,harveyvisual,2.1,[],8,0.75,
0,pause,0.4,None,None,None,0,157,157,157,,,,,,,,,,,1,57.0456600189209,D003,visual,1,[],"['1', '2', '3', '4']",1,2023.2.3,harveyvisual,2.1,[],8,0.75,
9,dot,0.3,['dot'],['density'],black,0,158,158,158,,,57.70019817352295,57.41826009750366,57.718202114105225,dot,"[0.08, 0.06, 0.06, 0.08, 0.08, 0.1, 0.06, 0.08, 0.1]","[[0.21556792455118703, 0.37642033042102185], [0.14366510572844648, -0.18651452926789283], [0.49642287684820396, -0.0794158383055628], [-0.04770628609247857, -0.12519201939426747], [0.20310136493979325, 0.154094551714378], [-0.004065485174475974, 0.09100382633055243], [-0.018053901421587658, 0.34918523294118026], [0.29624623666919286, -0.053344657000752645], [-0.2018857737562037, 0.01971770186205045]]",density,black,,,D003,visual,1,[],"['1', '2', '3', '4']",1,2023.2.3,harveyvisual,2.1,[],8,0.75,
0,pause,0.4,None,None,None,0,159,159,159,,,,,,,,,,,,,D003,visual,1,[],"['1', '2', '3', '4']",1,2023.2.3,harveyvisual,2.1,[],8,0.75,
9,dot,0.3,['dot'],['density'],black,0,160,160,160,,,58.40021514892578,58.118196964263916,58.418209075927734,dot,"[0.1, 0.08, 0.1, 0.1, 0.08, 0.06, 0.08, 0.08, 0.1]","[[-0.4219467838066047, -0.18114019941065054], [-0.2081543488995217, -0.4860059455967178], [-0.008274735502094755, -0.3457533902190916], [0.02376323820852766, -0.0891001390581758], [-0.4116277839025775, 0.058108040724694845], [-0.18144554169200455, -0.05292133149533743], [0.21944315682242976, -0.26450239569476724], [0.11466821484809545, 0.13327019789913197], [-0.2288148866166432, -0.2599929378926301]]",density,black,,,D003,visual,1,[],"['1', '2', '3', '4']",1,2023.2.3,harveyvisual,2.1,[],8,0.75,
0,pause,0.4,None,None,None,0,161,161,161,,,,,,,,,,,,,D003,visual,1,[],"['1', '2', '3', '4']",1,2023.2.3,harveyvisual,2.1,[],8,0.75,
9,dot,0.3,['dot'],['density'],black,0,162,162,162,,,59.100210189819336,58.81819701194763,59.118218183517456,dot,"[0.06, 0.06, 0.08, 0.1, 0.1, 0.06, 0.1, 0.08, 0.08]","[[-0.06218673389315922, -0.4689115343027075], [0.3660477402554353, -0.15396192139437054], [0.1401329754895462, -0.14262156541192547], [0.12293598154832706, -0.38779640022673934], [0.42645158233284447, -0.3607859009111275], [-0.06238477126329685, -0.2564764349502154], [-0.2584688277182379, -0.29964401945706215], [-0.11312192996032899, -0.05439345917292958], [0.19096873654163896, 0.1321853744035435]]",density,black,,,D003,visual,1,[],"['1', '2', '3', '4']",1,2023.2.3,harveyvisual,2.1,[],8,0.75,
0,pause,0.4,None,None,None,0,163,163,163,,,,,,,,,,,,,D003,visual,1,[],"['1', '2', '3', '4']",1,2023.2.3,harveyvisual,2.1,[],8,0.75,
9,dot,0.3,['dot'],['density'],white,0,164,164,164,,,59.800217151641846,59.51822113990784,59.818204164505005,dot,"[0.08, 0.08, 0.1, 0.1, 0.06, 0.06, 0.06, 0.08, 0.06]","[[0.26246064217380705, -0.20881461689055444], [-0.05738061480455322, -0.2104867327221427], [-0.15279665209492657, -0.4570696492981838], [-0.25848085101471047, 0.03539482855188907], [0.05438928923437074, -0.041842351158073866], [-0.266438460152573, -0.22510974363943476], [-0.08630847597628627, 0.16925380219028288], [0.1378984379274782, 0.16880467564350782], [0.14927440204233722, -0.41110624343475755]]",density,white,,,D003,visual,1,[],"['1', '2', '3', '4']",1,2023.2.3,harveyvisual,2.1,[],8,0.75,
0,pause,0.4,None,None,None,0,165,165,165,,,,,,,,,,,1,59.8420090675354,D003,visual,1,[],"['1', '2', '3', '4']",1,2023.2.3,harveyvisual,2.1,[],8,0.75,
9,dot,0.3,['dot'],['density'],black,0,166,166,166,,,60.500216007232666,60.21812200546265,60.51811599731445,dot,"[0.08, 0.1, 0.08, 0.1, 0.08, 0.1, 0.1, 0.08, 0.08]","[[-0.39546702852536103, 0.05887767166707298], [0.0019437857506851024, 0.07006750722115952], [0.08809400946991845, -0.15083790972035777], [-0.35358057288562594, -0.14123029179452673], [-0.18893042820243505, -0.004761820558363635], [-0.16054322822148615, -0.2701644482013472], [-0.3593088451216199, 0.2649120528395154], [-0.09346394646241396, -0.4621051997984888], [-0.5526246027455071, -0.11781718335669726]]",density,black,,,D003,visual,1,[],"['1', '2', '3', '4']",1,2023.2.3,harveyvisual,2.1,[],8,0.75,
0,pause,0.4,None,None,None,0,167,167,167,,,,,,,,,,,,,D003,visual,1,[],"['1', '2', '3', '4']",1,2023.2.3,harveyvisual,2.1,[],8,0.75,
8,dot,0.3,['dot'],['density'],black,0,168,168,168,,,61.20021200180054,60.91810202598572,61.218098163604736,dot,"[0.08, 0.08, 0.1, 0.06, 0.1, 0.1, 0.06, 0.06]","[[-0.0012777187897950197, 0.3966007492927722], [-0.28447363834021117, 0.3159852715582059], [0.19942587273623266, 0.5530929527666414], [0.21318140018031628, 0.35154814550636243], [0.2022184519229619, 0.1402347591191321], [-0.03399167273692697, 0.18426518172063944], [0.09045107803968953, -0.0428478536761596], [-0.13826990130262626, -0.021750669296841257]]",density,black,,,D003,visual,1,[],"['1', '2', '3', '4']",1,2023.2.3,harveyvisual,2.1,[],8,0.75,
0,pause,0.4,None,None,None,0,169,169,169,,,,,,,,,,,,,D003,visual,1,[],"['1', '2', '3', '4']",1,2023.2.3,harveyvisual,2.1,[],8,0.75,
8,dot,0.3,['dot'],['density'],black,0,170,170,170,,,61.90021514892578,61.618263959884644,61.91826105117798,dot,"[0.1, 0.06, 0.08, 0.1, 0.08, 0.06, 0.08, 0.08]","[[0.17295790489511154, -0.46037743866749825], [0.1416591427765588, 0.05421051799673566], [0.21994266958916148, -0.13656690113679631], [0.3639906379971415, 0.0627265571221228], [0.015481321741344221, -0.13916897583717935], [0.440802488837635, -0.2883976186876931], [0.5157567705321767, -0.08800602901884749], [0.24768837887357187, 0.24424825162618136]]",density,black,,,D003,visual,1,[],"['1', '2', '3', '4']",1,2023.2.3,harveyvisual,2.1,[],8,0.75,
0,pause,0.4,None,None,None,0,171,171,171,,,,,,,,,,,,,D003,visual,1,[],"['1', '2', '3', '4']",1,2023.2.3,harveyvisual,2.1,[],8,0.75,
8,dot,0.3,['dot'],['density'],black,0,172,172,172,,,62.60022306442261,62.31818413734436,62.61811900138855,dot,"[0.08, 0.06, 0.06, 0.08, 0.1, 0.1, 0.06, 0.1]","[[-0.4462313073918426, 0.10595449025715867], [0.022923871415176152, 0.06290918987699953], [-0.12461589820496316, 0.4830175517012745], [-0.29730306390741434, 0.2752084497958106], [-0.2195410516364439, 0.056871795648565045], [0.008916049516666445, 0.2907399105306955], [-0.08256048209355603, -0.11638226771844133], [-0.4106304257826301, -0.09222594144079917]]",density,black,,,D003,visual,1,[],"['1', '2', '3', '4']",1,2023.2.3,harveyvisual,2.1,[],8,0.75,
0,pause,0.4,None,None,None,0,173,173,173,,,,,,,,,,,,,D003,visual,1,[],"['1', '2', '3', '4']",1,2023.2.3,harveyvisual,2.1,[],8,0.75,
8,dot,0.3,['dot'],['density'],black,0,174,174,174,,,63.30020213127136,63.018059968948364,63.3181049823761,dot,"[0.1, 0.08, 0.08, 0.1, 0.1, 0.08, 0.06, 0.08]","[[-0.24177141476747963, 0.37227001522147646], [0.022885153928237218, 0.26973630011126315], [-0.028424808126663318, 0.474031493095366], [-0.14677856605916886, 0.1510981622513803], [-0.33541894344674456, 0.07730913931898181], [0.10840621230513336, 0.04997884008138209], [0.30094222783758756, 0.17024461371702543], [-0.056701880949321645, -0.08542646800774611]]",density,black,,,D003,visual,1,[],"['1', '2', '3', '4']",1,2023.2.3,harveyvisual,2.1,[],8,0.75,
0,pause,0.4,None,None,None,0,175,175,175,,,,,,,,,,,,,D003,visual,1,[],"['1', '2', '3', '4']",1,2023.2.3,harveyvisual,2.1,[],8,0.75,
8,dot,0.3,['dot'],['density'],black,0,176,176,176,,,64.00021696090698,63.71812200546265,64.01809310913086,dot,"[0.08, 0.06, 0.06, 0.06, 0.08, 0.08, 0.08, 0.1]","[[0.1740819983727909, -0.16863019829442621], [0.14644114519141543, -0.4524198896657212], [0.0024885361438939093, 0.023531574910491997], [-0.23717340943857948, -0.31112918658627675], [-0.11311749148073028, -0.46867866316561874], [-0.17928248077090506, -0.060241557052319365], [-0.03957999532622772, -0.24759906754331504], [-0.4644327601918011, -0.3627803331480915]]",density,black,,,D003,visual,1,[],"['1', '2', '3', '4']",1,2023.2.3,harveyvisual,2.1,[],8,0.75,
0,pause,0.4,None,None,None,0,177,177,177,,,,,,,,,,,,,D003,visual,1,[],"['1', '2', '3', '4']",1,2023.2.3,harveyvisual,2.1,[],8,0.75,
8,dot,0.3,['dot'],['density'],black,0,178,178,178,,,64.70020699501038,64.41807818412781,64.71806406974792,dot,"[0.1, 0.1, 0.08, 0.1, 0.06, 0.08, 0.06, 0.06]","[[-0.4639556696772753, 0.10472599959088454], [-0.22970357876872852, 0.24758381400794424], [-0.060094057158436125, -0.14613975383200573], [-0.022569829209962654, 0.2677975872319761], [-0.3077859326170116, -0.10488986274105515], [-0.16040535020917, 0.031608708128470005], [-0.5175577931920246, -0.20517812764611504], [0.1194024413118107, 0.007837779916585986]]",density,black,,,D003,visual,1,[],"['1', '2', '3', '4']",1,2023.2.3,harveyvisual,2.1,[],8,0.75,
0,pause,0.4,None,None,None,0,179,179,179,,,,,,,,,,,,,D003,visual,1,[],"['1', '2', '3', '4']",1,2023.2.3,harveyvisual,2.1,[],8,0.75,
7,dot,0.3,['dot'],['density'],black,0,180,180,180,,,65.40021395683289,65.11801815032959,65.41827511787415,dot,"[0.08, 0.06, 0.1, 0.1, 0.08, 0.08, 0.06]","[[0.3899189512010899, -0.40728696153528776], [0.20392863561369634, -0.3305625840210526], [0.31626985815109576, 0.13567824844623666], [0.5017338684339655, -0.028549680114735937], [0.11648855723187378, -0.1078833072829627], [0.07041138378868489, 0.08730219371944997], [0.32910598476010167, -0.13660711058181768]]",density,black,,,D003,visual,1,[],"['1', '2', '3', '4']",1,2023.2.3,harveyvisual,2.1,[],8,0.75,
0,pause,0.4,None,None,None,0,181,181,181,,,,,,,,,,,,,D003,visual,1,[],"['1', '2', '3', '4']",1,2023.2.3,harveyvisual,2.1,[],8,0.75,
7,dot,0.3,['dot'],['density'],black,0,182,182,182,,,66.10019707679749,65.81804299354553,66.11804008483887,dot,"[0.06, 0.08, 0.06, 0.08, 0.06, 0.1, 0.1]","[[-0.2822174821233986, 0.002117056236134186], [-0.10673242512413421, 0.4781556216085482], [-0.18432519539246728, 0.19072201575640843], [-0.4524596318479574, 0.13966285650530724], [0.06907010423411483, 0.2912708813513049], [-0.07412436007020941, -0.021022205933558278], [-0.3208835015251209, 0.3986768431743725]]",density,black,,,D003,visual,1,[],"['1', '2', '3', '4']",1,2023.2.3,harveyvisual,2.1,[],8,0.75,
0,pause,0.4,None,None,None,0,183,183,183,,,,,,,,,,,,,D003,visual,1,[],"['1', '2', '3', '4']",1,2023.2.3,harveyvisual,2.1,[],8,0.75,
7,dot,0.3,['dot'],['density'],black,0,184,184,184,,,66.80019903182983,66.51802802085876,66.8180251121521,dot,"[0.08, 0.1, 0.08, 0.06, 0.1, 0.06, 0.1]","[[0.3474653327129969, -0.31878285251617694], [0.04167069501601444, -0.04495125607964222], [-0.05005146056072613, -0.501422524998621], [-0.11295401278341419, -0.30095052262615135], [0.08710344590613708, -0.2932726077696002], [0.25592372840254046, -0.13825923460737455], [-0.15770825932276006, -0.07757053521742455]]",density,black,,,D003,visual,1,[],"['1', '2', '3', '4']",1,2023.2.3,harveyvisual,2.1,[],8,0.75,
0,pause,0.4,None,None,None,0,185,185,185,,,,,,,,,,,,,D003,visual,1,[],"['1', '2', '3', '4']",1,2023.2.3,harveyvisual,2.1,[],8,0.75,
7,dot,0.3,['dot'],['density'],black,0,186,186,186,,,67.50021600723267,67.2180061340332,67.51800012588501,dot,"[0.06, 0.1, 0.08, 0.1, 0.06, 0.08, 0.08]","[[0.43636558899465056, -0.019888822856555858], [0.3422654810486562, -0.28596623187093184], [0.19265053263460555, -0.4439876245838232], [0.13726272111749335, -0.2453614523272762], [0.002381890354708078, -0.04768315945896726], [0.5336827108411983, -0.21507725682246784], [0.22437755209563529, -0.002563521851875305]]",density,black,,,D003,visual,1,[],"['1', '2', '3', '4']",1,2023.2.3,harveyvisual,2.1,[],8,0.75,
0,pause,0.4,None,None,None,0,187,187,187,,,,,,,,,,,,,D003,visual,1,[],"['1', '2', '3', '4']",1,2023.2.3,harveyvisual,2.1,[],8,0.75,
7,dot,0.3,['dot'],['density'],black,0,188,188,188,,,68.20020318031311,67.91799116134644,68.21797800064087,dot,"[0.06, 0.06, 0.06, 0.06, 0.06, 0.1, 0.08]","[[-0.2877807563129739, -0.2392998172879968], [-0.4930284393840153, 0.02918626900802282], [-0.13307942101536208, -0.4135874564509098], [-0.1727922191076213, -0.04289663127052677], [-0.3943840059764042, -0.4351600913800347], [-0.03321109949484203, -0.21096883087625085], [-0.5418728138863746, -0.1990057631286019]]",density,black,,,D003,visual,1,[],"['1', '2', '3', '4']",1,2023.2.3,harveyvisual,2.1,[],8,0.75,
0,pause,0.4,None,None,None,0,189,189,189,,,,,,,,,,,,,D003,visual,1,[],"['1', '2', '3', '4']",1,2023.2.3,harveyvisual,2.1,[],8,0.75,
7,dot,0.3,['dot'],['density'],black,0,190,190,190,,,68.90020108222961,68.61799716949463,68.91795301437378,dot,"[0.08, 0.08, 0.06, 0.08, 0.06, 0.1, 0.08]","[[-0.23867826801906328, -0.4967507610264224], [-0.008572732368673055, -0.07934474412745643], [-0.2066881937132076, -0.2790710878612567], [0.21709551483580575, -0.47507177834902015], [0.2058411173229685, -0.17553172422760346], [-0.015438952742397984, -0.3568653319460787], [-0.011603255668745115, -0.5749057065343526]]",density,black,,,D003,visual,1,[],"['1', '2', '3', '4']",1,2023.2.3,harveyvisual,2.1,[],8,0.75,
0,pause,0.4,None,None,None,0,191,191,191,,,,,,,,,,,,,D003,visual,1,[],"['1', '2', '3', '4']",1,2023.2.3,harveyvisual,2.1,[],8,0.75,
6,dot,0.3,['dot'],['density'],black,0,192,192,192,,,69.60021018981934,69.31805896759033,69.61793398857117,dot,"[0.1, 0.1, 0.08, 0.1, 0.1, 0.08]","[[0.23625405956766557, 0.3892633732772463], [0.11760889656980711, -0.0038201085241890706], [0.42882153754783053, 0.07157264481568941], [0.22360409458703237, 0.16865996735680294], [-0.08582952339030024, 0.051003002567710905], [-0.0010028139275050567, 0.23222523166366787]]",density,black,,,D003,visual,1,[],"['1', '2', '3', '4']",1,2023.2.3,harveyvisual,2.1,[],8,0.75,
0,pause,0.4,None,None,None,0,193,193,193,,,,,,,,,,,,,D003,visual,1,[],"['1', '2', '3', '4']",1,2023.2.3,harveyvisual,2.1,[],8,0.75,
6,dot,0.3,['dot'],['density'],black,0,194,194,194,,,70.30020713806152,70.017893075943,70.31787514686584,dot,"[0.08, 0.06, 0.06, 0.06, 0.06, 0.06]","[[0.3299424372810393, 0.4114780133894161], [0.051944887288218326, -0.03233758374135307], [0.4337222981537534, -0.07578498258626121], [0.10477943773033714, 0.1703675017914044], [0.3400878522727408, 0.20016066552806494], [0.2510029109880425, 0.01747244452819591]]",density,black,,,D003,visual,1,[],"['1', '2', '3', '4']",1,2023.2.3,harveyvisual,2.1,[],8,0.75,
0,pause,0.4,None,None,None,0,195,195,195,,,,,,,,,,,,,D003,visual,1,[],"['1', '2', '3', '4']",1,2023.2.3,harveyvisual,2.1,[],8,0.75,
6,dot,0.3,['dot'],['density'],black,0,196,196,196,,,71.00020217895508,70.71785807609558,71.01784610748291,dot,"[0.08, 0.08, 0.08, 0.08, 0.06, 0.08]","[[-0.4718675517483807, -0.080313523620691], [-0.31247550484642445, -0.23218356379105512], [-0.2575593735283343, 0.24158811959194182], [-0.2948669609652105, 0.017652028830845004], [-0.0883702388727292, 0.027494606567874856], [-0.45154527444290743, 0.17691331155056722]]",density,black,,,D003,visual,1,[],"['1', '2', '3', '4']",1,2023.2.3,harveyvisual,2.1,[],8,0.75,
0,pause,0.4,None,None,None,0,197,197,197,,,,,,,,,,,,,D003,visual,1,[],"['1', '2', '3', '4']",1,2023.2.3,harveyvisual,2.1,[],8,0.75,
6,dot,0.3,['dot'],['density'],black,0,198,198,198,,,71.70021200180054,71.41791701316833,71.71786713600159,dot,"[0.08, 0.08, 0.06, 0.06, 0.06, 0.1]","[[-0.3622751979984162, 0.41275935807220604], [-0.5464806003183257, 0.06358334875023645], [-0.15518785678585886, 0.34969079698534317], [-0.3231370338359737, -0.02193421190541931], [-0.3473470749510941, 0.19885557425221048], [-0.12382976466594668, 0.04156566071734393]]",density,black,,,D003,visual,1,[],"['1', '2', '3', '4']",1,2023.2.3,harveyvisual,2.1,[],8,0.75,
0,pause,0.4,None,None,None,0,199,199,199,,,,,,,,,,,,,D003,visual,1,[],"['1', '2', '3', '4']",1,2023.2.3,harveyvisual,2.1,[],8,0.75,
6,dot,0.3,['dot'],['density'],black,0,200,200,200,,,72.40019798278809,72.11786413192749,72.41788601875305,dot,"[0.08, 0.1, 0.06, 0.1, 0.1, 0.08]","[[0.01776890784276672, 0.3448500499300058], [-0.18238616215991446, 0.4840889924469993], [-0.2129582374372363, 0.07157874559070018], [-0.41549008775918617, 0.14353268657608398], [0.019487844458329944, 0.1389587799501653], [-0.21004805074000235, 0.2837936954907191]]",density,black,,,D003,visual,1,[],"['1', '2', '3', '4']",1,2023.2.3,harveyvisual,2.1,[],8,0.75,
0,pause,0.4,None,None,None,0,201,201,201,,,,,,,,,,,,,D003,visual,1,[],"['1', '2', '3', '4']",1,2023.2.3,harveyvisual,2.1,[],8,0.75,
6,dot,0.3,['dot'],['density'],white,0,202,202,202,,,73.10021615028381,72.81786012649536,73.1178081035614,dot,"[0.06, 0.06, 0.06, 0.08, 0.08, 0.1]","[[0.2333794889108542, 0.5108688068097712], [0.17720399199515413, 0.06488002481085814], [0.3526024925964592, 0.16961020277143707], [0.1596713132306006, 0.321837067503818], [0.0007438407140586783, 0.18344495120876914], [0.42757463853404776, 0.37786691715169374]]",density,white,,,D003,visual,1,[],"['1', '2', '3', '4']",1,2023.2.3,harveyvisual,2.1,[],8,0.75,
0,pause,0.4,None,None,None,0,203,203,203,,,,,,,,,,,1,73.11865615844727,D003,visual,1,[],"['1', '2', '3', '4']",1,2023.2.3,harveyvisual,2.1,[],8,0.75,
5,dot,0.3,['dot'],['density'],black,0,204,204,204,,,73.80020213127136,73.51795196533203,73.8178141117096,dot,"[0.06, 0.08, 0.1, 0.08, 0.1]","[[-0.3632963637400461, -0.33792544526642676], [-0.48189922448633543, -0.036156829306921726], [-0.2958020468624338, 0.07292024124872273], [-0.10639492237515816, -0.0008972940205680791], [-0.20818262001932955, -0.17666930306052683]]",density,black,,,D003,visual,1,[],"['1', '2', '3', '4']",1,2023.2.3,harveyvisual,2.1,[],8,0.75,
0,pause,0.4,None,None,None,0,205,205,205,,,,,,,,,,,,,D003,visual,1,[],"['1', '2', '3', '4']",1,2023.2.3,harveyvisual,2.1,[],8,0.75,
5,dot,0.3,['dot'],['density'],black,0,206,206,206,,,74.50022101402283,74.21777105331421,74.51780915260315,dot,"[0.08, 0.08, 0.1, 0.08, 0.1]","[[-0.18510638544872327, 0.41559840932892733], [-0.057175862535637494, 0.18304904272057057], [0.24003340414173915, 0.43371676657957026], [0.006490958465160464, 0.4770521622163581], [0.13658455045585424, 0.2476502540597336]]",density,black,,,D003,visual,1,[],"['1', '2', '3', '4']",1,2023.2.3,harveyvisual,2.1,[],8,0.75,
0,pause,0.4,None,None,None,0,207,207,207,,,,,,,,,,,,,D003,visual,1,[],"['1', '2', '3', '4']",1,2023.2.3,harveyvisual,2.1,[],8,0.75,
5,dot,0.3,['dot'],['density'],black,0,208,208,208,,,75.2002260684967,74.91773915290833,75.21772813796997,dot,"[0.08, 0.08, 0.1, 0.06, 0.06]","[[0.10176071415026891, -0.0029310292721688898], [0.32748853803000494, -0.2831003617774451], [0.10999898603900501, -0.23076615641811304], [0.2383494361888625, 0.16403485824849598], [0.3558293804179042, -0.08171974316418079]]",density,black,,,D003,visual,1,[],"['1', '2', '3', '4']",1,2023.2.3,harveyvisual,2.1,[],8,0.75,
0,pause,0.4,None,None,None,0,209,209,209,,,,,,,,,,,,,D003,visual,1,[],"['1', '2', '3', '4']",1,2023.2.3,harveyvisual,2.1,[],8,0.75,
5,dot,0.3,['dot'],['density'],black,0,210,210,210,,,75.90020298957825,75.61774206161499,75.91774606704712,dot,"[0.1, 0.1, 0.08, 0.06, 0.1]","[[-0.24811222937808852, -0.0926462173418487], [-0.0684102839715827, 0.053707960252323945], [-0.4199359189551936, 0.028595247832400618], [-0.4311232183625476, -0.17348815390478414], [-0.08153496032007611, -0.23043043025001772]]",density,black,,,D003,visual,1,[],"['1', '2', '3', '4']",1,2023.2.3,harveyvisual,2.1,[],8,0.75,
0,pause,0.4,None,None,None,0,211,211,211,,,,,,,,,,,,,D003,visual,1,[],"['1', '2', '3', '4']",1,2023.2.3,harveyvisual,2.1,[],8,0.75,
5,dot,0.3,['dot'],['density'],black,0,212,212,212,,,76.60020518302917,76.31795597076416,76.61794400215149,dot,"[0.06, 0.06, 0.1, 0.06, 0.06]","[[-0.24811222937808852, -0.0926462173418487], [-0.0684102839715827, 0.053707960252323945], [-0.4199359189551936, 0.028595247832400618], [-0.4311232183625476, -0.17348815390478414], [-0.08153496032007611, -0.23043043025001772]]",density,black,,,D003,visual,1,[],"['1', '2', '3', '4']",1,2023.2.3,harveyvisual,2.1,[],8,0.75,
0,pause,0.4,None,None,None,0,213,213,213,,,,,,,,,,,,,D003,visual,1,[],"['1', '2', '3', '4']",1,2023.2.3,harveyvisual,2.1,[],8,0.75,
5,dot,0.3,['dot'],['density'],black,0,214,214,214,,,77.30019998550415,77.0179660320282,77.31772017478943,dot,"[0.1, 0.06, 0.06, 0.06, 0.1]","[[-0.13667773294397823, -0.4810836359727921], [0.22435054442879343, -0.38211739689247126], [0.18745946747878278, -0.17039478388844306], [0.024239655080151325, -0.29759851870815907], [0.08919077751561523, -0.5300131723353856]]",density,black,,,D003,visual,1,[],"['1', '2', '3', '4']",1,2023.2.3,harveyvisual,2.1,[],8,0.75,
0,pause,0.4,None,None,None,0,215,215,215,,,,,,,,,,,,,D003,visual,1,[],"['1', '2', '3', '4']",1,2023.2.3,harveyvisual,2.1,[],8,0.75,
4,dot,0.3,['dot'],['density'],black,0,216,216,216,,,78.00022411346436,77.71770596504211,78.01766014099121,dot,"[0.06, 0.1, 0.08, 0.08]","[[-0.22711054503220823, -0.5144049053218714], [-0.016307770745122817, -0.5558659767831347], [-0.26432457165568224, -0.2824025039497699], [-0.026303944553407815, -0.34464361634901186]]",density,black,,,D003,visual,1,[],"['1', '2', '3', '4']",1,2023.2.3,harveyvisual,2.1,[],8,0.75,
0,pause,0.4,None,None,None,0,217,217,217,,,,,,,,,,,,,D003,visual,1,[],"['1', '2', '3', '4']",1,2023.2.3,harveyvisual,2.1,[],8,0.75,
4,dot,0.3,['dot'],['density'],black,0,218,218,218,,,78.7002170085907,78.41765213012695,78.71768808364868,dot,"[0.08, 0.1, 0.08, 0.06]","[[0.3510671072586959, 0.39105757673094776], [0.13754249634966464, 0.24690230999823115], [0.2791454519284172, 0.028997379515453933], [0.42442503262497266, 0.18132357243737673]]",density,black,,,D003,visual,1,[],"['1', '2', '3', '4']",1,2023.2.3,harveyvisual,2.1,[],8,0.75,
0,pause,0.4,None,None,None,0,219,219,219,,,,,,,,,,,,,D003,visual,1,[],"['1', '2', '3', '4']",1,2023.2.3,harveyvisual,2.1,[],8,0.75,
4,dot,0.3,['dot'],['density'],black,0,220,220,220,,,79.40022611618042,79.11766600608826,79.41763210296631,dot,"[0.1, 0.1, 0.06, 0.1]","[[0.010836700166572746, 0.3385055392368038], [-0.21755291078517647, 0.23172276430217797], [0.04881011250022837, 0.13413393103699342], [-0.16894730197854985, 0.4434327172909165]]",density,black,,,D003,visual,1,[],"['1', '2', '3', '4']",1,2023.2.3,harveyvisual,2.1,[],8,0.75,
0,pause,0.4,None,None,None,0,221,221,221,,,,,,,,,,,,,D003,visual,1,[],"['1', '2', '3', '4']",1,2023.2.3,harveyvisual,2.1,[],8,0.75,
4,dot,0.3,['dot'],['density'],white,0,222,222,222,,,80.10020017623901,79.8176519870758,80.11765003204346,dot,"[0.06, 0.08, 0.08, 0.06]","[[-0.4918595852306691, 0.19162898845839058], [-0.30188041745692074, 0.10218906117132437], [-0.3018224646415858, -0.14357118929282034], [-0.4853871342809682, -0.061736688026617866]]",density,white,,,D003,visual,1,[],"['1', '2', '3', '4']",1,2023.2.3,harveyvisual,2.1,[],8,0.75,
0,pause,0.4,None,None,None,0,223,223,223,,,,,,,,,,,1,80.10046005249023,D003,visual,1,[],"['1', '2', '3', '4']",1,2023.2.3,harveyvisual,2.1,[],8,0.75,
4,dot,0.3,['dot'],['density'],black,0,224,224,224,,,80.80021405220032,80.51781916618347,80.81761908531189,dot,"[0.1, 0.08, 0.1, 0.08]","[[0.012521055699324385, 0.11356654047594222], [0.23234191260135498, 0.08597184236642744], [-0.1711309036876675, 0.020891973622313913], [0.11376048882462075, -0.09104804463782627]]",density,black,,,D003,visual,1,[],"['1', '2', '3', '4']",1,2023.2.3,harveyvisual,2.1,[],8,0.75,
0,pause,0.4,None,None,None,0,225,225,225,,,,,,,,,,,,,D003,visual,1,[],"['1', '2', '3', '4']",1,2023.2.3,harveyvisual,2.1,[],8,0.75,
4,dot,0.3,['dot'],['density'],black,0,226,226,226,,,81.50021505355835,81.2176411151886,81.51761507987976,dot,"[0.08, 0.06, 0.08, 0.1]","[[-0.47693618450386616, -0.1525114564248906], [-0.12413069550496705, 0.03327587270375396], [-0.32964510574757994, -0.012304557788591533], [-0.22851041427491325, -0.22018408257550984]]",density,black,,,D003,visual,1,[],"['1', '2', '3', '4']",1,2023.2.3,harveyvisual,2.1,[],8,0.75,
0,pause,0.4,None,None,None,0,227,227,227,,,,,,,,,,,,,D003,visual,1,[],"['1', '2', '3', '4']",1,2023.2.3,harveyvisual,2.1,[],8,0.75,
3,dot,0.3,['dot'],['density'],white,0,228,228,228,,,82.20021796226501,81.91757702827454,82.21757102012634,dot,"[0.06, 0.1, 0.08]","[[-0.04083818552357515, -0.522177599776496], [0.2241586230204485, -0.5188142294055383], [0.09506152973916207, -0.364648334381489]]",density,white,,,D003,visual,1,[],"['1', '2', '3', '4']",1,2023.2.3,harveyvisual,2.1,[],8,0.75,
0,pause,0.4,None,None,None,0,229,229,229,,,,,,,,,,,1,82.26971220970154,D003,visual,1,[],"['1', '2', '3', '4']",1,2023.2.3,harveyvisual,2.1,[],8,0.75,
3,dot,0.3,['dot'],['density'],black,0,230,230,230,,,82.90020108222961,82.61755013465881,82.91753005981445,dot,"[0.08, 0.08, 0.08]","[[-0.5081709494874314, 0.1572673197774781], [-0.37009835501087307, 0.006965763417246156], [-0.5707172634768017, -0.07177594851347295]]",density,black,,,D003,visual,1,[],"['1', '2', '3', '4']",1,2023.2.3,harveyvisual,2.1,[],8,0.75,
0,pause,0.4,None,None,None,0,231,231,231,,,,,,,,,,,,,D003,visual,1,[],"['1', '2', '3', '4']",1,2023.2.3,harveyvisual,2.1,[],8,0.75,
3,dot,0.3,['dot'],['density'],black,0,232,232,232,,,83.60020112991333,83.31753301620483,83.61751818656921,dot,"[0.1, 0.08, 0.1]","[[-0.15188894406744968, -0.195193050272512], [6.772800145782267e-05, -0.040844811103836635], [-0.2045693439875358, 0.0038115475482788236]]",density,black,,,D003,visual,1,[],"['1', '2', '3', '4']",1,2023.2.3,harveyvisual,2.1,[],8,0.75,
0,pause,0.4,None,None,None,0,233,233,233,,,,,,,,,,,,,D003,visual,1,[],"['1', '2', '3', '4']",1,2023.2.3,harveyvisual,2.1,[],8,0.75,
3,dot,0.3,['dot'],['density'],black,0,234,234,234,,,84.30020904541016,84.01751518249512,84.31750011444092,dot,"[0.06, 0.06, 0.1]","[[-0.1599523582230929, -0.020289166781496174], [-0.3458010015304564, -0.14250622038001895], [-0.3538668896253721, 0.08903610231223419]]",density,black,,,D003,visual,1,[],"['1', '2', '3', '4']",1,2023.2.3,harveyvisual,2.1,[],8,0.75,
0,pause,0.4,None,None,None,0,235,235,235,,,,,,,,,,,,,D003,visual,1,[],"['1', '2', '3', '4']",1,2023.2.3,harveyvisual,2.1,[],8,0.75,
3,dot,0.3,['dot'],['density'],black,0,236,236,236,,,85.00022315979004,84.7175030708313,85.0174810886383,dot,"[0.1, 0.06, 0.08]","[[0.1555504186016049, 0.15532406847092056], [-0.0680535881648269, 0.26220909641571793], [0.08533315121688807, 0.39122308779032533]]",density,black,,,D003,visual,1,[],"['1', '2', '3', '4']",1,2023.2.3,harveyvisual,2.1,[],8,0.75,
0,pause,0.4,None,None,None,0,237,237,237,,,,,,,,,,,,,D003,visual,1,[],"['1', '2', '3', '4']",1,2023.2.3,harveyvisual,2.1,[],8,0.75,
3,dot,0.3,['dot'],['density'],black,0,238,238,238,,,85.70022416114807,85.41748404502869,85.71746706962585,dot,"[0.1, 0.08, 0.1]","[[-0.3391924794566746, 0.43027756448319565], [-0.33080415183405026, 0.2112686575961512], [-0.14277619127331137, 0.29962579604826906]]",density,black,,,D003,visual,1,[],"['1', '2', '3', '4']",1,2023.2.3,harveyvisual,2.1,[],8,0.75,
0,pause,0.4,None,None,None,0,239,239,239,,,,,,,,,,,,,D003,visual,1,[],"['1', '2', '3', '4']",1,2023.2.3,harveyvisual,2.1,[],8,0.75,
2,dot,0.3,['dot'],['density'],black,0,240,240,240,,,86.40022110939026,86.11746406555176,86.4174530506134,dot,"[0.1, 0.06]","[[0.5590929928249944, 0.05901985638302875], [0.5065513741473344, -0.13409141480534237]]",density,black,,,D003,visual,1,[],"['1', '2', '3', '4']",1,2023.2.3,harveyvisual,2.1,[],8,0.75,
0,pause,0.4,None,None,None,0,241,241,241,,,,,,,,,,,,,D003,visual,1,[],"['1', '2', '3', '4']",1,2023.2.3,harveyvisual,2.1,[],8,0.75,
2,dot,0.3,['dot'],['density'],white,0,242,242,242,,,87.10021495819092,86.81747508049011,87.11745309829712,dot,"[0.06, 0.06]","[[-0.22226122312079244, -0.00806926593831646], [-0.023245446524914906, -0.037240983575548024]]",density,white,,,D003,visual,1,[],"['1', '2', '3', '4']",1,2023.2.3,harveyvisual,2.1,[],8,0.75,
0,pause,0.4,None,None,None,0,243,243,243,,,,,,,,,,,1,87.12335515022278,D003,visual,1,[],"['1', '2', '3', '4']",1,2023.2.3,harveyvisual,2.1,[],8,0.75,
2,dot,0.3,['dot'],['density'],black,0,244,244,244,,,87.800222158432,87.5174400806427,87.8185510635376,dot,"[0.06, 0.06]","[[0.1734117655345296, 0.46860731914486053], [-0.01847566562869785, 0.52581935004857]]",density,black,,,D003,visual,1,[],"['1', '2', '3', '4']",1,2023.2.3,harveyvisual,2.1,[],8,0.75,
0,pause,0.4,None,None,None,0,245,245,245,,,,,,,,,,,,,D003,visual,1,[],"['1', '2', '3', '4']",1,2023.2.3,harveyvisual,2.1,[],8,0.75,
2,dot,0.3,['dot'],['density'],black,0,246,246,246,,,88.50021815299988,88.21758317947388,88.51756405830383,dot,"[0.06, 0.06]","[[-0.020654750029313704, 0.3891656546739414], [-0.0007759068931318763, 0.19000611836641118]]",density,black,,,D003,visual,1,[],"['1', '2', '3', '4']",1,2023.2.3,harveyvisual,2.1,[],8,0.75,
0,pause,0.4,None,None,None,0,247,247,247,,,,,,,,,,,,,D003,visual,1,[],"['1', '2', '3', '4']",1,2023.2.3,harveyvisual,2.1,[],8,0.75,
2,dot,0.3,['dot'],['density'],white,0,248,248,248,,,89.20022201538086,88.91741514205933,89.21742105484009,dot,"[0.06, 0.08]","[[-0.15001882639889116, 0.48719053997247297], [-0.1736568080125972, 0.28835755901726084]]",density,white,,,D003,visual,1,[],"['1', '2', '3', '4']",1,2023.2.3,harveyvisual,2.1,[],8,0.75,
0,pause,0.4,None,None,None,0,249,249,249,,,,,,,,,,,1,89.52058815956116,D003,visual,1,[],"['1', '2', '3', '4']",1,2023.2.3,harveyvisual,2.1,[],8,0.75,
2,dot,0.3,['dot'],['density'],black,0,250,250,250,,,89.90022897720337,89.61739897727966,89.91735410690308,dot,"[0.06, 0.06]","[[0.075840462383643, -0.21806900392302264], [0.2761252679018853, -0.22101292055433702]]",density,black,,,D003,visual,1,[],"['1', '2', '3', '4']",1,2023.2.3,harveyvisual,2.1,[],8,0.75,
0,pause,0.4,None,None,None,0,251,251,251,,,,,,,,,,,,,D003,visual,1,[],"['1', '2', '3', '4']",1,2023.2.3,harveyvisual,2.1,[],8,0.75,
1,dot,0.3,['dot'],['density'],black,0,252,252,252,,,90.60021495819092,90.31735110282898,90.61734414100647,dot,[0.1],"[0.0956549371127339, 0.09579573331985794]",density,black,,,D003,visual,1,[],"['1', '2', '3', '4']",1,2023.2.3,harveyvisual,2.1,[],8,0.75,
0,pause,0.4,None,None,None,0,253,253,253,,,,,,,,,,,,,D003,visual,1,[],"['1', '2', '3', '4']",1,2023.2.3,harveyvisual,2.1,[],8,0.75,
1,dot,0.3,['dot'],['density'],white,0,254,254,254,,,91.30021119117737,91.01733016967773,91.31732416152954,dot,[0.1],"[0.1600937909388646, -0.5041032805904762]",density,white,,,D003,visual,1,[],"['1', '2', '3', '4']",1,2023.2.3,harveyvisual,2.1,[],8,0.75,
0,pause,0.4,None,None,None,0,255,255,255,,,,,,,,,,,1,91.33183908462524,D003,visual,1,[],"['1', '2', '3', '4']",1,2023.2.3,harveyvisual,2.1,[],8,0.75,
1,dot,0.3,['dot'],['density'],black,0,256,256,256,,,92.00020718574524,91.71733117103577,92.01730918884277,dot,[0.06],"[0.4230572171255965, 0.15564154118015242]",density,black,,,D003,visual,1,[],"['1', '2', '3', '4']",1,2023.2.3,harveyvisual,2.1,[],8,0.75,
0,pause,0.4,None,None,None,0,257,257,257,,,,,,,,,,,,,D003,visual,1,[],"['1', '2', '3', '4']",1,2023.2.3,harveyvisual,2.1,[],8,0.75,
1,dot,0.3,['dot'],['density'],black,0,258,258,258,,,92.70021104812622,92.41730904579163,92.7173080444336,dot,[0.06],"[-0.0300711363278092, -0.16168860719337894]",density,black,,,D003,visual,1,[],"['1', '2', '3', '4']",1,2023.2.3,harveyvisual,2.1,[],8,0.75,
0,pause,0.4,None,None,None,0,259,259,259,,,,,,,,,,,,,D003,visual,1,[],"['1', '2', '3', '4']",1,2023.2.3,harveyvisual,2.1,[],8,0.75,
1,dot,0.3,['dot'],['density'],black,0,260,260,260,,,93.40022897720337,93.11735510826111,93.41727900505066,dot,[0.06],"[0.19623115665255414, 0.1676894875529279]",density,black,,,D003,visual,1,[],"['1', '2', '3', '4']",1,2023.2.3,harveyvisual,2.1,[],8,0.75,
0,pause,0.4,None,None,None,0,261,261,261,,,,,,,,,,,,,D003,visual,1,[],"['1', '2', '3', '4']",1,2023.2.3,harveyvisual,2.1,[],8,0.75,
1,dot,0.3,['dot'],['density'],black,0,262,262,262,,,94.1002299785614,93.81727814674377,94.11725997924805,dot,[0.08],"[-0.22356924330877379, 0.41145231278245986]",density,black,,,D003,visual,1,[],"['1', '2', '3', '4']",1,2023.2.3,harveyvisual,2.1,[],8,0.75,
0,pause,0.4,None,None,None,0,263,263,263,,,,,,,,,,,,,D003,visual,1,[],"['1', '2', '3', '4']",1,2023.2.3,harveyvisual,2.1,[],8,0.75,
20,dot,0.3,['dot'],['density'],black,0,264,264,264,,,94.80020213127136,94.51723408699036,94.81723308563232,dot,"[0.1, 0.1, 0.08, 0.1, 0.08, 0.1, 0.08, 0.08, 0.06, 0.06, 0.08, 0.08, 0.06, 0.08, 0.06, 0.1, 0.06, 0.08, 0.08, 0.1]","[[-0.12386618933313276, 0.26987615281623], [0.526861644239088, -0.04784355583833627], [0.10752502448924539, 0.5798478824940609], [0.10047061262664314, 0.20720284825967916], [-0.5618866325437261, -0.22327181878261113], [-0.33049020253131456, -0.2901544342662201], [0.1546830854284802, -0.5348107097936531], [-0.26149785900262706, 0.4532093992641769], [0.3137905192175432, -0.1952000621256732], [-0.05117824007526195, -0.13676381383583636], [-0.529046778627208, 0.20646787888107576], [0.3150741476659177, 0.26119281075447265], [-0.3285197724484975, -0.08462083994374292], [0.4442587573718143, -0.37003912862060795], [0.036184330866304903, 0.4024923710442686], [0.5160682794658441, 0.1767822192399639], [-0.32992291565211285, 0.11820033713234279], [0.12143599596647592, -0.34673441718126585], [-0.28868634974758833, -0.500847442697038], [0.1432021535281931, -0.00980448466272732]]",density,black,,,D003,visual,1,[],"['1', '2', '3', '4']",1,2023.2.3,harveyvisual,2.1,[],8,0.75,
0,pause,0.4,None,None,None,0,265,265,265,,,,,,,,,,,,,D003,visual,1,[],"['1', '2', '3', '4']",1,2023.2.3,harveyvisual,2.1,[],8,0.75,
20,dot,0.3,['dot'],['density'],black,0,266,266,266,,,95.50021004676819,95.21722412109375,95.51724314689636,dot,"[0.06, 0.08, 0.08, 0.08, 0.06, 0.08, 0.1, 0.08, 0.08, 0.1, 0.08, 0.1, 0.06, 0.1, 0.08, 0.1, 0.1, 0.08, 0.06, 0.06]","[[0.20446719878794428, -0.22681604122321775], [-0.048035086771878954, 0.04164660512715557], [-0.4284776429980207, 0.33214053603153976], [0.4211278600471632, -0.11249389143684196], [-0.13061926280893504, -0.4756153975124746], [0.5462765746965054, 0.07784362557121172], [0.35713426699313633, -0.401237883475961], [0.3723666040098045, 0.4399864762681481], [0.03978591915049734, 0.36593047745631013], [-0.3194781325787709, -0.08380413295510053], [-0.5064096220182494, 0.047958567124685936], [0.24889557102270965, 0.25279952828518804], [-0.5740566296314785, -0.18268516970776158], [0.3261856992472483, 0.05971976712657989], [-0.21735001320284203, 0.5024388245433424], [-0.13404162314729284, -0.17479264135230882], [0.14120452190097388, 0.5440418442962264], [-0.23130052772565635, 0.23808190239961613], [0.13438639674062935, -0.5732732710939291], [-0.43351776840925543, -0.3943119349602906]]",density,black,,,D003,visual,1,[],"['1', '2', '3', '4']",1,2023.2.3,harveyvisual,2.1,[],8,0.75,
0,pause,0.4,None,None,None,0,267,267,267,,,,,,,,,,,,,D003,visual,1,[],"['1', '2', '3', '4']",1,2023.2.3,harveyvisual,2.1,[],8,0.75,
