num,mod,duration,shape,ll_cond,colors,.thisRepN,.thisTrialN,.thisN,.thisIndex,thisRow.t,notes,raw_global_time,t_start,t_stop,shapes,size,pos,cond,color,button,RT,participant,session,starting_run,left button (match/odd),right button (non-match/even),samples_per_block,psychopy version,expName,offset,audio,number_runs,radius,
1,dot,0.3,['dot'],['density'],black,0,0,0,0,,,2.40022611618042,2.104220151901245,2.404656171798706,dot,[0.06],"[0.1600937909388646, -0.5041032805904762]",density,black,,,D003,visual,8,[],"['1', '2', '3', '4']",1,2023.2.3,harveyvisual,2.1,[],8,0.75,
0,pause,0.4,None,None,None,0,1,1,1,,,,,,,,,,,,,D003,visual,8,[],"['1', '2', '3', '4']",1,2023.2.3,harveyvisual,2.1,[],8,0.75,
1,dot,0.3,['dot'],['density'],white,0,2,2,2,,,3.1001980304718018,2.8046560287475586,3.10498309135437,dot,[0.08],"[0.1600937909388646, -0.5041032805904762]",density,white,,,D003,visual,8,[],"['1', '2', '3', '4']",1,2023.2.3,harveyvisual,2.1,[],8,0.75,
0,pause,0.4,None,None,None,0,3,3,3,,,,,,,,,,,1,2.6749091148376465,D003,visual,8,[],"['1', '2', '3', '4']",1,2023.2.3,harveyvisual,2.1,[],8,0.75,
1,dot,0.3,['dot'],['density'],black,0,4,4,4,,,3.8002099990844727,3.504634141921997,3.804617166519165,dot,[0.06],"[0.2287398259034258, -0.3932960849464651]",density,black,,,D003,visual,8,[],"['1', '2', '3', '4']",1,2023.2.3,harveyvisual,2.1,[],8,0.75,
0,pause,0.4,None,None,None,0,5,5,5,,,,,,,,,,,,,D003,visual,8,[],"['1', '2', '3', '4']",1,2023.2.3,harveyvisual,2.1,[],8,0.75,
1,dot,0.3,['dot'],['density'],black,0,6,6,6,,,4.500216007232666,4.204729080200195,4.50459098815918,dot,[0.06],"[0.31457923939875737, -0.4122609730770665]",density,black,,,D003,visual,8,[],"['1', '2', '3', '4']",1,2023.2.3,harveyvisual,2.1,[],8,0.75,
0,pause,0.4,None,None,None,0,7,7,7,,,,,,,,,,,,,D003,visual,8,[],"['1', '2', '3', '4']",1,2023.2.3,harveyvisual,2.1,[],8,0.75,
1,dot,0.3,['dot'],['density'],white,0,8,8,8,,,5.2002129554748535,4.90460205078125,5.223984003067017,dot,[0.1],"[-0.4309303250570785, -0.37878052449928096]",density,white,,,D003,visual,8,[],"['1', '2', '3', '4']",1,2023.2.3,harveyvisual,2.1,[],8,0.75,
0,pause,0.4,None,None,None,0,9,9,9,,,,,,,,,,,1,4.754035949707031,D003,visual,8,[],"['1', '2', '3', '4']",1,2023.2.3,harveyvisual,2.1,[],8,0.75,
1,dot,0.3,['dot'],['density'],black,0,10,10,10,,,5.900201082229614,5.606898069381714,5.9235999584198,dot,[0.08],"[0.01430498756481247, 0.36429701967127975]",density,black,,,D003,visual,8,[],"['1', '2', '3', '4']",1,2023.2.3,harveyvisual,2.1,[],8,0.75,
0,pause,0.4,None,None,None,0,11,11,11,,,,,,,,,,,,,D003,visual,8,[],"['1', '2', '3', '4']",1,2023.2.3,harveyvisual,2.1,[],8,0.75,
2,dot,0.3,['dot'],['density'],black,0,12,12,12,,,6.600218057632446,6.306936025619507,6.623561143875122,dot,"[0.1, 0.08]","[[0.1734117655345296, 0.46860731914486053], [-0.01847566562869785, 0.52581935004857]]",density,black,,,D003,visual,8,[],"['1', '2', '3', '4']",1,2023.2.3,harveyvisual,2.1,[],8,0.75,
0,pause,0.4,None,None,None,0,13,13,13,,,,,,,,,,,,,D003,visual,8,[],"['1', '2', '3', '4']",1,2023.2.3,harveyvisual,2.1,[],8,0.75,
2,dot,0.3,['dot'],['density'],black,0,14,14,14,,,7.3002049922943115,7.006864070892334,7.32354211807251,dot,"[0.1, 0.06]","[[-0.22226122312079244, -0.00806926593831646], [-0.023245446524914906, -0.037240983575548024]]",density,black,,,D003,visual,8,[],"['1', '2', '3', '4']",1,2023.2.3,harveyvisual,2.1,[],8,0.75,
0,pause,0.4,None,None,None,0,15,15,15,,,,,,,,,,,,,D003,visual,8,[],"['1', '2', '3', '4']",1,2023.2.3,harveyvisual,2.1,[],8,0.75,
2,dot,0.3,['dot'],['density'],black,0,16,16,16,,,8.000200986862183,7.706859111785889,8.023524045944214,dot,"[0.06, 0.1]","[[0.1851205616289071, -0.3624876981064337], [0.3405923022038234, -0.23608025195482504]]",density,black,,,D003,visual,8,[],"['1', '2', '3', '4']",1,2023.2.3,harveyvisual,2.1,[],8,0.75,
0,pause,0.4,None,None,None,0,17,17,17,,,,,,,,,,,,,D003,visual,8,[],"['1', '2', '3', '4']",1,2023.2.3,harveyvisual,2.1,[],8,0.75,
2,dot,0.3,['dot'],['density'],black,0,18,18,18,,,8.700221061706543,8.40687894821167,8.723479986190796,dot,"[0.06, 0.1]","[[0.28379985726396956, 0.19228106150028407], [0.10160376615595414, 0.2763535177041957]]",density,black,,,D003,visual,8,[],"['1', '2', '3', '4']",1,2023.2.3,harveyvisual,2.1,[],8,0.75,
0,pause,0.4,None,None,None,0,19,19,19,,,,,,,,,,,,,D003,visual,8,[],"['1', '2', '3', '4']",1,2023.2.3,harveyvisual,2.1,[],8,0.75,
2,dot,0.3,['dot'],['density'],black,0,20,20,20,,,9.400217056274414,9.106824159622192,9.42348599433899,dot,"[0.1, 0.1]","[[-0.16440981108753766, 0.5378091218652469], [-0.08422838651173449, 0.35445914222875186]]",density,black,,,D003,visual,8,[],"['1', '2', '3', '4']",1,2023.2.3,harveyvisual,2.1,[],8,0.75,
0,pause,0.4,None,None,None,0,21,21,21,,,,,,,,,,,,,D003,visual,8,[],"['1', '2', '3', '4']",1,2023.2.3,harveyvisual,2.1,[],8,0.75,
2,dot,0.3,['dot'],['density'],black,0,22,22,22,,,10.100208044052124,9.80682110786438,10.123464107513428,dot,"[0.08, 0.1]","[[-0.16440981108753766, 0.5378091218652469], [-0.08422838651173449, 0.35445914222875186]]",density,black,,,D003,visual,8,[],"['1', '2', '3', '4']",1,2023.2.3,harveyvisual,2.1,[],8,0.75,
0,pause,0.4,None,None,None,0,23,23,23,,,,,,,,,,,,,D003,visual,8,[],"['1', '2', '3', '4']",1,2023.2.3,harveyvisual,2.1,[],8,0.75,
3,dot,0.3,['dot'],['density'],white,0,24,24,24,,,10.80021595954895,10.506837129592896,10.823443174362183,dot,"[0.06, 0.1, 0.08]","[[0.07700183490032705, -0.35627018624379625], [-0.11838355721398923, -0.41989981358322065], [0.04553884901650391, -0.5822363694770394]]",density,white,,,D003,visual,8,[],"['1', '2', '3', '4']",1,2023.2.3,harveyvisual,2.1,[],8,0.75,
0,pause,0.4,None,None,None,0,25,25,25,,,,,,,,,,,1,10.33190393447876,D003,visual,8,[],"['1', '2', '3', '4']",1,2023.2.3,harveyvisual,2.1,[],8,0.75,
3,dot,0.3,['dot'],['density'],black,0,26,26,26,,,11.500224113464355,11.21065616607666,11.52341914176941,dot,"[0.1, 0.08, 0.06]","[[0.48628142840140876, 0.1515230430224543], [0.28796188866220057, 0.19625725416133796], [0.3371406364253883, -0.002661880310138811]]",density,black,,,D003,visual,8,[],"['1', '2', '3', '4']",1,2023.2.3,harveyvisual,2.1,[],8,0.75,
0,pause,0.4,None,None,None,0,27,27,27,,,,,,,,,,,,,D003,visual,8,[],"['1', '2', '3', '4']",1,2023.2.3,harveyvisual,2.1,[],8,0.75,
3,dot,0.3,['dot'],['density'],black,0,28,28,28,,,12.200205087661743,11.90674114227295,12.224455118179321,dot,"[0.08, 0.06, 0.1]","[[0.03752440580708033, 0.5298990797186869], [-0.14535247226304113, 0.44143535861080874], [0.07857889528852925, 0.30774558950641073]]",density,black,,,D003,visual,8,[],"['1', '2', '3', '4']",1,2023.2.3,harveyvisual,2.1,[],8,0.75,
0,pause,0.4,None,None,None,0,29,29,29,,,,,,,,,,,,,D003,visual,8,[],"['1', '2', '3', '4']",1,2023.2.3,harveyvisual,2.1,[],8,0.75,
3,dot,0.3,['dot'],['density'],black,0,30,30,30,,,12.900200128555298,12.606744050979614,12.923391103744507,dot,"[0.08, 0.1, 0.08]","[[0.35100391059830643, -0.4491085892346253], [0.13011513135189492, -0.5590284990295896], [0.16905753934955023, -0.35714526366544236]]",density,black,,,D003,visual,8,[],"['1', '2', '3', '4']",1,2023.2.3,harveyvisual,2.1,[],8,0.75,
0,pause,0.4,None,None,None,0,31,31,31,,,,,,,,,,,,,D003,visual,8,[],"['1', '2', '3', '4']",1,2023.2.3,harveyvisual,2.1,[],8,0.75,
3,dot,0.3,['dot'],['density'],black,0,32,32,32,,,13.600198984146118,13.30672001838684,13.62337613105774,dot,"[0.06, 0.08, 0.08]","[[-0.3391924794566746, 0.43027756448319565], [-0.33080415183405026, 0.2112686575961512], [-0.14277619127331137, 0.29962579604826906]]",density,black,,,D003,visual,8,[],"['1', '2', '3', '4']",1,2023.2.3,harveyvisual,2.1,[],8,0.75,
0,pause,0.4,None,None,None,0,33,33,33,,,,,,,,,,,,,D003,visual,8,[],"['1', '2', '3', '4']",1,2023.2.3,harveyvisual,2.1,[],8,0.75,
3,dot,0.3,['dot'],['density'],black,0,34,34,34,,,14.30019998550415,14.006704092025757,14.323693037033081,dot,"[0.1, 0.06, 0.06]","[[0.03752440580708033, 0.5298990797186869], [-0.14535247226304113, 0.44143535861080874], [0.07857889528852925, 0.30774558950641073]]",density,black,,,D003,visual,8,[],"['1', '2', '3', '4']",1,2023.2.3,harveyvisual,2.1,[],8,0.75,
0,pause,0.4,None,None,None,0,35,35,35,,,,,,,,,,,,,D003,visual,8,[],"['1', '2', '3', '4']",1,2023.2.3,harveyvisual,2.1,[],8,0.75,
4,dot,0.3,['dot'],['density'],black,0,36,36,36,,,15.00019907951355,14.706679105758667,15.023352146148682,dot,"[0.08, 0.06, 0.08, 0.08]","[[-0.24855901342904946, 0.4326179111294549], [-0.33066739519925503, 0.24314919490711104], [-0.015728317870896572, 0.5189617074191414], [-0.09686463175319387, 0.28200212383687606]]",density,black,,,D003,visual,8,[],"['1', '2', '3', '4']",1,2023.2.3,harveyvisual,2.1,[],8,0.75,
0,pause,0.4,None,None,None,0,37,37,37,,,,,,,,,,,,,D003,visual,8,[],"['1', '2', '3', '4']",1,2023.2.3,harveyvisual,2.1,[],8,0.75,
4,dot,0.3,['dot'],['density'],black,0,38,38,38,,,15.700224161148071,15.406639099121094,15.723329067230225,dot,"[0.08, 0.1, 0.1, 0.06]","[[-0.1266132934267609, -0.4419116806690939], [0.09906976576587005, -0.33923851916676484], [0.1053941350115203, -0.5768907290059295], [0.29145715672269834, -0.49787884973145785]]",density,black,,,D003,visual,8,[],"['1', '2', '3', '4']",1,2023.2.3,harveyvisual,2.1,[],8,0.75,
0,pause,0.4,None,None,None,0,39,39,39,,,,,,,,,,,,,D003,visual,8,[],"['1', '2', '3', '4']",1,2023.2.3,harveyvisual,2.1,[],8,0.75,
4,dot,0.3,['dot'],['density'],black,0,40,40,40,,,16.400212049484253,16.10690999031067,16.423283100128174,dot,"[0.1, 0.08, 0.06, 0.08]","[[-0.24231220575667195, -0.22966258239168486], [-0.5136420973432148, -0.13696856920477488], [-0.4300726721285167, 0.13088957628356482], [-0.3148289313469241, -0.03851715211982174]]",density,black,,,D003,visual,8,[],"['1', '2', '3', '4']",1,2023.2.3,harveyvisual,2.1,[],8,0.75,
0,pause,0.4,None,None,None,0,41,41,41,,,,,,,,,,,,,D003,visual,8,[],"['1', '2', '3', '4']",1,2023.2.3,harveyvisual,2.1,[],8,0.75,
4,dot,0.3,['dot'],['density'],black,0,42,42,42,,,17.10022211074829,16.806626081466675,17.123422145843506,dot,"[0.1, 0.1, 0.1, 0.06]","[[0.08172100217045614, 0.5402562525463245], [-0.024891988969352973, 0.31595276793208527], [-0.14685316472848742, 0.5184788481920529], [-0.2646655063210597, 0.3159281349431851]]",density,black,,,D003,visual,8,[],"['1', '2', '3', '4']",1,2023.2.3,harveyvisual,2.1,[],8,0.75,
0,pause,0.4,None,None,None,0,43,43,43,,,,,,,,,,,,,D003,visual,8,[],"['1', '2', '3', '4']",1,2023.2.3,harveyvisual,2.1,[],8,0.75,
4,dot,0.3,['dot'],['density'],black,0,44,44,44,,,17.8001971244812,17.506598949432373,17.823282957077026,dot,"[0.1, 0.08, 0.08, 0.08]","[[-0.1807894278345534, -0.050693892368996955], [-0.03778933673514029, -0.29773510453537966], [0.0747201162679791, -0.1287424711559737], [-0.02241484737224569, 0.07404475448468936]]",density,black,,,D003,visual,8,[],"['1', '2', '3', '4']",1,2023.2.3,harveyvisual,2.1,[],8,0.75,
0,pause,0.4,None,None,None,0,45,45,45,,,,,,,,,,,,,D003,visual,8,[],"['1', '2', '3', '4']",1,2023.2.3,harveyvisual,2.1,[],8,0.75,
4,dot,0.3,['dot'],['density'],black,0,46,46,46,,,18.500216007232666,18.206634998321533,18.523231983184814,dot,"[0.06, 0.08, 0.1, 0.1]","[[0.0015408600658227804, 0.35051751062746694], [-0.20674122870780898, 0.3211588031025307], [-0.08430622538187964, 0.13383917563087117], [0.1780252705082131, 0.19175915241248492]]",density,black,,,D003,visual,8,[],"['1', '2', '3', '4']",1,2023.2.3,harveyvisual,2.1,[],8,0.75,
0,pause,0.4,None,None,None,0,47,47,47,,,,,,,,,,,,,D003,visual,8,[],"['1', '2', '3', '4']",1,2023.2.3,harveyvisual,2.1,[],8,0.75,
5,dot,0.3,['dot'],['density'],black,0,48,48,48,,,19.200212001800537,18.906633138656616,19.223297119140625,dot,"[0.08, 0.08, 0.1, 0.1, 0.06]","[[-0.18510638544872327, 0.41559840932892733], [-0.057175862535637494, 0.18304904272057057], [0.24003340414173915, 0.43371676657957026], [0.006490958465160464, 0.4770521622163581], [0.13658455045585424, 0.2476502540597336]]",density,black,,,D003,visual,8,[],"['1', '2', '3', '4']",1,2023.2.3,harveyvisual,2.1,[],8,0.75,
0,pause,0.4,None,None,None,0,49,49,49,,,,,,,,,,,,,D003,visual,8,[],"['1', '2', '3', '4']",1,2023.2.3,harveyvisual,2.1,[],8,0.75,
5,dot,0.3,['dot'],['density'],black,0,50,50,50,,,19.900203943252563,19.60658097267151,19.923213958740234,dot,"[0.1, 0.06, 0.1, 0.1, 0.1]","[[-0.47409275164437775, -0.17842554437930905], [-0.28800513042966097, -0.4059597382025641], [-0.20075697267214665, 0.008887320625593834], [-0.2708677629513771, -0.1868162154653106], [-0.0886924353013077, -0.2820475711339636]]",density,black,,,D003,visual,8,[],"['1', '2', '3', '4']",1,2023.2.3,harveyvisual,2.1,[],8,0.75,
0,pause,0.4,None,None,None,0,51,51,51,,,,,,,,,,,,,D003,visual,8,[],"['1', '2', '3', '4']",1,2023.2.3,harveyvisual,2.1,[],8,0.75,
5,dot,0.3,['dot'],['density'],black,0,52,52,52,,,20.600213050842285,20.30655002593994,20.623208045959473,dot,"[0.06, 0.06, 0.06, 0.08, 0.1]","[[-0.16255238243643175, 0.17860987090823105], [-0.3708934258622909, -0.17994308192218272], [-0.3873401471382859, 0.23755408526324856], [-0.3082462149465763, 0.01808515368093923], [-0.09381294098683406, -0.04001219282613638]]",density,black,,,D003,visual,8,[],"['1', '2', '3', '4']",1,2023.2.3,harveyvisual,2.1,[],8,0.75,
0,pause,0.4,None,None,None,0,53,53,53,,,,,,,,,,,,,D003,visual,8,[],"['1', '2', '3', '4']",1,2023.2.3,harveyvisual,2.1,[],8,0.75,
5,dot,0.3,['dot'],['density'],black,0,54,54,54,,,21.300225019454956,21.006569147109985,21.323191165924072,dot,"[0.1, 0.08, 0.06, 0.06, 0.1]","[[-0.19096480170835262, 0.2202776521134577], [0.009488999043989208, 0.5721548226574139], [0.16477125949827795, 0.3732973518003487], [0.07476286221063107, 0.1476230553836633], [-0.051949696108355745, 0.36609537475325354]]",density,black,,,D003,visual,8,[],"['1', '2', '3', '4']",1,2023.2.3,harveyvisual,2.1,[],8,0.75,
0,pause,0.4,None,None,None,0,55,55,55,,,,,,,,,,,,,D003,visual,8,[],"['1', '2', '3', '4']",1,2023.2.3,harveyvisual,2.1,[],8,0.75,
5,dot,0.3,['dot'],['density'],black,0,56,56,56,,,22.000221967697144,21.70651912689209,22.023179054260254,dot,"[0.08, 0.1, 0.1, 0.06, 0.1]","[[0.2075830250205083, 0.5448960418430373], [0.010600229768786232, 0.45420498888786176], [-0.10187712889758427, 0.28364076042242115], [0.1691377395635631, 0.293820614486451], [-0.2596336492265815, 0.40815120909286945]]",density,black,,,D003,visual,8,[],"['1', '2', '3', '4']",1,2023.2.3,harveyvisual,2.1,[],8,0.75,
0,pause,0.4,None,None,None,0,57,57,57,,,,,,,,,,,,,D003,visual,8,[],"['1', '2', '3', '4']",1,2023.2.3,harveyvisual,2.1,[],8,0.75,
5,dot,0.3,['dot'],['density'],black,0,58,58,58,,,22.700212955474854,22.408574104309082,22.723157167434692,dot,"[0.06, 0.1, 0.06, 0.08, 0.06]","[[-0.26965218803342234, -0.06061691990321757], [-0.44412238708790114, -0.1605793459593267], [-0.2738608688716076, -0.33598391440877745], [-0.06160694910013377, -0.19463283807086704], [-0.16469008497891707, 0.13324638745272324]]",density,black,,,D003,visual,8,[],"['1', '2', '3', '4']",1,2023.2.3,harveyvisual,2.1,[],8,0.75,
0,pause,0.4,None,None,None,0,59,59,59,,,,,,,,,,,,,D003,visual,8,[],"['1', '2', '3', '4']",1,2023.2.3,harveyvisual,2.1,[],8,0.75,
6,dot,0.3,['dot'],['density'],black,0,60,60,60,,,23.400203943252563,23.106670141220093,23.4241840839386,dot,"[0.08, 0.06, 0.06, 0.08, 0.08, 0.1]","[[0.01776890784276672, 0.3448500499300058], [-0.18238616215991446, 0.4840889924469993], [-0.2129582374372363, 0.07157874559070018], [-0.41549008775918617, 0.14353268657608398], [0.019487844458329944, 0.1389587799501653], [-0.21004805074000235, 0.2837936954907191]]",density,black,,,D003,visual,8,[],"['1', '2', '3', '4']",1,2023.2.3,harveyvisual,2.1,[],8,0.75,
0,pause,0.4,None,None,None,0,61,61,61,,,,,,,,,,,,,D003,visual,8,[],"['1', '2', '3', '4']",1,2023.2.3,harveyvisual,2.1,[],8,0.75,
6,dot,0.3,['dot'],['density'],black,0,62,62,62,,,24.10022497177124,23.80651617050171,24.12326717376709,dot,"[0.06, 0.1, 0.06, 0.08, 0.1, 0.08]","[[-0.560843418842529, -0.11752527585456686], [-0.31277608783648175, 0.04003545118838376], [-0.18207900664359264, -0.3652956678781814], [-0.41442909117718774, -0.4038021739217259], [-0.14446849917993246, -0.07035639226176245], [-0.3420415871796019, -0.1631057353810994]]",density,black,,,D003,visual,8,[],"['1', '2', '3', '4']",1,2023.2.3,harveyvisual,2.1,[],8,0.75,
0,pause,0.4,None,None,None,0,63,63,63,,,,,,,,,,,,,D003,visual,8,[],"['1', '2', '3', '4']",1,2023.2.3,harveyvisual,2.1,[],8,0.75,
6,dot,0.3,['dot'],['density'],black,0,64,64,64,,,24.800204038619995,24.50646209716797,24.823107957839966,dot,"[0.1, 0.1, 0.08, 0.06, 0.08, 0.06]","[[0.1442800129286608, -0.025670240792647715], [-0.253335145558221, 0.06312541807928282], [0.15340240856287354, 0.2410349392962658], [-0.1639657784688781, 0.25075335361279655], [-0.07910231793701084, -0.12784096878077061], [-0.011661193723423325, 0.11361106492824657]]",density,black,,,D003,visual,8,[],"['1', '2', '3', '4']",1,2023.2.3,harveyvisual,2.1,[],8,0.75,
0,pause,0.4,None,None,None,0,65,65,65,,,,,,,,,,,,,D003,visual,8,[],"['1', '2', '3', '4']",1,2023.2.3,harveyvisual,2.1,[],8,0.75,
6,dot,0.3,['dot'],['density'],black,0,66,66,66,,,25.50022006034851,25.206483125686646,25.523118019104004,dot,"[0.1, 0.1, 0.1, 0.08, 0.1, 0.08]","[[-0.362545063880459, -0.421860962952156], [-0.24010638466002518, -0.0327569241266412], [-0.22622339336134992, -0.23590116153186103], [-0.41823503972227205, -0.14060420183103206], [-0.028992295722001654, -0.1293578273409096], [-0.1459617666416116, -0.4591052827033254]]",density,black,,,D003,visual,8,[],"['1', '2', '3', '4']",1,2023.2.3,harveyvisual,2.1,[],8,0.75,
0,pause,0.4,None,None,None,0,67,67,67,,,,,,,,,,,,,D003,visual,8,[],"['1', '2', '3', '4']",1,2023.2.3,harveyvisual,2.1,[],8,0.75,
6,dot,0.3,['dot'],['density'],black,0,68,68,68,,,26.200217962265015,25.906423091888428,26.223111152648926,dot,"[0.06, 0.06, 0.08, 0.06, 0.06, 0.06]","[[0.500827999951601, -0.23304028533624072], [0.20916386845998064, 0.08030245107060778], [0.27809793757338463, -0.1905950399710685], [0.08327260932553728, -0.13599284299194644], [0.16768982653485215, -0.38480252821003114], [0.4174962964646186, 0.01069632702004041]]",density,black,,,D003,visual,8,[],"['1', '2', '3', '4']",1,2023.2.3,harveyvisual,2.1,[],8,0.75,
0,pause,0.4,None,None,None,0,69,69,69,,,,,,,,,,,,,D003,visual,8,[],"['1', '2', '3', '4']",1,2023.2.3,harveyvisual,2.1,[],8,0.75,
6,dot,0.3,['dot'],['density'],black,0,70,70,70,,,26.900218963623047,26.606399059295654,26.923027992248535,dot,"[0.06, 0.1, 0.1, 0.06, 0.06, 0.1]","[[0.1643264729387965, -0.2471077239796436], [-0.22534804549937193, -0.4918728234310363], [-0.026166131246113146, -0.09278119687647148], [-0.24451989516519138, -0.21339523607155425], [0.11868454116144263, -0.4574197693624388], [-0.058907778787058426, -0.30919141315076737]]",density,black,,,D003,visual,8,[],"['1', '2', '3', '4']",1,2023.2.3,harveyvisual,2.1,[],8,0.75,
0,pause,0.4,None,None,None,0,71,71,71,,,,,,,,,,,,,D003,visual,8,[],"['1', '2', '3', '4']",1,2023.2.3,harveyvisual,2.1,[],8,0.75,
7,dot,0.3,['dot'],['density'],black,0,72,72,72,,,27.600219011306763,27.30640196800232,27.623064041137695,dot,"[0.06, 0.06, 0.08, 0.08, 0.1, 0.06, 0.08]","[[-0.3616029487054454, 0.4456424486886853], [-0.1496406170718537, 0.08450683720449656], [-0.4229793897960434, 0.19545916586121675], [-0.050735401720141765, 0.4582308035931027], [-0.23416009772798219, 0.28880413379285297], [0.00916417092529717, 0.20866532064640267], [0.0895043828575618, 0.020292244516940467]]",density,black,,,D003,visual,8,[],"['1', '2', '3', '4']",1,2023.2.3,harveyvisual,2.1,[],8,0.75,
0,pause,0.4,None,None,None,0,73,73,73,,,,,,,,,,,,,D003,visual,8,[],"['1', '2', '3', '4']",1,2023.2.3,harveyvisual,2.1,[],8,0.75,
7,dot,0.3,['dot'],['density'],white,0,74,74,74,,,28.300200939178467,28.00636601448059,28.32300901412964,dot,"[0.08, 0.06, 0.06, 0.06, 0.08, 0.06, 0.08]","[[0.12902113605384963, -0.35167066519854956], [0.3838909825822851, -0.05572740120406059], [-0.02857767273637445, 0.1549795872955612], [0.19333287999408408, 0.10698923431715611], [-0.08146847087507005, -0.06064403559207536], [0.18020694687254563, -0.15550905334431223], [-0.07225335190945896, -0.28606481362007624]]",density,white,,,D003,visual,8,[],"['1', '2', '3', '4']",1,2023.2.3,harveyvisual,2.1,[],8,0.75,
0,pause,0.4,None,None,None,0,75,75,75,,,,,,,,,,,1,28.053070068359375,D003,visual,8,[],"['1', '2', '3', '4']",1,2023.2.3,harveyvisual,2.1,[],8,0.75,
7,dot,0.3,['dot'],['density'],black,0,76,76,76,,,29.000213146209717,28.706343173980713,29.023017168045044,dot,"[0.1, 0.1, 0.06, 0.1, 0.06, 0.06, 0.1]","[[0.1318978468379982, 0.48780960721302624], [-0.15530952210580917, 0.2429536962773128], [0.21675324185561073, 0.09111206147250148], [0.13033099328542835, 0.28547066376201063], [0.3859901392997328, 0.20497483482614012], [0.014590257841440182, 0.0970646397970693], [0.1730960121663288, -0.1180805096677859]]",density,black,,,D003,visual,8,[],"['1', '2', '3', '4']",1,2023.2.3,harveyvisual,2.1,[],8,0.75,
0,pause,0.4,None,None,None,0,77,77,77,,,,,,,,,,,,,D003,visual,8,[],"['1', '2', '3', '4']",1,2023.2.3,harveyvisual,2.1,[],8,0.75,
7,dot,0.3,['dot'],['density'],black,0,78,78,78,,,29.700221061706543,29.40635395050049,29.722968101501465,dot,"[0.06, 0.06, 0.08, 0.06, 0.06, 0.1, 0.06]","[[-0.23867826801906328, -0.4967507610264224], [-0.008572732368673055, -0.07934474412745643], [-0.2066881937132076, -0.2790710878612567], [0.21709551483580575, -0.47507177834902015], [0.2058411173229685, -0.17553172422760346], [-0.015438952742397984, -0.3568653319460787], [-0.011603255668745115, -0.5749057065343526]]",density,black,,,D003,visual,8,[],"['1', '2', '3', '4']",1,2023.2.3,harveyvisual,2.1,[],8,0.75,
0,pause,0.4,None,None,None,0,79,79,79,,,,,,,,,,,,,D003,visual,8,[],"['1', '2', '3', '4']",1,2023.2.3,harveyvisual,2.1,[],8,0.75,
7,dot,0.3,['dot'],['density'],black,0,80,80,80,,,30.40022301673889,30.106382131576538,30.424015998840332,dot,"[0.06, 0.06, 0.08, 0.1, 0.06, 0.08, 0.08]","[[0.27964692832129656, -0.15500474148311624], [0.48019533028943556, 0.09933774746227163], [0.08203545767143021, 0.28019381302663365], [0.05572057582720619, -0.1426303369841539], [0.31711281236335803, 0.2944831276535668], [-0.041479771322150735, 0.11885700406191958], [0.21045310206912196, 0.07075003364957701]]",density,black,,,D003,visual,8,[],"['1', '2', '3', '4']",1,2023.2.3,harveyvisual,2.1,[],8,0.75,
0,pause,0.4,None,None,None,0,81,81,81,,,,,,,,,,,,,D003,visual,8,[],"['1', '2', '3', '4']",1,2023.2.3,harveyvisual,2.1,[],8,0.75,
7,dot,0.3,['dot'],['density'],black,0,82,82,82,,,31.1002140045166,30.806298971176147,31.123152017593384,dot,"[0.1, 0.06, 0.08, 0.1, 0.06, 0.1, 0.08]","[[0.3899189512010899, -0.40728696153528776], [0.20392863561369634, -0.3305625840210526], [0.31626985815109576, 0.13567824844623666], [0.5017338684339655, -0.028549680114735937], [0.11648855723187378, -0.1078833072829627], [0.07041138378868489, 0.08730219371944997], [0.32910598476010167, -0.13660711058181768]]",density,black,,,D003,visual,8,[],"['1', '2', '3', '4']",1,2023.2.3,harveyvisual,2.1,[],8,0.75,
0,pause,0.4,None,None,None,0,83,83,83,,,,,,,,,,,,,D003,visual,8,[],"['1', '2', '3', '4']",1,2023.2.3,harveyvisual,2.1,[],8,0.75,
8,dot,0.3,['dot'],['density'],white,0,84,84,84,,,31.80021905899048,31.506237983703613,31.82294511795044,dot,"[0.08, 0.08, 0.08, 0.06, 0.1, 0.06, 0.1, 0.1]","[[-0.13214754069031825, -0.5402677255150703], [0.1288984478000013, -0.5519726475135984], [0.27401725229332, -0.34994268047279037], [-0.052680844420756816, 0.006786609240531098], [0.03557367748195712, -0.3699094958310016], [-0.23170140006741713, -0.18198058676873416], [-0.33504621301322857, -0.3611685350886627], [0.0760940577115827, -0.14857148175569432]]",density,white,,,D003,visual,8,[],"['1', '2', '3', '4']",1,2023.2.3,harveyvisual,2.1,[],8,0.75,
0,pause,0.4,None,None,None,0,85,85,85,,,,,,,,,,,1,31.335257053375244,D003,visual,8,[],"['1', '2', '3', '4']",1,2023.2.3,harveyvisual,2.1,[],8,0.75,
8,dot,0.3,['dot'],['density'],black,0,86,86,86,,,32.5002281665802,32.206191062927246,32.52289414405823,dot,"[0.1, 0.1, 0.1, 0.08, 0.08, 0.06, 0.06, 0.06]","[[-0.19469543066458847, -0.326291241472255], [0.30343637985980976, -0.10925869102227477], [-0.1969922581528186, -0.11664339975312436], [0.2570255161168456, -0.3247060146943647], [0.10684135558856425, -0.18174565546534566], [0.03482742583321104, -0.4893606045609451], [-0.015658395544436696, -0.0001692298399926468], [0.11980560642279467, 0.15585563517441894]]",density,black,,,D003,visual,8,[],"['1', '2', '3', '4']",1,2023.2.3,harveyvisual,2.1,[],8,0.75,
0,pause,0.4,None,None,None,0,87,87,87,,,,,,,,,,,,,D003,visual,8,[],"['1', '2', '3', '4']",1,2023.2.3,harveyvisual,2.1,[],8,0.75,
8,dot,0.3,['dot'],['density'],black,0,88,88,88,,,33.20022106170654,32.90629816055298,33.22385501861572,dot,"[0.1, 0.06, 0.1, 0.1, 0.06, 0.08, 0.06, 0.06]","[[-0.3167478768396544, -0.2124469325344782], [0.11150510454677101, -0.25361932254341324], [0.17657050060311263, -0.496926349220185], [0.20833757931744315, -0.0002320808252021913], [-0.0015234955214533466, 0.034722119540356526], [-0.10690598217119997, -0.19846612199298916], [0.32498422138424443, -0.23444872628509345], [-0.054741640541526956, -0.4230750989992696]]",density,black,,,D003,visual,8,[],"['1', '2', '3', '4']",1,2023.2.3,harveyvisual,2.1,[],8,0.75,
0,pause,0.4,None,None,None,0,89,89,89,,,,,,,,,,,,,D003,visual,8,[],"['1', '2', '3', '4']",1,2023.2.3,harveyvisual,2.1,[],8,0.75,
8,dot,0.3,['dot'],['density'],black,0,90,90,90,,,33.900217056274414,33.60620307922363,33.92289400100708,dot,"[0.08, 0.1, 0.1, 0.1, 0.06, 0.06, 0.1, 0.08]","[[0.3129921899656287, 0.2226642157048143], [0.41298599633021416, -0.001766323215076977], [0.013785601627645026, 0.39275307090924344], [-0.009407606244017683, 0.02333367620517349], [0.20163499737495916, -0.08731087547331118], [0.31235423233837933, 0.42762820752661124], [0.10705959187470679, 0.21318577255187057], [-0.13233007013452783, 0.20605257250075132]]",density,black,,,D003,visual,8,[],"['1', '2', '3', '4']",1,2023.2.3,harveyvisual,2.1,[],8,0.75,
0,pause,0.4,None,None,None,0,91,91,91,,,,,,,,,,,,,D003,visual,8,[],"['1', '2', '3', '4']",1,2023.2.3,harveyvisual,2.1,[],8,0.75,
8,dot,0.3,['dot'],['density'],black,0,92,92,92,,,34.600213050842285,34.30635094642639,34.62291717529297,dot,"[0.06, 0.1, 0.08, 0.08, 0.08, 0.1, 0.06, 0.08]","[[0.1740819983727909, -0.16863019829442621], [0.14644114519141543, -0.4524198896657212], [0.0024885361438939093, 0.023531574910491997], [-0.23717340943857948, -0.31112918658627675], [-0.11311749148073028, -0.46867866316561874], [-0.17928248077090506, -0.060241557052319365], [-0.03957999532622772, -0.24759906754331504], [-0.4644327601918011, -0.3627803331480915]]",density,black,,,D003,visual,8,[],"['1', '2', '3', '4']",1,2023.2.3,harveyvisual,2.1,[],8,0.75,
0,pause,0.4,None,None,None,0,93,93,93,,,,,,,,,,,,,D003,visual,8,[],"['1', '2', '3', '4']",1,2023.2.3,harveyvisual,2.1,[],8,0.75,
8,dot,0.3,['dot'],['density'],black,0,94,94,94,,,35.30020213127136,35.00661110877991,35.32288908958435,dot,"[0.06, 0.1, 0.1, 0.08, 0.08, 0.1, 0.1, 0.08]","[[0.48529715144174124, -0.2697678579736521], [0.37309741842769656, 0.0699077870123373], [0.051182379473491794, 0.02141531407813483], [0.5234917469593858, 0.26578075419350655], [0.558201411832675, -0.037120345964853765], [0.22738215197141995, 0.24608732841731215], [0.3038957292845804, -0.12934366054116395], [0.024689158081869923, 0.25216756052328354]]",density,black,,,D003,visual,8,[],"['1', '2', '3', '4']",1,2023.2.3,harveyvisual,2.1,[],8,0.75,
0,pause,0.4,None,None,None,0,95,95,95,,,,,,,,,,,,,D003,visual,8,[],"['1', '2', '3', '4']",1,2023.2.3,harveyvisual,2.1,[],8,0.75,
9,dot,0.3,['dot'],['density'],white,0,96,96,96,,,36.00021195411682,35.72288107872009,36.026451110839844,dot,"[0.08, 0.1, 0.08, 0.06, 0.1, 0.08, 0.06, 0.1, 0.06]","[[-0.05049485011715354, 0.3013521193238899], [0.15354596755057998, 0.36785015051376163], [0.22995749783639982, 0.07309138415424772], [0.13460311710395165, -0.18603378415368982], [0.33097739113381164, -0.13822260855557728], [-0.16464148731134703, 0.07190493829483618], [0.521154897315396, -0.007803673430992942], [0.02684304494395013, 0.0018704401699241912], [-0.15545279255173522, -0.15329938800760382]]",density,white,,,D003,visual,8,[],"['1', '2', '3', '4']",1,2023.2.3,harveyvisual,2.1,[],8,0.75,
0,pause,0.4,None,None,None,0,97,97,97,,,,,,,,,,,1,35.61380195617676,D003,visual,8,[],"['1', '2', '3', '4']",1,2023.2.3,harveyvisual,2.1,[],8,0.75,
9,dot,0.3,['dot'],['density'],black,0,98,98,98,,,36.700217962265015,36.42308712005615,36.72280716896057,dot,"[0.06, 0.1, 0.08, 0.08, 0.1, 0.1, 0.06, 0.1, 0.06]","[[0.17250841666444466, -0.5173949811024123], [-0.03744062107829021, -0.3895067986023326], [0.30010350549611725, -0.35742528465303014], [0.33064876224298684, -0.08057424749072183], [-0.16743636965090838, -0.09291053242622109], [0.1226827020066543, -0.24711763375004436], [0.047527772487498496, -0.037432207059122605], [0.20928928941955194, 0.09999474740890861], [-0.30040876562534896, -0.42726910911839744]]",density,black,,,D003,visual,8,[],"['1', '2', '3', '4']",1,2023.2.3,harveyvisual,2.1,[],8,0.75,
0,pause,0.4,None,None,None,0,99,99,99,,,,,,,,,,,,,D003,visual,8,[],"['1', '2', '3', '4']",1,2023.2.3,harveyvisual,2.1,[],8,0.75,
9,dot,0.3,['dot'],['density'],black,0,100,100,100,,,37.400217056274414,37.12388300895691,37.42276906967163,dot,"[0.08, 0.06, 0.06, 0.06, 0.06, 0.06, 0.1, 0.06, 0.08]","[[0.17250841666444466, -0.5173949811024123], [-0.03744062107829021, -0.3895067986023326], [0.30010350549611725, -0.35742528465303014], [0.33064876224298684, -0.08057424749072183], [-0.16743636965090838, -0.09291053242622109], [0.1226827020066543, -0.24711763375004436], [0.047527772487498496, -0.037432207059122605], [0.20928928941955194, 0.09999474740890861], [-0.30040876562534896, -0.42726910911839744]]",density,black,,,D003,visual,8,[],"['1', '2', '3', '4']",1,2023.2.3,harveyvisual,2.1,[],8,0.75,
0,pause,0.4,None,None,None,0,101,101,101,,,,,,,,,,,,,D003,visual,8,[],"['1', '2', '3', '4']",1,2023.2.3,harveyvisual,2.1,[],8,0.75,
9,dot,0.3,['dot'],['density'],black,0,102,102,102,,,38.1002299785614,37.8227961063385,38.12278509140015,dot,"[0.08, 0.06, 0.1, 0.1, 0.1, 0.06, 0.08, 0.06, 0.08]","[[-0.05049485011715354, 0.3013521193238899], [0.15354596755057998, 0.36785015051376163], [0.22995749783639982, 0.07309138415424772], [0.13460311710395165, -0.18603378415368982], [0.33097739113381164, -0.13822260855557728], [-0.16464148731134703, 0.07190493829483618], [0.521154897315396, -0.007803673430992942], [0.02684304494395013, 0.0018704401699241912], [-0.15545279255173522, -0.15329938800760382]]",density,black,,,D003,visual,8,[],"['1', '2', '3', '4']",1,2023.2.3,harveyvisual,2.1,[],8,0.75,
0,pause,0.4,None,None,None,0,103,103,103,,,,,,,,,,,,,D003,visual,8,[],"['1', '2', '3', '4']",1,2023.2.3,harveyvisual,2.1,[],8,0.75,
9,dot,0.3,['dot'],['density'],black,0,104,104,104,,,38.80022311210632,38.52277612686157,38.82272696495056,dot,"[0.06, 0.08, 0.1, 0.06, 0.1, 0.06, 0.08, 0.06, 0.06]","[[0.22829877875946783, -0.39640994854570016], [0.3366371496270161, 0.05839125036393789], [-0.11436045239834208, -0.12024221759915668], [-0.02100147820737577, -0.3824026009196371], [0.08479146627654295, 0.024089629435920912], [0.16206374850784472, -0.16075841177209507], [0.38495438842944835, -0.24810596019115372], [-0.23418047716532614, 0.09565997955556291], [0.2111996426858246, 0.23215637940447356]]",density,black,,,D003,visual,8,[],"['1', '2', '3', '4']",1,2023.2.3,harveyvisual,2.1,[],8,0.75,
0,pause,0.4,None,None,None,0,105,105,105,,,,,,,,,,,,,D003,visual,8,[],"['1', '2', '3', '4']",1,2023.2.3,harveyvisual,2.1,[],8,0.75,
9,dot,0.3,['dot'],['density'],black,0,106,106,106,,,39.50022506713867,39.22277808189392,39.52271914482117,dot,"[0.1, 0.1, 0.06, 0.08, 0.1, 0.1, 0.1, 0.1, 0.1]","[[-0.03971785412685378, -0.013307253576883936], [-0.1795931736998084, 0.3973594317450326], [-0.3834375522639881, 0.20263766925149762], [-0.17272229141218848, -0.19949677387464254], [-0.5360333538572699, -0.009032368777402771], [-0.28286279854376034, -0.008232758075431683], [0.17411699897949384, -0.08382665075843401], [-0.16068367208365952, 0.1786486522774764], [0.029814794500374706, 0.34001547930781484]]",density,black,,,D003,visual,8,[],"['1', '2', '3', '4']",1,2023.2.3,harveyvisual,2.1,[],8,0.75,
0,pause,0.4,None,None,None,0,107,107,107,,,,,,,,,,,,,D003,visual,8,[],"['1', '2', '3', '4']",1,2023.2.3,harveyvisual,2.1,[],8,0.75,
20,dot,0.3,['dot'],['density'],black,0,108,108,108,,,40.20020914077759,39.92365097999573,40.222700119018555,dot,"[0.1, 0.08, 0.06, 0.1, 0.08, 0.06, 0.06, 0.1, 0.06, 0.1, 0.1, 0.1, 0.06, 0.1, 0.1, 0.1, 0.08, 0.1, 0.1, 0.06]","[[-0.5153911226293822, 0.14465759364805914], [0.16419198785693156, 0.10752976424299276], [0.10451772353573041, -0.2340202702023524], [0.3837696563773567, 0.16583626279816538], [0.5152723148788491, -0.20263420734585436], [0.31587497346834703, -0.5076086889341919], [-0.030298702507901565, 0.534702980699435], [-0.6018730047084916, -0.061785409012174844], [-0.43650594106672025, -0.39170431779732295], [-0.3254032859723326, 0.05625376278577465], [0.26288720210555505, 0.35425631768418964], [-0.24920579924920838, -0.28737901982726777], [-0.052396434308375706, 0.08151255096149002], [0.39977092086995947, -0.02661756840140489], [0.5797910152578897, 0.07645759895043355], [0.021713364620687847, -0.42656640790402345], [-0.14415473868043638, -0.11780608485640848], [-0.23753774968723912, -0.4798276565767211], [-0.41043060165764245, -0.1852871902465159], [0.005139767149992536, 0.3268312759727755]]",density,black,,,D003,visual,8,[],"['1', '2', '3', '4']",1,2023.2.3,harveyvisual,2.1,[],8,0.75,
0,pause,0.4,None,None,None,0,109,109,109,,,,,,,,,,,,,D003,visual,8,[],"['1', '2', '3', '4']",1,2023.2.3,harveyvisual,2.1,[],8,0.75,
20,dot,0.3,['dot'],['density'],black,0,110,110,110,,,40.90020704269409,40.62450695037842,40.92362308502197,dot,"[0.06, 0.08, 0.06, 0.06, 0.1, 0.08, 0.1, 0.06, 0.1, 0.08, 0.06, 0.1, 0.08, 0.1, 0.1, 0.08, 0.1, 0.1, 0.1, 0.08]","[[-0.033982437552626865, -0.05835357600533475], [0.4450181532623042, 0.22464945500803868], [0.4890752607012129, 0.018073533719147716], [-0.02942694308343452, 0.45748507908977865], [-0.5328618728617548, -0.038491694940464644], [-0.3523725351457825, 0.04557714290724757], [0.21293228133358788, -0.10936674382476058], [-0.39421365908192474, -0.19751824800829582], [0.08199062350313102, -0.4412570398150456], [0.31646740627053616, 0.4654478065566089], [-0.31219999655047914, 0.4805530618822731], [0.36938045381685447, -0.3984324145362674], [-0.34197580749080625, -0.45060550680062705], [0.5233583152918883, -0.2793054816733126], [-0.40744391596625606, 0.27772322141166256], [0.2400679033545683, 0.08439702821826467], [0.15702885113092424, 0.27942382706114055], [-0.08579978161547053, -0.2532628778636484], [-0.15772876557075455, 0.26377185983109097], [-0.14038168019604386, -0.5663267951045762]]",density,black,,,D003,visual,8,[],"['1', '2', '3', '4']",1,2023.2.3,harveyvisual,2.1,[],8,0.75,
0,pause,0.4,None,None,None,0,111,111,111,,,,,,,,,,,,,D003,visual,8,[],"['1', '2', '3', '4']",1,2023.2.3,harveyvisual,2.1,[],8,0.75,
20,dot,0.3,['dot'],['density'],black,0,112,112,112,,,41.60021495819092,41.32271599769592,41.62267804145813,dot,"[0.06, 0.06, 0.1, 0.06, 0.06, 0.1, 0.08, 0.1, 0.06, 0.1, 0.06, 0.06, 0.06, 0.08, 0.1, 0.1, 0.1, 0.08, 0.06, 0.06]","[[0.19173031371999483, 0.2577083358992407], [-0.08472091585522457, -0.07578306984271221], [0.1460362656844415, -0.5295255150445718], [-0.40894554539457495, 0.009120194720048935], [-0.23462054205596605, -0.21989629565574492], [0.3697618948936865, 0.36783076214793137], [-0.1482678808157764, -0.49563453800375723], [0.19324206369573727, -0.07210167201163953], [-0.08203280317826911, 0.2757574982616875], [-0.2443285501909367, 0.49758264809184294], [-0.4903088708014661, -0.3161597769928699], [0.3374208654513402, -0.38335128644519656], [0.5909177226768815, 0.028626263769217675], [-0.46633608163817253, 0.3256750378204413], [-0.6044309312327159, 0.028894296623461803], [0.06917708208130346, 0.4220608762014293], [0.5388942894167427, -0.16534974136567362], [0.3902947456661119, -0.016321466007845953], [-0.20054414570725382, 0.10727630059183446], [0.5026775473621782, 0.22650922685831926]]",density,black,,,D003,visual,8,[],"['1', '2', '3', '4']",1,2023.2.3,harveyvisual,2.1,[],8,0.75,
0,pause,0.4,None,None,None,0,113,113,113,,,,,,,,,,,,,D003,visual,8,[],"['1', '2', '3', '4']",1,2023.2.3,harveyvisual,2.1,[],8,0.75,
20,dot,0.3,['dot'],['density'],black,0,114,114,114,,,42.3002290725708,42.02269196510315,42.32268404960632,dot,"[0.08, 0.08, 0.06, 0.08, 0.1, 0.08, 0.08, 0.06, 0.08, 0.06, 0.08, 0.06, 0.1, 0.06, 0.08, 0.06, 0.08, 0.08, 0.06, 0.1]","[[0.15067265850350797, 0.35223359148799316], [-0.18192989506815782, -0.29624410908967724], [0.473274654965273, 0.33403423196123366], [0.2010202566860475, 0.11527510470185709], [0.5670067528339734, 0.0009159562529912624], [-0.10736073979662508, 0.40929901841177474], [0.49622222392967974, -0.18007723532495476], [-0.5585996646146651, -0.1833780959774801], [-0.11073266251040143, 0.147231454685118], [0.17567072385301363, 0.5540198835154383], [0.00726530390141511, -0.5553536455659194], [-0.3777334738051707, -0.0033630277157891686], [0.27316993771928655, -0.07538988105125427], [-0.549599175099061, 0.10404114414483329], [0.22815748040037565, -0.26174364455872823], [-0.35561325111, 0.4111245268983843], [0.013532854815176965, -0.3597617910573546], [-0.05013649107732476, -0.04320798460045139], [0.22205273322756658, -0.5165845528403079], [-0.3936742744134394, -0.31261938927217636]]",density,black,,,D003,visual,8,[],"['1', '2', '3', '4']",1,2023.2.3,harveyvisual,2.1,[],8,0.75,
0,pause,0.4,None,None,None,0,115,115,115,,,,,,,,,,,,,D003,visual,8,[],"['1', '2', '3', '4']",1,2023.2.3,harveyvisual,2.1,[],8,0.75,
20,dot,0.3,['dot'],['density'],black,0,116,116,116,,,43.00022006034851,42.72360706329346,43.02265000343323,dot,"[0.08, 0.1, 0.1, 0.1, 0.06, 0.06, 0.06, 0.06, 0.1, 0.1, 0.08, 0.06, 0.1, 0.06, 0.1, 0.1, 0.06, 0.06, 0.06, 0.1]","[[-0.505863245795838, -0.11550805904819833], [0.10846324506191318, 0.4374410940330453], [-0.3416818222825724, 0.3554424426921077], [-0.15182275407224882, 0.26757582357256504], [0.41735420684653846, 0.35305646115792316], [-0.60128923494249, 0.052294234040537665], [-0.2970342863778201, -0.47738367232698753], [0.24370942082544655, 0.20121039879004277], [0.5215293285292063, -0.13406506223464618], [0.1391517263930857, -0.20050286263164968], [-0.4128646065836993, 0.16762943295193627], [-0.04575982891240138, -0.4932019193551905], [0.21759201472941425, -0.4632083140472608], [0.09957138532138632, 0.053004926958950094], [-0.10629739354073398, 0.5700233350314545], [-0.09758483123547457, -0.18757562310751524], [0.41571982981858013, 0.0674374363806029], [-0.2977851802011443, -0.07215550813921257], [0.3260496202670585, -0.12565290417223907], [-0.43241204931408794, -0.3229560680456901]]",density,black,,,D003,visual,8,[],"['1', '2', '3', '4']",1,2023.2.3,harveyvisual,2.1,[],8,0.75,
0,pause,0.4,None,None,None,0,117,117,117,,,,,,,,,,,,,D003,visual,8,[],"['1', '2', '3', '4']",1,2023.2.3,harveyvisual,2.1,[],8,0.75,
20,dot,0.3,['dot'],['density'],black,0,118,118,118,,,43.700210094451904,43.42263603210449,43.72261309623718,dot,"[0.08, 0.08, 0.1, 0.08, 0.06, 0.1, 0.06, 0.1, 0.08, 0.08, 0.1, 0.06, 0.08, 0.08, 0.1, 0.06, 0.08, 0.08, 0.1, 0.1]","[[0.03291230950636381, 0.5638709233998758], [-0.42771322289389535, 0.27009358932102046], [-0.3784331851784975, -0.3311596335899099], [-0.5383919403226455, -0.0926810984666285], [0.19327873051458033, -0.0818141554678623], [0.1398434080800791, 0.3260681015706578], [0.3856811975192709, 0.10161176541158767], [0.3486022132600022, -0.27572192623384617], [-0.23961384801905444, -0.1515706336655831], [0.5970582581095393, -0.02722920110938655], [-0.3746884468212699, 0.029878914157477843], [-0.2045970019391699, 0.297060415240167], [-0.22503644338530693, -0.4515649605647612], [-0.02255673773952316, -0.49221278330419727], [0.4209507548789314, 0.4257521012214817], [0.5481074975960972, -0.23352154442590112], [0.2940315325649733, -0.5011846738590493], [-0.11955860860400269, 0.09488033036488464], [0.16753768182404183, -0.3538605603508872], [0.11850466262416659, 0.12469691125971627]]",density,black,,,D003,visual,8,[],"['1', '2', '3', '4']",1,2023.2.3,harveyvisual,2.1,[],8,0.75,
0,pause,0.4,None,None,None,0,119,119,119,,,,,,,,,,,,,D003,visual,8,[],"['1', '2', '3', '4']",1,2023.2.3,harveyvisual,2.1,[],8,0.75,
20,dot,0.3,['dot'],['density'],white,0,120,120,120,,,44.40022397041321,44.12265205383301,44.42262816429138,dot,"[0.08, 0.06, 0.06, 0.1, 0.1, 0.08, 0.06, 0.1, 0.1, 0.1, 0.06, 0.1, 0.08, 0.08, 0.1, 0.06, 0.1, 0.08, 0.08, 0.06]","[[-0.48555986778926274, 0.17934960592344568], [-0.24712331271425714, 0.3960260325367603], [0.5854549861714283, 0.1326774835518531], [-0.0584832844185772, 0.262003552350076], [0.4989983396299308, -0.23789252795204727], [-0.37141320396351585, -0.040049800719825335], [-0.25078136098006015, -0.39872759785410894], [-0.10978192398276371, 0.5517787484507722], [0.05476526400311299, -0.09126138940285544], [0.1568787744970972, 0.10552249922050805], [0.06676215467268576, -0.467367137396721], [-0.5962299206009429, -0.051118041332891086], [-0.038585154882400774, -0.2794681523363547], [-0.46963257847754103, -0.2793725967500844], [0.4491659918166725, 0.3956073659381769], [0.32093451809855156, -0.34508499046993163], [0.32614215720009143, -0.0842472429612049], [-0.24556155651096773, 0.20528896508131156], [0.1830920202074885, 0.4588863443572002], [0.3553035279841318, 0.1431651763396855]]",density,white,,,D003,visual,8,[],"['1', '2', '3', '4']",1,2023.2.3,harveyvisual,2.1,[],8,0.75,
0,pause,0.4,None,None,None,0,121,121,121,,,,,,,,,,,1,43.967787981033325,D003,visual,8,[],"['1', '2', '3', '4']",1,2023.2.3,harveyvisual,2.1,[],8,0.75,
20,dot,0.3,['dot'],['density'],black,0,122,122,122,,,45.100224018096924,44.822608947753906,45.1226110458374,dot,"[0.08, 0.08, 0.06, 0.08, 0.06, 0.08, 0.06, 0.06, 0.1, 0.1, 0.1, 0.08, 0.06, 0.08, 0.1, 0.06, 0.08, 0.06, 0.06, 0.08]","[[0.30675936311208396, 0.38211104484012937], [-0.20253729019117545, -0.569845280744407], [0.03465327660690143, -0.5278601990449843], [-0.2899697618003613, 0.08674832963435097], [-0.10030112013338766, -0.24609812406306425], [-0.1556800291161463, 0.3083908285577892], [0.3645153045170493, -0.3451975911111675], [0.10931949944471231, 0.4161696242140335], [-0.5107996879423194, 0.17555427958629943], [0.19074404997333072, 0.13222999074139474], [0.46690683321948223, 0.18877081242835186], [-0.43463087273941214, -0.1585590156209547], [0.22292598533528518, -0.12013401961069714], [0.5624433247378909, -0.07215127855435255], [-0.027955351032022513, 0.01595133102411872], [-0.2830603845098746, -0.3257062018050283], [-0.2137955027644981, 0.5547016241256121], [-0.5800210771666062, -0.03591004248990179], [-0.3920790870590193, 0.35987828581103337], [0.27158596111163813, -0.5397921999068367]]",density,black,,,D003,visual,8,[],"['1', '2', '3', '4']",1,2023.2.3,harveyvisual,2.1,[],8,0.75,
0,pause,0.4,None,None,None,0,123,123,123,,,,,,,,,,,,,D003,visual,8,[],"['1', '2', '3', '4']",1,2023.2.3,harveyvisual,2.1,[],8,0.75,
20,dot,0.3,['dot'],['density'],black,0,124,124,124,,,45.80020999908447,45.52356815338135,45.82296299934387,dot,"[0.1, 0.1, 0.1, 0.1, 0.08, 0.1, 0.08, 0.1, 0.06, 0.1, 0.08, 0.08, 0.06, 0.1, 0.08, 0.06, 0.06, 0.1, 0.08, 0.1]","[[-0.07231098245395073, -0.24443222215662663], [0.15670448701026718, 0.4318104081759897], [0.2770778854321405, -0.46572675667135977], [0.4089852321758759, 0.32027142152480864], [0.394326673399068, -0.06547810658846781], [-0.5840279096238348, 0.014051299418060187], [0.5852165909476955, -0.10356225061238998], [-0.3999960972085588, 0.44750604909834707], [-0.4115018918042651, -0.2336042074795769], [0.0016925043879425505, -0.5202214040115617], [-0.22534730665760772, 0.12991060515756747], [-0.422014282494935, 0.24083776790960415], [-0.24486042497712063, 0.319478598541998], [0.1070070172288754, -0.3137677369161328], [-0.40763582776583995, -0.4424612925173487], [0.2319792249761793, 0.10367561568408579], [0.04304608791003006, 0.19361352270116017], [0.145567335940338, -0.07728559233957744], [-0.21172971974329075, -0.45178792741662555], [0.5380087061590136, 0.16552542249319946]]",density,black,,,D003,visual,8,[],"['1', '2', '3', '4']",1,2023.2.3,harveyvisual,2.1,[],8,0.75,
0,pause,0.4,None,None,None,0,125,125,125,,,,,,,,,,,,,D003,visual,8,[],"['1', '2', '3', '4']",1,2023.2.3,harveyvisual,2.1,[],8,0.75,
20,dot,0.3,['dot'],['density'],black,0,126,126,126,,,46.500219106674194,46.22260403633118,46.52260899543762,dot,"[0.1, 0.1, 0.1, 0.1, 0.06, 0.08, 0.06, 0.06, 0.08, 0.06, 0.08, 0.1, 0.06, 0.06, 0.06, 0.08, 0.06, 0.1, 0.06, 0.08]","[[-0.3150442730746146, 0.01201195750195716], [-0.15333281619259148, -0.38750379246906674], [0.18112105462029926, -0.5144077256444731], [0.3632688372222661, 0.3977543342718679], [0.39257937243306507, -0.13499949902432035], [-0.5386266132535971, -0.25084118551890094], [-0.3360671636492021, -0.47097322763151367], [0.05147156025581445, 0.2857366288730586], [-0.33865333144528725, 0.41090834800246046], [-0.19350900244907215, 0.24441924663128756], [0.19282012710293261, -0.2753988066139998], [-0.5207299681013028, -0.05164245895063718], [-0.11898021914745244, -0.0015884032180027985], [0.5917138749622294, -0.12684700076734912], [0.21486827034551692, -0.06403913827504859], [0.5678986737641202, 0.1525708129443372], [0.08778610550260779, 0.5860299340208376], [0.35257998473376406, 0.1892014293008194], [0.4301023233897522, -0.3482432610304997], [-0.10872028475684165, 0.43463577229097017]]",density,black,,,D003,visual,8,[],"['1', '2', '3', '4']",1,2023.2.3,harveyvisual,2.1,[],8,0.75,
0,pause,0.4,None,None,None,0,127,127,127,,,,,,,,,,,,,D003,visual,8,[],"['1', '2', '3', '4']",1,2023.2.3,harveyvisual,2.1,[],8,0.75,
20,dot,0.3,['dot'],['density'],white,0,128,128,128,,,47.2002170085907,46.922603130340576,47.2225980758667,dot,"[0.06, 0.08, 0.08, 0.1, 0.1, 0.08, 0.08, 0.08, 0.06, 0.1, 0.08, 0.08, 0.1, 0.1, 0.08, 0.06, 0.08, 0.06, 0.08, 0.1]","[[0.36931263445327245, 0.37748070560716984], [-0.294710669648212, 0.06392877707875011], [-0.014894437223748613, -0.1029258848182758], [0.1708339657811081, 0.2759091881890626], [0.16523412410469474, 0.5599844226402022], [-0.17984163802321712, 0.24004941178243544], [-0.1431150313228472, -0.4618660378324856], [0.4766242057697584, -0.08674274959352157], [-0.5132742925109407, -0.20074698429267557], [0.36369432353360764, 0.1432394570938909], [0.4764289108140741, -0.33429880976503223], [-0.012983505133301376, 0.34370690880227417], [0.3098374849841583, -0.2208135833367625], [-0.5455899891313759, 0.16296716940172318], [0.06796060110745394, -0.5554596833724804], [0.12282468264061874, 0.08024416397167489], [0.2617830254393346, -0.4577921595237512], [-0.2551509387860821, -0.1906853291856328], [-0.3713817672618823, 0.31418644713447386], [-0.405390614846303, -0.44225061326048337]]",density,white,,,D003,visual,8,[],"['1', '2', '3', '4']",1,2023.2.3,harveyvisual,2.1,[],8,0.75,
0,pause,0.4,None,None,None,0,129,129,129,,,,,,,,,,,1,46.730170011520386,D003,visual,8,[],"['1', '2', '3', '4']",1,2023.2.3,harveyvisual,2.1,[],8,0.75,
20,dot,0.3,['dot'],['density'],black,0,130,130,130,,,47.90021300315857,47.62255597114563,47.92254900932312,dot,"[0.08, 0.1, 0.1, 0.08, 0.06, 0.1, 0.08, 0.06, 0.08, 0.1, 0.1, 0.06, 0.06, 0.08, 0.1, 0.1, 0.1, 0.06, 0.1, 0.08]","[[0.05088614619616272, 0.335766088813782], [0.1046202414176729, -0.06925172471525265], [0.33371063888125163, -0.3944311348069713], [-0.14646190386351238, 0.08922395636359415], [0.5595827461591402, -0.13228250590743726], [0.028208241658726818, 0.5696353531933125], [-0.20202715635207152, 0.32378583190750165], [0.3421719921960604, 0.2618580893618484], [0.31287476660846425, 0.025822500045782015], [-0.40569754696846516, 0.24893045639745964], [-0.009712873319808857, -0.33808641845420406], [-0.2690538365023689, 0.5029359935407418], [0.5947159486134895, 0.09258574807469103], [-0.4423803190074099, -0.271644795374275], [-0.49392136033493733, 0.04566240023894125], [-0.2808153079563905, -0.09704605092167379], [0.36971419169710507, -0.19520530027004118], [-0.21746095050689057, -0.3616863586567117], [-0.055218617463291486, -0.5524267053370101], [0.23261065342058063, 0.46225136653912513]]",density,black,,,D003,visual,8,[],"['1', '2', '3', '4']",1,2023.2.3,harveyvisual,2.1,[],8,0.75,
0,pause,0.4,None,None,None,0,131,131,131,,,,,,,,,,,,,D003,visual,8,[],"['1', '2', '3', '4']",1,2023.2.3,harveyvisual,2.1,[],8,0.75,
20,dot,0.3,['dot'],['density'],black,0,132,132,132,,,48.60021495819092,48.3234920501709,48.62363314628601,dot,"[0.08, 0.06, 0.06, 0.06, 0.08, 0.1, 0.1, 0.06, 0.08, 0.06, 0.08, 0.06, 0.06, 0.06, 0.1, 0.1, 0.06, 0.08, 0.08, 0.1]","[[-0.04465611060540975, -0.17023679417730003], [-0.47610719346706254, -0.27105715043498896], [0.4216187426836512, 0.2529151756056059], [0.3408724221888473, -0.42752245169710473], [0.3695227053496717, -0.014503013609977577], [-0.23045663129361404, -0.32731931075792714], [0.10616777930068189, 0.3953194307208273], [-0.06454151056152002, 0.29101725383014254], [-0.4076003214925249, 0.222685082699087], [-0.07156929617098118, -0.4813768764430442], [-0.5630964793240993, 0.08823992686772122], [-0.028025483453597677, 0.09254719595247285], [0.20881112981261585, -0.19501151012397844], [-0.3106097873953265, 0.47339960835644834], [-0.259898695600139, -0.10145919676600307], [0.5895702094127989, 0.11588345198273378], [0.5662687058201609, -0.10281978093910385], [0.171437010942057, -0.5802160323169246], [0.2965063214156749, 0.4545509926581669], [-0.031347216139826606, 0.5489077755300675]]",density,black,,,D003,visual,8,[],"['1', '2', '3', '4']",1,2023.2.3,harveyvisual,2.1,[],8,0.75,
0,pause,0.4,None,None,None,0,133,133,133,,,,,,,,,,,,,D003,visual,8,[],"['1', '2', '3', '4']",1,2023.2.3,harveyvisual,2.1,[],8,0.75,
20,dot,0.3,['dot'],['density'],black,0,134,134,134,,,49.30021595954895,49.02250599861145,49.32252597808838,dot,"[0.1, 0.06, 0.1, 0.1, 0.08, 0.08, 0.1, 0.08, 0.08, 0.08, 0.1, 0.06, 0.06, 0.1, 0.08, 0.08, 0.08, 0.06, 0.1, 0.06]","[[-0.13748285958501688, -0.11944803808777099], [0.5634882377648628, 0.05191487119678606], [0.20682747320435424, -0.14769724097003556], [-0.3348766638916927, 0.09612761164185468], [0.1455200291375771, 0.04570206882993044], [0.4387204738516123, -0.17304958119348815], [-0.5797977167633008, -0.012521230064734379], [0.004579614741905713, 0.2366650287631662], [0.16071487533511586, 0.3683579881301201], [0.32464494534701593, 0.12486325979767765], [-0.2694633850570653, -0.3275981717335893], [0.059431714846708616, -0.32007468073426687], [-0.5490226702458048, 0.2469772519193933], [0.49517761158641227, 0.342291523118717], [0.45800685248982076, -0.36184249296456095], [-0.0669823333913796, 0.44832694944509444], [-0.49620156383496006, -0.27242785346491105], [0.12967228850474788, -0.5777212468553333], [-0.1570875300569728, -0.5170888747806192], [-0.33759051144728874, 0.4135051919779983]]",density,black,,,D003,visual,8,[],"['1', '2', '3', '4']",1,2023.2.3,harveyvisual,2.1,[],8,0.75,
0,pause,0.4,None,None,None,0,135,135,135,,,,,,,,,,,,,D003,visual,8,[],"['1', '2', '3', '4']",1,2023.2.3,harveyvisual,2.1,[],8,0.75,
20,dot,0.3,['dot'],['density'],white,0,136,136,136,,,50.00020909309387,49.72344493865967,50.02346897125244,dot,"[0.1, 0.1, 0.06, 0.08, 0.1, 0.08, 0.1, 0.08, 0.1, 0.1, 0.1, 0.1, 0.06, 0.1, 0.08, 0.1, 0.08, 0.06, 0.1, 0.06]","[[0.137714549565231, -0.08891787780168159], [0.44486628775013914, -0.21856851280899278], [0.46854978052922236, 0.3794843817972441], [-0.1508841743067723, 0.5396722364730959], [-0.5388676501842996, -0.06379901612555355], [0.2590341183136662, 0.2791380418384136], [-0.16271016069558553, 0.31349798629386605], [-0.2507273858911454, -0.042003779931106044], [-0.526147658711646, 0.2516178651186674], [0.09276528855659616, 0.3952234651039591], [0.20578336125477292, -0.348687361284557], [0.25684628690425526, 0.5087454968813478], [-0.2547237123356878, -0.40931397820030474], [0.5688474841207908, -0.0316055130696031], [-0.44184870371174906, -0.26552770928042957], [0.015624897544495142, -0.48961777270299056], [-0.38829461336508087, 0.44788090316455126], [0.35411876577610046, -0.044136017264537086], [-0.03641792843005642, 0.04220999064890574], [-0.08606176162006629, -0.26192169658537257]]",density,white,,,D003,visual,8,[],"['1', '2', '3', '4']",1,2023.2.3,harveyvisual,2.1,[],8,0.75,
0,pause,0.4,None,None,None,0,137,137,137,,,,,,,,,,,1,49.509526014328,D003,visual,8,[],"['1', '2', '3', '4']",1,2023.2.3,harveyvisual,2.1,[],8,0.75,
20,dot,0.3,['dot'],['density'],black,0,138,138,138,,,50.70022106170654,50.42254614830017,50.72249698638916,dot,"[0.06, 0.1, 0.08, 0.08, 0.1, 0.06, 0.08, 0.1, 0.1, 0.08, 0.06, 0.1, 0.06, 0.06, 0.08, 0.06, 0.1, 0.1, 0.08, 0.1]","[[0.26630004925647965, 0.3557485268318854], [0.10211697464578895, 0.13453263928881365], [0.5761064334148694, -0.150353815204806], [-0.5090130152344843, 0.2913749258183831], [-0.5264113451167116, -0.16238006032034383], [0.08512173043996452, -0.3231386593888033], [-0.18390907214493973, 0.4483949729961325], [-0.39919353421505993, 0.010865324371168106], [-0.35381361960897423, -0.3791570592170779], [0.38655290759221517, 0.11851369716099974], [-0.2341639694950669, -0.5572267610818972], [0.048899292652129, 0.4538146445519349], [0.42671740041824513, -0.42422431137072136], [0.20278897044743271, -0.4807931041495416], [-0.18065184995369082, 0.2547566018597711], [0.39012857283303437, -0.10652257392578596], [-0.1832051921365372, 0.04775361143523482], [-0.003524478880156945, -0.5672960669678295], [0.5935672607018138, 0.055441645185017305], [0.052903548465634165, -0.11426917742669368]]",density,black,,,D003,visual,8,[],"['1', '2', '3', '4']",1,2023.2.3,harveyvisual,2.1,[],8,0.75,
0,pause,0.4,None,None,None,0,139,139,139,,,,,,,,,,,,,D003,visual,8,[],"['1', '2', '3', '4']",1,2023.2.3,harveyvisual,2.1,[],8,0.75,
20,dot,0.3,['dot'],['density'],black,0,140,140,140,,,51.400233030319214,51.1225061416626,51.42248201370239,dot,"[0.08, 0.06, 0.1, 0.08, 0.1, 0.1, 0.08, 0.1, 0.08, 0.06, 0.08, 0.06, 0.06, 0.06, 0.1, 0.1, 0.08, 0.08, 0.08, 0.1]","[[-0.2448815110708179, 0.5159843307339822], [-0.5859425716078746, -0.005760807184913563], [0.4950679906719958, -0.21110505870607682], [-0.39664447466401753, 0.25689758457999645], [-0.07600599908818817, -0.016020652784001665], [0.14646767658700865, -0.3320379433222129], [-0.2323258032243975, -0.18672009411048585], [0.09808157359108094, 0.531017711063971], [-0.1193214586266318, -0.34645285264857373], [0.1518210094059207, 0.0024250078822714016], [0.21095857147501906, 0.3717816542774698], [-0.39250335664139485, -0.41335615212533044], [-0.03846563333843456, -0.5996071683110548], [-0.14314136757400225, 0.32684316917781153], [0.2718738925514612, -0.47480666681995787], [0.36015666416931724, 0.1304645265669413], [-0.21542532144709814, 0.1363395994665242], [0.5351583096060971, 0.2240306523039169], [-0.49638426197764585, -0.23156054117401728], [0.5958944321053198, -0.0036408448850093617]]",density,black,,,D003,visual,8,[],"['1', '2', '3', '4']",1,2023.2.3,harveyvisual,2.1,[],8,0.75,
0,pause,0.4,None,None,None,0,141,141,141,,,,,,,,,,,,,D003,visual,8,[],"['1', '2', '3', '4']",1,2023.2.3,harveyvisual,2.1,[],8,0.75,
20,dot,0.3,['dot'],['density'],black,0,142,142,142,,,52.1002299785614,51.82243299484253,52.12241196632385,dot,"[0.06, 0.1, 0.08, 0.08, 0.06, 0.08, 0.1, 0.1, 0.06, 0.08, 0.1, 0.06, 0.1, 0.06, 0.1, 0.06, 0.08, 0.06, 0.06, 0.1]","[[-0.4208030295052933, -0.12657904583451435], [-0.4894870749192016, 0.09039737595823022], [0.5594990849903286, -0.041657820285175395], [0.265608711786682, -0.08045539446300748], [-0.21666077540117207, 0.5305534742701697], [-0.16800696163646245, 0.06958607294782948], [-0.2585091860463445, -0.23135930122631704], [0.2968585325548895, 0.19096317133731777], [0.34144014019062285, 0.41073551799311664], [-0.2444475687290561, -0.5521625451514128], [0.3856001617598298, -0.4316624217839139], [-0.13949054943349964, 0.29458394292919066], [-0.44126534560526387, 0.2910201910659784], [0.06808723405224892, 0.5513850900707726], [0.06177306238342106, -0.5055900446122408], [0.058631428127775775, 0.3228627050193308], [0.22695146079071715, -0.3123576608049084], [0.5735264157856169, 0.15685702741314844], [-0.46185395766321674, -0.36060387000814015], [-0.11336591409116747, -0.3925655639243454]]",density,black,,,D003,visual,8,[],"['1', '2', '3', '4']",1,2023.2.3,harveyvisual,2.1,[],8,0.75,
0,pause,0.4,None,None,None,0,143,143,143,,,,,,,,,,,,,D003,visual,8,[],"['1', '2', '3', '4']",1,2023.2.3,harveyvisual,2.1,[],8,0.75,
20,dot,0.3,['dot'],['density'],black,0,144,144,144,,,52.80020499229431,52.52241015434265,52.822405099868774,dot,"[0.1, 0.08, 0.06, 0.08, 0.08, 0.1, 0.08, 0.1, 0.1, 0.06, 0.08, 0.1, 0.08, 0.1, 0.08, 0.1, 0.06, 0.06, 0.1, 0.08]","[[0.1163718534708632, -0.4597766130371047], [-0.5079210679638446, 0.01656454930536999], [0.33240198258569353, -0.4058467367226119], [-0.48604061098939766, 0.25625016485102686], [0.42673624911878527, 0.24313487023719532], [0.39982628341367155, -0.12110113671227252], [0.5995628833448795, -0.006855935710692776], [0.14184029333967552, 0.10888126778404117], [-0.16327631649596108, 0.34346974508269934], [-0.18633584443906043, -0.30536712063644994], [0.0869667358745232, -0.25949897962192575], [0.25011959495733105, 0.3602502111671263], [0.053578803458877, 0.34665164016589844], [-0.09387966676680015, -0.07210288495184869], [0.04541385067691617, 0.5701758842832789], [-0.3991977923290231, -0.35494951498372124], [-0.25290550978277543, -0.549076620811991], [-0.22203902859165892, 0.12137482079864337], [-0.336756734569426, 0.5009350025730904], [-0.03971588577637175, -0.5919313924479653]]",density,black,,,D003,visual,8,[],"['1', '2', '3', '4']",1,2023.2.3,harveyvisual,2.1,[],8,0.75,
0,pause,0.4,None,None,None,0,145,145,145,,,,,,,,,,,,,D003,visual,8,[],"['1', '2', '3', '4']",1,2023.2.3,harveyvisual,2.1,[],8,0.75,
20,dot,0.3,['dot'],['density'],white,0,146,146,146,,,53.500211000442505,53.222432136535645,53.52241897583008,dot,"[0.06, 0.08, 0.08, 0.1, 0.1, 0.08, 0.1, 0.1, 0.1, 0.1, 0.06, 0.1, 0.06, 0.1, 0.1, 0.06, 0.1, 0.08, 0.06, 0.06]","[[-0.4735465168686419, 0.35353117472255574], [-0.04558384953182404, 0.2871109363518285], [-0.3031345545478187, -0.3644731080944493], [0.32374876136364716, -0.13381131846392536], [0.16772443745587118, -0.24959325955300066], [0.30807701727975156, 0.5169393589727975], [-0.43048133563075086, 0.08286125870577288], [-0.1368418544982445, -0.22395061319617232], [0.19539576961780103, 0.015536285280405071], [0.07701860402274041, -0.4222806180485871], [0.5657039827762208, -0.1340742269602055], [-0.4695697555119534, -0.2324678286967203], [0.35383269563368736, 0.21923932785321937], [-0.6052031477790848, -0.009173245075548467], [0.4668204087448825, -0.32094696490934804], [-0.1442206429629091, 0.12341506516436895], [0.35671965226067115, -0.4861391843887473], [-0.09314853720502192, -0.5612695044734365], [0.5359418177694143, 0.1407495591441077], [-0.2818250626009724, 0.5219999142452229]]",density,white,,,D003,visual,8,[],"['1', '2', '3', '4']",1,2023.2.3,harveyvisual,2.1,[],8,0.75,
0,pause,0.4,None,None,None,0,147,147,147,,,,,,,,,,,1,53.03094291687012,D003,visual,8,[],"['1', '2', '3', '4']",1,2023.2.3,harveyvisual,2.1,[],8,0.75,
20,dot,0.3,['dot'],['density'],black,0,148,148,148,,,54.200215101242065,53.92237901687622,54.22238206863403,dot,"[0.08, 0.06, 0.08, 0.08, 0.1, 0.08, 0.08, 0.08, 0.08, 0.08, 0.08, 0.08, 0.08, 0.06, 0.1, 0.06, 0.1, 0.08, 0.08, 0.06]","[[-0.5213599581655733, 0.18997817847684384], [-0.6039328527199177, 0.016486499937902112], [0.054305082041504416, -0.3894350517147189], [0.11216047453630662, -0.014176331224593164], [0.5928859956366658, -0.0769896913267181], [0.15497639134012642, 0.2420988314839433], [-0.29307600918583926, -0.2855107341799983], [0.33193543475580045, -0.44968776863029525], [-0.23778280194598028, -0.5308850706630761], [0.4873919078654615, 0.32988633727193795], [-0.05343912763377123, 0.5858420548618607], [0.43612306856268945, 0.04380934464835956], [0.17085553405779197, 0.43472020530219235], [-0.17546220766352905, 0.28746675477561967], [-0.3127648986065019, -0.002025445875701526], [0.3335392878672643, -0.16424990636693387], [-0.13366503901467391, -0.17685575316303864], [-0.4874594062312028, -0.15134124541989502], [-0.24018330387287434, 0.5257129749696372], [0.49502320387978627, -0.33884693216136474]]",density,black,,,D003,visual,8,[],"['1', '2', '3', '4']",1,2023.2.3,harveyvisual,2.1,[],8,0.75,
0,pause,0.4,None,None,None,0,149,149,149,,,,,,,,,,,,,D003,visual,8,[],"['1', '2', '3', '4']",1,2023.2.3,harveyvisual,2.1,[],8,0.75,
20,dot,0.3,['dot'],['density'],black,0,150,150,150,,,54.900206089019775,54.6223840713501,54.92235517501831,dot,"[0.1, 0.08, 0.08, 0.08, 0.08, 0.06, 0.1, 0.1, 0.1, 0.1, 0.08, 0.1, 0.06, 0.1, 0.06, 0.08, 0.08, 0.08, 0.06, 0.06]","[[-0.24960225335708774, 0.07107097132609808], [0.484188267246895, -0.343163880163095], [-0.0034759696331856382, -0.37093465327077213], [-0.19352835067819868, -0.2338234096155365], [0.31162338322418925, 0.48315445640645205], [-0.39220901167182376, -0.23721367086114042], [-0.49218338949195156, 0.17155998083439178], [-0.008412047426936242, 0.4550798535432965], [0.5301886461646047, 0.0622791690673446], [0.11847452002581627, 0.2285890088247864], [-0.587222437703039, -0.0627087835774627], [0.18772388196986833, -0.007830610055876486], [0.34067797617517603, 0.21638223993239414], [-0.010705450329134725, -0.16959522381495923], [0.2856002742804561, -0.1728675264694131], [-0.3061894136573825, 0.30423379301431774], [-0.28353501131274267, 0.5243188291910436], [0.18871941447176133, -0.4920631348966827], [-0.310776648857989, -0.43493787904268794], [0.5199996939897146, -0.14358289904122112]]",density,black,,,D003,visual,8,[],"['1', '2', '3', '4']",1,2023.2.3,harveyvisual,2.1,[],8,0.75,
0,pause,0.4,None,None,None,0,151,151,151,,,,,,,,,,,,,D003,visual,8,[],"['1', '2', '3', '4']",1,2023.2.3,harveyvisual,2.1,[],8,0.75,
20,dot,0.3,['dot'],['density'],black,0,152,152,152,,,55.60022711753845,55.322373151779175,55.62236309051514,dot,"[0.06, 0.1, 0.08, 0.08, 0.06, 0.08, 0.1, 0.08, 0.08, 0.08, 0.08, 0.1, 0.08, 0.06, 0.1, 0.1, 0.1, 0.06, 0.1, 0.06]","[[0.05075761163405934, -0.4995238238903097], [-0.12070428441685616, 0.07188098902048279], [-0.2678536823367001, -0.22461890945286722], [0.08490585311579146, 0.5408880070919099], [0.5186482366350106, 0.20249792505427827], [0.2673609291463659, 0.4316478459130626], [0.5576386887991819, -0.0643074453438699], [-0.511787358639554, 0.09110687498981929], [-0.4728539764981088, -0.14504805210321506], [0.24077624454376378, -0.26750812454120054], [0.5017760250591493, -0.3281082036264034], [-0.2873807300220147, -0.509893198654446], [-0.047912610346362405, -0.31361701197009545], [-0.3912204249478106, 0.24145492451487482], [0.23426739945647312, 0.23581206105944263], [0.28251544366242687, -0.5076973022033022], [-0.112638590391887, 0.5763706217487249], [-0.4543399651764989, -0.33841289545768544], [0.0778554025727144, 0.02618704892180479], [-0.0800203059949488, -0.11763846897734503]]",density,black,,,D003,visual,8,[],"['1', '2', '3', '4']",1,2023.2.3,harveyvisual,2.1,[],8,0.75,
0,pause,0.4,None,None,None,0,153,153,153,,,,,,,,,,,,,D003,visual,8,[],"['1', '2', '3', '4']",1,2023.2.3,harveyvisual,2.1,[],8,0.75,
20,dot,0.3,['dot'],['density'],black,0,154,154,154,,,56.300209045410156,56.02233099937439,56.32231616973877,dot,"[0.06, 0.1, 0.08, 0.1, 0.08, 0.08, 0.06, 0.06, 0.08, 0.1, 0.1, 0.1, 0.06, 0.08, 0.1, 0.06, 0.1, 0.06, 0.1, 0.08]","[[0.21856463981597718, 0.4932847039092978], [0.024797104259118852, -0.576762686833781], [-0.09063443599020715, -0.1591720221888775], [0.5392803089008115, 0.24168213994226145], [-0.5785622014137486, -0.005833202037305502], [-0.3373000039465606, -0.1720228442537911], [-0.33123027636037095, 0.40241544137481444], [-0.39707375632669045, -0.42148706853981094], [0.13655226332033277, -0.2243927766428911], [0.4519366944799189, -0.3787576183039948], [0.09867777750836493, 0.2575358559917661], [-0.301145028546679, 0.15462622122185388], [0.27805960492798343, -0.5308107914483853], [0.5602849875414778, -0.15945121800376766], [-0.0100848964077902, 0.5975923595773971], [0.3214654568870171, 0.15771089563639007], [-0.4885321272669174, 0.22663749669794298], [0.32647979482417433, -0.22916047807027456], [-0.09782377128311026, -0.4228056612101867], [-0.2192230388963461, 0.5596011892510266]]",density,black,,,D003,visual,8,[],"['1', '2', '3', '4']",1,2023.2.3,harveyvisual,2.1,[],8,0.75,
0,pause,0.4,None,None,None,0,155,155,155,,,,,,,,,,,,,D003,visual,8,[],"['1', '2', '3', '4']",1,2023.2.3,harveyvisual,2.1,[],8,0.75,
9,dot,0.3,['dot'],['density'],black,0,156,156,156,,,57.000224113464355,56.72250199317932,57.02230215072632,dot,"[0.06, 0.08, 0.06, 0.06, 0.06, 0.1, 0.06, 0.1, 0.1]","[[0.31750259908069645, 0.09103062301409195], [-0.10814993995151222, -0.14883262012051235], [0.2615101699546999, -0.13245952524223892], [0.014531427323725789, 0.3887544696515085], [-0.1117096847062306, 0.09593752649312724], [0.07810272484559946, -0.019955638642360052], [-0.26173373106631487, 0.2840804484106463], [0.4370020372247476, 0.2669512546191977], [0.11115841416421544, 0.18722161068425575]]",density,black,,,D003,visual,8,[],"['1', '2', '3', '4']",1,2023.2.3,harveyvisual,2.1,[],8,0.75,
0,pause,0.4,None,None,None,0,157,157,157,,,,,,,,,,,,,D003,visual,8,[],"['1', '2', '3', '4']",1,2023.2.3,harveyvisual,2.1,[],8,0.75,
9,dot,0.3,['dot'],['density'],black,0,158,158,158,,,57.70021295547485,57.42229509353638,57.72234511375427,dot,"[0.06, 0.06, 0.06, 0.06, 0.08, 0.1, 0.06, 0.06, 0.1]","[[0.30047334598257713, -0.32583448447642216], [0.4997394081452916, 0.05175273655880906], [0.13646797290608587, 0.02221883094322858], [0.11448241016544139, -0.2117191838414046], [0.417500260412479, 0.2413963184479076], [0.19152536325099656, 0.23172406522327998], [0.5046802385722475, -0.28323005758562664], [-0.037891296982194685, 0.14714919272112825], [0.3292067348064443, -0.0657181274468392]]",density,black,,,D003,visual,8,[],"['1', '2', '3', '4']",1,2023.2.3,harveyvisual,2.1,[],8,0.75,
0,pause,0.4,None,None,None,0,159,159,159,,,,,,,,,,,,,D003,visual,8,[],"['1', '2', '3', '4']",1,2023.2.3,harveyvisual,2.1,[],8,0.75,
9,dot,0.3,['dot'],['density'],black,0,160,160,160,,,58.400222063064575,58.12231111526489,58.42340612411499,dot,"[0.1, 0.06, 0.06, 0.08, 0.1, 0.06, 0.08, 0.08, 0.1]","[[0.4433726728065019, 0.22320554513198193], [0.1026133663954636, -0.050786049565613584], [0.20022034484770485, 0.4412403735117007], [0.45250313802570796, 0.010227273383000257], [0.037500571895399265, 0.24935285809920393], [0.23874579090912346, 0.11348512554989887], [0.25013734113836505, -0.23502010549412247], [0.4599692436892986, -0.2536974682823114], [0.04694731086691962, -0.2548367103293993]]",density,black,,,D003,visual,8,[],"['1', '2', '3', '4']",1,2023.2.3,harveyvisual,2.1,[],8,0.75,
0,pause,0.4,None,None,None,0,161,161,161,,,,,,,,,,,,,D003,visual,8,[],"['1', '2', '3', '4']",1,2023.2.3,harveyvisual,2.1,[],8,0.75,
9,dot,0.3,['dot'],['density'],black,0,162,162,162,,,59.10022211074829,58.823326110839844,59.122318983078,dot,"[0.06, 0.1, 0.06, 0.1, 0.06, 0.1, 0.1, 0.1, 0.08]","[[-0.39546702852536103, 0.05887767166707298], [0.0019437857506851024, 0.07006750722115952], [0.08809400946991845, -0.15083790972035777], [-0.35358057288562594, -0.14123029179452673], [-0.18893042820243505, -0.004761820558363635], [-0.16054322822148615, -0.2701644482013472], [-0.3593088451216199, 0.2649120528395154], [-0.09346394646241396, -0.4621051997984888], [-0.5526246027455071, -0.11781718335669726]]",density,black,,,D003,visual,8,[],"['1', '2', '3', '4']",1,2023.2.3,harveyvisual,2.1,[],8,0.75,
0,pause,0.4,None,None,None,0,163,163,163,,,,,,,,,,,,,D003,visual,8,[],"['1', '2', '3', '4']",1,2023.2.3,harveyvisual,2.1,[],8,0.75,
9,dot,0.3,['dot'],['density'],black,0,164,164,164,,,59.80020594596863,59.52226805686951,59.8222930431366,dot,"[0.1, 0.1, 0.1, 0.1, 0.1, 0.08, 0.1, 0.1, 0.06]","[[0.5176022259896301, 0.07013652950073157], [0.29073914382076843, 0.49095716113391286], [0.25755010907869064, 0.10321661572421419], [0.11549350267606502, 0.37871636325142816], [-0.040248060121338324, 0.07603447111469516], [0.35733910828644905, -0.07238149579930037], [0.09184169877402729, -0.10424630849328012], [-0.10934901156313583, -0.14911132891814113], [0.4158094160330474, 0.26019999263529187]]",density,black,,,D003,visual,8,[],"['1', '2', '3', '4']",1,2023.2.3,harveyvisual,2.1,[],8,0.75,
0,pause,0.4,None,None,None,0,165,165,165,,,,,,,,,,,,,D003,visual,8,[],"['1', '2', '3', '4']",1,2023.2.3,harveyvisual,2.1,[],8,0.75,
9,dot,0.3,['dot'],['density'],black,0,166,166,166,,,60.50022315979004,60.22228693962097,60.52241015434265,dot,"[0.06, 0.1, 0.1, 0.08, 0.06, 0.06, 0.08, 0.08, 0.08]","[[0.22829877875946783, -0.39640994854570016], [0.3366371496270161, 0.05839125036393789], [-0.11436045239834208, -0.12024221759915668], [-0.02100147820737577, -0.3824026009196371], [0.08479146627654295, 0.024089629435920912], [0.16206374850784472, -0.16075841177209507], [0.38495438842944835, -0.24810596019115372], [-0.23418047716532614, 0.09565997955556291], [0.2111996426858246, 0.23215637940447356]]",density,black,,,D003,visual,8,[],"['1', '2', '3', '4']",1,2023.2.3,harveyvisual,2.1,[],8,0.75,
0,pause,0.4,None,None,None,0,167,167,167,,,,,,,,,,,,,D003,visual,8,[],"['1', '2', '3', '4']",1,2023.2.3,harveyvisual,2.1,[],8,0.75,
8,dot,0.3,['dot'],['density'],white,0,168,168,168,,,61.20020604133606,60.92222809791565,61.22224712371826,dot,"[0.06, 0.08, 0.08, 0.1, 0.06, 0.08, 0.06, 0.1]","[[0.4359105889063985, -0.17362457700912998], [-0.10421753759268779, -0.0599030042764737], [0.3870326705858601, 0.24174009796940588], [0.2566713073165989, 0.014561377540278508], [0.2306797840234149, -0.3263374489921181], [0.47690301692068965, 0.04601699051563034], [0.08674944532705724, -0.15383855565976665], [0.03609124925759635, 0.09790267139194009]]",density,white,,,D003,visual,8,[],"['1', '2', '3', '4']",1,2023.2.3,harveyvisual,2.1,[],8,0.75,
0,pause,0.4,None,None,None,0,169,169,169,,,,,,,,,,,1,60.71284198760986,D003,visual,8,[],"['1', '2', '3', '4']",1,2023.2.3,harveyvisual,2.1,[],8,0.75,
8,dot,0.3,['dot'],['density'],black,0,170,170,170,,,61.90021109580994,61.62224197387695,61.922229051589966,dot,"[0.1, 0.1, 0.06, 0.1, 0.08, 0.1, 0.1, 0.06]","[[-0.24177141476747963, 0.37227001522147646], [0.022885153928237218, 0.26973630011126315], [-0.028424808126663318, 0.474031493095366], [-0.14677856605916886, 0.1510981622513803], [-0.33541894344674456, 0.07730913931898181], [0.10840621230513336, 0.04997884008138209], [0.30094222783758756, 0.17024461371702543], [-0.056701880949321645, -0.08542646800774611]]",density,black,,,D003,visual,8,[],"['1', '2', '3', '4']",1,2023.2.3,harveyvisual,2.1,[],8,0.75,
0,pause,0.4,None,None,None,0,171,171,171,,,,,,,,,,,,,D003,visual,8,[],"['1', '2', '3', '4']",1,2023.2.3,harveyvisual,2.1,[],8,0.75,
8,dot,0.3,['dot'],['density'],black,0,172,172,172,,,62.60020709037781,62.322256088256836,62.62217307090759,dot,"[0.08, 0.1, 0.06, 0.1, 0.08, 0.06, 0.08, 0.1]","[[0.2715518471235014, -0.4245138665073026], [0.03602391524707561, -0.40638782213015096], [0.4828297141312073, -0.09119901312376678], [0.02835794216237903, 0.028275321652194735], [-0.0895445032969687, -0.19822740391127236], [0.3178997883629752, 0.08245100984997318], [0.21920060966397442, -0.22342839817001514], [0.46807969757011175, -0.32427319705723295]]",density,black,,,D003,visual,8,[],"['1', '2', '3', '4']",1,2023.2.3,harveyvisual,2.1,[],8,0.75,
0,pause,0.4,None,None,None,0,173,173,173,,,,,,,,,,,,,D003,visual,8,[],"['1', '2', '3', '4']",1,2023.2.3,harveyvisual,2.1,[],8,0.75,
8,dot,0.3,['dot'],['density'],black,0,174,174,174,,,63.30022096633911,63.02219796180725,63.32218599319458,dot,"[0.06, 0.1, 0.08, 0.1, 0.1, 0.08, 0.1, 0.1]","[[0.016639406518403475, -0.10031965053970064], [-0.49734137941811546, 0.023312718056099104], [0.03171158295547566, 0.2028207856397581], [-0.3777108616291506, 0.18827317115199685], [-0.2734124440264558, -0.20525012861841768], [-0.1742574757978524, 0.04093824739900491], [-0.17815403785603903, 0.26205888083036905], [-0.2502819750276768, 0.4804358206127844]]",density,black,,,D003,visual,8,[],"['1', '2', '3', '4']",1,2023.2.3,harveyvisual,2.1,[],8,0.75,
0,pause,0.4,None,None,None,0,175,175,175,,,,,,,,,,,,,D003,visual,8,[],"['1', '2', '3', '4']",1,2023.2.3,harveyvisual,2.1,[],8,0.75,
8,dot,0.3,['dot'],['density'],black,0,176,176,176,,,64.00020694732666,63.72250413894653,64.02215504646301,dot,"[0.1, 0.08, 0.06, 0.1, 0.06, 0.08, 0.1, 0.08]","[[-0.16499387414028463, -0.418455346753131], [0.031011941373623824, -0.006148034068666969], [-0.4150712424924157, -0.28668557629476243], [-0.199054958380199, -0.21375968732837633], [-0.4870789535587041, 0.00515905815181239], [-0.198479811208303, 0.006815000109153054], [-0.3273741662815474, 0.19008037141614484], [0.04340096687518584, -0.25044408321713213]]",density,black,,,D003,visual,8,[],"['1', '2', '3', '4']",1,2023.2.3,harveyvisual,2.1,[],8,0.75,
0,pause,0.4,None,None,None,0,177,177,177,,,,,,,,,,,,,D003,visual,8,[],"['1', '2', '3', '4']",1,2023.2.3,harveyvisual,2.1,[],8,0.75,
8,dot,0.3,['dot'],['density'],black,0,178,178,178,,,64.7002341747284,64.42219114303589,64.72219204902649,dot,"[0.1, 0.06, 0.06, 0.1, 0.06, 0.08, 0.1, 0.1]","[[0.12411109391386341, -0.5343823995123961], [-0.21238427398525783, -0.3197389486612228], [-0.06551876445787266, 0.032183079599910736], [0.22034046694826517, 0.05676208929132721], [0.31747551588691986, -0.13046885784073625], [0.01834943727978222, -0.34316474661021057], [0.10776215616131694, -0.12386070969881222], [-0.2386971922539417, -0.09256206635527232]]",density,black,,,D003,visual,8,[],"['1', '2', '3', '4']",1,2023.2.3,harveyvisual,2.1,[],8,0.75,
0,pause,0.4,None,None,None,0,179,179,179,,,,,,,,,,,,,D003,visual,8,[],"['1', '2', '3', '4']",1,2023.2.3,harveyvisual,2.1,[],8,0.75,
7,dot,0.3,['dot'],['density'],white,0,180,180,180,,,65.40021514892578,65.1221091747284,65.42213010787964,dot,"[0.1, 0.08, 0.1, 0.06, 0.06, 0.1, 0.08]","[[-0.1635229753841098, 0.12186382262109141], [0.03437657187081179, 0.5178389267683822], [0.324184412335695, 0.17931743601205324], [0.08929018524031027, 0.11005745596178185], [-0.1318259817332877, 0.4026967659136047], [-0.053046683696667, -0.06058584598870606], [0.042745683665752716, 0.304616966822181]]",density,white,,,D003,visual,8,[],"['1', '2', '3', '4']",1,2023.2.3,harveyvisual,2.1,[],8,0.75,
0,pause,0.4,None,None,None,0,181,181,181,,,,,,,,,,,1,64.91837096214294,D003,visual,8,[],"['1', '2', '3', '4']",1,2023.2.3,harveyvisual,2.1,[],8,0.75,
7,dot,0.3,['dot'],['density'],black,0,182,182,182,,,66.10022401809692,65.82315802574158,66.12209606170654,dot,"[0.08, 0.1, 0.06, 0.08, 0.08, 0.08, 0.1]","[[-0.3025445156539714, -0.42280529123536587], [0.12162933753582021, -0.2851722644810181], [-0.2753205641105948, -0.038672864930592576], [-0.4202189534315163, -0.18742991959605093], [-0.15636117447925973, -0.27217203193286355], [-0.09967880665522989, -0.47242523529006747], [-0.06261398545311019, -0.08879309989794046]]",density,black,,,D003,visual,8,[],"['1', '2', '3', '4']",1,2023.2.3,harveyvisual,2.1,[],8,0.75,
0,pause,0.4,None,None,None,0,183,183,183,,,,,,,,,,,,,D003,visual,8,[],"['1', '2', '3', '4']",1,2023.2.3,harveyvisual,2.1,[],8,0.75,
7,dot,0.3,['dot'],['density'],black,0,184,184,184,,,66.80023097991943,66.52209305763245,66.82207202911377,dot,"[0.06, 0.06, 0.08, 0.06, 0.08, 0.06, 0.1]","[[0.19245168201499255, -0.1876960705048169], [-0.3381443552002159, -0.23329338142126996], [-0.10497405195571721, -0.20200038512761503], [-0.19215049966389516, -0.01485034356210763], [-0.14804808022624072, 0.20187381879058183], [0.049390412829639754, -0.0077734514623590935], [0.08212821656350888, 0.19234027401595055]]",density,black,,,D003,visual,8,[],"['1', '2', '3', '4']",1,2023.2.3,harveyvisual,2.1,[],8,0.75,
0,pause,0.4,None,None,None,0,185,185,185,,,,,,,,,,,,,D003,visual,8,[],"['1', '2', '3', '4']",1,2023.2.3,harveyvisual,2.1,[],8,0.75,
7,dot,0.3,['dot'],['density'],black,0,186,186,186,,,67.5002269744873,67.2221040725708,67.52383804321289,dot,"[0.1, 0.1, 0.1, 0.06, 0.08, 0.08, 0.06]","[[0.1318978468379982, 0.48780960721302624], [-0.15530952210580917, 0.2429536962773128], [0.21675324185561073, 0.09111206147250148], [0.13033099328542835, 0.28547066376201063], [0.3859901392997328, 0.20497483482614012], [0.014590257841440182, 0.0970646397970693], [0.1730960121663288, -0.1180805096677859]]",density,black,,,D003,visual,8,[],"['1', '2', '3', '4']",1,2023.2.3,harveyvisual,2.1,[],8,0.75,
0,pause,0.4,None,None,None,0,187,187,187,,,,,,,,,,,,,D003,visual,8,[],"['1', '2', '3', '4']",1,2023.2.3,harveyvisual,2.1,[],8,0.75,
7,dot,0.3,['dot'],['density'],black,0,188,188,188,,,68.20022106170654,67.92204594612122,68.22202801704407,dot,"[0.1, 0.08, 0.06, 0.08, 0.06, 0.08, 0.08]","[[0.12902113605384963, -0.35167066519854956], [0.3838909825822851, -0.05572740120406059], [-0.02857767273637445, 0.1549795872955612], [0.19333287999408408, 0.10698923431715611], [-0.08146847087507005, -0.06064403559207536], [0.18020694687254563, -0.15550905334431223], [-0.07225335190945896, -0.28606481362007624]]",density,black,,,D003,visual,8,[],"['1', '2', '3', '4']",1,2023.2.3,harveyvisual,2.1,[],8,0.75,
0,pause,0.4,None,None,None,0,189,189,189,,,,,,,,,,,,,D003,visual,8,[],"['1', '2', '3', '4']",1,2023.2.3,harveyvisual,2.1,[],8,0.75,
7,dot,0.3,['dot'],['density'],white,0,190,190,190,,,68.90021300315857,68.62201809883118,68.92200303077698,dot,"[0.08, 0.08, 0.1, 0.1, 0.06, 0.1, 0.08]","[[0.3350011905151264, 0.09255159473130091], [-0.07424962927914175, -0.2643067362759337], [-0.0068732696698998825, 0.04948606721470151], [0.12855319879406235, -0.3381192636220083], [0.11551090787938859, 0.24000211478775196], [0.3415900712266813, -0.1269386107563701], [0.14228147320501944, -0.08533637750285226]]",density,white,,,D003,visual,8,[],"['1', '2', '3', '4']",1,2023.2.3,harveyvisual,2.1,[],8,0.75,
0,pause,0.4,None,None,None,0,191,191,191,,,,,,,,,,,1,68.4187970161438,D003,visual,8,[],"['1', '2', '3', '4']",1,2023.2.3,harveyvisual,2.1,[],8,0.75,
6,dot,0.3,['dot'],['density'],black,0,192,192,192,,,69.60021495819092,69.3220419883728,69.62199997901917,dot,"[0.1, 0.06, 0.08, 0.06, 0.08, 0.1]","[[0.3299424372810393, 0.4114780133894161], [0.051944887288218326, -0.03233758374135307], [0.4337222981537534, -0.07578498258626121], [0.10477943773033714, 0.1703675017914044], [0.3400878522727408, 0.20016066552806494], [0.2510029109880425, 0.01747244452819591]]",density,black,,,D003,visual,8,[],"['1', '2', '3', '4']",1,2023.2.3,harveyvisual,2.1,[],8,0.75,
0,pause,0.4,None,None,None,0,193,193,193,,,,,,,,,,,,,D003,visual,8,[],"['1', '2', '3', '4']",1,2023.2.3,harveyvisual,2.1,[],8,0.75,
6,dot,0.3,['dot'],['density'],black,0,194,194,194,,,70.30022501945496,70.02198696136475,70.32200598716736,dot,"[0.06, 0.1, 0.1, 0.06, 0.06, 0.08]","[[-0.5042184434856596, 0.24959378884587158], [-0.14877643798118484, -0.059020126001740114], [-0.46546181494132466, -0.1471818588402077], [-0.26957518187208745, -0.22263810459524838], [-0.2342448443914648, 0.21754944417529726], [-0.37109182385784195, 0.03297203532481631]]",density,black,,,D003,visual,8,[],"['1', '2', '3', '4']",1,2023.2.3,harveyvisual,2.1,[],8,0.75,
0,pause,0.4,None,None,None,0,195,195,195,,,,,,,,,,,,,D003,visual,8,[],"['1', '2', '3', '4']",1,2023.2.3,harveyvisual,2.1,[],8,0.75,
6,dot,0.3,['dot'],['density'],black,0,196,196,196,,,71.00020599365234,70.72197604179382,71.02194714546204,dot,"[0.06, 0.06, 0.08, 0.06, 0.06, 0.08]","[[-0.5379788740814003, -0.011730333491669416], [-0.1820890739253136, -0.27973544868684425], [-0.07809457889047756, -0.09124846264896269], [-0.30616251401069866, -0.45101817852416426], [-0.44200878281119743, -0.26991620184617166], [-0.3315938551005316, -0.08696624632848979]]",density,black,,,D003,visual,8,[],"['1', '2', '3', '4']",1,2023.2.3,harveyvisual,2.1,[],8,0.75,
0,pause,0.4,None,None,None,0,197,197,197,,,,,,,,,,,,,D003,visual,8,[],"['1', '2', '3', '4']",1,2023.2.3,harveyvisual,2.1,[],8,0.75,
6,dot,0.3,['dot'],['density'],black,0,198,198,198,,,71.70023512840271,71.4219880104065,71.72195506095886,dot,"[0.1, 0.1, 0.1, 0.06, 0.1, 0.1]","[[0.0015484977009578463, -0.37153509484940705], [-0.24631791352898516, -0.16063896847060222], [-0.21037316856202723, -0.37491302730087106], [-0.14520134419833938, 0.05228402714841561], [-0.41979900021501537, -0.27073368115662844], [-0.020720382871846178, -0.14076137757070492]]",density,black,,,D003,visual,8,[],"['1', '2', '3', '4']",1,2023.2.3,harveyvisual,2.1,[],8,0.75,
0,pause,0.4,None,None,None,0,199,199,199,,,,,,,,,,,,,D003,visual,8,[],"['1', '2', '3', '4']",1,2023.2.3,harveyvisual,2.1,[],8,0.75,
6,dot,0.3,['dot'],['density'],black,0,200,200,200,,,72.40021514892578,72.12197494506836,72.42199110984802,dot,"[0.1, 0.06, 0.06, 0.06, 0.08, 0.06]","[[0.1344939073868, 0.11682503965153783], [0.2622842826516073, -0.1576809643807538], [0.491422654665352, 0.2653315688189552], [0.5669231994484553, 0.0667155191364867], [0.2299276458131091, 0.29835232047215776], [0.3356420801536577, 0.10517090915368521]]",density,black,,,D003,visual,8,[],"['1', '2', '3', '4']",1,2023.2.3,harveyvisual,2.1,[],8,0.75,
0,pause,0.4,None,None,None,0,201,201,201,,,,,,,,,,,,,D003,visual,8,[],"['1', '2', '3', '4']",1,2023.2.3,harveyvisual,2.1,[],8,0.75,
6,dot,0.3,['dot'],['density'],white,0,202,202,202,,,73.10022711753845,72.82195115089417,73.1219379901886,dot,"[0.08, 0.06, 0.06, 0.06, 0.06, 0.1]","[[0.23041567882598732, 0.45619944218456715], [0.5278859611842325, 0.18245830030246968], [0.08738225171760033, 0.1578384040678088], [0.20561463112105705, -0.03996865664556224], [0.3021721310554224, 0.21718230064421146], [0.4273755636869532, 0.38341374408431883]]",density,white,,,D003,visual,8,[],"['1', '2', '3', '4']",1,2023.2.3,harveyvisual,2.1,[],8,0.75,
0,pause,0.4,None,None,None,0,203,203,203,,,,,,,,,,,1,72.64237904548645,D003,visual,8,[],"['1', '2', '3', '4']",1,2023.2.3,harveyvisual,2.1,[],8,0.75,
5,dot,0.3,['dot'],['density'],black,0,204,204,204,,,73.80023312568665,73.52188801765442,73.82189416885376,dot,"[0.06, 0.08, 0.06, 0.06, 0.08]","[[-0.3632963637400461, -0.33792544526642676], [-0.48189922448633543, -0.036156829306921726], [-0.2958020468624338, 0.07292024124872273], [-0.10639492237515816, -0.0008972940205680791], [-0.20818262001932955, -0.17666930306052683]]",density,black,,,D003,visual,8,[],"['1', '2', '3', '4']",1,2023.2.3,harveyvisual,2.1,[],8,0.75,
0,pause,0.4,None,None,None,0,205,205,205,,,,,,,,,,,,,D003,visual,8,[],"['1', '2', '3', '4']",1,2023.2.3,harveyvisual,2.1,[],8,0.75,
5,dot,0.3,['dot'],['density'],black,0,206,206,206,,,74.50022506713867,74.20521903038025,74.52188801765442,dot,"[0.08, 0.06, 0.08, 0.08, 0.1]","[[-0.11834215492801986, 0.412508379109845], [0.31881799646300274, 0.30859303438359803], [-0.06368743078099719, 0.10105058071702504], [0.1133485112468387, 0.46262203184429457], [0.11957051434631445, 0.24197418837926052]]",density,black,,,D003,visual,8,[],"['1', '2', '3', '4']",1,2023.2.3,harveyvisual,2.1,[],8,0.75,
0,pause,0.4,None,None,None,0,207,207,207,,,,,,,,,,,,,D003,visual,8,[],"['1', '2', '3', '4']",1,2023.2.3,harveyvisual,2.1,[],8,0.75,
5,dot,0.3,['dot'],['density'],black,0,208,208,208,,,75.20023512840271,74.90634512901306,75.22185897827148,dot,"[0.08, 0.08, 0.1, 0.06, 0.08]","[[0.10176071415026891, -0.0029310292721688898], [0.32748853803000494, -0.2831003617774451], [0.10999898603900501, -0.23076615641811304], [0.2383494361888625, 0.16403485824849598], [0.3558293804179042, -0.08171974316418079]]",density,black,,,D003,visual,8,[],"['1', '2', '3', '4']",1,2023.2.3,harveyvisual,2.1,[],8,0.75,
0,pause,0.4,None,None,None,0,209,209,209,,,,,,,,,,,,,D003,visual,8,[],"['1', '2', '3', '4']",1,2023.2.3,harveyvisual,2.1,[],8,0.75,
5,dot,0.3,['dot'],['density'],black,0,210,210,210,,,75.9002320766449,75.60510015487671,75.92182993888855,dot,"[0.1, 0.1, 0.06, 0.06, 0.06]","[[0.34746533592570195, 0.16118282603596082], [0.14457128296481445, 0.28865621170929245], [0.4549189851861922, 0.34228556952890804], [0.008483415068308318, 0.44103246018778014], [0.27150044131742485, 0.4621652121832405]]",density,black,,,D003,visual,8,[],"['1', '2', '3', '4']",1,2023.2.3,harveyvisual,2.1,[],8,0.75,
0,pause,0.4,None,None,None,0,211,211,211,,,,,,,,,,,,,D003,visual,8,[],"['1', '2', '3', '4']",1,2023.2.3,harveyvisual,2.1,[],8,0.75,
5,dot,0.3,['dot'],['density'],black,0,212,212,212,,,76.6002299785614,76.30519795417786,76.62182211875916,dot,"[0.06, 0.08, 0.1, 0.08, 0.08]","[[0.08548847697718086, 0.4135790235028826], [-0.012611048966726563, 0.22662400259503446], [0.27435170057987585, 0.4853016025774898], [-0.23063129862993442, 0.3109017384705433], [-0.11887524344887646, 0.49040580377695175]]",density,black,,,D003,visual,8,[],"['1', '2', '3', '4']",1,2023.2.3,harveyvisual,2.1,[],8,0.75,
0,pause,0.4,None,None,None,0,213,213,213,,,,,,,,,,,,,D003,visual,8,[],"['1', '2', '3', '4']",1,2023.2.3,harveyvisual,2.1,[],8,0.75,
5,dot,0.3,['dot'],['density'],black,0,214,214,214,,,77.30022096633911,77.00517296791077,77.32288217544556,dot,"[0.08, 0.08, 0.1, 0.06, 0.1]","[[0.029171133319913545, -0.11913068329317353], [-0.2981845944788078, -0.46624640290839614], [-0.1844599491613969, -0.04126455345730423], [-0.2900988597239497, -0.2493716418714862], [-0.0791391532727178, -0.3057260733699829]]",density,black,,,D003,visual,8,[],"['1', '2', '3', '4']",1,2023.2.3,harveyvisual,2.1,[],8,0.75,
0,pause,0.4,None,None,None,0,215,215,215,,,,,,,,,,,,,D003,visual,8,[],"['1', '2', '3', '4']",1,2023.2.3,harveyvisual,2.1,[],8,0.75,
4,dot,0.3,['dot'],['density'],white,0,216,216,216,,,78.00021195411682,77.70518708229065,78.02180910110474,dot,"[0.1, 0.06, 0.1, 0.06]","[[0.06019618102804278, 0.17823994931545822], [-0.1876584465411705, -0.07971170835358893], [0.026807447441335588, -0.04038633305360204], [-0.17818728785032123, 0.12753763641901858]]",density,white,,,D003,visual,8,[],"['1', '2', '3', '4']",1,2023.2.3,harveyvisual,2.1,[],8,0.75,
0,pause,0.4,None,None,None,0,217,217,217,,,,,,,,,,,1,77.54598999023438,D003,visual,8,[],"['1', '2', '3', '4']",1,2023.2.3,harveyvisual,2.1,[],8,0.75,
4,dot,0.3,['dot'],['density'],black,0,218,218,218,,,78.70020914077759,78.40515613555908,78.72182202339172,dot,"[0.08, 0.1, 0.06, 0.1]","[[0.2593869086993074, -0.26887741013308497], [0.09674879007849839, -0.39609983087723066], [-0.011093693993988496, -0.14004324908426333], [0.28630805459639813, -0.4681830009867555]]",density,black,,,D003,visual,8,[],"['1', '2', '3', '4']",1,2023.2.3,harveyvisual,2.1,[],8,0.75,
0,pause,0.4,None,None,None,0,219,219,219,,,,,,,,,,,,,D003,visual,8,[],"['1', '2', '3', '4']",1,2023.2.3,harveyvisual,2.1,[],8,0.75,
4,dot,0.3,['dot'],['density'],black,0,220,220,220,,,79.40022397041321,79.10514903068542,79.4218111038208,dot,"[0.1, 0.08, 0.06, 0.1]","[[-0.4918595852306691, 0.19162898845839058], [-0.30188041745692074, 0.10218906117132437], [-0.3018224646415858, -0.14357118929282034], [-0.4853871342809682, -0.061736688026617866]]",density,black,,,D003,visual,8,[],"['1', '2', '3', '4']",1,2023.2.3,harveyvisual,2.1,[],8,0.75,
0,pause,0.4,None,None,None,0,221,221,221,,,,,,,,,,,,,D003,visual,8,[],"['1', '2', '3', '4']",1,2023.2.3,harveyvisual,2.1,[],8,0.75,
4,dot,0.3,['dot'],['density'],black,0,222,222,222,,,80.10022115707397,79.80507111549377,80.12173199653625,dot,"[0.08, 0.1, 0.08, 0.08]","[[-0.47693618450386616, -0.1525114564248906], [-0.12413069550496705, 0.03327587270375396], [-0.32964510574757994, -0.012304557788591533], [-0.22851041427491325, -0.22018408257550984]]",density,black,,,D003,visual,8,[],"['1', '2', '3', '4']",1,2023.2.3,harveyvisual,2.1,[],8,0.75,
0,pause,0.4,None,None,None,0,223,223,223,,,,,,,,,,,,,D003,visual,8,[],"['1', '2', '3', '4']",1,2023.2.3,harveyvisual,2.1,[],8,0.75,
4,dot,0.3,['dot'],['density'],black,0,224,224,224,,,80.8002290725708,80.50507402420044,80.82284307479858,dot,"[0.06, 0.1, 0.06, 0.08]","[[-0.03907102058372138, -0.1723346686752248], [0.13255167928633116, -0.03782047714335622], [0.2720101467217329, -0.23443565690461937], [0.07080951743106016, -0.35239766365090747]]",density,black,,,D003,visual,8,[],"['1', '2', '3', '4']",1,2023.2.3,harveyvisual,2.1,[],8,0.75,
0,pause,0.4,None,None,None,0,225,225,225,,,,,,,,,,,,,D003,visual,8,[],"['1', '2', '3', '4']",1,2023.2.3,harveyvisual,2.1,[],8,0.75,
4,dot,0.3,['dot'],['density'],black,0,226,226,226,,,81.50021314620972,81.20505404472351,81.52170610427856,dot,"[0.06, 0.06, 0.06, 0.1]","[[0.06326389353998313, -0.3457479010937814], [-0.07512051392095552, -0.02196355495157639], [0.09410934090401228, -0.14113260442523076], [-0.13717358852421138, -0.29916566844175635]]",density,black,,,D003,visual,8,[],"['1', '2', '3', '4']",1,2023.2.3,harveyvisual,2.1,[],8,0.75,
0,pause,0.4,None,None,None,0,227,227,227,,,,,,,,,,,,,D003,visual,8,[],"['1', '2', '3', '4']",1,2023.2.3,harveyvisual,2.1,[],8,0.75,
3,dot,0.3,['dot'],['density'],black,0,228,228,228,,,82.20023202896118,81.9050440788269,82.22168803215027,dot,"[0.06, 0.1, 0.08]","[[0.29938275938101017, 0.44415474715472736], [0.13070782598704628, 0.5557174004537693], [0.11832456902218637, 0.3273615767427578]]",density,black,,,D003,visual,8,[],"['1', '2', '3', '4']",1,2023.2.3,harveyvisual,2.1,[],8,0.75,
0,pause,0.4,None,None,None,0,229,229,229,,,,,,,,,,,,,D003,visual,8,[],"['1', '2', '3', '4']",1,2023.2.3,harveyvisual,2.1,[],8,0.75,
3,dot,0.3,['dot'],['density'],black,0,230,230,230,,,82.90023612976074,82.60502099990845,82.92262601852417,dot,"[0.08, 0.1, 0.06]","[[-0.31319101668702665, 0.019781348947723338], [-0.5473895760332308, 0.024991247927059115], [-0.4494119348059314, -0.1602141851013313]]",density,black,,,D003,visual,8,[],"['1', '2', '3', '4']",1,2023.2.3,harveyvisual,2.1,[],8,0.75,
0,pause,0.4,None,None,None,0,231,231,231,,,,,,,,,,,,,D003,visual,8,[],"['1', '2', '3', '4']",1,2023.2.3,harveyvisual,2.1,[],8,0.75,
3,dot,0.3,['dot'],['density'],black,0,232,232,232,,,83.60024309158325,83.30500912666321,83.62165999412537,dot,"[0.1, 0.06, 0.08]","[[-0.31319101668702665, 0.019781348947723338], [-0.5473895760332308, 0.024991247927059115], [-0.4494119348059314, -0.1602141851013313]]",density,black,,,D003,visual,8,[],"['1', '2', '3', '4']",1,2023.2.3,harveyvisual,2.1,[],8,0.75,
0,pause,0.4,None,None,None,0,233,233,233,,,,,,,,,,,,,D003,visual,8,[],"['1', '2', '3', '4']",1,2023.2.3,harveyvisual,2.1,[],8,0.75,
3,dot,0.3,['dot'],['density'],black,0,234,234,234,,,84.30021595954895,84.0049979686737,84.32164311408997,dot,"[0.06, 0.06, 0.1]","[[-0.15674404860239688, -0.25078459247658497], [0.006578924124220241, -0.41324131210186005], [0.06959682433872849, -0.20549031443856539]]",density,black,,,D003,visual,8,[],"['1', '2', '3', '4']",1,2023.2.3,harveyvisual,2.1,[],8,0.75,
0,pause,0.4,None,None,None,0,235,235,235,,,,,,,,,,,,,D003,visual,8,[],"['1', '2', '3', '4']",1,2023.2.3,harveyvisual,2.1,[],8,0.75,
3,dot,0.3,['dot'],['density'],white,0,236,236,236,,,85.00022602081299,84.70496010780334,85.02161407470703,dot,"[0.1, 0.06, 0.06]","[[0.4995185571857965, 0.14229679706320136], [0.2944600495073675, 0.23335097983198633], [0.330752226915583, 0.0299241169750933]]",density,white,,,D003,visual,8,[],"['1', '2', '3', '4']",1,2023.2.3,harveyvisual,2.1,[],8,0.75,
0,pause,0.4,None,None,None,0,237,237,237,,,,,,,,,,,1,84.52380800247192,D003,visual,8,[],"['1', '2', '3', '4']",1,2023.2.3,harveyvisual,2.1,[],8,0.75,
3,dot,0.3,['dot'],['density'],black,0,238,238,238,,,85.70022416114807,85.40494298934937,85.72158813476562,dot,"[0.1, 0.08, 0.1]","[[-0.17592395544936776, 0.40510565415719324], [-0.30566154612550034, 0.21848422264492345], [-0.39822260978708685, 0.43144058222919995]]",density,black,,,D003,visual,8,[],"['1', '2', '3', '4']",1,2023.2.3,harveyvisual,2.1,[],8,0.75,
0,pause,0.4,None,None,None,0,239,239,239,,,,,,,,,,,,,D003,visual,8,[],"['1', '2', '3', '4']",1,2023.2.3,harveyvisual,2.1,[],8,0.75,
2,dot,0.3,['dot'],['density'],black,0,240,240,240,,,86.40023493766785,86.10493016242981,86.42156410217285,dot,"[0.1, 0.1]","[[0.06661886780735636, -0.3109770134588511], [-0.03502229105109153, -0.4833380692870097]]",density,black,,,D003,visual,8,[],"['1', '2', '3', '4']",1,2023.2.3,harveyvisual,2.1,[],8,0.75,
0,pause,0.4,None,None,None,0,241,241,241,,,,,,,,,,,,,D003,visual,8,[],"['1', '2', '3', '4']",1,2023.2.3,harveyvisual,2.1,[],8,0.75,
2,dot,0.3,['dot'],['density'],black,0,242,242,242,,,87.10021305084229,86.80490803718567,87.12159395217896,dot,"[0.08, 0.08]","[[0.11437717294043931, -0.408092871188616], [0.012734947149558614, -0.23578585574018435]]",density,black,,,D003,visual,8,[],"['1', '2', '3', '4']",1,2023.2.3,harveyvisual,2.1,[],8,0.75,
0,pause,0.4,None,None,None,0,243,243,243,,,,,,,,,,,,,D003,visual,8,[],"['1', '2', '3', '4']",1,2023.2.3,harveyvisual,2.1,[],8,0.75,
2,dot,0.3,['dot'],['density'],black,0,244,244,244,,,87.80021500587463,87.50490713119507,87.82153916358948,dot,"[0.1, 0.06]","[[0.02987007740145294, 0.4330921892138179], [-0.1698845640653836, 0.4119973540264252]]",density,black,,,D003,visual,8,[],"['1', '2', '3', '4']",1,2023.2.3,harveyvisual,2.1,[],8,0.75,
0,pause,0.4,None,None,None,0,245,245,245,,,,,,,,,,,,,D003,visual,8,[],"['1', '2', '3', '4']",1,2023.2.3,harveyvisual,2.1,[],8,0.75,
2,dot,0.3,['dot'],['density'],white,0,246,246,246,,,88.50022315979004,88.20486807823181,88.52347803115845,dot,"[0.06, 0.06]","[[0.3054529246123127, 0.4455278178545299], [0.3548458028228903, 0.2510588499170468]]",density,white,,,D003,visual,8,[],"['1', '2', '3', '4']",1,2023.2.3,harveyvisual,2.1,[],8,0.75,
0,pause,0.4,None,None,None,0,247,247,247,,,,,,,,,,,1,88.06729793548584,D003,visual,8,[],"['1', '2', '3', '4']",1,2023.2.3,harveyvisual,2.1,[],8,0.75,
2,dot,0.3,['dot'],['density'],black,0,248,248,248,,,89.20022010803223,88.90486216545105,89.22152495384216,dot,"[0.08, 0.1]","[[0.11825467712572878, -0.39617910972508336], [0.05459236086910312, -0.5860717982025758]]",density,black,,,D003,visual,8,[],"['1', '2', '3', '4']",1,2023.2.3,harveyvisual,2.1,[],8,0.75,
0,pause,0.4,None,None,None,0,249,249,249,,,,,,,,,,,,,D003,visual,8,[],"['1', '2', '3', '4']",1,2023.2.3,harveyvisual,2.1,[],8,0.75,
2,dot,0.3,['dot'],['density'],black,0,250,250,250,,,89.90021109580994,89.6048481464386,89.92149114608765,dot,"[0.1, 0.08]","[[0.1851205616289071, -0.3624876981064337], [0.3405923022038234, -0.23608025195482504]]",density,black,,,D003,visual,8,[],"['1', '2', '3', '4']",1,2023.2.3,harveyvisual,2.1,[],8,0.75,
0,pause,0.4,None,None,None,0,251,251,251,,,,,,,,,,,,,D003,visual,8,[],"['1', '2', '3', '4']",1,2023.2.3,harveyvisual,2.1,[],8,0.75,
1,dot,0.3,['dot'],['density'],black,0,252,252,252,,,90.60022306442261,90.30524206161499,90.62147808074951,dot,[0.06],"[-0.2532192430475575, -0.5275431624831907]",density,black,,,D003,visual,8,[],"['1', '2', '3', '4']",1,2023.2.3,harveyvisual,2.1,[],8,0.75,
0,pause,0.4,None,None,None,0,253,253,253,,,,,,,,,,,,,D003,visual,8,[],"['1', '2', '3', '4']",1,2023.2.3,harveyvisual,2.1,[],8,0.75,
1,dot,0.3,['dot'],['density'],black,0,254,254,254,,,91.3002290725708,91.00484299659729,91.32147312164307,dot,[0.1],"[-0.06064478149429028, 0.10204082006191012]",density,black,,,D003,visual,8,[],"['1', '2', '3', '4']",1,2023.2.3,harveyvisual,2.1,[],8,0.75,
0,pause,0.4,None,None,None,0,255,255,255,,,,,,,,,,,,,D003,visual,8,[],"['1', '2', '3', '4']",1,2023.2.3,harveyvisual,2.1,[],8,0.75,
1,dot,0.3,['dot'],['density'],black,0,256,256,256,,,92.00021314620972,91.70479416847229,92.0223970413208,dot,[0.08],"[0.0038807231877187303, -0.2777732366953785]",density,black,,,D003,visual,8,[],"['1', '2', '3', '4']",1,2023.2.3,harveyvisual,2.1,[],8,0.75,
0,pause,0.4,None,None,None,0,257,257,257,,,,,,,,,,,,,D003,visual,8,[],"['1', '2', '3', '4']",1,2023.2.3,harveyvisual,2.1,[],8,0.75,
1,dot,0.3,['dot'],['density'],black,0,258,258,258,,,92.70023703575134,92.4047920703888,92.72142910957336,dot,[0.08],"[0.4420174282329864, -0.3383815273201445]",density,black,,,D003,visual,8,[],"['1', '2', '3', '4']",1,2023.2.3,harveyvisual,2.1,[],8,0.75,
0,pause,0.4,None,None,None,0,259,259,259,,,,,,,,,,,,,D003,visual,8,[],"['1', '2', '3', '4']",1,2023.2.3,harveyvisual,2.1,[],8,0.75,
1,dot,0.3,['dot'],['density'],black,0,260,260,260,,,93.40022706985474,93.1047420501709,93.42140412330627,dot,[0.1],"[-0.22364231775977078, 0.4637426405669522]",density,black,,,D003,visual,8,[],"['1', '2', '3', '4']",1,2023.2.3,harveyvisual,2.1,[],8,0.75,
0,pause,0.4,None,None,None,0,261,261,261,,,,,,,,,,,,,D003,visual,8,[],"['1', '2', '3', '4']",1,2023.2.3,harveyvisual,2.1,[],8,0.75,
1,dot,0.3,['dot'],['density'],black,0,262,262,262,,,94.10022616386414,93.80475401878357,94.12139201164246,dot,[0.1],"[-0.0300711363278092, -0.16168860719337894]",density,black,,,D003,visual,8,[],"['1', '2', '3', '4']",1,2023.2.3,harveyvisual,2.1,[],8,0.75,
0,pause,0.4,None,None,None,0,263,263,263,,,,,,,,,,,,,D003,visual,8,[],"['1', '2', '3', '4']",1,2023.2.3,harveyvisual,2.1,[],8,0.75,
20,dot,0.3,['dot'],['density'],black,0,264,264,264,,,94.80022597312927,94.52138614654541,94.82136702537537,dot,"[0.1, 0.06, 0.06, 0.08, 0.1, 0.08, 0.06, 0.1, 0.06, 0.06, 0.06, 0.06, 0.1, 0.08, 0.08, 0.1, 0.06, 0.08, 0.08, 0.08]","[[0.4721846045264003, -0.36570040616204935], [-0.5518647839849399, 0.1947956520835648], [0.5990067668128428, -0.07537580189751007], [0.010981239425717826, -0.4163038287768816], [-0.03200711568930836, 0.23002594123209286], [-0.5822137484648752, -0.15236452471345263], [-0.36297498353427204, 0.15485686697664852], [0.2594176691382224, -0.04299990071325799], [0.21377894050698565, -0.5331664601630202], [0.2630735433906529, -0.2894447745182924], [-0.27415966870651837, -0.24765443305496682], [0.06556671357594057, -0.12864621014372773], [0.31755923678489006, 0.4076336060306013], [-0.224167413313844, -0.06004682162515107], [0.5501591372145286, 0.16110842959408733], [0.19011221673511125, 0.14651449048216436], [0.10124242099235492, 0.5059204710249732], [-0.27723004384883604, 0.4494963456878708], [-0.08489320421122426, 0.4377818363564634], [-0.17518297538866656, -0.5362860655392676]]",density,black,,,D003,visual,8,[],"['1', '2', '3', '4']",1,2023.2.3,harveyvisual,2.1,[],8,0.75,
0,pause,0.4,None,None,None,0,265,265,265,,,,,,,,,,,,,D003,visual,8,[],"['1', '2', '3', '4']",1,2023.2.3,harveyvisual,2.1,[],8,0.75,
20,dot,0.3,['dot'],['density'],black,0,266,266,266,,,95.50022006034851,95.22190594673157,95.5214171409607,dot,"[0.06, 0.06, 0.06, 0.08, 0.06, 0.06, 0.1, 0.1, 0.1, 0.06, 0.08, 0.1, 0.06, 0.08, 0.08, 0.06, 0.06, 0.06, 0.08, 0.08]","[[0.3932638091640225, 0.05951241779562666], [-0.4209417268386463, -0.2072535629469985], [0.26614751668132286, -0.2651330825194715], [-0.05658196256203252, -0.3118482486517457], [-0.40105494077834225, -0.43424261127932684], [0.09626676025390091, 0.4042277902349215], [-0.44570132766688497, 0.3396659854493844], [-0.05865847177348815, -0.10679628254322271], [0.5918089394072811, -0.03665975430547616], [-0.2711318656917874, 0.26467935381633356], [0.51547423679271, -0.2543274081422828], [-0.3767980463126775, 0.007505684137289914], [-0.588556938853818, -0.054124747208705415], [-0.10052582973330726, 0.3610388815580199], [0.331195946883307, -0.45821128912216297], [0.11588080569457748, -0.5781015100010105], [0.032670358559155455, 0.225483041071866], [0.2687995789607982, 0.5069009157570687], [-0.2946232828898936, 0.5109412363677145], [0.2243988778480025, 0.20682662034812171]]",density,black,,,D003,visual,8,[],"['1', '2', '3', '4']",1,2023.2.3,harveyvisual,2.1,[],8,0.75,
0,pause,0.4,None,None,None,0,267,267,267,,,,,,,,,,,,,D003,visual,8,[],"['1', '2', '3', '4']",1,2023.2.3,harveyvisual,2.1,[],8,0.75,
