num,mod,duration,shape,ll_cond,colors,.thisRepN,.thisTrialN,.thisN,.thisIndex,thisRow.t,notes,raw_global_time,t_start,t_stop,shapes,size,pos,cond,color,button,RT,participant,session,starting_run,left button (match/odd),right button (non-match/even),samples_per_block,psychopy version,expName,offset,audio,number_runs,radius,
1,dot,0.3,['dot'],['density'],black,0,0,0,0,,,2.400200843811035,2.103839874267578,2.403548002243042,dot,[0.06],"[0.25023401086931774, -0.3984124620602511]",density,black,,,D003,visual,1,[],"['1', '2', '3', '4']",1,2023.2.3,harveyvisual,2.1,[],8,0.75,
0,pause,0.4,None,None,None,0,1,1,1,,,,,,,,,,,,,D003,visual,1,[],"['1', '2', '3', '4']",1,2023.2.3,harveyvisual,2.1,[],8,0.75,
1,dot,0.3,['dot'],['density'],black,0,2,2,2,,,3.100192070007324,2.803760051727295,3.103914976119995,dot,[0.06],"[0.5286010678554951, -0.2554598500704326]",density,black,,,D003,visual,1,[],"['1', '2', '3', '4']",1,2023.2.3,harveyvisual,2.1,[],8,0.75,
0,pause,0.4,None,None,None,0,3,3,3,,,,,,,,,,,,,D003,visual,1,[],"['1', '2', '3', '4']",1,2023.2.3,harveyvisual,2.1,[],8,0.75,
1,dot,0.3,['dot'],['density'],black,0,4,4,4,,,3.800200939178467,3.5044260025024414,3.820697069168091,dot,[0.06],"[-0.06064478149429028, 0.10204082006191012]",density,black,,,D003,visual,1,[],"['1', '2', '3', '4']",1,2023.2.3,harveyvisual,2.1,[],8,0.75,
0,pause,0.4,None,None,None,0,5,5,5,,,,,,,,,,,,,D003,visual,1,[],"['1', '2', '3', '4']",1,2023.2.3,harveyvisual,2.1,[],8,0.75,
1,dot,0.3,['dot'],['density'],black,0,6,6,6,,,4.500203847885132,4.204432010650635,4.520709991455078,dot,[0.06],"[0.5163804524385218, 0.172353611070521]",density,black,,,D003,visual,1,[],"['1', '2', '3', '4']",1,2023.2.3,harveyvisual,2.1,[],8,0.75,
0,pause,0.4,None,None,None,0,7,7,7,,,,,,,,,,,,,D003,visual,1,[],"['1', '2', '3', '4']",1,2023.2.3,harveyvisual,2.1,[],8,0.75,
1,dot,0.3,['dot'],['density'],white,0,8,8,8,,,5.2001869678497314,4.903998851776123,5.220615863800049,dot,[0.08],"[0.1049869166116724, 0.1335000464341748]",density,white,,,D003,visual,1,[],"['1', '2', '3', '4']",1,2023.2.3,harveyvisual,2.1,[],8,0.75,
0,pause,0.4,None,None,None,0,9,9,9,,,,,,,,,,,1,5.189478158950806,D003,visual,1,[],"['1', '2', '3', '4']",1,2023.2.3,harveyvisual,2.1,[],8,0.75,
1,dot,0.3,['dot'],['density'],black,0,10,10,10,,,5.9001898765563965,5.606267929077148,5.922963857650757,dot,[0.08],"[-0.4519365434524677, 0.22287683068434597]",density,black,,,D003,visual,1,[],"['1', '2', '3', '4']",1,2023.2.3,harveyvisual,2.1,[],8,0.75,
0,pause,0.4,None,None,None,0,11,11,11,,,,,,,,,,,,,D003,visual,1,[],"['1', '2', '3', '4']",1,2023.2.3,harveyvisual,2.1,[],8,0.75,
2,dot,0.3,['dot'],['density'],black,0,12,12,12,,,6.600210905075073,6.306262016296387,6.623041868209839,dot,"[0.08, 0.06]","[[0.19540278997321237, -0.319457995891214], [0.34462774624387493, -0.4544903302695001]]",density,black,,,D003,visual,1,[],"['1', '2', '3', '4']",1,2023.2.3,harveyvisual,2.1,[],8,0.75,
0,pause,0.4,None,None,None,0,13,13,13,,,,,,,,,,,,,D003,visual,1,[],"['1', '2', '3', '4']",1,2023.2.3,harveyvisual,2.1,[],8,0.75,
2,dot,0.3,['dot'],['density'],black,0,14,14,14,,,7.300206899642944,7.006373882293701,7.323072910308838,dot,"[0.06, 0.06]","[[-0.15489633838679245, 0.20775043904852977], [-0.02477214636975436, 0.05468251249351026]]",density,black,,,D003,visual,1,[],"['1', '2', '3', '4']",1,2023.2.3,harveyvisual,2.1,[],8,0.75,
0,pause,0.4,None,None,None,0,15,15,15,,,,,,,,,,,,,D003,visual,1,[],"['1', '2', '3', '4']",1,2023.2.3,harveyvisual,2.1,[],8,0.75,
2,dot,0.3,['dot'],['density'],white,0,16,16,16,,,8.000190019607544,7.706368923187256,8.023015975952148,dot,"[0.08, 0.08]","[[-0.09730612249650272, 0.4989075015380273], [-0.22752244688881013, 0.34485221713342457]]",density,white,,,D003,visual,1,[],"['1', '2', '3', '4']",1,2023.2.3,harveyvisual,2.1,[],8,0.75,
0,pause,0.4,None,None,None,0,17,17,17,,,,,,,,,,,1,7.998942136764526,D003,visual,1,[],"['1', '2', '3', '4']",1,2023.2.3,harveyvisual,2.1,[],8,0.75,
2,dot,0.3,['dot'],['density'],black,0,18,18,18,,,8.700196981430054,8.406348943710327,8.723031997680664,dot,"[0.1, 0.08]","[[0.4298854344354601, 0.24556028782034023], [0.23727674624932948, 0.18886586315459258]]",density,black,,,D003,visual,1,[],"['1', '2', '3', '4']",1,2023.2.3,harveyvisual,2.1,[],8,0.75,
0,pause,0.4,None,None,None,0,19,19,19,,,,,,,,,,,,,D003,visual,1,[],"['1', '2', '3', '4']",1,2023.2.3,harveyvisual,2.1,[],8,0.75,
2,dot,0.3,['dot'],['density'],black,0,20,20,20,,,9.400207042694092,9.106327056884766,9.42287302017212,dot,"[0.1, 0.06]","[[0.3859848860398513, -0.03650274153894256], [0.5613034441480618, 0.06134992989862206]]",density,black,,,D003,visual,1,[],"['1', '2', '3', '4']",1,2023.2.3,harveyvisual,2.1,[],8,0.75,
0,pause,0.4,None,None,None,0,21,21,21,,,,,,,,,,,,,D003,visual,1,[],"['1', '2', '3', '4']",1,2023.2.3,harveyvisual,2.1,[],8,0.75,
2,dot,0.3,['dot'],['density'],black,0,22,22,22,,,10.100198984146118,9.80629587173462,10.122952938079834,dot,"[0.08, 0.06]","[[0.4298854344354601, 0.24556028782034023], [0.23727674624932948, 0.18886586315459258]]",density,black,,,D003,visual,1,[],"['1', '2', '3', '4']",1,2023.2.3,harveyvisual,2.1,[],8,0.75,
0,pause,0.4,None,None,None,0,23,23,23,,,,,,,,,,,,,D003,visual,1,[],"['1', '2', '3', '4']",1,2023.2.3,harveyvisual,2.1,[],8,0.75,
3,dot,0.3,['dot'],['density'],black,0,24,24,24,,,10.800209999084473,10.506280899047852,10.822955846786499,dot,"[0.1, 0.06, 0.1]","[[0.4995185571857965, 0.14229679706320136], [0.2944600495073675, 0.23335097983198633], [0.330752226915583, 0.0299241169750933]]",density,black,,,D003,visual,1,[],"['1', '2', '3', '4']",1,2023.2.3,harveyvisual,2.1,[],8,0.75,
0,pause,0.4,None,None,None,0,25,25,25,,,,,,,,,,,,,D003,visual,1,[],"['1', '2', '3', '4']",1,2023.2.3,harveyvisual,2.1,[],8,0.75,
3,dot,0.3,['dot'],['density'],black,0,26,26,26,,,11.500197887420654,11.20625901222229,11.522955894470215,dot,"[0.08, 0.1, 0.06]","[[-0.1591938184585166, 0.2573970255855866], [-0.049574382916532336, 0.44031337398050124], [0.08264166875933507, 0.262381570646859]]",density,black,,,D003,visual,1,[],"['1', '2', '3', '4']",1,2023.2.3,harveyvisual,2.1,[],8,0.75,
0,pause,0.4,None,None,None,0,27,27,27,,,,,,,,,,,,,D003,visual,1,[],"['1', '2', '3', '4']",1,2023.2.3,harveyvisual,2.1,[],8,0.75,
3,dot,0.3,['dot'],['density'],black,0,28,28,28,,,12.200191020965576,11.90625,12.222902059555054,dot,"[0.1, 0.08, 0.1]","[[0.1555504186016049, 0.15532406847092056], [-0.0680535881648269, 0.26220909641571793], [0.08533315121688807, 0.39122308779032533]]",density,black,,,D003,visual,1,[],"['1', '2', '3', '4']",1,2023.2.3,harveyvisual,2.1,[],8,0.75,
0,pause,0.4,None,None,None,0,29,29,29,,,,,,,,,,,,,D003,visual,1,[],"['1', '2', '3', '4']",1,2023.2.3,harveyvisual,2.1,[],8,0.75,
3,dot,0.3,['dot'],['density'],black,0,30,30,30,,,12.900187969207764,12.606256008148193,12.922888994216919,dot,"[0.08, 0.08, 0.1]","[[-0.32034981165049564, 0.18083778238314796], [-0.3344619052850136, -0.04022521570367012], [-0.13485517643248812, 0.10330846540140716]]",density,black,,,D003,visual,1,[],"['1', '2', '3', '4']",1,2023.2.3,harveyvisual,2.1,[],8,0.75,
0,pause,0.4,None,None,None,0,31,31,31,,,,,,,,,,,,,D003,visual,1,[],"['1', '2', '3', '4']",1,2023.2.3,harveyvisual,2.1,[],8,0.75,
3,dot,0.3,['dot'],['density'],black,0,32,32,32,,,13.60019302368164,13.306074857711792,13.622870922088623,dot,"[0.1, 0.08, 0.06]","[[-0.3391924794566746, 0.43027756448319565], [-0.33080415183405026, 0.2112686575961512], [-0.14277619127331137, 0.29962579604826906]]",density,black,,,D003,visual,1,[],"['1', '2', '3', '4']",1,2023.2.3,harveyvisual,2.1,[],8,0.75,
0,pause,0.4,None,None,None,0,33,33,33,,,,,,,,,,,,,D003,visual,1,[],"['1', '2', '3', '4']",1,2023.2.3,harveyvisual,2.1,[],8,0.75,
3,dot,0.3,['dot'],['density'],black,0,34,34,34,,,14.300204992294312,14.006200075149536,14.322855949401855,dot,"[0.1, 0.1, 0.06]","[[0.2768253388883432, 0.03346297355107007], [0.11287187477499526, -0.09417797505773098], [0.09003622344097514, 0.12370024427926096]]",density,black,,,D003,visual,1,[],"['1', '2', '3', '4']",1,2023.2.3,harveyvisual,2.1,[],8,0.75,
0,pause,0.4,None,None,None,0,35,35,35,,,,,,,,,,,,,D003,visual,1,[],"['1', '2', '3', '4']",1,2023.2.3,harveyvisual,2.1,[],8,0.75,
4,dot,0.3,['dot'],['density'],black,0,36,36,36,,,15.000205993652344,14.70618200302124,15.023078918457031,dot,"[0.06, 0.1, 0.08, 0.08]","[[0.0004228548582206217, 0.4437421379736539], [0.24572762857664815, 0.2260868474052859], [0.007756854070108054, 0.1846819218217072], [0.22099789303306372, 0.4278063517398125]]",density,black,,,D003,visual,1,[],"['1', '2', '3', '4']",1,2023.2.3,harveyvisual,2.1,[],8,0.75,
0,pause,0.4,None,None,None,0,37,37,37,,,,,,,,,,,,,D003,visual,1,[],"['1', '2', '3', '4']",1,2023.2.3,harveyvisual,2.1,[],8,0.75,
4,dot,0.3,['dot'],['density'],black,0,38,38,38,,,15.700187921524048,15.406190872192383,15.72282886505127,dot,"[0.06, 0.1, 0.08, 0.08]","[[0.2541297109701026, -0.03410267595110144], [0.396116024817599, -0.19002287009394117], [0.4303711222235913, 0.2602585224666286], [0.4446461975978109, 0.027516111316963392]]",density,black,,,D003,visual,1,[],"['1', '2', '3', '4']",1,2023.2.3,harveyvisual,2.1,[],8,0.75,
0,pause,0.4,None,None,None,0,39,39,39,,,,,,,,,,,,,D003,visual,1,[],"['1', '2', '3', '4']",1,2023.2.3,harveyvisual,2.1,[],8,0.75,
4,dot,0.3,['dot'],['density'],black,0,40,40,40,,,16.400198936462402,16.10600996017456,16.422637939453125,dot,"[0.06, 0.06, 0.1, 0.1]","[[-0.045256114861740894, 0.2798656300268403], [-0.02131053084637037, 0.4849425601475732], [0.17666180860848907, 0.34430389164600056], [0.0747630441556118, 0.10387908342824508]]",density,black,,,D003,visual,1,[],"['1', '2', '3', '4']",1,2023.2.3,harveyvisual,2.1,[],8,0.75,
0,pause,0.4,None,None,None,0,41,41,41,,,,,,,,,,,,,D003,visual,1,[],"['1', '2', '3', '4']",1,2023.2.3,harveyvisual,2.1,[],8,0.75,
4,dot,0.3,['dot'],['density'],black,0,42,42,42,,,17.10019302368164,16.805959939956665,17.12262487411499,dot,"[0.1, 0.08, 0.06, 0.06]","[[0.3428963381299033, -0.004396565162037705], [0.42558881424794154, 0.18301493672810298], [0.5687630200397232, 0.01721079717795714], [0.4301208405972816, -0.23499851958356296]]",density,black,,,D003,visual,1,[],"['1', '2', '3', '4']",1,2023.2.3,harveyvisual,2.1,[],8,0.75,
0,pause,0.4,None,None,None,0,43,43,43,,,,,,,,,,,,,D003,visual,1,[],"['1', '2', '3', '4']",1,2023.2.3,harveyvisual,2.1,[],8,0.75,
4,dot,0.3,['dot'],['density'],black,0,44,44,44,,,17.8002028465271,17.505949020385742,17.822686910629272,dot,"[0.08, 0.1, 0.08, 0.1]","[[0.08172100217045614, 0.5402562525463245], [-0.024891988969352973, 0.31595276793208527], [-0.14685316472848742, 0.5184788481920529], [-0.2646655063210597, 0.3159281349431851]]",density,black,,,D003,visual,1,[],"['1', '2', '3', '4']",1,2023.2.3,harveyvisual,2.1,[],8,0.75,
0,pause,0.4,None,None,None,0,45,45,45,,,,,,,,,,,,,D003,visual,1,[],"['1', '2', '3', '4']",1,2023.2.3,harveyvisual,2.1,[],8,0.75,
4,dot,0.3,['dot'],['density'],black,0,46,46,46,,,18.50021004676819,18.20602798461914,18.52259087562561,dot,"[0.08, 0.08, 0.1, 0.06]","[[0.5195678262777355, 0.06634869171649047], [0.11508779247300271, 0.04459464887784077], [0.27862218446352316, 0.18290230777407274], [0.28701832247091064, -0.08209332131291468]]",density,black,,,D003,visual,1,[],"['1', '2', '3', '4']",1,2023.2.3,harveyvisual,2.1,[],8,0.75,
0,pause,0.4,None,None,None,0,47,47,47,,,,,,,,,,,,,D003,visual,1,[],"['1', '2', '3', '4']",1,2023.2.3,harveyvisual,2.1,[],8,0.75,
5,dot,0.3,['dot'],['density'],black,0,48,48,48,,,19.20020604133606,18.905981063842773,19.222562074661255,dot,"[0.08, 0.08, 0.08, 0.06, 0.06]","[[-0.053215572458232586, 0.27221330895143253], [0.10089702531331296, 0.1334794413224796], [0.12897289155288158, 0.4002796015157326], [0.3022660506716914, 0.02685289149411272], [0.2804295634962893, 0.24950018434757285]]",density,black,,,D003,visual,1,[],"['1', '2', '3', '4']",1,2023.2.3,harveyvisual,2.1,[],8,0.75,
0,pause,0.4,None,None,None,0,49,49,49,,,,,,,,,,,,,D003,visual,1,[],"['1', '2', '3', '4']",1,2023.2.3,harveyvisual,2.1,[],8,0.75,
5,dot,0.3,['dot'],['density'],black,0,50,50,50,,,19.900192975997925,19.605928897857666,19.92256999015808,dot,"[0.06, 0.1, 0.08, 0.1, 0.06]","[[0.2447541601906441, 0.3086669061463178], [0.2085849672204031, -0.04267428248465989], [0.44393754570968663, -0.061602228714441105], [0.027125763574429876, 0.05764502161176834], [0.36879828001487897, 0.1310025380577708]]",density,black,,,D003,visual,1,[],"['1', '2', '3', '4']",1,2023.2.3,harveyvisual,2.1,[],8,0.75,
0,pause,0.4,None,None,None,0,51,51,51,,,,,,,,,,,,,D003,visual,1,[],"['1', '2', '3', '4']",1,2023.2.3,harveyvisual,2.1,[],8,0.75,
5,dot,0.3,['dot'],['density'],black,0,52,52,52,,,20.600199937820435,20.305881023406982,20.62253999710083,dot,"[0.08, 0.08, 0.1, 0.1, 0.06]","[[-0.082153098152829, -0.06894165798345762], [0.016766770742065788, -0.42680196676869325], [0.2961099764235258, -0.14925166127785872], [-0.1456021726000032, -0.26669195071034546], [0.10213220283607832, -0.23321095001989858]]",density,black,,,D003,visual,1,[],"['1', '2', '3', '4']",1,2023.2.3,harveyvisual,2.1,[],8,0.75,
0,pause,0.4,None,None,None,0,53,53,53,,,,,,,,,,,,,D003,visual,1,[],"['1', '2', '3', '4']",1,2023.2.3,harveyvisual,2.1,[],8,0.75,
5,dot,0.3,['dot'],['density'],black,0,54,54,54,,,21.300212860107422,21.005861043930054,21.322515964508057,dot,"[0.06, 0.08, 0.1, 0.1, 0.08]","[[-0.3593586909609717, -0.014123405231526708], [-0.016214713675271986, 0.25764317450247104], [-0.14180258575993823, 0.0328893580167688], [-0.4739301778776912, 0.15719809156630632], [-0.2718601341595813, 0.23222304362681612]]",density,black,,,D003,visual,1,[],"['1', '2', '3', '4']",1,2023.2.3,harveyvisual,2.1,[],8,0.75,
0,pause,0.4,None,None,None,0,55,55,55,,,,,,,,,,,,,D003,visual,1,[],"['1', '2', '3', '4']",1,2023.2.3,harveyvisual,2.1,[],8,0.75,
5,dot,0.3,['dot'],['density'],black,0,56,56,56,,,22.00021004676819,21.70584487915039,22.02249789237976,dot,"[0.06, 0.08, 0.06, 0.08, 0.06]","[[0.07471778162596296, -0.10525453490666745], [0.30258431325283514, -0.18125951612401361], [-0.10797831538154114, 0.025200229490558432], [0.07898181201564736, 0.11749757771993925], [0.31731369449760916, 0.032388289652815004]]",density,black,,,D003,visual,1,[],"['1', '2', '3', '4']",1,2023.2.3,harveyvisual,2.1,[],8,0.75,
0,pause,0.4,None,None,None,0,57,57,57,,,,,,,,,,,,,D003,visual,1,[],"['1', '2', '3', '4']",1,2023.2.3,harveyvisual,2.1,[],8,0.75,
5,dot,0.3,['dot'],['density'],black,0,58,58,58,,,22.70020890235901,22.405869007110596,22.722517013549805,dot,"[0.1, 0.1, 0.06, 0.08, 0.06]","[[0.10176071415026891, -0.0029310292721688898], [0.32748853803000494, -0.2831003617774451], [0.10999898603900501, -0.23076615641811304], [0.2383494361888625, 0.16403485824849598], [0.3558293804179042, -0.08171974316418079]]",density,black,,,D003,visual,1,[],"['1', '2', '3', '4']",1,2023.2.3,harveyvisual,2.1,[],8,0.75,
0,pause,0.4,None,None,None,0,59,59,59,,,,,,,,,,,,,D003,visual,1,[],"['1', '2', '3', '4']",1,2023.2.3,harveyvisual,2.1,[],8,0.75,
6,dot,0.3,['dot'],['density'],black,0,60,60,60,,,23.400207996368408,23.105841875076294,23.422529935836792,dot,"[0.06, 0.08, 0.1, 0.08, 0.1, 0.1]","[[0.4838288853419304, 0.012393783640839304], [0.3357737587390128, 0.3939464288632381], [0.48781910936274964, 0.21484656822060386], [0.038497076365425514, 0.2266532147795764], [0.13074852606734502, 0.009493629341700475], [0.2855531954453259, 0.1811044151544938]]",density,black,,,D003,visual,1,[],"['1', '2', '3', '4']",1,2023.2.3,harveyvisual,2.1,[],8,0.75,
0,pause,0.4,None,None,None,0,61,61,61,,,,,,,,,,,,,D003,visual,1,[],"['1', '2', '3', '4']",1,2023.2.3,harveyvisual,2.1,[],8,0.75,
6,dot,0.3,['dot'],['density'],black,0,62,62,62,,,24.10020899772644,23.805984020233154,24.122648000717163,dot,"[0.1, 0.06, 0.06, 0.06, 0.1, 0.06]","[[-0.37443702985748106, 0.32648296684105377], [-0.5461381080049402, 0.20900463425646473], [-0.03667792491240075, 0.12745261621840673], [-0.13670974087354773, 0.4115775839407936], [-0.3800981804337871, 0.05314619565530939], [-0.23016292349935943, 0.18714801531232822]]",density,black,,,D003,visual,1,[],"['1', '2', '3', '4']",1,2023.2.3,harveyvisual,2.1,[],8,0.75,
0,pause,0.4,None,None,None,0,63,63,63,,,,,,,,,,,,,D003,visual,1,[],"['1', '2', '3', '4']",1,2023.2.3,harveyvisual,2.1,[],8,0.75,
6,dot,0.3,['dot'],['density'],black,0,64,64,64,,,24.800189971923828,24.505797863006592,24.82249689102173,dot,"[0.1, 0.1, 0.06, 0.1, 0.06, 0.08]","[[0.1382403832049451, 0.0462086450304607], [-0.07534018949214154, -0.3274433807795599], [0.3332171610134826, -0.14895102818546319], [0.22614943412716124, -0.3322834867125916], [-0.0756450994425101, -0.005640117700353421], [0.0938048843888254, -0.16909843217532775]]",density,black,,,D003,visual,1,[],"['1', '2', '3', '4']",1,2023.2.3,harveyvisual,2.1,[],8,0.75,
0,pause,0.4,None,None,None,0,65,65,65,,,,,,,,,,,,,D003,visual,1,[],"['1', '2', '3', '4']",1,2023.2.3,harveyvisual,2.1,[],8,0.75,
6,dot,0.3,['dot'],['density'],black,0,66,66,66,,,25.500195026397705,25.205744981765747,25.52246904373169,dot,"[0.06, 0.06, 0.06, 0.08, 0.08, 0.1]","[[0.0015484977009578463, -0.37153509484940705], [-0.24631791352898516, -0.16063896847060222], [-0.21037316856202723, -0.37491302730087106], [-0.14520134419833938, 0.05228402714841561], [-0.41979900021501537, -0.27073368115662844], [-0.020720382871846178, -0.14076137757070492]]",density,black,,,D003,visual,1,[],"['1', '2', '3', '4']",1,2023.2.3,harveyvisual,2.1,[],8,0.75,
0,pause,0.4,None,None,None,0,67,67,67,,,,,,,,,,,,,D003,visual,1,[],"['1', '2', '3', '4']",1,2023.2.3,harveyvisual,2.1,[],8,0.75,
6,dot,0.3,['dot'],['density'],black,0,68,68,68,,,26.200191974639893,25.905812978744507,26.222421884536743,dot,"[0.06, 0.06, 0.08, 0.08, 0.06, 0.08]","[[0.01776890784276672, 0.3448500499300058], [-0.18238616215991446, 0.4840889924469993], [-0.2129582374372363, 0.07157874559070018], [-0.41549008775918617, 0.14353268657608398], [0.019487844458329944, 0.1389587799501653], [-0.21004805074000235, 0.2837936954907191]]",density,black,,,D003,visual,1,[],"['1', '2', '3', '4']",1,2023.2.3,harveyvisual,2.1,[],8,0.75,
0,pause,0.4,None,None,None,0,69,69,69,,,,,,,,,,,,,D003,visual,1,[],"['1', '2', '3', '4']",1,2023.2.3,harveyvisual,2.1,[],8,0.75,
6,dot,0.3,['dot'],['density'],black,0,70,70,70,,,26.900191068649292,26.60576605796814,26.922410011291504,dot,"[0.06, 0.06, 0.06, 0.1, 0.08, 0.06]","[[-0.3078382271761739, 0.4361778186671046], [-0.059169983783578364, 0.44796520308269433], [-0.3209935464877752, 0.22545519901795916], [-0.10826469778565927, 0.24929594343002343], [-0.016554185736113114, 0.06783813438016018], [-0.29360476626160575, 0.00756342739423081]]",density,black,,,D003,visual,1,[],"['1', '2', '3', '4']",1,2023.2.3,harveyvisual,2.1,[],8,0.75,
0,pause,0.4,None,None,None,0,71,71,71,,,,,,,,,,,,,D003,visual,1,[],"['1', '2', '3', '4']",1,2023.2.3,harveyvisual,2.1,[],8,0.75,
7,dot,0.3,['dot'],['density'],black,0,72,72,72,,,27.6002140045166,27.32240390777588,27.62237000465393,dot,"[0.1, 0.1, 0.08, 0.1, 0.08, 0.1, 0.08]","[[0.06935229908748385, 0.4911641494940837], [-0.19266199922505295, 0.07836852906048222], [0.055274369019684175, 0.020452523162812593], [0.26239471350362015, 0.1001529216481179], [-0.06036973858781391, 0.3360513952533211], [-0.2638544135394649, 0.29089327984911306], [0.14813816713374972, 0.28344041791591096]]",density,black,,,D003,visual,1,[],"['1', '2', '3', '4']",1,2023.2.3,harveyvisual,2.1,[],8,0.75,
0,pause,0.4,None,None,None,0,73,73,73,,,,,,,,,,,,,D003,visual,1,[],"['1', '2', '3', '4']",1,2023.2.3,harveyvisual,2.1,[],8,0.75,
7,dot,0.3,['dot'],['density'],black,0,74,74,74,,,28.300196886062622,28.005642890930176,28.322357892990112,dot,"[0.06, 0.06, 0.08, 0.1, 0.08, 0.06, 0.1]","[[0.14162553822338392, 0.3850374027840034], [0.14862566890709045, -0.11120959689479885], [0.39332636479883865, 0.3869926518090174], [0.40462455387813373, -0.12110830933676162], [0.23143806607869288, 0.12402376181071403], [0.031443448417621304, 0.15083815177969048], [0.4360523150463376, 0.1818515773867412]]",density,black,,,D003,visual,1,[],"['1', '2', '3', '4']",1,2023.2.3,harveyvisual,2.1,[],8,0.75,
0,pause,0.4,None,None,None,0,75,75,75,,,,,,,,,,,,,D003,visual,1,[],"['1', '2', '3', '4']",1,2023.2.3,harveyvisual,2.1,[],8,0.75,
7,dot,0.3,['dot'],['density'],black,0,76,76,76,,,29.000208854675293,28.70561194419861,29.022331953048706,dot,"[0.08, 0.08, 0.1, 0.06, 0.08, 0.08, 0.06]","[[-0.2877807563129739, -0.2392998172879968], [-0.4930284393840153, 0.02918626900802282], [-0.13307942101536208, -0.4135874564509098], [-0.1727922191076213, -0.04289663127052677], [-0.3943840059764042, -0.4351600913800347], [-0.03321109949484203, -0.21096883087625085], [-0.5418728138863746, -0.1990057631286019]]",density,black,,,D003,visual,1,[],"['1', '2', '3', '4']",1,2023.2.3,harveyvisual,2.1,[],8,0.75,
0,pause,0.4,None,None,None,0,77,77,77,,,,,,,,,,,,,D003,visual,1,[],"['1', '2', '3', '4']",1,2023.2.3,harveyvisual,2.1,[],8,0.75,
7,dot,0.3,['dot'],['density'],black,0,78,78,78,,,29.700207948684692,29.422345876693726,29.722326040267944,dot,"[0.06, 0.1, 0.08, 0.06, 0.06, 0.08, 0.08]","[[-0.4260259763687212, 0.0015611622021723967], [-0.003169876971998007, 0.13415651360788267], [-0.2586764037849864, 0.4417783913692737], [-0.4397986643511286, 0.306274470342183], [-0.0069778791964768315, 0.3653924841843964], [-0.25662591460159173, 0.21046748777052526], [-0.17930648864359452, 0.007725268650954965]]",density,black,,,D003,visual,1,[],"['1', '2', '3', '4']",1,2023.2.3,harveyvisual,2.1,[],8,0.75,
0,pause,0.4,None,None,None,0,79,79,79,,,,,,,,,,,,,D003,visual,1,[],"['1', '2', '3', '4']",1,2023.2.3,harveyvisual,2.1,[],8,0.75,
7,dot,0.3,['dot'],['density'],black,0,80,80,80,,,30.40019202232361,30.122318029403687,30.422302961349487,dot,"[0.1, 0.06, 0.08, 0.06, 0.06, 0.08, 0.06]","[[0.3032073476866497, 0.39528308644852606], [0.12977480624643314, 0.5338553612741447], [-0.07830532742558233, 0.5277294273979773], [0.000705909343175084, 0.04538848857330666], [-0.11442247498636825, 0.3203087976624053], [0.11424952152856681, 0.31372813630522095], [0.2743618672110132, 0.19233036806743029]]",density,black,,,D003,visual,1,[],"['1', '2', '3', '4']",1,2023.2.3,harveyvisual,2.1,[],8,0.75,
0,pause,0.4,None,None,None,0,81,81,81,,,,,,,,,,,,,D003,visual,1,[],"['1', '2', '3', '4']",1,2023.2.3,harveyvisual,2.1,[],8,0.75,
7,dot,0.3,['dot'],['density'],black,0,82,82,82,,,31.100203037261963,30.822346925735474,31.122321844100952,dot,"[0.08, 0.1, 0.08, 0.08, 0.1, 0.06, 0.08]","[[0.3899189512010899, -0.40728696153528776], [0.20392863561369634, -0.3305625840210526], [0.31626985815109576, 0.13567824844623666], [0.5017338684339655, -0.028549680114735937], [0.11648855723187378, -0.1078833072829627], [0.07041138378868489, 0.08730219371944997], [0.32910598476010167, -0.13660711058181768]]",density,black,,,D003,visual,1,[],"['1', '2', '3', '4']",1,2023.2.3,harveyvisual,2.1,[],8,0.75,
0,pause,0.4,None,None,None,0,83,83,83,,,,,,,,,,,,,D003,visual,1,[],"['1', '2', '3', '4']",1,2023.2.3,harveyvisual,2.1,[],8,0.75,
8,dot,0.3,['dot'],['density'],black,0,84,84,84,,,31.800214052200317,31.52231001853943,31.82234287261963,dot,"[0.1, 0.1, 0.1, 0.06, 0.06, 0.08, 0.1, 0.1]","[[-0.17001050475317317, -0.17367687575201368], [0.3600613666554234, 0.010096468830953859], [-0.08326222131596324, 0.04242117989324811], [0.04296950773068638, 0.29875887990525135], [0.04919814700692566, -0.23206276490508926], [0.2733682510361541, 0.19343137942482672], [0.15974695196996483, -0.02827404827190698], [-0.2919014881818027, 0.0006738684867251376]]",density,black,,,D003,visual,1,[],"['1', '2', '3', '4']",1,2023.2.3,harveyvisual,2.1,[],8,0.75,
0,pause,0.4,None,None,None,0,85,85,85,,,,,,,,,,,,,D003,visual,1,[],"['1', '2', '3', '4']",1,2023.2.3,harveyvisual,2.1,[],8,0.75,
8,dot,0.3,['dot'],['density'],black,0,86,86,86,,,32.500197887420654,32.222293853759766,32.52241802215576,dot,"[0.1, 0.1, 0.1, 0.06, 0.08, 0.1, 0.1, 0.1]","[[-0.19427332908310624, 0.44975086906229733], [-0.40583056883657587, 0.41268852933836647], [-0.1064323235824443, 0.09134240931295125], [0.037438273390647224, 0.2873761216870531], [-0.27580465694358225, 0.2567900319995576], [0.047234249799456944, 0.4983172858691376], [0.15563182967593078, 0.1192504703698398], [-0.32834908909536226, -0.014402300111889832]]",density,black,,,D003,visual,1,[],"['1', '2', '3', '4']",1,2023.2.3,harveyvisual,2.1,[],8,0.75,
0,pause,0.4,None,None,None,0,87,87,87,,,,,,,,,,,,,D003,visual,1,[],"['1', '2', '3', '4']",1,2023.2.3,harveyvisual,2.1,[],8,0.75,
8,dot,0.3,['dot'],['density'],black,0,88,88,88,,,33.20019292831421,32.92243003845215,33.22241997718811,dot,"[0.08, 0.1, 0.06, 0.1, 0.06, 0.08, 0.06, 0.08]","[[0.12411109391386341, -0.5343823995123961], [-0.21238427398525783, -0.3197389486612228], [-0.06551876445787266, 0.032183079599910736], [0.22034046694826517, 0.05676208929132721], [0.31747551588691986, -0.13046885784073625], [0.01834943727978222, -0.34316474661021057], [0.10776215616131694, -0.12386070969881222], [-0.2386971922539417, -0.09256206635527232]]",density,black,,,D003,visual,1,[],"['1', '2', '3', '4']",1,2023.2.3,harveyvisual,2.1,[],8,0.75,
0,pause,0.4,None,None,None,0,89,89,89,,,,,,,,,,,,,D003,visual,1,[],"['1', '2', '3', '4']",1,2023.2.3,harveyvisual,2.1,[],8,0.75,
8,dot,0.3,['dot'],['density'],black,0,90,90,90,,,33.9001989364624,33.622281074523926,33.92238688468933,dot,"[0.08, 0.1, 0.08, 0.06, 0.1, 0.06, 0.1, 0.1]","[[-0.20800618360187478, -0.297823595680997], [0.0208603014005115, -0.46570844314230314], [-0.33947416747489917, -0.46414587466331364], [-0.2657502487478435, -0.0024929956194721667], [-0.07971030345085922, -0.1368829558420488], [0.12327021606192319, -0.12614842517591618], [-0.10944837079043952, 0.12795643756026515], [-0.4050023469846894, -0.16101207847090707]]",density,black,,,D003,visual,1,[],"['1', '2', '3', '4']",1,2023.2.3,harveyvisual,2.1,[],8,0.75,
0,pause,0.4,None,None,None,0,91,91,91,,,,,,,,,,,,,D003,visual,1,[],"['1', '2', '3', '4']",1,2023.2.3,harveyvisual,2.1,[],8,0.75,
8,dot,0.3,['dot'],['density'],black,0,92,92,92,,,34.600192070007324,34.32225203514099,34.62237191200256,dot,"[0.08, 0.08, 0.1, 0.08, 0.1, 0.08, 0.06, 0.06]","[[-0.012034279999911439, 0.06556808781241986], [-0.3446774290598954, 0.11122635080299646], [0.22428040003470762, 0.1796687910302273], [-0.037221971777983635, 0.5300244249381355], [-0.1456717336157172, 0.2672263832914442], [0.040508406505222534, 0.3412803201140432], [-0.26975617824218623, 0.48628578621654683], [0.24128509790231628, 0.4122343446782376]]",density,black,,,D003,visual,1,[],"['1', '2', '3', '4']",1,2023.2.3,harveyvisual,2.1,[],8,0.75,
0,pause,0.4,None,None,None,0,93,93,93,,,,,,,,,,,,,D003,visual,1,[],"['1', '2', '3', '4']",1,2023.2.3,harveyvisual,2.1,[],8,0.75,
8,dot,0.3,['dot'],['density'],white,0,94,94,94,,,35.30020189285278,35.022381067276,35.322376012802124,dot,"[0.08, 0.06, 0.06, 0.06, 0.1, 0.08, 0.06, 0.06]","[[-0.4462313073918426, 0.10595449025715867], [0.022923871415176152, 0.06290918987699953], [-0.12461589820496316, 0.4830175517012745], [-0.29730306390741434, 0.2752084497958106], [-0.2195410516364439, 0.056871795648565045], [0.008916049516666445, 0.2907399105306955], [-0.08256048209355603, -0.11638226771844133], [-0.4106304257826301, -0.09222594144079917]]",density,white,,,D003,visual,1,[],"['1', '2', '3', '4']",1,2023.2.3,harveyvisual,2.1,[],8,0.75,
0,pause,0.4,None,None,None,0,95,95,95,,,,,,,,,,,1,35.414488077163696,D003,visual,1,[],"['1', '2', '3', '4']",1,2023.2.3,harveyvisual,2.1,[],8,0.75,
9,dot,0.3,['dot'],['density'],black,0,96,96,96,,,36.00020885467529,35.72235703468323,36.02234601974487,dot,"[0.06, 0.1, 0.1, 0.1, 0.08, 0.1, 0.06, 0.1, 0.08]","[[-0.05049485011715354, 0.3013521193238899], [0.15354596755057998, 0.36785015051376163], [0.22995749783639982, 0.07309138415424772], [0.13460311710395165, -0.18603378415368982], [0.33097739113381164, -0.13822260855557728], [-0.16464148731134703, 0.07190493829483618], [0.521154897315396, -0.007803673430992942], [0.02684304494395013, 0.0018704401699241912], [-0.15545279255173522, -0.15329938800760382]]",density,black,,,D003,visual,1,[],"['1', '2', '3', '4']",1,2023.2.3,harveyvisual,2.1,[],8,0.75,
0,pause,0.4,None,None,None,0,97,97,97,,,,,,,,,,,,,D003,visual,1,[],"['1', '2', '3', '4']",1,2023.2.3,harveyvisual,2.1,[],8,0.75,
9,dot,0.3,['dot'],['density'],black,0,98,98,98,,,36.700199842453,36.422343015670776,36.72233295440674,dot,"[0.1, 0.06, 0.1, 0.06, 0.1, 0.1, 0.08, 0.1, 0.06]","[[0.4907720478217397, -0.04420899316542184], [0.34945142516086164, 0.15252383324094793], [0.5574461082468273, 0.19132091369540322], [0.27860246559707486, -0.040271372914082004], [0.05137088633600719, 0.3166781443626957], [0.3859483744724672, 0.35594746641407654], [0.08124150308634055, -0.11830714188255424], [-0.07254784919135501, 0.1430213671552253], [0.33979531306265204, -0.26214422422440126]]",density,black,,,D003,visual,1,[],"['1', '2', '3', '4']",1,2023.2.3,harveyvisual,2.1,[],8,0.75,
0,pause,0.4,None,None,None,0,99,99,99,,,,,,,,,,,,,D003,visual,1,[],"['1', '2', '3', '4']",1,2023.2.3,harveyvisual,2.1,[],8,0.75,
9,dot,0.3,['dot'],['density'],black,0,100,100,100,,,37.40020799636841,37.1222939491272,37.42227292060852,dot,"[0.06, 0.1, 0.06, 0.06, 0.06, 0.06, 0.1, 0.1, 0.06]","[[0.21556792455118703, 0.37642033042102185], [0.14366510572844648, -0.18651452926789283], [0.49642287684820396, -0.0794158383055628], [-0.04770628609247857, -0.12519201939426747], [0.20310136493979325, 0.154094551714378], [-0.004065485174475974, 0.09100382633055243], [-0.018053901421587658, 0.34918523294118026], [0.29624623666919286, -0.053344657000752645], [-0.2018857737562037, 0.01971770186205045]]",density,black,,,D003,visual,1,[],"['1', '2', '3', '4']",1,2023.2.3,harveyvisual,2.1,[],8,0.75,
0,pause,0.4,None,None,None,0,101,101,101,,,,,,,,,,,,,D003,visual,1,[],"['1', '2', '3', '4']",1,2023.2.3,harveyvisual,2.1,[],8,0.75,
9,dot,0.3,['dot'],['density'],black,0,102,102,102,,,38.10019397735596,37.82227802276611,38.1221399307251,dot,"[0.1, 0.08, 0.1, 0.08, 0.06, 0.06, 0.1, 0.08, 0.08]","[[0.15603996265512696, -0.0872053538661942], [-0.29211765964195757, -0.04110002513656992], [-0.071087909845803, -0.33174387981618686], [-0.13011395490928096, 0.2584597801106329], [-0.08364541374476576, -0.0980664528631432], [-0.26669569773039664, -0.25481833902542456], [-0.35582819085755485, -0.4494505046102014], [-0.1269674344078877, -0.5566175884613933], [0.011820482989003244, 0.07934247632600783]]",density,black,,,D003,visual,1,[],"['1', '2', '3', '4']",1,2023.2.3,harveyvisual,2.1,[],8,0.75,
0,pause,0.4,None,None,None,0,103,103,103,,,,,,,,,,,,,D003,visual,1,[],"['1', '2', '3', '4']",1,2023.2.3,harveyvisual,2.1,[],8,0.75,
9,dot,0.3,['dot'],['density'],black,0,104,104,104,,,38.80019998550415,38.52229690551758,38.82214307785034,dot,"[0.1, 0.08, 0.08, 0.1, 0.08, 0.08, 0.1, 0.1, 0.08]","[[-0.3974741157875733, -0.3691322615124248], [0.01813275331019438, -0.041305186939584786], [-0.297817964195003, 0.1404435238036691], [-0.24996212712231053, -0.10674501212047392], [-0.45607543705465475, -0.10954340680539053], [-0.5097726394514722, 0.08872958744943038], [-0.16376728557074105, -0.3354799619734228], [-0.07115584905184995, 0.17737469530672276], [-0.4529869372404742, 0.29851616761646654]]",density,black,,,D003,visual,1,[],"['1', '2', '3', '4']",1,2023.2.3,harveyvisual,2.1,[],8,0.75,
0,pause,0.4,None,None,None,0,105,105,105,,,,,,,,,,,,,D003,visual,1,[],"['1', '2', '3', '4']",1,2023.2.3,harveyvisual,2.1,[],8,0.75,
9,dot,0.3,['dot'],['density'],white,0,106,106,106,,,39.500195026397705,39.222267866134644,39.52210092544556,dot,"[0.08, 0.1, 0.06, 0.06, 0.06, 0.08, 0.08, 0.08, 0.1]","[[-0.1410632352740557, -0.317905811010377], [-0.01624442214728049, 0.1794094022286925], [0.09468404279643694, -0.24727132108451297], [-0.2758455249254349, -0.14491344886434532], [-0.07397021974914944, -0.09933967896750957], [-0.3580751224104431, 0.12641846535160695], [0.3672464474339042, -0.09947208873420914], [0.14679994141956812, -0.049441009882571184], [0.20049431506903384, 0.1443691092520585]]",density,white,,,D003,visual,1,[],"['1', '2', '3', '4']",1,2023.2.3,harveyvisual,2.1,[],8,0.75,
0,pause,0.4,None,None,None,0,107,107,107,,,,,,,,,,,1,39.53088712692261,D003,visual,1,[],"['1', '2', '3', '4']",1,2023.2.3,harveyvisual,2.1,[],8,0.75,
20,dot,0.3,['dot'],['density'],black,0,108,108,108,,,40.20021200180054,39.92222285270691,40.222224950790405,dot,"[0.08, 0.1, 0.08, 0.08, 0.1, 0.08, 0.08, 0.06, 0.06, 0.1, 0.08, 0.06, 0.06, 0.06, 0.06, 0.08, 0.08, 0.06, 0.06, 0.1]","[[-0.2739918314286835, -0.013849979026855475], [0.14870725632870252, -0.16050803276916903], [0.17972613974061258, 0.07117293224010723], [-0.2941803396281375, 0.4273755271580968], [-0.3046613315848148, -0.23983761325733005], [-0.2580048779695326, 0.17699561019172327], [0.40214533174058154, 0.06626016406102497], [-0.13074107365050902, -0.42973468263328746], [0.023165319376031612, 0.34436861361778903], [0.4328722097961929, -0.18582769826261217], [-0.4423205212601543, -0.37739881309857604], [0.5125390315800088, 0.24172969080311102], [-0.04109254024432529, 0.13332540634180223], [-0.5207744766780883, -0.08695979283895516], [0.20297133655730304, -0.5309858074017333], [0.3059877136310275, 0.47678934802339623], [-0.5218308889714754, 0.30567731922407476], [0.5895869119002896, 0.03458811013016633], [0.07459281900116688, -0.34098130802857307], [-0.09741776867581342, 0.523989886015937]]",density,black,,,D003,visual,1,[],"['1', '2', '3', '4']",1,2023.2.3,harveyvisual,2.1,[],8,0.75,
0,pause,0.4,None,None,None,0,109,109,109,,,,,,,,,,,,,D003,visual,1,[],"['1', '2', '3', '4']",1,2023.2.3,harveyvisual,2.1,[],8,0.75,
20,dot,0.3,['dot'],['density'],black,0,110,110,110,,,40.90021800994873,40.6222128868103,40.922191858291626,dot,"[0.1, 0.1, 0.08, 0.08, 0.1, 0.06, 0.08, 0.06, 0.1, 0.1, 0.06, 0.08, 0.1, 0.08, 0.06, 0.08, 0.06, 0.06, 0.08, 0.1]","[[-0.1732488910458535, 0.5539660291647637], [-0.1388804803951001, -0.5112527798621005], [0.28639593464545454, 0.11276894823989125], [-0.3130494323294856, 0.31153198707574226], [-0.14893567639821276, 0.20235521373833065], [-0.5669132758106588, 0.038340315780632295], [0.2238239699299921, -0.16964181903745146], [-0.3794600839604231, -0.22246329580698232], [0.5031495112269216, -0.27993461862780084], [0.06065516541262106, 0.3974504221749283], [0.10576212587884593, 0.052980802709904906], [0.10679884436375253, -0.4928002461670755], [-0.21213644190177244, -0.3358667415830093], [0.6000956186140584, -0.06345441705709931], [-0.13848014958688043, -0.05186787221015077], [0.32683321957360867, 0.43286415978380144], [-0.3706882230639924, 0.04083228653639209], [0.3792237232011574, -0.4703839525378232], [0.028906046484450276, -0.1446521802553109], [-0.5424725316662063, 0.22854842427953093]]",density,black,,,D003,visual,1,[],"['1', '2', '3', '4']",1,2023.2.3,harveyvisual,2.1,[],8,0.75,
0,pause,0.4,None,None,None,0,111,111,111,,,,,,,,,,,,,D003,visual,1,[],"['1', '2', '3', '4']",1,2023.2.3,harveyvisual,2.1,[],8,0.75,
20,dot,0.3,['dot'],['density'],black,0,112,112,112,,,41.600192070007324,41.32217884063721,41.62217092514038,dot,"[0.1, 0.08, 0.1, 0.1, 0.06, 0.06, 0.06, 0.08, 0.08, 0.08, 0.08, 0.1, 0.1, 0.06, 0.1, 0.1, 0.08, 0.08, 0.1, 0.06]","[[0.5141756610378462, -0.12593320911506142], [0.29315743043160125, 0.14587128718295106], [-0.23234001750832906, -0.36101044891015754], [0.09776827048531278, 0.5582262065162297], [-0.05398473707329188, 0.20956644853126571], [-0.3619718802649929, 0.3644135681593975], [0.012801101368334566, -0.24398489043339705], [0.1776278696830743, -0.5608871423934887], [-0.5226434137120676, -0.18616896599512622], [-0.1531211177168898, -0.1401468856585939], [0.19133675648515924, -0.3160146266485614], [0.43843717167333607, -0.39157518592299523], [0.5465028638779009, 0.23709083071336667], [-0.3696899985183948, -0.00842631887598605], [0.3887394773258812, 0.38907839540782146], [0.17628878307750695, 0.3251614665571846], [-0.531911330042255, 0.16478976356053393], [0.18472756654109768, -0.1095813748433947], [-0.12712942075185785, 0.47581772193995253], [0.025350992570891573, 0.016303184003778948]]",density,black,,,D003,visual,1,[],"['1', '2', '3', '4']",1,2023.2.3,harveyvisual,2.1,[],8,0.75,
0,pause,0.4,None,None,None,0,113,113,113,,,,,,,,,,,,,D003,visual,1,[],"['1', '2', '3', '4']",1,2023.2.3,harveyvisual,2.1,[],8,0.75,
20,dot,0.3,['dot'],['density'],black,0,114,114,114,,,42.30020189285278,42.022172927856445,42.32215905189514,dot,"[0.1, 0.08, 0.08, 0.06, 0.06, 0.06, 0.06, 0.08, 0.1, 0.1, 0.08, 0.1, 0.1, 0.1, 0.08, 0.06, 0.08, 0.1, 0.08, 0.08]","[[0.3230076689567005, -0.4884327068807634], [0.5626961297469287, 0.06419386645711839], [-0.2569893425795641, -0.2508236738295709], [0.45454753702623896, 0.3347578046492691], [-0.5821891969227326, -0.027467675220647053], [-0.4959929094909368, 0.18060053168375312], [0.5026377079381884, -0.11672515948681292], [0.12114659893503221, 0.556960089083076], [-0.009552695749943885, 0.13988904657720114], [0.29993753493589637, -0.0712352147105963], [0.051972944155758594, -0.5435330169169454], [-0.44940480757550905, 0.3851636865699142], [-0.5202177725445467, -0.23397218088179225], [0.09758034127515014, 0.33335983623877774], [0.13635514846600927, -0.26828097468379775], [-0.2818078876101199, -0.021418254986087626], [-0.07181609297978597, 0.423603558924888], [-0.2651967980737741, 0.24497877503740795], [-0.35530728843608156, -0.4692048258464644], [0.03237171730869892, -0.057940847386287575]]",density,black,,,D003,visual,1,[],"['1', '2', '3', '4']",1,2023.2.3,harveyvisual,2.1,[],8,0.75,
0,pause,0.4,None,None,None,0,115,115,115,,,,,,,,,,,,,D003,visual,1,[],"['1', '2', '3', '4']",1,2023.2.3,harveyvisual,2.1,[],8,0.75,
20,dot,0.3,['dot'],['density'],black,0,116,116,116,,,43.00021505355835,42.72216486930847,43.022167921066284,dot,"[0.08, 0.08, 0.08, 0.1, 0.08, 0.06, 0.08, 0.1, 0.06, 0.06, 0.1, 0.08, 0.08, 0.1, 0.06, 0.06, 0.08, 0.06, 0.08, 0.1]","[[0.24939049908836952, 0.11464319396976264], [-0.3213203457683299, -0.33355223853415894], [-0.19827074391809008, 0.30610886124507153], [0.36751893394758517, -0.14180710737068442], [0.4980584681852317, 0.2656778136628626], [-0.17167052209712785, -0.20055954272442122], [-0.5050896550115181, -0.00882861550935704], [0.030776254471319375, -0.18932830998645567], [0.4820879203235261, 0.034482447060763366], [0.357836362982934, -0.4757487548158829], [-0.10275201236111453, 0.4887602029125212], [0.2013652594498535, 0.34274042851526576], [-0.48993994995489826, -0.22043596781884472], [-0.1876467226591485, 0.05384841916535277], [0.5026112731539351, -0.28753417754469696], [-0.5668465889701066, 0.20170903311391997], [-0.320125515463057, 0.4659954627365005], [0.1333575599412793, -0.5374540012720495], [0.029004002154415454, 0.23711114296505453], [-0.04600346063201377, -0.44698470004121027]]",density,black,,,D003,visual,1,[],"['1', '2', '3', '4']",1,2023.2.3,harveyvisual,2.1,[],8,0.75,
0,pause,0.4,None,None,None,0,117,117,117,,,,,,,,,,,,,D003,visual,1,[],"['1', '2', '3', '4']",1,2023.2.3,harveyvisual,2.1,[],8,0.75,
20,dot,0.3,['dot'],['density'],black,0,118,118,118,,,43.700196981430054,43.42206001281738,43.72194290161133,dot,"[0.1, 0.08, 0.06, 0.08, 0.08, 0.08, 0.08, 0.08, 0.06, 0.06, 0.06, 0.1, 0.1, 0.08, 0.08, 0.1, 0.08, 0.08, 0.06, 0.06]","[[0.07201512805481569, -0.4394641477826055], [0.4672976746339138, 0.3297996498246481], [-0.2091056297513061, 0.36516863645289466], [0.39463161900059973, -0.024745146198770662], [0.21157457579965833, 0.5638658168075291], [0.02950135182466085, 0.005186074482013803], [-0.4090320986622108, -0.3249437386029376], [0.5629246120540233, 0.12600795529357087], [0.14811499418688523, 0.3491694858715936], [-0.46238080490233624, 0.26428915226694766], [0.1384763014398498, -0.21001032390122065], [-0.3706480028810144, -0.08754803629892355], [0.4411901461549329, -0.3955001347891735], [-0.17320263999667973, -0.2669367127099788], [-0.5691323122866866, 0.07364066127399566], [0.5434724584221412, -0.1628401051090021], [-0.21397214297980321, 0.05711100039817529], [-0.11249042016025984, -0.5469237898697723], [-0.0994594266433304, 0.5647709181205764], [-0.060007065357929656, 0.20907718747259396]]",density,black,,,D003,visual,1,[],"['1', '2', '3', '4']",1,2023.2.3,harveyvisual,2.1,[],8,0.75,
0,pause,0.4,None,None,None,0,119,119,119,,,,,,,,,,,,,D003,visual,1,[],"['1', '2', '3', '4']",1,2023.2.3,harveyvisual,2.1,[],8,0.75,
20,dot,0.3,['dot'],['density'],black,0,120,120,120,,,44.40019392967224,44.121991872787476,44.42197394371033,dot,"[0.1, 0.1, 0.08, 0.06, 0.1, 0.1, 0.1, 0.06, 0.08, 0.08, 0.08, 0.08, 0.06, 0.1, 0.08, 0.1, 0.08, 0.08, 0.1, 0.1]","[[-0.2842151773353308, 0.1400749105379312], [0.4952582442182417, 0.16517845850913465], [-0.5669789828630543, -0.0789908695007796], [-0.4822745572507694, 0.35549880585546484], [0.14785384356365472, -0.12711314008468816], [0.15596391439170543, 0.10476816560626223], [-0.20471272439497035, -0.5019421435460758], [-0.5886610567229973, 0.13104394697626742], [-0.06494751250332009, 0.5401416966295106], [0.4041451673673625, -0.4453819253957801], [-0.007740764420344326, -0.3424108298003693], [-0.04778915131338923, -0.09299619583862062], [-0.2308256237913045, -0.3079830109423122], [0.14702595131687324, 0.36201109393533426], [0.5834522327155897, -0.09894990293049051], [0.40367580486026255, 0.41580862986953687], [0.4051410907539291, -0.18084573115283825], [-0.43174885052165546, -0.3571954061809223], [0.2525888440070685, -0.31507436447400156], [-0.188198335317186, 0.31529393120117666]]",density,black,,,D003,visual,1,[],"['1', '2', '3', '4']",1,2023.2.3,harveyvisual,2.1,[],8,0.75,
0,pause,0.4,None,None,None,0,121,121,121,,,,,,,,,,,,,D003,visual,1,[],"['1', '2', '3', '4']",1,2023.2.3,harveyvisual,2.1,[],8,0.75,
20,dot,0.3,['dot'],['density'],black,0,122,122,122,,,45.10021090507507,44.82212591171265,45.12212085723877,dot,"[0.1, 0.06, 0.1, 0.06, 0.1, 0.06, 0.1, 0.08, 0.08, 0.06, 0.06, 0.1, 0.06, 0.06, 0.08, 0.08, 0.1, 0.1, 0.08, 0.06]","[[-0.20848266608020982, 0.10731571897709247], [-0.6004082585710739, 0.012510050723156418], [0.4620617694062684, -0.28028462705056983], [0.0734017358466198, 0.5577323108121512], [-0.41755038131218114, -0.29348549763599646], [0.585570536367895, 0.04614861689365951], [-0.5410350868291136, 0.204338843248572], [-0.1520279955146256, -0.5837166040233183], [0.00868349902578558, -0.12412126312844474], [0.44649364846803896, 0.3460802950538261], [-0.14696491873225692, 0.5462987259545926], [0.22679580539543565, -0.31909861062128636], [0.21930707288266027, 0.3042110345941246], [-0.3296792339621826, -0.48783794474791514], [0.3647797475486384, 0.01841425438870592], [-0.3251949312146998, 0.3385552242651412], [-0.3654486210971193, -0.004131724218888744], [-0.18390111073540216, -0.09628903605692524], [0.02958191753586248, -0.3649013934979414], [0.10839407662729972, 0.040668034669907205]]",density,black,,,D003,visual,1,[],"['1', '2', '3', '4']",1,2023.2.3,harveyvisual,2.1,[],8,0.75,
0,pause,0.4,None,None,None,0,123,123,123,,,,,,,,,,,,,D003,visual,1,[],"['1', '2', '3', '4']",1,2023.2.3,harveyvisual,2.1,[],8,0.75,
20,dot,0.3,['dot'],['density'],black,0,124,124,124,,,45.80021286010742,45.52214288711548,45.822192907333374,dot,"[0.08, 0.06, 0.06, 0.08, 0.1, 0.08, 0.06, 0.1, 0.1, 0.1, 0.1, 0.1, 0.08, 0.08, 0.1, 0.06, 0.1, 0.1, 0.06, 0.1]","[[0.043147713338649085, -0.03838060791729159], [-0.4197286571782346, -0.26769327365883744], [-0.09075859106642281, 0.3894728257990875], [-0.5984030698503606, -0.06367446794117357], [-0.17690496239457243, -0.16482432880405218], [0.18577120083431753, -0.5613135397984134], [0.5203123799799166, -0.2864993183987378], [0.026150093214515335, 0.5469785485071007], [-0.4321758869264988, 0.3242096809364423], [0.45849272155227994, -0.047349048372073765], [0.24004149967571198, 0.16360698336416268], [0.08068723419061175, 0.27209553900699], [0.5408756806070302, 0.23686789770477723], [0.2335384407347353, 0.4690142312859923], [0.3413507508780509, -0.36875489512599463], [-0.16402188128737677, 0.17806159718705605], [-0.053603081380936834, -0.4456292029288691], [-0.3443310750463494, -0.011449655602901343], [0.16318550080120253, -0.232075033042695], [-0.3556802085142944, -0.48935298524096466]]",density,black,,,D003,visual,1,[],"['1', '2', '3', '4']",1,2023.2.3,harveyvisual,2.1,[],8,0.75,
0,pause,0.4,None,None,None,0,125,125,125,,,,,,,,,,,,,D003,visual,1,[],"['1', '2', '3', '4']",1,2023.2.3,harveyvisual,2.1,[],8,0.75,
20,dot,0.3,['dot'],['density'],black,0,126,126,126,,,46.500200033187866,46.222161054611206,46.52221989631653,dot,"[0.08, 0.06, 0.08, 0.08, 0.08, 0.1, 0.1, 0.1, 0.06, 0.08, 0.06, 0.08, 0.06, 0.1, 0.06, 0.08, 0.1, 0.06, 0.06, 0.06]","[[-0.12595730570578384, -0.3666529590240349], [0.27556597958055484, 0.44430969698006884], [0.2828680266290474, 0.08391343174676458], [-0.5038006505174895, -0.33331214527416464], [0.3525309198349995, -0.14254167351469432], [-0.04300942298339394, 0.3360374882917131], [0.08027218853322049, -0.24906431528593492], [-0.11302404568304775, 0.5298916032408457], [-0.4634054402970181, 0.378453004745014], [0.4003867124446495, -0.3688532957145352], [-0.2092606750674193, -0.08175959041131747], [0.5804075855130809, 0.07858865930322795], [-0.5328683110392727, 0.13151650018816713], [0.09482213755676039, 0.5727055878301378], [-0.5415727842394841, -0.11134126792051555], [0.060475342736641347, 0.06235342570276947], [0.1521570322837561, -0.5794797423537746], [-0.2732310051969572, 0.10527861532040084], [-0.25302304168363576, -0.521852681046578], [0.5060461014838148, 0.29645338772013813]]",density,black,,,D003,visual,1,[],"['1', '2', '3', '4']",1,2023.2.3,harveyvisual,2.1,[],8,0.75,
0,pause,0.4,None,None,None,0,127,127,127,,,,,,,,,,,,,D003,visual,1,[],"['1', '2', '3', '4']",1,2023.2.3,harveyvisual,2.1,[],8,0.75,
20,dot,0.3,['dot'],['density'],black,0,128,128,128,,,47.200191020965576,46.92194485664368,47.22205591201782,dot,"[0.06, 0.08, 0.08, 0.1, 0.06, 0.1, 0.08, 0.1, 0.08, 0.1, 0.1, 0.06, 0.1, 0.06, 0.1, 0.08, 0.08, 0.1, 0.1, 0.06]","[[-0.41723010444890274, 0.11386834389841166], [0.3183640712728194, -0.3751146114714847], [0.09129072414265627, -0.02605594839916625], [0.6042656657667645, -0.014088866270122572], [0.5106983710080782, 0.18890654889809738], [-0.14640951746063102, -0.04551491811362385], [-0.24848503071986094, 0.2466929331554244], [0.035206779272189404, 0.3257971429363108], [-0.3337127000486684, -0.22347735889475917], [0.2773935423868674, 0.4751329667069848], [-0.4460005895347358, -0.3959479543175312], [0.5317274924381851, -0.23645981184887674], [-0.02060900576659952, -0.5168656644213694], [-0.04820450110406682, -0.2724130515232756], [-0.07129024986992194, 0.13270138819849742], [0.24307267009748146, -0.18893326983347009], [-0.5628243694188306, -0.036073012902730545], [0.31728612303368364, 0.1468409728893948], [-0.25973920638807907, -0.462371772266536], [0.07913834003513065, 0.5501281001714847]]",density,black,,,D003,visual,1,[],"['1', '2', '3', '4']",1,2023.2.3,harveyvisual,2.1,[],8,0.75,
0,pause,0.4,None,None,None,0,129,129,129,,,,,,,,,,,,,D003,visual,1,[],"['1', '2', '3', '4']",1,2023.2.3,harveyvisual,2.1,[],8,0.75,
20,dot,0.3,['dot'],['density'],black,0,130,130,130,,,47.9001989364624,47.62194299697876,47.92206692695618,dot,"[0.08, 0.08, 0.08, 0.06, 0.1, 0.08, 0.08, 0.06, 0.1, 0.06, 0.06, 0.1, 0.06, 0.1, 0.08, 0.06, 0.1, 0.08, 0.1, 0.06]","[[-0.5215869414796042, 0.05165012335035335], [0.2978761129137726, 0.4013277636750475], [0.11232227353301272, 0.17924337301403437], [0.33509986238828626, -0.14119004460658013], [0.14483698448611593, -0.4789243544721399], [-0.30404240885238243, -0.4839573347340095], [-0.029788599328985588, -0.2045798988458299], [0.07381414799628905, 0.3927705968409605], [-0.3319933952577078, 0.4251231860100232], [0.33124664172437, 0.17830885839913213], [-0.28903639493167, 0.06335226443488406], [0.5515092685660904, -0.05985514238519124], [-0.4004610904788344, -0.23188459679337964], [0.5233861828478269, 0.23849566872881017], [-0.2208064957960359, -0.12970368737297955], [-0.1483355286520927, 0.4769402885074254], [0.10433845073451586, -0.04135411574990189], [-0.039681950398924304, -0.5521931196440589], [0.43061886958696116, -0.310066397245024], [-0.08418858233332904, 0.18841943506309666]]",density,black,,,D003,visual,1,[],"['1', '2', '3', '4']",1,2023.2.3,harveyvisual,2.1,[],8,0.75,
0,pause,0.4,None,None,None,0,131,131,131,,,,,,,,,,,,,D003,visual,1,[],"['1', '2', '3', '4']",1,2023.2.3,harveyvisual,2.1,[],8,0.75,
20,dot,0.3,['dot'],['density'],black,0,132,132,132,,,48.60019493103027,48.32206606864929,48.621877908706665,dot,"[0.06, 0.08, 0.1, 0.08, 0.06, 0.08, 0.1, 0.06, 0.06, 0.08, 0.08, 0.06, 0.08, 0.08, 0.08, 0.1, 0.08, 0.1, 0.08, 0.08]","[[0.34776170473936974, 0.3882489249109918], [0.43221463190662035, -0.08159903074119562], [-0.08449350466763639, -0.5862398994348094], [-0.03963445735637494, 0.4857792928486857], [0.17234615785145935, -0.34561112315968257], [-0.2290604850092125, 0.46791320867654307], [0.20753136593013244, 0.14989622275169867], [-0.5619376415105544, -0.14498640360536325], [-0.08122403135683587, -0.2611614292339651], [-0.30202682343766507, -0.16071873625671834], [-0.45742955283095554, 0.12898001385404867], [0.3974870735414183, -0.3250995357375569], [0.5508460295678105, 0.1966908675395339], [-0.4530308505643173, 0.3353817989429283], [0.19982996020153587, -0.15087529789365922], [-0.3844042109522055, -0.45871624618045914], [0.23409673928423957, 0.5474958162219319], [0.11705519977837808, -0.5746693786661711], [-0.10424930843674785, 0.3038404459227686], [0.049329074566787035, 0.014885407255662675]]",density,black,,,D003,visual,1,[],"['1', '2', '3', '4']",1,2023.2.3,harveyvisual,2.1,[],8,0.75,
0,pause,0.4,None,None,None,0,133,133,133,,,,,,,,,,,,,D003,visual,1,[],"['1', '2', '3', '4']",1,2023.2.3,harveyvisual,2.1,[],8,0.75,
20,dot,0.3,['dot'],['density'],black,0,134,134,134,,,49.30019497871399,49.02205801010132,49.322054862976074,dot,"[0.06, 0.06, 0.08, 0.1, 0.06, 0.08, 0.1, 0.1, 0.1, 0.08, 0.08, 0.08, 0.1, 0.1, 0.08, 0.08, 0.1, 0.08, 0.06, 0.1]","[[0.33545826459422345, 0.29533279985917726], [-0.30123984969879125, 0.04867067145100212], [0.3593689057319496, -0.3745711029634565], [0.12325049823233769, 0.13556026958157275], [0.007744072939401492, -0.24440355005842962], [-0.14321138075893086, 0.48478687263812714], [0.06146075539633278, 0.4852360939389443], [-0.38752018664657095, 0.3974990498680171], [-0.458584166701745, 0.159693565913184], [0.5817812802920038, -0.06338083730100656], [0.3766884283163926, -0.03408817448623924], [-0.5512891256039408, -0.16079770062120916], [-0.13230949797576919, -0.4368143041332416], [0.51773935529579, 0.18391528450958922], [-0.36335049670749514, -0.4475606591132315], [0.11829787976706285, -0.07222774769471585], [-0.09128940299239785, 0.03675491984553014], [0.5239191447152184, -0.26851876043139844], [0.15496257461358254, -0.4675080942174843], [-0.12085312909745427, 0.2888096913313922]]",density,black,,,D003,visual,1,[],"['1', '2', '3', '4']",1,2023.2.3,harveyvisual,2.1,[],8,0.75,
0,pause,0.4,None,None,None,0,135,135,135,,,,,,,,,,,,,D003,visual,1,[],"['1', '2', '3', '4']",1,2023.2.3,harveyvisual,2.1,[],8,0.75,
20,dot,0.3,['dot'],['density'],black,0,136,136,136,,,50.00021004676819,49.72187685966492,50.02186989784241,dot,"[0.08, 0.06, 0.1, 0.1, 0.1, 0.06, 0.06, 0.1, 0.06, 0.1, 0.06, 0.1, 0.06, 0.06, 0.06, 0.06, 0.06, 0.06, 0.06, 0.08]","[[-0.27084564267809175, 0.4733478663520826], [0.43467005893234856, 0.3927373575439425], [0.5953913311418363, 0.012088984684714504], [-0.546217714874265, -0.12882100398773025], [-0.09180738644445208, -0.2949437497580367], [0.2105647508326468, 0.3257493415077394], [0.025873815478183237, -0.5432261141705192], [-0.3087868883555624, 0.09352737664688093], [-0.3021452965094885, -0.37276125910792746], [-0.13928243398645362, 0.3274069674270338], [0.35294123818505907, -0.07924908338250786], [0.42735943875746163, 0.1184150840050665], [0.225646539774647, 0.08914244394644211], [0.4539464141313455, -0.3761794482268507], [0.20571062968953346, -0.21750886148766185], [-0.3229598764801694, -0.11143569340336806], [0.08061543932987691, 0.5980752200112555], [-0.1158985474337541, 0.13432243433922741], [0.26168661851781916, -0.4266120172573473], [-0.5750338498660135, 0.09469994927770115]]",density,black,,,D003,visual,1,[],"['1', '2', '3', '4']",1,2023.2.3,harveyvisual,2.1,[],8,0.75,
0,pause,0.4,None,None,None,0,137,137,137,,,,,,,,,,,,,D003,visual,1,[],"['1', '2', '3', '4']",1,2023.2.3,harveyvisual,2.1,[],8,0.75,
20,dot,0.3,['dot'],['density'],black,0,138,138,138,,,50.700193881988525,50.421786069869995,50.72178292274475,dot,"[0.1, 0.08, 0.1, 0.08, 0.06, 0.06, 0.06, 0.06, 0.08, 0.08, 0.06, 0.1, 0.1, 0.06, 0.06, 0.06, 0.08, 0.08, 0.1, 0.08]","[[0.5823217510857873, 0.1124555146627502], [0.2238408547138181, 0.5105882667454058], [0.3145566904175634, -0.06290184701905005], [0.3168396198066118, -0.3947680718204482], [-0.05249106966985817, -0.24209016057696897], [-0.23817047947048858, 0.0016671934239288477], [-0.4277485012478247, 0.010866430223861356], [-0.2740445418803228, -0.2155245582828454], [-0.20006358064779117, 0.4346962906078379], [0.5654667779036212, -0.17495056192909697], [-0.5062090033207785, -0.2638351250070019], [0.029220681070388, -0.5802240973059464], [-0.4002969956694319, 0.4251006234053886], [-0.38420991442027946, 0.20698884570701054], [0.16908129058240806, -0.250870242619667], [0.3405884726152153, 0.3481084569602133], [0.06848275248529867, 0.020396697961582944], [0.0994521527746225, 0.273688780820426], [-0.25446834097791166, -0.4362966593891223], [-0.06595949002155621, 0.5978950962071301]]",density,black,,,D003,visual,1,[],"['1', '2', '3', '4']",1,2023.2.3,harveyvisual,2.1,[],8,0.75,
0,pause,0.4,None,None,None,0,139,139,139,,,,,,,,,,,,,D003,visual,1,[],"['1', '2', '3', '4']",1,2023.2.3,harveyvisual,2.1,[],8,0.75,
20,dot,0.3,['dot'],['density'],black,0,140,140,140,,,51.40020704269409,51.12182402610779,51.42175507545471,dot,"[0.1, 0.08, 0.1, 0.08, 0.08, 0.1, 0.08, 0.06, 0.1, 0.1, 0.06, 0.1, 0.1, 0.1, 0.08, 0.1, 0.08, 0.1, 0.06, 0.08]","[[-0.3800545107451896, 0.2163989174512848], [-0.3586776655890136, -0.12645979842696875], [0.122671603105595, -0.46880184248423745], [-0.011304631685645439, 0.6023667173392899], [0.5815665852722808, 0.14560904876750289], [0.5800595203895796, -0.15408324692207953], [-0.16801022407990168, -0.5512096244562528], [0.46802471271775115, -0.32117020180517697], [0.23032377621908373, 0.18471029590815147], [-0.08656796758521457, 0.00707749468851393], [0.26505523482469795, 0.3949143264895143], [-0.5874475679367861, 0.12509316021822536], [-0.3941503563713824, -0.37982733368089155], [0.41258715529009093, 0.26157994520980027], [0.18013333206891569, -0.05158997064090798], [-0.13589586723816027, 0.21867132382331544], [-0.19803180332808334, 0.4118026756378754], [-0.41979894000073253, 0.4134595154944567], [0.05875290486526974, -0.28546907246856856], [-0.5890890938921663, -0.09236636119955258]]",density,black,,,D003,visual,1,[],"['1', '2', '3', '4']",1,2023.2.3,harveyvisual,2.1,[],8,0.75,
0,pause,0.4,None,None,None,0,141,141,141,,,,,,,,,,,,,D003,visual,1,[],"['1', '2', '3', '4']",1,2023.2.3,harveyvisual,2.1,[],8,0.75,
20,dot,0.3,['dot'],['density'],black,0,142,142,142,,,52.10020303726196,51.82177400588989,52.12175393104553,dot,"[0.1, 0.1, 0.08, 0.1, 0.08, 0.08, 0.1, 0.08, 0.08, 0.08, 0.08, 0.08, 0.08, 0.08, 0.08, 0.08, 0.06, 0.08, 0.06, 0.06]","[[0.3939787647092391, -0.1414511195474532], [-0.2099762288718146, 0.1827428189081325], [0.29005827203836343, 0.38142091411830303], [-0.20264369338434085, -0.2206939635646809], [0.13008768609510024, 0.19988545056758822], [-0.5538923916867776, 0.07904843622369087], [-0.16809710169005976, 0.36886380790688966], [-0.015796058899558374, -0.4695520008801889], [-0.3639487705906771, -0.4284840897369029], [0.4596407686163301, -0.3324251798341303], [0.11329157398696976, 0.49118979528755513], [-0.5162995038217157, -0.28535457144943105], [0.21437989245453348, -0.07462292303582574], [-0.09887664925452089, 0.004864555228263789], [0.5290788638241427, 0.05483280301455162], [0.030247052694259757, -0.25320657016539905], [-0.5204268850214181, 0.26686603962153677], [0.3166735717697381, -0.4708078081912832], [0.4751665161854771, 0.29724058452895047], [-0.3612665739776848, 0.05795173237382423]]",density,black,,,D003,visual,1,[],"['1', '2', '3', '4']",1,2023.2.3,harveyvisual,2.1,[],8,0.75,
0,pause,0.4,None,None,None,0,143,143,143,,,,,,,,,,,,,D003,visual,1,[],"['1', '2', '3', '4']",1,2023.2.3,harveyvisual,2.1,[],8,0.75,
20,dot,0.3,['dot'],['density'],black,0,144,144,144,,,52.80021691322327,52.521738052368164,52.821770906448364,dot,"[0.06, 0.08, 0.06, 0.06, 0.06, 0.06, 0.08, 0.06, 0.06, 0.1, 0.06, 0.1, 0.08, 0.1, 0.06, 0.06, 0.06, 0.06, 0.06, 0.06]","[[0.41770679986330095, 0.31986139421412163], [-0.5619455195067607, -0.028839267382591682], [-0.219471549569835, 0.1066301851766801], [0.14148000442990738, -0.35389573539444186], [-0.0001195892421217426, 0.5676937764721243], [-0.21895235042046962, -0.4186592981708704], [0.18171782199472541, 0.2736137704656133], [-0.0576618637003119, 0.30720053649026113], [0.4665798178983155, -0.34594350218049397], [0.4720844238265246, -0.08156693121768471], [0.2517198294777888, 0.05114189260841573], [0.009145749606110365, -0.004346703748712599], [-0.3951619246736811, 0.2211834951481173], [0.3078713257491964, -0.21486655485851763], [-0.26916689670728905, 0.5241965379375525], [-0.2032814841941647, -0.1690633937023111], [-0.47258353229938255, -0.20430921908997424], [0.5722964984868587, 0.14394210463465987], [-0.09508515433021303, -0.5816695391643327], [0.1359257155524204, -0.5803718082158373]]",density,black,,,D003,visual,1,[],"['1', '2', '3', '4']",1,2023.2.3,harveyvisual,2.1,[],8,0.75,
0,pause,0.4,None,None,None,0,145,145,145,,,,,,,,,,,,,D003,visual,1,[],"['1', '2', '3', '4']",1,2023.2.3,harveyvisual,2.1,[],8,0.75,
20,dot,0.3,['dot'],['density'],black,0,146,146,146,,,53.5002179145813,53.22174286842346,53.521775007247925,dot,"[0.1, 0.1, 0.1, 0.08, 0.1, 0.1, 0.1, 0.08, 0.08, 0.06, 0.08, 0.1, 0.1, 0.08, 0.06, 0.08, 0.08, 0.1, 0.1, 0.06]","[[0.10009433836172199, 0.5180835073079482], [0.24146261570247418, 0.12156745406369562], [-0.4697434916167179, 0.009808436793544706], [0.41796287764575746, 0.4239236274550576], [-0.22370397681738513, 0.5192080085994212], [0.5714543554016288, -0.13043755737551016], [-0.48688842649768754, -0.31369592934353085], [-0.24480105354971216, 0.2201281324386637], [0.05543286701761152, -0.0371666802217111], [-0.05385277324473958, 0.13180803413823972], [-0.34406676989321516, -0.18114593959646308], [0.3664213149120584, -0.44751054263802403], [-0.45987701502240397, 0.23382478325217065], [0.2474295291228028, -0.1644385092018703], [0.011066564196165807, -0.4611278731406986], [0.4494347269903697, 0.1306602216475229], [-0.16913574177710883, -0.28510468494690466], [-0.3189961411718699, -0.5120671167729046], [0.19038349027844215, 0.3248230772126175], [0.03747466115896059, -0.2372067108778949]]",density,black,,,D003,visual,1,[],"['1', '2', '3', '4']",1,2023.2.3,harveyvisual,2.1,[],8,0.75,
0,pause,0.4,None,None,None,0,147,147,147,,,,,,,,,,,,,D003,visual,1,[],"['1', '2', '3', '4']",1,2023.2.3,harveyvisual,2.1,[],8,0.75,
20,dot,0.3,['dot'],['density'],black,0,148,148,148,,,54.200214862823486,53.921725034713745,54.221720933914185,dot,"[0.1, 0.06, 0.08, 0.08, 0.1, 0.08, 0.06, 0.06, 0.08, 0.1, 0.06, 0.1, 0.06, 0.06, 0.08, 0.08, 0.06, 0.06, 0.08, 0.06]","[[-0.07528245105547371, -0.41362568913174647], [0.3334689050803925, 0.376297301062688], [-0.5930145603855078, -0.09953315620652826], [0.03996037206228176, 0.5555131705313959], [0.5390178183602335, 0.19856597719846641], [-0.21048116214651064, 0.36959907672540415], [0.14990286397898156, -0.44033207092720167], [-0.303664993259262, 0.04007496438380698], [0.14439073888447673, -0.002299169707963511], [0.47055644528779117, -0.3146623802962783], [-0.49211546864726075, 0.25470845130217573], [-0.31846558433995686, -0.3588114157368769], [0.4758477469586969, 0.009660781014500797], [-0.07499865984203014, 0.2082003846072713], [-0.12642093710816488, -0.08231068197629754], [0.2823102344590531, -0.17130226552171945], [-0.3083699497620926, -0.1602789571012424], [-0.2164028093336225, -0.5461662456096875], [0.1486767261275287, 0.2625897096423817], [0.3135731386427675, 0.1415061671639597]]",density,black,,,D003,visual,1,[],"['1', '2', '3', '4']",1,2023.2.3,harveyvisual,2.1,[],8,0.75,
0,pause,0.4,None,None,None,0,149,149,149,,,,,,,,,,,,,D003,visual,1,[],"['1', '2', '3', '4']",1,2023.2.3,harveyvisual,2.1,[],8,0.75,
20,dot,0.3,['dot'],['density'],black,0,150,150,150,,,54.90019989013672,54.62174606323242,54.92173504829407,dot,"[0.1, 0.06, 0.06, 0.06, 0.06, 0.08, 0.1, 0.08, 0.08, 0.06, 0.06, 0.08, 0.1, 0.08, 0.06, 0.1, 0.08, 0.08, 0.06, 0.06]","[[-0.49610883086714475, 0.283130822716444], [-0.11116731216515974, 0.2517111028103748], [0.3448727054317079, 0.4420082908297416], [0.5833499240577308, 0.1424451308543004], [0.14231859042387285, 0.3207848483707322], [0.3669978471141069, -0.384001446894163], [-0.3304256461241151, -0.26724770419199634], [-0.46254815335832056, 0.06052606657476922], [-0.20846780660184744, -0.023286089801373366], [0.38155662231892884, 0.016843484357701832], [0.5064314508047897, 0.31865849667200935], [-0.002929700454289752, 0.5649951618572736], [-0.17123251986032706, -0.45978223420127595], [0.15821520249126952, 0.1284126886690441], [0.08924748181192588, -0.22073832550692812], [-0.3115993890398689, 0.517126807092017], [0.5080910627019682, -0.25428732975845547], [-0.563173256966564, -0.12913004956983437], [0.09796945403099488, -0.5591195992261611], [0.5952885198640548, -0.0565861471016859]]",density,black,,,D003,visual,1,[],"['1', '2', '3', '4']",1,2023.2.3,harveyvisual,2.1,[],8,0.75,
0,pause,0.4,None,None,None,0,151,151,151,,,,,,,,,,,,,D003,visual,1,[],"['1', '2', '3', '4']",1,2023.2.3,harveyvisual,2.1,[],8,0.75,
20,dot,0.3,['dot'],['density'],black,0,152,152,152,,,55.60019302368164,55.32171297073364,55.62169790267944,dot,"[0.1, 0.06, 0.06, 0.06, 0.06, 0.1, 0.08, 0.08, 0.08, 0.1, 0.1, 0.1, 0.06, 0.1, 0.08, 0.06, 0.08, 0.08, 0.08, 0.08]","[[0.0965178106609611, 0.3188893551644517], [-0.5792825826480973, 0.06325609928423737], [0.19067192421644907, -0.05178572314184415], [0.03534679808342367, 0.54140407665612], [0.35090091327772943, -0.48438999073326955], [-0.3023319055282871, -0.19531910803830582], [-0.03543148698534415, 0.05514189374923528], [0.5168008856605718, 0.1745522955976494], [-0.15312260637901842, -0.44726296597019544], [-0.5167000939205773, -0.2848231199614054], [0.28890650280741803, 0.1160470639334602], [-0.10733685281219174, 0.3976758466889515], [0.37416519532177805, 0.46865775231568135], [0.43862867029460795, -0.08883765438160401], [-0.022451596850859068, -0.21399029115886053], [0.30218418343676745, -0.24632669060317608], [-0.35822449852723376, -0.46511618323544446], [0.11904769464731468, -0.526856543448099], [-0.3596241659422308, 0.10602787137500264], [-0.49882359974910684, 0.2748808898299228]]",density,black,,,D003,visual,1,[],"['1', '2', '3', '4']",1,2023.2.3,harveyvisual,2.1,[],8,0.75,
0,pause,0.4,None,None,None,0,153,153,153,,,,,,,,,,,,,D003,visual,1,[],"['1', '2', '3', '4']",1,2023.2.3,harveyvisual,2.1,[],8,0.75,
20,dot,0.3,['dot'],['density'],black,0,154,154,154,,,56.30019688606262,56.021697998046875,56.32166385650635,dot,"[0.1, 0.1, 0.1, 0.1, 0.08, 0.08, 0.08, 0.08, 0.1, 0.08, 0.06, 0.1, 0.08, 0.08, 0.08, 0.06, 0.06, 0.1, 0.08, 0.08]","[[-0.5674012246593264, 0.15936411122429814], [0.054771747966885886, 0.016259260756375737], [-0.372542079785515, -0.02114363735030239], [0.4948005650736559, -0.0956905941675229], [-0.5402763508490331, -0.2516990556174237], [-0.21977983147943692, 0.3424765415579897], [0.09051885215354138, 0.33057159919755175], [0.2434034973087471, 0.10747381541400647], [0.27704463150521996, 0.3849002062274499], [-0.017702879671628646, -0.2477108946828563], [-0.04628074574315644, -0.6025392218586025], [0.29689884054273363, -0.4145624690197498], [-0.2773900722453729, -0.3471766082183686], [0.5583039117874559, 0.20177352410359212], [-0.4209962309530684, 0.3551219701365266], [0.09269496946116673, -0.45418388189991654], [0.29101771004672183, -0.09588833866482821], [-0.11077728070203852, 0.5593697077082207], [-0.12139770534412941, 0.17775756506016205], [-0.5859500059591289, -0.052888809690529295]]",density,black,,,D003,visual,1,[],"['1', '2', '3', '4']",1,2023.2.3,harveyvisual,2.1,[],8,0.75,
0,pause,0.4,None,None,None,0,155,155,155,,,,,,,,,,,,,D003,visual,1,[],"['1', '2', '3', '4']",1,2023.2.3,harveyvisual,2.1,[],8,0.75,
9,dot,0.3,['dot'],['density'],black,0,156,156,156,,,57.000221967697144,56.72166895866394,57.02166295051575,dot,"[0.08, 0.06, 0.08, 0.1, 0.08, 0.1, 0.06, 0.1, 0.08]","[[-0.23139737267821464, 0.4582894628988488], [-0.22563640623437264, 0.09161215191469056], [0.08653997658409265, 0.18408404769425912], [-0.34134765149242685, 0.2795210921938051], [-0.45752590330905135, 0.08752711185150099], [-0.035040587470716034, -0.07657027701648178], [-0.27120713465948276, -0.1309343981320133], [-0.3537313425617488, -0.374673418779248], [-0.09309732942360581, 0.2754840453600595]]",density,black,,,D003,visual,1,[],"['1', '2', '3', '4']",1,2023.2.3,harveyvisual,2.1,[],8,0.75,
0,pause,0.4,None,None,None,0,157,157,157,,,,,,,,,,,,,D003,visual,1,[],"['1', '2', '3', '4']",1,2023.2.3,harveyvisual,2.1,[],8,0.75,
9,dot,0.3,['dot'],['density'],black,0,158,158,158,,,57.70020890235901,57.42164587974548,57.72170090675354,dot,"[0.06, 0.08, 0.1, 0.08, 0.06, 0.1, 0.06, 0.06, 0.08]","[[0.23250081832313607, -0.03448075506690146], [0.3034476098774822, 0.1830296703973891], [-0.18904104685434053, 0.18833284185042862], [0.2553794676357457, 0.5314352583170906], [0.16363099535363254, 0.3461022642192175], [-0.0841935017478271, 0.3664174397160571], [-0.26748786402911323, -0.05736109653727262], [0.043842773669028334, 0.577246673499167], [0.02102957219118283, 0.0979254794926055]]",density,black,,,D003,visual,1,[],"['1', '2', '3', '4']",1,2023.2.3,harveyvisual,2.1,[],8,0.75,
0,pause,0.4,None,None,None,0,159,159,159,,,,,,,,,,,,,D003,visual,1,[],"['1', '2', '3', '4']",1,2023.2.3,harveyvisual,2.1,[],8,0.75,
9,dot,0.3,['dot'],['density'],black,0,160,160,160,,,58.40022087097168,58.12166404724121,58.42164993286133,dot,"[0.06, 0.06, 0.06, 0.06, 0.08, 0.1, 0.08, 0.06, 0.1]","[[0.12352761201622256, -0.5468572532837559], [0.3269537579821693, -0.14821727133703638], [-0.17374906020363926, -0.07190913605219341], [-0.07646026346349713, -0.5341566642345157], [0.06446752128858728, 0.011530587655488696], [0.17734850627899523, -0.32847254707869106], [-0.01015131191695844, -0.24065236825376074], [-0.3732824370369478, -0.21519922319826376], [-0.23017550258214428, -0.35747389881463476]]",density,black,,,D003,visual,1,[],"['1', '2', '3', '4']",1,2023.2.3,harveyvisual,2.1,[],8,0.75,
0,pause,0.4,None,None,None,0,161,161,161,,,,,,,,,,,,,D003,visual,1,[],"['1', '2', '3', '4']",1,2023.2.3,harveyvisual,2.1,[],8,0.75,
9,dot,0.3,['dot'],['density'],black,0,162,162,162,,,59.100220918655396,58.821650981903076,59.12163996696472,dot,"[0.08, 0.1, 0.08, 0.1, 0.08, 0.1, 0.08, 0.06, 0.1]","[[-0.4007656520072294, -0.25517300445391483], [-0.002534053661406415, -0.03841937385778563], [0.03867088550537559, -0.37109058839216275], [0.14298263539714814, -0.19121790068267305], [-0.18592892280395246, 0.09800459324165622], [-0.17114407793371844, -0.47763389460370764], [0.20594417137152282, 0.033112046987541804], [-0.3669302527083935, -0.010624696365658668], [-0.20182203610849478, -0.19970173151634407]]",density,black,,,D003,visual,1,[],"['1', '2', '3', '4']",1,2023.2.3,harveyvisual,2.1,[],8,0.75,
0,pause,0.4,None,None,None,0,163,163,163,,,,,,,,,,,,,D003,visual,1,[],"['1', '2', '3', '4']",1,2023.2.3,harveyvisual,2.1,[],8,0.75,
9,dot,0.3,['dot'],['density'],black,0,164,164,164,,,59.80021286010742,59.521631956100464,59.82154703140259,dot,"[0.08, 0.06, 0.1, 0.1, 0.06, 0.08, 0.08, 0.08, 0.08]","[[0.21556792455118703, 0.37642033042102185], [0.14366510572844648, -0.18651452926789283], [0.49642287684820396, -0.0794158383055628], [-0.04770628609247857, -0.12519201939426747], [0.20310136493979325, 0.154094551714378], [-0.004065485174475974, 0.09100382633055243], [-0.018053901421587658, 0.34918523294118026], [0.29624623666919286, -0.053344657000752645], [-0.2018857737562037, 0.01971770186205045]]",density,black,,,D003,visual,1,[],"['1', '2', '3', '4']",1,2023.2.3,harveyvisual,2.1,[],8,0.75,
0,pause,0.4,None,None,None,0,165,165,165,,,,,,,,,,,,,D003,visual,1,[],"['1', '2', '3', '4']",1,2023.2.3,harveyvisual,2.1,[],8,0.75,
9,dot,0.3,['dot'],['density'],white,0,166,166,166,,,60.500200033187866,60.22158598899841,60.52153992652893,dot,"[0.1, 0.08, 0.08, 0.08, 0.1, 0.06, 0.1, 0.08, 0.1]","[[0.1897356465634014, 0.5279682873488559], [0.32378874068874214, 0.21764355715549547], [-0.02258392144612686, 0.1538672511300514], [0.18768343673053406, 0.06258281167321837], [0.4001161654736714, 0.031858124591620046], [0.03700916369328307, 0.37047593331345124], [0.18810723797826276, -0.14148750743097815], [-0.1502435433980558, -0.03059561201510329], [-0.21808568641731116, 0.28352793851031305]]",density,white,,,D003,visual,1,[],"['1', '2', '3', '4']",1,2023.2.3,harveyvisual,2.1,[],8,0.75,
0,pause,0.4,None,None,None,0,167,167,167,,,,,,,,,,,1,60.50629711151123,D003,visual,1,[],"['1', '2', '3', '4']",1,2023.2.3,harveyvisual,2.1,[],8,0.75,
8,dot,0.3,['dot'],['density'],white,0,168,168,168,,,61.20021104812622,60.9224910736084,61.22173190116882,dot,"[0.06, 0.08, 0.08, 0.08, 0.06, 0.08, 0.08, 0.1]","[[-0.503192831713878, 0.2818759502405315], [-0.1851508851951268, 0.5121570681976513], [-0.3428391331654375, 0.06336275884690255], [-0.2620893383019587, 0.2653373399092269], [-0.09201493982796581, 0.138249408295409], [-0.14188251758679749, -0.08598668861617832], [-0.5391716430792404, 0.01870596234549803], [-0.2779852747659758, -0.23950462846526258]]",density,white,,,D003,visual,1,[],"['1', '2', '3', '4']",1,2023.2.3,harveyvisual,2.1,[],8,0.75,
0,pause,0.4,None,None,None,0,169,169,169,,,,,,,,,,,1,61.20441794395447,D003,visual,1,[],"['1', '2', '3', '4']",1,2023.2.3,harveyvisual,2.1,[],8,0.75,
8,dot,0.3,['dot'],['density'],black,0,170,170,170,,,61.90020298957825,61.6216139793396,61.92158389091492,dot,"[0.1, 0.06, 0.1, 0.1, 0.1, 0.06, 0.06, 0.08]","[[-0.19427332908310624, 0.44975086906229733], [-0.40583056883657587, 0.41268852933836647], [-0.1064323235824443, 0.09134240931295125], [0.037438273390647224, 0.2873761216870531], [-0.27580465694358225, 0.2567900319995576], [0.047234249799456944, 0.4983172858691376], [0.15563182967593078, 0.1192504703698398], [-0.32834908909536226, -0.014402300111889832]]",density,black,,,D003,visual,1,[],"['1', '2', '3', '4']",1,2023.2.3,harveyvisual,2.1,[],8,0.75,
0,pause,0.4,None,None,None,0,171,171,171,,,,,,,,,,,,,D003,visual,1,[],"['1', '2', '3', '4']",1,2023.2.3,harveyvisual,2.1,[],8,0.75,
8,dot,0.3,['dot'],['density'],black,0,172,172,172,,,62.60020399093628,62.321698904037476,62.62156701087952,dot,"[0.08, 0.1, 0.08, 0.06, 0.08, 0.08, 0.1, 0.08]","[[0.016639406518403475, -0.10031965053970064], [-0.49734137941811546, 0.023312718056099104], [0.03171158295547566, 0.2028207856397581], [-0.3777108616291506, 0.18827317115199685], [-0.2734124440264558, -0.20525012861841768], [-0.1742574757978524, 0.04093824739900491], [-0.17815403785603903, 0.26205888083036905], [-0.2502819750276768, 0.4804358206127844]]",density,black,,,D003,visual,1,[],"['1', '2', '3', '4']",1,2023.2.3,harveyvisual,2.1,[],8,0.75,
0,pause,0.4,None,None,None,0,173,173,173,,,,,,,,,,,,,D003,visual,1,[],"['1', '2', '3', '4']",1,2023.2.3,harveyvisual,2.1,[],8,0.75,
8,dot,0.3,['dot'],['density'],black,0,174,174,174,,,63.300204038619995,63.02168607711792,63.32155394554138,dot,"[0.1, 0.06, 0.1, 0.1, 0.06, 0.08, 0.06, 0.08]","[[-0.3869743371455666, 0.15388434217336297], [0.11424038932868294, 0.18734519769139274], [-0.06602262913525138, -0.20199883598953133], [-0.13221522482970946, 0.16661696891490863], [-0.2408224703751142, -0.03724946932993881], [-0.01219752370661542, -0.004327099574405561], [-0.20345141844285677, 0.44978546357431476], [0.2450906497331586, -0.012808503174003826]]",density,black,,,D003,visual,1,[],"['1', '2', '3', '4']",1,2023.2.3,harveyvisual,2.1,[],8,0.75,
0,pause,0.4,None,None,None,0,175,175,175,,,,,,,,,,,,,D003,visual,1,[],"['1', '2', '3', '4']",1,2023.2.3,harveyvisual,2.1,[],8,0.75,
8,dot,0.3,['dot'],['density'],white,0,176,176,176,,,64.00019693374634,63.721538066864014,64.02167987823486,dot,"[0.08, 0.06, 0.1, 0.06, 0.1, 0.08, 0.1, 0.1]","[[0.08034727882022866, 0.21485544138691295], [0.4485208087802622, -0.24912681836757106], [0.26129939989417056, 0.09257513963058502], [0.557413308755299, 0.1511846349250138], [0.2634990941728302, -0.1333032593777782], [0.3632073825345479, 0.269269938976799], [-0.13869722159995554, 0.017464377414806956], [0.4339652718412117, -0.009910074233595774]]",density,white,,,D003,visual,1,[],"['1', '2', '3', '4']",1,2023.2.3,harveyvisual,2.1,[],8,0.75,
0,pause,0.4,None,None,None,0,177,177,177,,,,,,,,,,,1,63.997841119766235,D003,visual,1,[],"['1', '2', '3', '4']",1,2023.2.3,harveyvisual,2.1,[],8,0.75,
8,dot,0.3,['dot'],['density'],white,0,178,178,178,,,64.70021104812622,64.42150807380676,64.72162890434265,dot,"[0.1, 0.1, 0.1, 0.1, 0.08, 0.08, 0.06, 0.08]","[[0.4107983822504989, -0.04783789354839145], [-0.06954892783911702, 0.20421019801840873], [0.19287329246680035, -0.23674413065931216], [-0.04658255687897442, -0.27568538913083557], [0.19478566210173015, -0.00965484605936359], [-0.04069516991009335, -0.04900998707948758], [0.17921022995035232, 0.2044367826380957], [-0.22871454517575843, 0.05025111546696341]]",density,white,,,D003,visual,1,[],"['1', '2', '3', '4']",1,2023.2.3,harveyvisual,2.1,[],8,0.75,
0,pause,0.4,None,None,None,0,179,179,179,,,,,,,,,,,1,64.66407012939453,D003,visual,1,[],"['1', '2', '3', '4']",1,2023.2.3,harveyvisual,2.1,[],8,0.75,
7,dot,0.3,['dot'],['density'],black,0,180,180,180,,,65.4001989364624,65.12164187431335,65.42164993286133,dot,"[0.08, 0.1, 0.08, 0.06, 0.06, 0.08, 0.06]","[[-0.0009033409944170771, 0.42006327366100915], [0.07504475251916, -0.022201311189229547], [-0.3616170585675141, 0.16750883091546095], [0.025412283732210435, 0.18669523424894663], [-0.17132175432412022, 0.2677160973152203], [-0.13541388111710323, 0.00927786556165188], [-0.3032959001003911, -0.13806764794565113]]",density,black,,,D003,visual,1,[],"['1', '2', '3', '4']",1,2023.2.3,harveyvisual,2.1,[],8,0.75,
0,pause,0.4,None,None,None,0,181,181,181,,,,,,,,,,,,,D003,visual,1,[],"['1', '2', '3', '4']",1,2023.2.3,harveyvisual,2.1,[],8,0.75,
7,dot,0.3,['dot'],['density'],black,0,182,182,182,,,66.10019993782043,65.82148385047913,66.12160396575928,dot,"[0.1, 0.08, 0.08, 0.1, 0.08, 0.08, 0.1]","[[-0.2877807563129739, -0.2392998172879968], [-0.4930284393840153, 0.02918626900802282], [-0.13307942101536208, -0.4135874564509098], [-0.1727922191076213, -0.04289663127052677], [-0.3943840059764042, -0.4351600913800347], [-0.03321109949484203, -0.21096883087625085], [-0.5418728138863746, -0.1990057631286019]]",density,black,,,D003,visual,1,[],"['1', '2', '3', '4']",1,2023.2.3,harveyvisual,2.1,[],8,0.75,
0,pause,0.4,None,None,None,0,183,183,183,,,,,,,,,,,,,D003,visual,1,[],"['1', '2', '3', '4']",1,2023.2.3,harveyvisual,2.1,[],8,0.75,
7,dot,0.3,['dot'],['density'],black,0,184,184,184,,,66.80021286010742,66.52161288261414,66.82157897949219,dot,"[0.08, 0.08, 0.1, 0.08, 0.06, 0.06, 0.1]","[[-0.16635260996794698, 0.28084462036912], [-0.40218122969076125, -0.17991686156932815], [-0.0845402480451966, 0.09445086570213204], [-0.12722724135381816, -0.176029296145206], [-0.3668576348978093, 0.24153552923633032], [-0.5374975881789634, 0.10465170418994485], [-0.31219932221879926, 0.029177302383891702]]",density,black,,,D003,visual,1,[],"['1', '2', '3', '4']",1,2023.2.3,harveyvisual,2.1,[],8,0.75,
0,pause,0.4,None,None,None,0,185,185,185,,,,,,,,,,,,,D003,visual,1,[],"['1', '2', '3', '4']",1,2023.2.3,harveyvisual,2.1,[],8,0.75,
7,dot,0.3,['dot'],['density'],black,0,186,186,186,,,67.50020599365234,67.22144603729248,67.52142000198364,dot,"[0.06, 0.1, 0.06, 0.08, 0.06, 0.06, 0.06]","[[-0.4260259763687212, 0.0015611622021723967], [-0.003169876971998007, 0.13415651360788267], [-0.2586764037849864, 0.4417783913692737], [-0.4397986643511286, 0.306274470342183], [-0.0069778791964768315, 0.3653924841843964], [-0.25662591460159173, 0.21046748777052526], [-0.17930648864359452, 0.007725268650954965]]",density,black,,,D003,visual,1,[],"['1', '2', '3', '4']",1,2023.2.3,harveyvisual,2.1,[],8,0.75,
0,pause,0.4,None,None,None,0,187,187,187,,,,,,,,,,,,,D003,visual,1,[],"['1', '2', '3', '4']",1,2023.2.3,harveyvisual,2.1,[],8,0.75,
7,dot,0.3,['dot'],['density'],white,0,188,188,188,,,68.20022392272949,67.92143297195435,68.22153902053833,dot,"[0.06, 0.06, 0.08, 0.1, 0.1, 0.1, 0.06]","[[-0.2877807563129739, -0.2392998172879968], [-0.4930284393840153, 0.02918626900802282], [-0.13307942101536208, -0.4135874564509098], [-0.1727922191076213, -0.04289663127052677], [-0.3943840059764042, -0.4351600913800347], [-0.03321109949484203, -0.21096883087625085], [-0.5418728138863746, -0.1990057631286019]]",density,white,,,D003,visual,1,[],"['1', '2', '3', '4']",1,2023.2.3,harveyvisual,2.1,[],8,0.75,
0,pause,0.4,None,None,None,0,189,189,189,,,,,,,,,,,1,68.19832015037537,D003,visual,1,[],"['1', '2', '3', '4']",1,2023.2.3,harveyvisual,2.1,[],8,0.75,
7,dot,0.3,['dot'],['density'],black,0,190,190,190,,,68.90022492408752,68.62150287628174,68.92139601707458,dot,"[0.1, 0.1, 0.1, 0.08, 0.06, 0.06, 0.08]","[[-0.03978284138183809, -0.43963729991580147], [0.2770736023028816, -0.4460091285183096], [0.4264240077257641, -0.26124456405115876], [0.04351789842027954, -0.004572294527936195], [0.08491707485555088, -0.26540219852266356], [0.2274622265833728, -0.10044916879814345], [0.4232844185721205, -0.050742783717769746]]",density,black,,,D003,visual,1,[],"['1', '2', '3', '4']",1,2023.2.3,harveyvisual,2.1,[],8,0.75,
0,pause,0.4,None,None,None,0,191,191,191,,,,,,,,,,,,,D003,visual,1,[],"['1', '2', '3', '4']",1,2023.2.3,harveyvisual,2.1,[],8,0.75,
6,dot,0.3,['dot'],['density'],black,0,192,192,192,,,69.60020303726196,69.32148289680481,69.62148189544678,dot,"[0.08, 0.08, 0.08, 0.08, 0.08, 0.1]","[[0.3299424372810393, 0.4114780133894161], [0.051944887288218326, -0.03233758374135307], [0.4337222981537534, -0.07578498258626121], [0.10477943773033714, 0.1703675017914044], [0.3400878522727408, 0.20016066552806494], [0.2510029109880425, 0.01747244452819591]]",density,black,,,D003,visual,1,[],"['1', '2', '3', '4']",1,2023.2.3,harveyvisual,2.1,[],8,0.75,
0,pause,0.4,None,None,None,0,193,193,193,,,,,,,,,,,,,D003,visual,1,[],"['1', '2', '3', '4']",1,2023.2.3,harveyvisual,2.1,[],8,0.75,
6,dot,0.3,['dot'],['density'],black,0,194,194,194,,,70.30019497871399,70.02132797241211,70.32129502296448,dot,"[0.1, 0.06, 0.1, 0.08, 0.08, 0.1]","[[-0.11553075830627273, 0.47698778124428043], [-0.1112787518129194, 0.10456141670764223], [-0.48855705683845824, 0.21494657582805063], [-0.2538299919008863, 0.2532006538804931], [-0.3271837865365474, 0.4662148945367939], [0.006792750312598743, 0.27345996435494924]]",density,black,,,D003,visual,1,[],"['1', '2', '3', '4']",1,2023.2.3,harveyvisual,2.1,[],8,0.75,
0,pause,0.4,None,None,None,0,195,195,195,,,,,,,,,,,,,D003,visual,1,[],"['1', '2', '3', '4']",1,2023.2.3,harveyvisual,2.1,[],8,0.75,
6,dot,0.3,['dot'],['density'],black,0,196,196,196,,,71.00020790100098,70.72132205963135,71.02132105827332,dot,"[0.08, 0.08, 0.08, 0.08, 0.08, 0.06]","[[0.5108460974500976, 0.10904555526594768], [0.5033362887342737, -0.29902707163897635], [0.3062164979741722, 0.05793810054487639], [0.22849736264613016, -0.28041776899433873], [0.12909977445373055, -0.06500178518750158], [0.41889526300287094, -0.11616960582105396]]",density,black,,,D003,visual,1,[],"['1', '2', '3', '4']",1,2023.2.3,harveyvisual,2.1,[],8,0.75,
0,pause,0.4,None,None,None,0,197,197,197,,,,,,,,,,,,,D003,visual,1,[],"['1', '2', '3', '4']",1,2023.2.3,harveyvisual,2.1,[],8,0.75,
6,dot,0.3,['dot'],['density'],black,0,198,198,198,,,71.7002170085907,71.42131900787354,71.72129893302917,dot,"[0.08, 0.06, 0.06, 0.08, 0.1, 0.08]","[[0.2333794889108542, 0.5108688068097712], [0.17720399199515413, 0.06488002481085814], [0.3526024925964592, 0.16961020277143707], [0.1596713132306006, 0.321837067503818], [0.0007438407140586783, 0.18344495120876914], [0.42757463853404776, 0.37786691715169374]]",density,black,,,D003,visual,1,[],"['1', '2', '3', '4']",1,2023.2.3,harveyvisual,2.1,[],8,0.75,
0,pause,0.4,None,None,None,0,199,199,199,,,,,,,,,,,,,D003,visual,1,[],"['1', '2', '3', '4']",1,2023.2.3,harveyvisual,2.1,[],8,0.75,
6,dot,0.3,['dot'],['density'],black,0,200,200,200,,,72.40022587776184,72.12144184112549,72.42142701148987,dot,"[0.1, 0.1, 0.1, 0.08, 0.06, 0.1]","[[0.500827999951601, -0.23304028533624072], [0.20916386845998064, 0.08030245107060778], [0.27809793757338463, -0.1905950399710685], [0.08327260932553728, -0.13599284299194644], [0.16768982653485215, -0.38480252821003114], [0.4174962964646186, 0.01069632702004041]]",density,black,,,D003,visual,1,[],"['1', '2', '3', '4']",1,2023.2.3,harveyvisual,2.1,[],8,0.75,
0,pause,0.4,None,None,None,0,201,201,201,,,,,,,,,,,,,D003,visual,1,[],"['1', '2', '3', '4']",1,2023.2.3,harveyvisual,2.1,[],8,0.75,
6,dot,0.3,['dot'],['density'],black,0,202,202,202,,,73.1002209186554,72.82144594192505,73.12134003639221,dot,"[0.1, 0.06, 0.08, 0.06, 0.06, 0.08]","[[-0.12151555870586603, -0.4812968000001843], [0.16790488833295267, -0.2471088416996458], [0.27214716196035416, -0.49820278546509117], [-0.038147587524033764, -0.29309333197091036], [0.014949188681413147, -0.08915939926713055], [0.06798063624072649, -0.5852336971646088]]",density,black,,,D003,visual,1,[],"['1', '2', '3', '4']",1,2023.2.3,harveyvisual,2.1,[],8,0.75,
0,pause,0.4,None,None,None,0,203,203,203,,,,,,,,,,,,,D003,visual,1,[],"['1', '2', '3', '4']",1,2023.2.3,harveyvisual,2.1,[],8,0.75,
5,dot,0.3,['dot'],['density'],black,0,204,204,204,,,73.80022287368774,73.5212869644165,73.82128596305847,dot,"[0.1, 0.06, 0.06, 0.1, 0.08]","[[0.36014554898799966, 0.387810422325294], [0.055757472799778995, 0.16941293674392635], [0.2210739480460382, 0.008175952352481365], [0.48495712857242873, 0.07425785546611247], [0.25975240449222103, 0.2092734881649904]]",density,black,,,D003,visual,1,[],"['1', '2', '3', '4']",1,2023.2.3,harveyvisual,2.1,[],8,0.75,
0,pause,0.4,None,None,None,0,205,205,205,,,,,,,,,,,,,D003,visual,1,[],"['1', '2', '3', '4']",1,2023.2.3,harveyvisual,2.1,[],8,0.75,
5,dot,0.3,['dot'],['density'],black,0,206,206,206,,,74.50020003318787,74.22148203849792,74.52126502990723,dot,"[0.08, 0.1, 0.06, 0.08, 0.06]","[[0.2447541601906441, 0.3086669061463178], [0.2085849672204031, -0.04267428248465989], [0.44393754570968663, -0.061602228714441105], [0.027125763574429876, 0.05764502161176834], [0.36879828001487897, 0.1310025380577708]]",density,black,,,D003,visual,1,[],"['1', '2', '3', '4']",1,2023.2.3,harveyvisual,2.1,[],8,0.75,
0,pause,0.4,None,None,None,0,207,207,207,,,,,,,,,,,,,D003,visual,1,[],"['1', '2', '3', '4']",1,2023.2.3,harveyvisual,2.1,[],8,0.75,
5,dot,0.3,['dot'],['density'],black,0,208,208,208,,,75.20020389556885,74.92124891281128,75.22144293785095,dot,"[0.1, 0.06, 0.08, 0.1, 0.08]","[[-0.18510638544872327, 0.41559840932892733], [-0.057175862535637494, 0.18304904272057057], [0.24003340414173915, 0.43371676657957026], [0.006490958465160464, 0.4770521622163581], [0.13658455045585424, 0.2476502540597336]]",density,black,,,D003,visual,1,[],"['1', '2', '3', '4']",1,2023.2.3,harveyvisual,2.1,[],8,0.75,
0,pause,0.4,None,None,None,0,209,209,209,,,,,,,,,,,,,D003,visual,1,[],"['1', '2', '3', '4']",1,2023.2.3,harveyvisual,2.1,[],8,0.75,
5,dot,0.3,['dot'],['density'],black,0,210,210,210,,,75.90020799636841,75.62124300003052,75.9214940071106,dot,"[0.06, 0.1, 0.1, 0.06, 0.08]","[[-0.053215572458232586, 0.27221330895143253], [0.10089702531331296, 0.1334794413224796], [0.12897289155288158, 0.4002796015157326], [0.3022660506716914, 0.02685289149411272], [0.2804295634962893, 0.24950018434757285]]",density,black,,,D003,visual,1,[],"['1', '2', '3', '4']",1,2023.2.3,harveyvisual,2.1,[],8,0.75,
0,pause,0.4,None,None,None,0,211,211,211,,,,,,,,,,,,,D003,visual,1,[],"['1', '2', '3', '4']",1,2023.2.3,harveyvisual,2.1,[],8,0.75,
5,dot,0.3,['dot'],['density'],black,0,212,212,212,,,76.60020804405212,76.32134985923767,76.6213128566742,dot,"[0.1, 0.06, 0.06, 0.06, 0.1]","[[-0.006164932418690097, -0.4528126201229341], [-0.1681524682570009, -0.11721653268637569], [-0.1959903964051736, -0.3710708837277218], [0.03544926667602863, -0.1302589477940128], [0.16830580561999814, -0.32298356607012285]]",density,black,,,D003,visual,1,[],"['1', '2', '3', '4']",1,2023.2.3,harveyvisual,2.1,[],8,0.75,
0,pause,0.4,None,None,None,0,213,213,213,,,,,,,,,,,,,D003,visual,1,[],"['1', '2', '3', '4']",1,2023.2.3,harveyvisual,2.1,[],8,0.75,
5,dot,0.3,['dot'],['density'],black,0,214,214,214,,,77.3002278804779,77.02134895324707,77.3213210105896,dot,"[0.08, 0.08, 0.08, 0.1, 0.06]","[[-0.4709100701083565, 0.02189337908226187], [-0.29145525575644754, 0.3795081276742083], [-0.23690205020139254, 0.016868774910060797], [-0.4278442329265702, 0.22919645259494104], [-0.09991604659712162, 0.23043195716445664]]",density,black,,,D003,visual,1,[],"['1', '2', '3', '4']",1,2023.2.3,harveyvisual,2.1,[],8,0.75,
0,pause,0.4,None,None,None,0,215,215,215,,,,,,,,,,,,,D003,visual,1,[],"['1', '2', '3', '4']",1,2023.2.3,harveyvisual,2.1,[],8,0.75,
4,dot,0.3,['dot'],['density'],white,0,216,216,216,,,78.00020790100098,77.72130990028381,78.02115893363953,dot,"[0.06, 0.06, 0.08, 0.06]","[[-0.4116264312708952, 0.16775371224632304], [-0.5618780911112883, -0.04134114392370045], [-0.3363713887364365, -0.04915619770205748], [-0.48212301157369764, -0.2249233832905235]]",density,white,,,D003,visual,1,[],"['1', '2', '3', '4']",1,2023.2.3,harveyvisual,2.1,[],8,0.75,
0,pause,0.4,None,None,None,0,217,217,217,,,,,,,,,,,1,78.03758811950684,D003,visual,1,[],"['1', '2', '3', '4']",1,2023.2.3,harveyvisual,2.1,[],8,0.75,
4,dot,0.3,['dot'],['density'],black,0,218,218,218,,,78.70021486282349,78.42129898071289,78.7211229801178,dot,"[0.06, 0.08, 0.08, 0.1]","[[-0.24231220575667195, -0.22966258239168486], [-0.5136420973432148, -0.13696856920477488], [-0.4300726721285167, 0.13088957628356482], [-0.3148289313469241, -0.03851715211982174]]",density,black,,,D003,visual,1,[],"['1', '2', '3', '4']",1,2023.2.3,harveyvisual,2.1,[],8,0.75,
0,pause,0.4,None,None,None,0,219,219,219,,,,,,,,,,,,,D003,visual,1,[],"['1', '2', '3', '4']",1,2023.2.3,harveyvisual,2.1,[],8,0.75,
4,dot,0.3,['dot'],['density'],black,0,220,220,220,,,79.40020394325256,79.12111806869507,79.42109990119934,dot,"[0.08, 0.06, 0.08, 0.08]","[[-0.42715721775789556, -0.3806885655784049], [-0.5104054706627589, -0.18016651458941194], [-0.409412055521987, 0.008153849732111747], [-0.2456709064377862, -0.21492281530681134]]",density,black,,,D003,visual,1,[],"['1', '2', '3', '4']",1,2023.2.3,harveyvisual,2.1,[],8,0.75,
0,pause,0.4,None,None,None,0,221,221,221,,,,,,,,,,,,,D003,visual,1,[],"['1', '2', '3', '4']",1,2023.2.3,harveyvisual,2.1,[],8,0.75,
4,dot,0.3,['dot'],['density'],black,0,222,222,222,,,80.10022687911987,79.82108092308044,80.12112307548523,dot,"[0.06, 0.08, 0.08, 0.1]","[[0.0004228548582206217, 0.4437421379736539], [0.24572762857664815, 0.2260868474052859], [0.007756854070108054, 0.1846819218217072], [0.22099789303306372, 0.4278063517398125]]",density,black,,,D003,visual,1,[],"['1', '2', '3', '4']",1,2023.2.3,harveyvisual,2.1,[],8,0.75,
0,pause,0.4,None,None,None,0,223,223,223,,,,,,,,,,,,,D003,visual,1,[],"['1', '2', '3', '4']",1,2023.2.3,harveyvisual,2.1,[],8,0.75,
4,dot,0.3,['dot'],['density'],black,0,224,224,224,,,80.80022501945496,80.52110505104065,80.8211019039154,dot,"[0.08, 0.1, 0.06, 0.1]","[[0.08172100217045614, 0.5402562525463245], [-0.024891988969352973, 0.31595276793208527], [-0.14685316472848742, 0.5184788481920529], [-0.2646655063210597, 0.3159281349431851]]",density,black,,,D003,visual,1,[],"['1', '2', '3', '4']",1,2023.2.3,harveyvisual,2.1,[],8,0.75,
0,pause,0.4,None,None,None,0,225,225,225,,,,,,,,,,,,,D003,visual,1,[],"['1', '2', '3', '4']",1,2023.2.3,harveyvisual,2.1,[],8,0.75,
4,dot,0.3,['dot'],['density'],black,0,226,226,226,,,81.5002019405365,81.22111988067627,81.52108788490295,dot,"[0.08, 0.1, 0.08, 0.1]","[[0.0004228548582206217, 0.4437421379736539], [0.24572762857664815, 0.2260868474052859], [0.007756854070108054, 0.1846819218217072], [0.22099789303306372, 0.4278063517398125]]",density,black,,,D003,visual,1,[],"['1', '2', '3', '4']",1,2023.2.3,harveyvisual,2.1,[],8,0.75,
0,pause,0.4,None,None,None,0,227,227,227,,,,,,,,,,,,,D003,visual,1,[],"['1', '2', '3', '4']",1,2023.2.3,harveyvisual,2.1,[],8,0.75,
3,dot,0.3,['dot'],['density'],black,0,228,228,228,,,82.20020604133606,81.90434384346008,82.22106289863586,dot,"[0.1, 0.08, 0.06]","[[0.06695044750400271, -0.4036822973150869], [0.2898428615912539, -0.43752325319744867], [0.2484486434572057, -0.2241911098289173]]",density,black,,,D003,visual,1,[],"['1', '2', '3', '4']",1,2023.2.3,harveyvisual,2.1,[],8,0.75,
0,pause,0.4,None,None,None,0,229,229,229,,,,,,,,,,,,,D003,visual,1,[],"['1', '2', '3', '4']",1,2023.2.3,harveyvisual,2.1,[],8,0.75,
3,dot,0.3,['dot'],['density'],black,0,230,230,230,,,82.90021896362305,82.60444903373718,82.92106890678406,dot,"[0.06, 0.06, 0.06]","[[-0.42255820389626353, 0.35871945956833473], [-0.19896656331745483, 0.3032224324013186], [-0.25553590712368324, 0.5056038804507684]]",density,black,,,D003,visual,1,[],"['1', '2', '3', '4']",1,2023.2.3,harveyvisual,2.1,[],8,0.75,
0,pause,0.4,None,None,None,0,231,231,231,,,,,,,,,,,,,D003,visual,1,[],"['1', '2', '3', '4']",1,2023.2.3,harveyvisual,2.1,[],8,0.75,
3,dot,0.3,['dot'],['density'],black,0,232,232,232,,,83.6002140045166,83.30456900596619,83.62102699279785,dot,"[0.08, 0.08, 0.06]","[[-0.15674404860239688, -0.25078459247658497], [0.006578924124220241, -0.41324131210186005], [0.06959682433872849, -0.20549031443856539]]",density,black,,,D003,visual,1,[],"['1', '2', '3', '4']",1,2023.2.3,harveyvisual,2.1,[],8,0.75,
0,pause,0.4,None,None,None,0,233,233,233,,,,,,,,,,,,,D003,visual,1,[],"['1', '2', '3', '4']",1,2023.2.3,harveyvisual,2.1,[],8,0.75,
3,dot,0.3,['dot'],['density'],black,0,234,234,234,,,84.30020689964294,84.0210189819336,84.3210060596466,dot,"[0.08, 0.06, 0.08]","[[-0.17592395544936776, 0.40510565415719324], [-0.30566154612550034, 0.21848422264492345], [-0.39822260978708685, 0.43144058222919995]]",density,black,,,D003,visual,1,[],"['1', '2', '3', '4']",1,2023.2.3,harveyvisual,2.1,[],8,0.75,
0,pause,0.4,None,None,None,0,235,235,235,,,,,,,,,,,,,D003,visual,1,[],"['1', '2', '3', '4']",1,2023.2.3,harveyvisual,2.1,[],8,0.75,
3,dot,0.3,['dot'],['density'],black,0,236,236,236,,,85.00021290779114,84.70455884933472,85.02102088928223,dot,"[0.08, 0.06, 0.06]","[[-0.5081709494874314, 0.1572673197774781], [-0.37009835501087307, 0.006965763417246156], [-0.5707172634768017, -0.07177594851347295]]",density,black,,,D003,visual,1,[],"['1', '2', '3', '4']",1,2023.2.3,harveyvisual,2.1,[],8,0.75,
0,pause,0.4,None,None,None,0,237,237,237,,,,,,,,,,,,,D003,visual,1,[],"['1', '2', '3', '4']",1,2023.2.3,harveyvisual,2.1,[],8,0.75,
3,dot,0.3,['dot'],['density'],black,0,238,238,238,,,85.70022702217102,85.40423798561096,85.72095394134521,dot,"[0.1, 0.08, 0.08]","[[0.4995185571857965, 0.14229679706320136], [0.2944600495073675, 0.23335097983198633], [0.330752226915583, 0.0299241169750933]]",density,black,,,D003,visual,1,[],"['1', '2', '3', '4']",1,2023.2.3,harveyvisual,2.1,[],8,0.75,
0,pause,0.4,None,None,None,0,239,239,239,,,,,,,,,,,,,D003,visual,1,[],"['1', '2', '3', '4']",1,2023.2.3,harveyvisual,2.1,[],8,0.75,
2,dot,0.3,['dot'],['density'],black,0,240,240,240,,,86.40021705627441,86.10430884361267,86.42094993591309,dot,"[0.1, 0.06]","[[0.06661886780735636, -0.3109770134588511], [-0.03502229105109153, -0.4833380692870097]]",density,black,,,D003,visual,1,[],"['1', '2', '3', '4']",1,2023.2.3,harveyvisual,2.1,[],8,0.75,
0,pause,0.4,None,None,None,0,241,241,241,,,,,,,,,,,,,D003,visual,1,[],"['1', '2', '3', '4']",1,2023.2.3,harveyvisual,2.1,[],8,0.75,
2,dot,0.3,['dot'],['density'],black,0,242,242,242,,,87.10021495819092,86.80432891845703,87.12088203430176,dot,"[0.08, 0.1]","[[0.038501021189721846, -0.3380528513692932], [0.2360793696083702, -0.306423538752856]]",density,black,,,D003,visual,1,[],"['1', '2', '3', '4']",1,2023.2.3,harveyvisual,2.1,[],8,0.75,
0,pause,0.4,None,None,None,0,243,243,243,,,,,,,,,,,,,D003,visual,1,[],"['1', '2', '3', '4']",1,2023.2.3,harveyvisual,2.1,[],8,0.75,
2,dot,0.3,['dot'],['density'],white,0,244,244,244,,,87.80020594596863,87.5042200088501,87.82086491584778,dot,"[0.08, 0.06]","[[0.21918454152848227, -0.10588244801595839], [0.1860161616926718, 0.09155890801726524]]",density,white,,,D003,visual,1,[],"['1', '2', '3', '4']",1,2023.2.3,harveyvisual,2.1,[],8,0.75,
0,pause,0.4,None,None,None,0,245,245,245,,,,,,,,,,,1,87.86696410179138,D003,visual,1,[],"['1', '2', '3', '4']",1,2023.2.3,harveyvisual,2.1,[],8,0.75,
2,dot,0.3,['dot'],['density'],black,0,246,246,246,,,88.50022792816162,88.20422792434692,88.52084398269653,dot,"[0.1, 0.06]","[[-0.09730612249650272, 0.4989075015380273], [-0.22752244688881013, 0.34485221713342457]]",density,black,,,D003,visual,1,[],"['1', '2', '3', '4']",1,2023.2.3,harveyvisual,2.1,[],8,0.75,
0,pause,0.4,None,None,None,0,247,247,247,,,,,,,,,,,,,D003,visual,1,[],"['1', '2', '3', '4']",1,2023.2.3,harveyvisual,2.1,[],8,0.75,
2,dot,0.3,['dot'],['density'],white,0,248,248,248,,,89.200199842453,88.90415596961975,89.22081899642944,dot,"[0.1, 0.08]","[[0.075840462383643, -0.21806900392302264], [0.2761252679018853, -0.22101292055433702]]",density,white,,,D003,visual,1,[],"['1', '2', '3', '4']",1,2023.2.3,harveyvisual,2.1,[],8,0.75,
0,pause,0.4,None,None,None,0,249,249,249,,,,,,,,,,,1,89.17789697647095,D003,visual,1,[],"['1', '2', '3', '4']",1,2023.2.3,harveyvisual,2.1,[],8,0.75,
2,dot,0.3,['dot'],['density'],black,0,250,250,250,,,89.90020298957825,89.60406994819641,89.92080307006836,dot,"[0.1, 0.06]","[[-0.16440981108753766, 0.5378091218652469], [-0.08422838651173449, 0.35445914222875186]]",density,black,,,D003,visual,1,[],"['1', '2', '3', '4']",1,2023.2.3,harveyvisual,2.1,[],8,0.75,
0,pause,0.4,None,None,None,0,251,251,251,,,,,,,,,,,,,D003,visual,1,[],"['1', '2', '3', '4']",1,2023.2.3,harveyvisual,2.1,[],8,0.75,
1,dot,0.3,['dot'],['density'],black,0,252,252,252,,,90.60020899772644,90.30415105819702,90.62082600593567,dot,[0.06],"[0.5668064281626585, -0.020013277593342628]",density,black,,,D003,visual,1,[],"['1', '2', '3', '4']",1,2023.2.3,harveyvisual,2.1,[],8,0.75,
0,pause,0.4,None,None,None,0,253,253,253,,,,,,,,,,,,,D003,visual,1,[],"['1', '2', '3', '4']",1,2023.2.3,harveyvisual,2.1,[],8,0.75,
1,dot,0.3,['dot'],['density'],black,0,254,254,254,,,91.30021500587463,91.00418186187744,91.32095098495483,dot,[0.1],"[-0.48958603946102763, 0.32731293615049173]",density,black,,,D003,visual,1,[],"['1', '2', '3', '4']",1,2023.2.3,harveyvisual,2.1,[],8,0.75,
0,pause,0.4,None,None,None,0,255,255,255,,,,,,,,,,,,,D003,visual,1,[],"['1', '2', '3', '4']",1,2023.2.3,harveyvisual,2.1,[],8,0.75,
1,dot,0.3,['dot'],['density'],black,0,256,256,256,,,92.00020503997803,91.7042829990387,92.02093505859375,dot,[0.08],"[0.5668064281626585, -0.020013277593342628]",density,black,,,D003,visual,1,[],"['1', '2', '3', '4']",1,2023.2.3,harveyvisual,2.1,[],8,0.75,
0,pause,0.4,None,None,None,0,257,257,257,,,,,,,,,,,,,D003,visual,1,[],"['1', '2', '3', '4']",1,2023.2.3,harveyvisual,2.1,[],8,0.75,
1,dot,0.3,['dot'],['density'],black,0,258,258,258,,,92.70021796226501,92.40417790412903,92.72079491615295,dot,[0.06],"[0.39967490259390637, -0.2576437183111264]",density,black,,,D003,visual,1,[],"['1', '2', '3', '4']",1,2023.2.3,harveyvisual,2.1,[],8,0.75,
0,pause,0.4,None,None,None,0,259,259,259,,,,,,,,,,,,,D003,visual,1,[],"['1', '2', '3', '4']",1,2023.2.3,harveyvisual,2.1,[],8,0.75,
1,dot,0.3,['dot'],['density'],black,0,260,260,260,,,93.40021800994873,93.10413384437561,93.42080998420715,dot,[0.08],"[0.0956549371127339, 0.09579573331985794]",density,black,,,D003,visual,1,[],"['1', '2', '3', '4']",1,2023.2.3,harveyvisual,2.1,[],8,0.75,
0,pause,0.4,None,None,None,0,261,261,261,,,,,,,,,,,,,D003,visual,1,[],"['1', '2', '3', '4']",1,2023.2.3,harveyvisual,2.1,[],8,0.75,
1,dot,0.3,['dot'],['density'],black,0,262,262,262,,,94.10022306442261,93.80410194396973,94.12089586257935,dot,[0.08],"[0.2287398259034258, -0.3932960849464651]",density,black,,,D003,visual,1,[],"['1', '2', '3', '4']",1,2023.2.3,harveyvisual,2.1,[],8,0.75,
0,pause,0.4,None,None,None,0,263,263,263,,,,,,,,,,,,,D003,visual,1,[],"['1', '2', '3', '4']",1,2023.2.3,harveyvisual,2.1,[],8,0.75,
20,dot,0.3,['dot'],['density'],black,0,264,264,264,,,94.80020785331726,94.52088499069214,94.82087802886963,dot,"[0.06, 0.1, 0.06, 0.06, 0.1, 0.1, 0.08, 0.1, 0.06, 0.1, 0.1, 0.08, 0.06, 0.08, 0.1, 0.06, 0.06, 0.08, 0.06, 0.1]","[[-0.05188179880557031, 0.25807623227654175], [-0.393791088715463, 0.03817511661169937], [0.47487656383983234, -0.3400466078900235], [-0.4385400245171521, 0.2655918683163965], [0.4441070240647843, 0.12012128691067764], [0.05623826114541475, 0.4239485036417291], [0.3000896097473471, 0.2553527113694717], [-0.4625025244568892, -0.24397173210068468], [-0.2782241594606315, -0.14700544906936197], [0.5954964403017896, -0.06034346987370524], [0.3182893941999143, -0.05137056882961766], [0.03843099107192127, -0.6032680246082552], [-0.04460570036714684, -0.13939472100904143], [-0.2601612027711537, -0.36936911410141743], [0.28122517987693807, -0.4488135737935204], [-0.15649336099206146, 0.01569542095024057], [0.16125607994594182, -0.18962049650174256], [-0.1821749859423209, 0.40386832744572077], [0.10955977045647447, 0.05888909745118964], [-0.05764352393305672, -0.4154550006961867]]",density,black,,,D003,visual,1,[],"['1', '2', '3', '4']",1,2023.2.3,harveyvisual,2.1,[],8,0.75,
0,pause,0.4,None,None,None,0,265,265,265,,,,,,,,,,,,,D003,visual,1,[],"['1', '2', '3', '4']",1,2023.2.3,harveyvisual,2.1,[],8,0.75,
20,dot,0.3,['dot'],['density'],white,0,266,266,266,,,95.50022292137146,95.2208960056305,95.52073097229004,dot,"[0.06, 0.06, 0.1, 0.06, 0.08, 0.06, 0.1, 0.1, 0.06, 0.08, 0.06, 0.08, 0.1, 0.08, 0.1, 0.1, 0.1, 0.06, 0.06, 0.1]","[[-0.3177397306457182, -0.04224764033691808], [-0.03689074287487637, 0.2754787587170039], [0.5324549908558752, 0.2481530227077458], [0.5811641959682018, -0.015822194686216484], [-0.019711331843175306, -0.4281351323317354], [-0.5250926364108842, -0.11344762697463776], [-0.25784676962919484, -0.4420043524957975], [0.14180639243987359, -0.08445620926082187], [0.4973503713638078, -0.2422388776709557], [0.31337161200271324, -0.3709361121240925], [0.1915792408407373, -0.5628867217837211], [-0.09963202800850601, -0.11949069107825694], [0.18352478524171667, 0.20636319032404016], [0.3102120976811942, 0.43289807734930497], [0.029344627598204776, 0.5672094643221368], [-0.25702480978264225, 0.2278960990530643], [0.2979373213852663, 0.05461000429871765], [-0.4562779558186121, -0.35210075708250566], [-0.4089543967349697, 0.38785789637736434], [0.12760662601907768, -0.2763938485736807]]",density,white,,,D003,visual,1,[],"['1', '2', '3', '4']",1,2023.2.3,harveyvisual,2.1,[],8,0.75,
0,pause,0.4,None,None,None,0,267,267,267,,,,,,,,,,,1,95.51192903518677,D003,visual,1,[],"['1', '2', '3', '4']",1,2023.2.3,harveyvisual,2.1,[],8,0.75,
