num,mod,duration,shape,ll_cond,colors,.thisRepN,.thisTrialN,.thisN,.thisIndex,thisRow.t,notes,raw_global_time,t_start,t_stop,pos,fonts,size,button,answer,RT,participant,session,starting_run,left button (match/odd),right button (non-match/even),samples_per_block,psychopy version,expName,offset,audio,number_runs,radius,
1,digit,0.3,['dot'],['big_1'],black,0,0,0,0,,,2.400196075439453,2.111917018890381,2.4118289947509766,"[[0.13000355244053372, 0.03382685628023693]]",['DejaVu Sans'],[0.9],,,,N009,digits,1,"['6', '7', '8', '9']","['1', '2', '3', '4']",1,2023.2.3,harveydigits,2.1,[],8,0.75,
0,pause,0.4,None,None,None,0,1,1,1,,,,,,,,,,,,N009,digits,1,"['6', '7', '8', '9']","['1', '2', '3', '4']",1,2023.2.3,harveydigits,2.1,[],8,0.75,
1,digit,0.3,['dot'],['big_1'],black,0,2,2,2,,,3.1001901626586914,2.8119590282440186,3.1124770641326904,"[[-0.026898845255239057, -0.1633582851964283]]",['DejaVu Sans'],[0.9],,,,N009,digits,1,"['6', '7', '8', '9']","['1', '2', '3', '4']",1,2023.2.3,harveydigits,2.1,[],8,0.75,
0,pause,0.4,None,None,None,0,3,3,3,,,,,,,,,,,,N009,digits,1,"['6', '7', '8', '9']","['1', '2', '3', '4']",1,2023.2.3,harveydigits,2.1,[],8,0.75,
1,digit,0.3,['dot'],['big_1'],black,0,4,4,4,,,3.800206184387207,3.51239013671875,3.812451124191284,"[[-0.08985314059602727, 0.13913711475849594]]",['DejaVu Sans'],[0.9],,,,N009,digits,1,"['6', '7', '8', '9']","['1', '2', '3', '4']",1,2023.2.3,harveydigits,2.1,[],8,0.75,
0,pause,0.4,None,None,None,0,5,5,5,,,,,,,,,,,,N009,digits,1,"['6', '7', '8', '9']","['1', '2', '3', '4']",1,2023.2.3,harveydigits,2.1,[],8,0.75,
1,digit,0.3,['dot'],['big_1'],black,0,6,6,6,,,4.500204086303711,4.212444067001343,4.51242208480835,"[[0.1632660429441645, 0.046707465509155444]]",['DejaVu Sans'],[0.9],,,,N009,digits,1,"['6', '7', '8', '9']","['1', '2', '3', '4']",1,2023.2.3,harveydigits,2.1,[],8,0.75,
0,pause,0.4,None,None,None,0,7,7,7,,,,,,,,,,,,N009,digits,1,"['6', '7', '8', '9']","['1', '2', '3', '4']",1,2023.2.3,harveydigits,2.1,[],8,0.75,
1,digit,0.3,['dot'],['big_1'],black,0,8,8,8,,,5.200209140777588,4.912477970123291,5.212550163269043,"[[0.038013740007215885, 0.010735240939661883]]",['DejaVu Sans'],[0.9],,,,N009,digits,1,"['6', '7', '8', '9']","['1', '2', '3', '4']",1,2023.2.3,harveydigits,2.1,[],8,0.75,
0,pause,0.4,None,None,None,0,9,9,9,,,,,,,,,,,,N009,digits,1,"['6', '7', '8', '9']","['1', '2', '3', '4']",1,2023.2.3,harveydigits,2.1,[],8,0.75,
1,digit,0.3,['dot'],['big_1'],black,0,10,10,10,,,5.900207996368408,5.614576101303101,5.914563179016113,"[[0.07658080872263837, 0.014935203492598859]]",['DejaVu Sans'],[0.9],,,,N009,digits,1,"['6', '7', '8', '9']","['1', '2', '3', '4']",1,2023.2.3,harveydigits,2.1,[],8,0.75,
0,pause,0.4,None,None,None,0,11,11,11,,,,,,,,,,,,N009,digits,1,"['6', '7', '8', '9']","['1', '2', '3', '4']",1,2023.2.3,harveydigits,2.1,[],8,0.75,
2,digit,0.3,['dot'],['big_1'],black,0,12,12,12,,,6.600197076797485,6.314563035964966,6.61466908454895,"[[-0.0722408940856841, 0.12481860892600483]]",['DejaVu Sans'],[0.9],,,,N009,digits,1,"['6', '7', '8', '9']","['1', '2', '3', '4']",1,2023.2.3,harveydigits,2.1,[],8,0.75,
0,pause,0.4,None,None,None,0,13,13,13,,,,,,,,,,,,N009,digits,1,"['6', '7', '8', '9']","['1', '2', '3', '4']",1,2023.2.3,harveydigits,2.1,[],8,0.75,
2,digit,0.3,['dot'],['big_1'],black,0,14,14,14,,,7.300203084945679,7.014681100845337,7.31453800201416,"[[0.16330327027495542, -0.0670566767605649]]",['DejaVu Sans'],[0.9],,,,N009,digits,1,"['6', '7', '8', '9']","['1', '2', '3', '4']",1,2023.2.3,harveydigits,2.1,[],8,0.75,
0,pause,0.4,None,None,None,0,15,15,15,,,,,,,,,,,,N009,digits,1,"['6', '7', '8', '9']","['1', '2', '3', '4']",1,2023.2.3,harveydigits,2.1,[],8,0.75,
2,digit,0.3,['dot'],['big_1'],black,0,16,16,16,,,8.000210046768188,7.714532136917114,8.014518022537231,"[[-0.05363449246951699, -0.17466187505457234]]",['DejaVu Sans'],[0.9],,,,N009,digits,1,"['6', '7', '8', '9']","['1', '2', '3', '4']",1,2023.2.3,harveydigits,2.1,[],8,0.75,
0,pause,0.4,None,None,None,0,17,17,17,,,,,,,,,,,,N009,digits,1,"['6', '7', '8', '9']","['1', '2', '3', '4']",1,2023.2.3,harveydigits,2.1,[],8,0.75,
2,digit,0.3,['dot'],['big_1'],black,0,18,18,18,,,8.70021104812622,8.414504051208496,8.714492082595825,"[[-0.1532651817113428, -0.1250583939582348]]",['DejaVu Sans'],[0.9],,,,N009,digits,1,"['6', '7', '8', '9']","['1', '2', '3', '4']",1,2023.2.3,harveydigits,2.1,[],8,0.75,
0,pause,0.4,None,None,None,0,19,19,19,,,,,,,,,,,,N009,digits,1,"['6', '7', '8', '9']","['1', '2', '3', '4']",1,2023.2.3,harveydigits,2.1,[],8,0.75,
2,digit,0.3,['dot'],['big_1'],black,0,20,20,20,,,9.400182962417603,9.114495992660522,9.414486169815063,"[[0.11177914617930587, 0.10969310956141767]]",['DejaVu Sans'],[0.9],,,,N009,digits,1,"['6', '7', '8', '9']","['1', '2', '3', '4']",1,2023.2.3,harveydigits,2.1,[],8,0.75,
0,pause,0.4,None,None,None,0,21,21,21,,,,,,,,,,,,N009,digits,1,"['6', '7', '8', '9']","['1', '2', '3', '4']",1,2023.2.3,harveydigits,2.1,[],8,0.75,
2,digit,0.3,['dot'],['big_1'],black,0,22,22,22,,,10.100203037261963,9.814604043960571,10.114586114883423,"[[-0.18935191910297197, -0.03287408621333208]]",['DejaVu Sans'],[0.9],,,,N009,digits,1,"['6', '7', '8', '9']","['1', '2', '3', '4']",1,2023.2.3,harveydigits,2.1,[],8,0.75,
0,pause,0.4,None,None,None,0,23,23,23,,,,,,,,,,,,N009,digits,1,"['6', '7', '8', '9']","['1', '2', '3', '4']",1,2023.2.3,harveydigits,2.1,[],8,0.75,
3,digit,0.3,['dot'],['big_1'],black,0,24,24,24,,,10.800204038619995,10.514451026916504,10.814581155776978,"[[-0.1492604872979315, -0.05684530652317869]]",['DejaVu Sans'],[0.9],,,,N009,digits,1,"['6', '7', '8', '9']","['1', '2', '3', '4']",1,2023.2.3,harveydigits,2.1,[],8,0.75,
0,pause,0.4,None,None,None,0,25,25,25,,,,,,,,,,,,N009,digits,1,"['6', '7', '8', '9']","['1', '2', '3', '4']",1,2023.2.3,harveydigits,2.1,[],8,0.75,
3,digit,0.3,['dot'],['big_1'],black,0,26,26,26,,,11.500210046768188,11.214436054229736,11.514418125152588,"[[0.034196551690151816, -0.10764673112825927]]",['DejaVu Sans'],[0.9],,,,N009,digits,1,"['6', '7', '8', '9']","['1', '2', '3', '4']",1,2023.2.3,harveydigits,2.1,[],8,0.75,
0,pause,0.4,None,None,None,0,27,27,27,,,,,,,,,,,,N009,digits,1,"['6', '7', '8', '9']","['1', '2', '3', '4']",1,2023.2.3,harveydigits,2.1,[],8,0.75,
3,digit,0.3,['dot'],['big_1'],black,0,28,28,28,,,12.200209140777588,11.91442608833313,12.21442198753357,"[[0.0566442935921245, 0.04202602197061492]]",['DejaVu Sans'],[0.9],,,,N009,digits,1,"['6', '7', '8', '9']","['1', '2', '3', '4']",1,2023.2.3,harveydigits,2.1,[],8,0.75,
0,pause,0.4,None,None,None,0,29,29,29,,,,,,,,,,,,N009,digits,1,"['6', '7', '8', '9']","['1', '2', '3', '4']",1,2023.2.3,harveydigits,2.1,[],8,0.75,
3,digit,0.3,['dot'],['big_1'],black,0,30,30,30,,,12.900191068649292,12.614358186721802,12.914482116699219,"[[-0.0823780108158937, 0.05089789426466157]]",['DejaVu Sans'],[0.9],,,,N009,digits,1,"['6', '7', '8', '9']","['1', '2', '3', '4']",1,2023.2.3,harveydigits,2.1,[],8,0.75,
0,pause,0.4,None,None,None,0,31,31,31,,,,,,,,,,,,N009,digits,1,"['6', '7', '8', '9']","['1', '2', '3', '4']",1,2023.2.3,harveydigits,2.1,[],8,0.75,
3,digit,0.3,['dot'],['big_1'],black,0,32,32,32,,,13.600186109542847,13.314366102218628,13.614466190338135,"[[0.12081105295446484, 0.12803174055412042]]",['DejaVu Sans'],[0.9],,,,N009,digits,1,"['6', '7', '8', '9']","['1', '2', '3', '4']",1,2023.2.3,harveydigits,2.1,[],8,0.75,
0,pause,0.4,None,None,None,0,33,33,33,,,,,,,,,,,,N009,digits,1,"['6', '7', '8', '9']","['1', '2', '3', '4']",1,2023.2.3,harveydigits,2.1,[],8,0.75,
3,digit,0.3,['dot'],['big_1'],black,0,34,34,34,,,14.300212144851685,14.014461994171143,14.314316034317017,"[[-0.1717235708843291, -0.022626238344297972]]",['DejaVu Sans'],[0.9],,,,N009,digits,1,"['6', '7', '8', '9']","['1', '2', '3', '4']",1,2023.2.3,harveydigits,2.1,[],8,0.75,
0,pause,0.4,None,None,None,0,35,35,35,,,,,,,,,,,,N009,digits,1,"['6', '7', '8', '9']","['1', '2', '3', '4']",1,2023.2.3,harveydigits,2.1,[],8,0.75,
4,digit,0.3,['dot'],['big_1'],black,0,36,36,36,,,15.0002121925354,14.714446067810059,15.014459133148193,"[[-0.09422477776674966, -0.04983124833725022]]",['DejaVu Sans'],[0.9],,,,N009,digits,1,"['6', '7', '8', '9']","['1', '2', '3', '4']",1,2023.2.3,harveydigits,2.1,[],8,0.75,
0,pause,0.4,None,None,None,0,37,37,37,,,,,,,,,,,,N009,digits,1,"['6', '7', '8', '9']","['1', '2', '3', '4']",1,2023.2.3,harveydigits,2.1,[],8,0.75,
4,digit,0.3,['dot'],['big_1'],black,0,38,38,38,,,15.700189113616943,15.414502143859863,15.714468002319336,"[[-0.08008797439470054, 0.145844468279963]]",['DejaVu Sans'],[0.9],,,,N009,digits,1,"['6', '7', '8', '9']","['1', '2', '3', '4']",1,2023.2.3,harveydigits,2.1,[],8,0.75,
0,pause,0.4,None,None,None,0,39,39,39,,,,,,,,,,,,N009,digits,1,"['6', '7', '8', '9']","['1', '2', '3', '4']",1,2023.2.3,harveydigits,2.1,[],8,0.75,
4,digit,0.3,['dot'],['big_1'],black,0,40,40,40,,,16.40021014213562,16.11427617073059,16.41448402404785,"[[-0.1809813108541605, -0.02563512278948331]]",['DejaVu Sans'],[0.9],,,,N009,digits,1,"['6', '7', '8', '9']","['1', '2', '3', '4']",1,2023.2.3,harveydigits,2.1,[],8,0.75,
0,pause,0.4,None,None,None,0,41,41,41,,,,,,,,,,,,N009,digits,1,"['6', '7', '8', '9']","['1', '2', '3', '4']",1,2023.2.3,harveydigits,2.1,[],8,0.75,
4,digit,0.3,['dot'],['big_1'],black,0,42,42,42,,,17.10020399093628,16.81427311897278,17.114267110824585,"[[-0.02816123878925461, -0.004771089094270903]]",['DejaVu Sans'],[0.9],,,,N009,digits,1,"['6', '7', '8', '9']","['1', '2', '3', '4']",1,2023.2.3,harveydigits,2.1,[],8,0.75,
0,pause,0.4,None,None,None,0,43,43,43,,,,,,,,,,,,N009,digits,1,"['6', '7', '8', '9']","['1', '2', '3', '4']",1,2023.2.3,harveydigits,2.1,[],8,0.75,
4,digit,0.3,['dot'],['big_1'],black,0,44,44,44,,,17.800184965133667,17.514268159866333,17.814221143722534,"[[-0.04213844790014812, -0.015947656798331433]]",['DejaVu Sans'],[0.9],,,,N009,digits,1,"['6', '7', '8', '9']","['1', '2', '3', '4']",1,2023.2.3,harveydigits,2.1,[],8,0.75,
0,pause,0.4,None,None,None,0,45,45,45,,,,,,,,,,,,N009,digits,1,"['6', '7', '8', '9']","['1', '2', '3', '4']",1,2023.2.3,harveydigits,2.1,[],8,0.75,
4,digit,0.3,['dot'],['big_1'],black,0,46,46,46,,,18.50021004676819,18.214256048202515,18.51422905921936,"[[0.08546255867159067, -0.031133397882225994]]",['DejaVu Sans'],[0.9],,,,N009,digits,1,"['6', '7', '8', '9']","['1', '2', '3', '4']",1,2023.2.3,harveydigits,2.1,[],8,0.75,
0,pause,0.4,None,None,None,0,47,47,47,,,,,,,,,,,,N009,digits,1,"['6', '7', '8', '9']","['1', '2', '3', '4']",1,2023.2.3,harveydigits,2.1,[],8,0.75,
5,digit,0.3,['dot'],['big_1'],black,0,48,48,48,,,19.200186014175415,18.914231061935425,19.214375019073486,"[[-0.031988302457941986, -0.07911036157028507]]",['DejaVu Sans'],[0.9],,,,N009,digits,1,"['6', '7', '8', '9']","['1', '2', '3', '4']",1,2023.2.3,harveydigits,2.1,[],8,0.75,
0,pause,0.4,None,None,None,0,49,49,49,,,,,,,,,,,,N009,digits,1,"['6', '7', '8', '9']","['1', '2', '3', '4']",1,2023.2.3,harveydigits,2.1,[],8,0.75,
5,digit,0.3,['dot'],['big_1'],black,0,50,50,50,,,19.900204181671143,19.614394187927246,19.91419506072998,"[[0.0682313949735733, 0.14711299580268064]]",['DejaVu Sans'],[0.9],,,,N009,digits,1,"['6', '7', '8', '9']","['1', '2', '3', '4']",1,2023.2.3,harveydigits,2.1,[],8,0.75,
0,pause,0.4,None,None,None,0,51,51,51,,,,,,,,,,,,N009,digits,1,"['6', '7', '8', '9']","['1', '2', '3', '4']",1,2023.2.3,harveydigits,2.1,[],8,0.75,
5,digit,0.3,['dot'],['big_1'],black,0,52,52,52,,,20.60020399093628,20.314380168914795,20.61416006088257,"[[-0.14098384218819632, -0.05704475170798978]]",['DejaVu Sans'],[0.9],,,,N009,digits,1,"['6', '7', '8', '9']","['1', '2', '3', '4']",1,2023.2.3,harveydigits,2.1,[],8,0.75,
0,pause,0.4,None,None,None,0,53,53,53,,,,,,,,,,,,N009,digits,1,"['6', '7', '8', '9']","['1', '2', '3', '4']",1,2023.2.3,harveydigits,2.1,[],8,0.75,
5,digit,0.3,['dot'],['big_1'],black,0,54,54,54,,,21.30019497871399,21.014173984527588,21.31410002708435,"[[0.025118738750843084, -0.1255590004685198]]",['DejaVu Sans'],[0.9],,,,N009,digits,1,"['6', '7', '8', '9']","['1', '2', '3', '4']",1,2023.2.3,harveydigits,2.1,[],8,0.75,
0,pause,0.4,None,None,None,0,55,55,55,,,,,,,,,,,,N009,digits,1,"['6', '7', '8', '9']","['1', '2', '3', '4']",1,2023.2.3,harveydigits,2.1,[],8,0.75,
5,digit,0.3,['dot'],['big_1'],black,0,56,56,56,,,22.000214099884033,21.714089155197144,22.0140700340271,"[[-0.06156147042096766, -0.07619458664130029]]",['DejaVu Sans'],[0.9],,,,N009,digits,1,"['6', '7', '8', '9']","['1', '2', '3', '4']",1,2023.2.3,harveydigits,2.1,[],8,0.75,
0,pause,0.4,None,None,None,0,57,57,57,,,,,,,,,,,,N009,digits,1,"['6', '7', '8', '9']","['1', '2', '3', '4']",1,2023.2.3,harveydigits,2.1,[],8,0.75,
5,digit,0.3,['dot'],['big_1'],black,0,58,58,58,,,22.700196027755737,22.414093017578125,22.71408200263977,"[[-0.13210146989169833, -0.11108506481380873]]",['DejaVu Sans'],[0.9],,,,N009,digits,1,"['6', '7', '8', '9']","['1', '2', '3', '4']",1,2023.2.3,harveydigits,2.1,[],8,0.75,
0,pause,0.4,None,None,None,0,59,59,59,,,,,,,,,,,,N009,digits,1,"['6', '7', '8', '9']","['1', '2', '3', '4']",1,2023.2.3,harveydigits,2.1,[],8,0.75,
6,digit,0.3,['dot'],['big_1'],black,0,60,60,60,,,23.400192975997925,23.114073991775513,23.414055109024048,"[[0.11948612227426644, -0.15938568156288577]]",['DejaVu Sans'],[0.9],,,,N009,digits,1,"['6', '7', '8', '9']","['1', '2', '3', '4']",1,2023.2.3,harveydigits,2.1,[],8,0.75,
0,pause,0.4,None,None,None,0,61,61,61,,,,,,,,,,,,N009,digits,1,"['6', '7', '8', '9']","['1', '2', '3', '4']",1,2023.2.3,harveydigits,2.1,[],8,0.75,
6,digit,0.3,['dot'],['big_1'],black,0,62,62,62,,,24.100193977355957,23.814077138900757,24.114073038101196,"[[-0.16174423426467882, -0.068587399839006]]",['DejaVu Sans'],[0.9],,,,N009,digits,1,"['6', '7', '8', '9']","['1', '2', '3', '4']",1,2023.2.3,harveydigits,2.1,[],8,0.75,
0,pause,0.4,None,None,None,0,63,63,63,,,,,,,,,,,,N009,digits,1,"['6', '7', '8', '9']","['1', '2', '3', '4']",1,2023.2.3,harveydigits,2.1,[],8,0.75,
6,digit,0.3,['dot'],['big_1'],black,0,64,64,64,,,24.8001971244812,24.514070987701416,24.814077138900757,"[[-0.17256289629074123, -0.05053292660517233]]",['DejaVu Sans'],[0.9],,,,N009,digits,1,"['6', '7', '8', '9']","['1', '2', '3', '4']",1,2023.2.3,harveydigits,2.1,[],8,0.75,
0,pause,0.4,None,None,None,0,65,65,65,,,,,,,,,,,,N009,digits,1,"['6', '7', '8', '9']","['1', '2', '3', '4']",1,2023.2.3,harveydigits,2.1,[],8,0.75,
6,digit,0.3,['dot'],['big_1'],black,0,66,66,66,,,25.500198125839233,25.214064121246338,25.514060020446777,"[[-0.005062864174543602, -0.011364320416968332]]",['DejaVu Sans'],[0.9],,,,N009,digits,1,"['6', '7', '8', '9']","['1', '2', '3', '4']",1,2023.2.3,harveydigits,2.1,[],8,0.75,
0,pause,0.4,None,None,None,0,67,67,67,,,,,,,,,,,,N009,digits,1,"['6', '7', '8', '9']","['1', '2', '3', '4']",1,2023.2.3,harveydigits,2.1,[],8,0.75,
6,digit,0.3,['dot'],['big_1'],black,0,68,68,68,,,26.200206995010376,25.914050102233887,26.214035034179688,"[[-0.1203702989336516, -0.02205752056827967]]",['DejaVu Sans'],[0.9],,,,N009,digits,1,"['6', '7', '8', '9']","['1', '2', '3', '4']",1,2023.2.3,harveydigits,2.1,[],8,0.75,
0,pause,0.4,None,None,None,0,69,69,69,,,,,,,,,,,,N009,digits,1,"['6', '7', '8', '9']","['1', '2', '3', '4']",1,2023.2.3,harveydigits,2.1,[],8,0.75,
6,digit,0.3,['dot'],['big_1'],black,0,70,70,70,,,26.900187015533447,26.61398196220398,26.913984060287476,"[[-0.1786982398575116, -0.08316320964473756]]",['DejaVu Sans'],[0.9],,,,N009,digits,1,"['6', '7', '8', '9']","['1', '2', '3', '4']",1,2023.2.3,harveydigits,2.1,[],8,0.75,
0,pause,0.4,None,None,None,0,71,71,71,,,,,,,,,,,,N009,digits,1,"['6', '7', '8', '9']","['1', '2', '3', '4']",1,2023.2.3,harveydigits,2.1,[],8,0.75,
7,digit,0.3,['dot'],['big_1'],black,0,72,72,72,,,27.600195169448853,27.313956022262573,27.613945960998535,"[[0.14870362285304875, 0.11593167799701995]]",['DejaVu Sans'],[0.9],,,,N009,digits,1,"['6', '7', '8', '9']","['1', '2', '3', '4']",1,2023.2.3,harveydigits,2.1,[],8,0.75,
0,pause,0.4,None,None,None,0,73,73,73,,,,,,,,,,,,N009,digits,1,"['6', '7', '8', '9']","['1', '2', '3', '4']",1,2023.2.3,harveydigits,2.1,[],8,0.75,
7,digit,0.3,['dot'],['big_1'],black,0,74,74,74,,,28.300201177597046,28.013938188552856,28.313918113708496,"[[0.07891495711775745, 0.013738354363659805]]",['DejaVu Sans'],[0.9],,,,N009,digits,1,"['6', '7', '8', '9']","['1', '2', '3', '4']",1,2023.2.3,harveydigits,2.1,[],8,0.75,
0,pause,0.4,None,None,None,0,75,75,75,,,,,,,,,,,,N009,digits,1,"['6', '7', '8', '9']","['1', '2', '3', '4']",1,2023.2.3,harveydigits,2.1,[],8,0.75,
7,digit,0.3,['dot'],['big_1'],black,0,76,76,76,,,29.0001859664917,28.713921070098877,29.01390814781189,"[[-0.15697038025701016, 0.0323009321880286]]",['DejaVu Sans'],[0.9],,,,N009,digits,1,"['6', '7', '8', '9']","['1', '2', '3', '4']",1,2023.2.3,harveydigits,2.1,[],8,0.75,
0,pause,0.4,None,None,None,0,77,77,77,,,,,,,,,,,,N009,digits,1,"['6', '7', '8', '9']","['1', '2', '3', '4']",1,2023.2.3,harveydigits,2.1,[],8,0.75,
7,digit,0.3,['dot'],['big_1'],black,0,78,78,78,,,29.7002010345459,29.413908004760742,29.713935136795044,"[[0.06271063644984412, -0.03498014676711991]]",['DejaVu Sans'],[0.9],,,,N009,digits,1,"['6', '7', '8', '9']","['1', '2', '3', '4']",1,2023.2.3,harveydigits,2.1,[],8,0.75,
0,pause,0.4,None,None,None,0,79,79,79,,,,,,,,,,,,N009,digits,1,"['6', '7', '8', '9']","['1', '2', '3', '4']",1,2023.2.3,harveydigits,2.1,[],8,0.75,
7,digit,0.3,['dot'],['big_1'],black,0,80,80,80,,,30.400187969207764,30.113909006118774,30.413958072662354,"[[0.0001014550228195521, -0.10975690285501048]]",['DejaVu Sans'],[0.9],,,,N009,digits,1,"['6', '7', '8', '9']","['1', '2', '3', '4']",1,2023.2.3,harveydigits,2.1,[],8,0.75,
0,pause,0.4,None,None,None,0,81,81,81,,,,,,,,,,,,N009,digits,1,"['6', '7', '8', '9']","['1', '2', '3', '4']",1,2023.2.3,harveydigits,2.1,[],8,0.75,
7,digit,0.3,['dot'],['big_1'],black,0,82,82,82,,,31.100211143493652,30.813960075378418,31.11393404006958,"[[0.1654905385764567, 0.06885122175125993]]",['DejaVu Sans'],[0.9],,,,N009,digits,1,"['6', '7', '8', '9']","['1', '2', '3', '4']",1,2023.2.3,harveydigits,2.1,[],8,0.75,
0,pause,0.4,None,None,None,0,83,83,83,,,,,,,,,,,,N009,digits,1,"['6', '7', '8', '9']","['1', '2', '3', '4']",1,2023.2.3,harveydigits,2.1,[],8,0.75,
8,digit,0.3,['dot'],['big_1'],black,0,84,84,84,,,31.800189971923828,31.513910055160522,31.81389617919922,"[[-0.1600528986907771, -0.04630497726670592]]",['DejaVu Sans'],[0.9],,,,N009,digits,1,"['6', '7', '8', '9']","['1', '2', '3', '4']",1,2023.2.3,harveydigits,2.1,[],8,0.75,
0,pause,0.4,None,None,None,0,85,85,85,,,,,,,,,,,,N009,digits,1,"['6', '7', '8', '9']","['1', '2', '3', '4']",1,2023.2.3,harveydigits,2.1,[],8,0.75,
8,digit,0.3,['dot'],['big_1'],black,0,86,86,86,,,32.50019812583923,32.213900089263916,32.514005184173584,"[[0.00643077622323962, 0.18042727617267237]]",['DejaVu Sans'],[0.9],,,,N009,digits,1,"['6', '7', '8', '9']","['1', '2', '3', '4']",1,2023.2.3,harveydigits,2.1,[],8,0.75,
0,pause,0.4,None,None,None,0,87,87,87,,,,,,,,,,,,N009,digits,1,"['6', '7', '8', '9']","['1', '2', '3', '4']",1,2023.2.3,harveydigits,2.1,[],8,0.75,
8,digit,0.3,['dot'],['big_1'],black,0,88,88,88,,,33.200191020965576,32.91387605667114,33.2139949798584,"[[-0.15784489785666564, 0.00020801968906732082]]",['DejaVu Sans'],[0.9],,,,N009,digits,1,"['6', '7', '8', '9']","['1', '2', '3', '4']",1,2023.2.3,harveydigits,2.1,[],8,0.75,
0,pause,0.4,None,None,None,0,89,89,89,,,,,,,,,,,,N009,digits,1,"['6', '7', '8', '9']","['1', '2', '3', '4']",1,2023.2.3,harveydigits,2.1,[],8,0.75,
8,digit,0.3,['dot'],['big_1'],black,0,90,90,90,,,33.90019917488098,33.61398196220398,33.91397714614868,"[[-0.1347402115079554, -0.11073728747773924]]",['DejaVu Sans'],[0.9],,,,N009,digits,1,"['6', '7', '8', '9']","['1', '2', '3', '4']",1,2023.2.3,harveydigits,2.1,[],8,0.75,
0,pause,0.4,None,None,None,0,91,91,91,,,,,,,,,,,,N009,digits,1,"['6', '7', '8', '9']","['1', '2', '3', '4']",1,2023.2.3,harveydigits,2.1,[],8,0.75,
8,digit,0.3,['dot'],['big_1'],black,0,92,92,92,,,34.600210189819336,34.31396412849426,34.61381697654724,"[[0.0044899486464899385, -0.09665331835805399]]",['DejaVu Sans'],[0.9],,,,N009,digits,1,"['6', '7', '8', '9']","['1', '2', '3', '4']",1,2023.2.3,harveydigits,2.1,[],8,0.75,
0,pause,0.4,None,None,None,0,93,93,93,,,,,,,,,,,,N009,digits,1,"['6', '7', '8', '9']","['1', '2', '3', '4']",1,2023.2.3,harveydigits,2.1,[],8,0.75,
8,digit,0.3,['dot'],['big_1'],black,0,94,94,94,,,35.30018997192383,35.01381206512451,35.313802003860474,"[[0.027166427491163297, 0.0352111035560555]]",['DejaVu Sans'],[0.9],,,,N009,digits,1,"['6', '7', '8', '9']","['1', '2', '3', '4']",1,2023.2.3,harveydigits,2.1,[],8,0.75,
0,pause,0.4,None,None,None,0,95,95,95,,,,,,,,,,,,N009,digits,1,"['6', '7', '8', '9']","['1', '2', '3', '4']",1,2023.2.3,harveydigits,2.1,[],8,0.75,
9,digit,0.3,['dot'],['big_1'],black,0,96,96,96,,,36.000190019607544,35.713788986206055,36.01378607749939,"[[0.10417405911488356, 0.14966021635448393]]",['DejaVu Sans'],[0.9],,,,N009,digits,1,"['6', '7', '8', '9']","['1', '2', '3', '4']",1,2023.2.3,harveydigits,2.1,[],8,0.75,
0,pause,0.4,None,None,None,0,97,97,97,,,,,,,,,,,,N009,digits,1,"['6', '7', '8', '9']","['1', '2', '3', '4']",1,2023.2.3,harveydigits,2.1,[],8,0.75,
9,digit,0.3,['dot'],['big_1'],black,0,98,98,98,,,36.70020413398743,36.41378903388977,36.71377205848694,"[[0.04345619861669103, -0.06999700395167921]]",['DejaVu Sans'],[0.9],,,,N009,digits,1,"['6', '7', '8', '9']","['1', '2', '3', '4']",1,2023.2.3,harveydigits,2.1,[],8,0.75,
0,pause,0.4,None,None,None,0,99,99,99,,,,,,,,,,,,N009,digits,1,"['6', '7', '8', '9']","['1', '2', '3', '4']",1,2023.2.3,harveydigits,2.1,[],8,0.75,
9,digit,0.3,['dot'],['big_1'],black,0,100,100,100,,,37.4002161026001,37.1137900352478,37.41369605064392,"[[0.04035649332949179, -0.11470260650564057]]",['DejaVu Sans'],[0.9],,,,N009,digits,1,"['6', '7', '8', '9']","['1', '2', '3', '4']",1,2023.2.3,harveydigits,2.1,[],8,0.75,
0,pause,0.4,None,None,None,0,101,101,101,,,,,,,,,,,,N009,digits,1,"['6', '7', '8', '9']","['1', '2', '3', '4']",1,2023.2.3,harveydigits,2.1,[],8,0.75,
9,digit,0.3,['dot'],['big_1'],black,0,102,102,102,,,38.10021114349365,37.81375503540039,38.11371898651123,"[[0.09586217594514299, -0.09661461378778548]]",['DejaVu Sans'],[0.9],,,,N009,digits,1,"['6', '7', '8', '9']","['1', '2', '3', '4']",1,2023.2.3,harveydigits,2.1,[],8,0.75,
0,pause,0.4,None,None,None,0,103,103,103,,,,,,,,,,,,N009,digits,1,"['6', '7', '8', '9']","['1', '2', '3', '4']",1,2023.2.3,harveydigits,2.1,[],8,0.75,
9,digit,0.3,['dot'],['big_1'],black,0,104,104,104,,,38.80019807815552,38.513713121414185,38.81369996070862,"[[-0.05199587498695579, -0.17642922693386726]]",['DejaVu Sans'],[0.9],,,,N009,digits,1,"['6', '7', '8', '9']","['1', '2', '3', '4']",1,2023.2.3,harveydigits,2.1,[],8,0.75,
0,pause,0.4,None,None,None,0,105,105,105,,,,,,,,,,,,N009,digits,1,"['6', '7', '8', '9']","['1', '2', '3', '4']",1,2023.2.3,harveydigits,2.1,[],8,0.75,
9,digit,0.3,['dot'],['big_1'],black,0,106,106,106,,,39.50021409988403,39.21390914916992,39.51372003555298,"[[0.08948806362819625, 0.08860688139084338]]",['DejaVu Sans'],[0.9],,,,N009,digits,1,"['6', '7', '8', '9']","['1', '2', '3', '4']",1,2023.2.3,harveydigits,2.1,[],8,0.75,
0,pause,0.4,None,None,None,0,107,107,107,,,,,,,,,,,,N009,digits,1,"['6', '7', '8', '9']","['1', '2', '3', '4']",1,2023.2.3,harveydigits,2.1,[],8,0.75,
20,digit,0.3,['dot'],['big_1'],black,0,108,108,108,,,40.20020604133606,39.9138560295105,40.213709115982056,"[[-0.05434872884386535, -0.1262535321996724]]",['DejaVu Sans'],[0.9],,,,N009,digits,1,"['6', '7', '8', '9']","['1', '2', '3', '4']",1,2023.2.3,harveydigits,2.1,[],8,0.75,
0,pause,0.4,None,None,None,0,109,109,109,,,,,,,,,,,,N009,digits,1,"['6', '7', '8', '9']","['1', '2', '3', '4']",1,2023.2.3,harveydigits,2.1,[],8,0.75,
20,digit,0.3,['dot'],['big_1'],black,0,110,110,110,,,40.90020799636841,40.6137170791626,40.91381096839905,"[[-0.1299874593742113, -0.1191519340593343]]",['DejaVu Sans'],[0.9],,,,N009,digits,1,"['6', '7', '8', '9']","['1', '2', '3', '4']",1,2023.2.3,harveydigits,2.1,[],8,0.75,
0,pause,0.4,None,None,None,0,111,111,111,,,,,,,,,,,,N009,digits,1,"['6', '7', '8', '9']","['1', '2', '3', '4']",1,2023.2.3,harveydigits,2.1,[],8,0.75,
20,digit,0.3,['dot'],['big_1'],black,0,112,112,112,,,41.600208044052124,41.3136351108551,41.613779067993164,"[[-0.04183971636103334, 0.12421025981001987]]",['DejaVu Sans'],[0.9],,,,N009,digits,1,"['6', '7', '8', '9']","['1', '2', '3', '4']",1,2023.2.3,harveydigits,2.1,[],8,0.75,
0,pause,0.4,None,None,None,0,113,113,113,,,,,,,,,,,,N009,digits,1,"['6', '7', '8', '9']","['1', '2', '3', '4']",1,2023.2.3,harveydigits,2.1,[],8,0.75,
20,digit,0.3,['dot'],['big_1'],black,0,114,114,114,,,42.30021595954895,42.01377296447754,42.31355118751526,"[[-0.17408707222615427, 0.08772470323363915]]",['DejaVu Sans'],[0.9],,,,N009,digits,1,"['6', '7', '8', '9']","['1', '2', '3', '4']",1,2023.2.3,harveydigits,2.1,[],8,0.75,
0,pause,0.4,None,None,None,0,115,115,115,,,,,,,,,,,,N009,digits,1,"['6', '7', '8', '9']","['1', '2', '3', '4']",1,2023.2.3,harveydigits,2.1,[],8,0.75,
20,digit,0.3,['dot'],['big_1'],black,0,116,116,116,,,43.00019407272339,42.71372318267822,43.013713121414185,"[[0.013957965612303724, 0.09976584686547288]]",['DejaVu Sans'],[0.9],,,,N009,digits,1,"['6', '7', '8', '9']","['1', '2', '3', '4']",1,2023.2.3,harveydigits,2.1,[],8,0.75,
0,pause,0.4,None,None,None,0,117,117,117,,,,,,,,,,,,N009,digits,1,"['6', '7', '8', '9']","['1', '2', '3', '4']",1,2023.2.3,harveydigits,2.1,[],8,0.75,
20,digit,0.3,['dot'],['big_1'],black,0,118,118,118,,,43.70020508766174,43.41371202468872,43.713706970214844,"[[0.09794305462773004, 0.0979332237136713]]",['DejaVu Sans'],[0.9],,,,N009,digits,1,"['6', '7', '8', '9']","['1', '2', '3', '4']",1,2023.2.3,harveydigits,2.1,[],8,0.75,
0,pause,0.4,None,None,None,0,119,119,119,,,,,,,,,,,,N009,digits,1,"['6', '7', '8', '9']","['1', '2', '3', '4']",1,2023.2.3,harveydigits,2.1,[],8,0.75,
20,digit,0.3,['dot'],['big_1'],black,0,120,120,120,,,44.40019512176514,44.11371397972107,44.41371512413025,"[[-0.13884137036816527, 0.1217692370670278]]",['DejaVu Sans'],[0.9],,,,N009,digits,1,"['6', '7', '8', '9']","['1', '2', '3', '4']",1,2023.2.3,harveydigits,2.1,[],8,0.75,
0,pause,0.4,None,None,None,0,121,121,121,,,,,,,,,,,,N009,digits,1,"['6', '7', '8', '9']","['1', '2', '3', '4']",1,2023.2.3,harveydigits,2.1,[],8,0.75,
20,digit,0.3,['dot'],['big_1'],black,0,122,122,122,,,45.10021901130676,44.813727140426636,45.11378812789917,"[[0.1859094088322529, 0.003969009230688714]]",['DejaVu Sans'],[0.9],,,,N009,digits,1,"['6', '7', '8', '9']","['1', '2', '3', '4']",1,2023.2.3,harveydigits,2.1,[],8,0.75,
0,pause,0.4,None,None,None,0,123,123,123,,,,,,,,,,,,N009,digits,1,"['6', '7', '8', '9']","['1', '2', '3', '4']",1,2023.2.3,harveydigits,2.1,[],8,0.75,
20,digit,0.3,['dot'],['big_1'],black,0,124,124,124,,,45.800193071365356,45.51374816894531,45.8137731552124,"[[0.04045131298432025, 0.09148177057956836]]",['DejaVu Sans'],[0.9],,,,N009,digits,1,"['6', '7', '8', '9']","['1', '2', '3', '4']",1,2023.2.3,harveydigits,2.1,[],8,0.75,
0,pause,0.4,None,None,None,0,125,125,125,,,,,,,,,,,,N009,digits,1,"['6', '7', '8', '9']","['1', '2', '3', '4']",1,2023.2.3,harveydigits,2.1,[],8,0.75,
20,digit,0.3,['dot'],['big_1'],black,0,126,126,126,,,46.50021815299988,46.213675022125244,46.51364016532898,"[[-0.09247665191699118, -0.033462298170192695]]",['DejaVu Sans'],[0.9],,,,N009,digits,1,"['6', '7', '8', '9']","['1', '2', '3', '4']",1,2023.2.3,harveydigits,2.1,[],8,0.75,
0,pause,0.4,None,None,None,0,127,127,127,,,,,,,,,,,,N009,digits,1,"['6', '7', '8', '9']","['1', '2', '3', '4']",1,2023.2.3,harveydigits,2.1,[],8,0.75,
20,digit,0.3,['dot'],['big_1'],black,0,128,128,128,,,47.20019817352295,46.913668155670166,47.213648080825806,"[[-0.16383894746176053, -0.0010150461523871779]]",['DejaVu Sans'],[0.9],,,,N009,digits,1,"['6', '7', '8', '9']","['1', '2', '3', '4']",1,2023.2.3,harveydigits,2.1,[],8,0.75,
0,pause,0.4,None,None,None,0,129,129,129,,,,,,,,,,,,N009,digits,1,"['6', '7', '8', '9']","['1', '2', '3', '4']",1,2023.2.3,harveydigits,2.1,[],8,0.75,
20,digit,0.3,['dot'],['big_1'],black,0,130,130,130,,,47.90019512176514,47.613662004470825,47.91363501548767,"[[-0.17478697969825022, 0.06130196521039653]]",['DejaVu Sans'],[0.9],,,,N009,digits,1,"['6', '7', '8', '9']","['1', '2', '3', '4']",1,2023.2.3,harveydigits,2.1,[],8,0.75,
0,pause,0.4,None,None,None,0,131,131,131,,,,,,,,,,,,N009,digits,1,"['6', '7', '8', '9']","['1', '2', '3', '4']",1,2023.2.3,harveydigits,2.1,[],8,0.75,
20,digit,0.3,['dot'],['big_1'],black,0,132,132,132,,,48.600205183029175,48.313666105270386,48.613656997680664,"[[-0.017800451059983013, -0.047330840257229834]]",['DejaVu Sans'],[0.9],,,,N009,digits,1,"['6', '7', '8', '9']","['1', '2', '3', '4']",1,2023.2.3,harveydigits,2.1,[],8,0.75,
0,pause,0.4,None,None,None,0,133,133,133,,,,,,,,,,,,N009,digits,1,"['6', '7', '8', '9']","['1', '2', '3', '4']",1,2023.2.3,harveydigits,2.1,[],8,0.75,
20,digit,0.3,['dot'],['big_1'],black,0,134,134,134,,,49.300204038619995,49.01364707946777,49.31365203857422,"[[-0.10852220759218299, 0.10002383818425017]]",['DejaVu Sans'],[0.9],,,,N009,digits,1,"['6', '7', '8', '9']","['1', '2', '3', '4']",1,2023.2.3,harveydigits,2.1,[],8,0.75,
0,pause,0.4,None,None,None,0,135,135,135,,,,,,,,,,,,N009,digits,1,"['6', '7', '8', '9']","['1', '2', '3', '4']",1,2023.2.3,harveydigits,2.1,[],8,0.75,
20,digit,0.3,['dot'],['big_1'],black,0,136,136,136,,,50.000203132629395,49.713659048080444,50.013566970825195,"[[0.18411199954271315, -0.012331870155427]]",['DejaVu Sans'],[0.9],,,,N009,digits,1,"['6', '7', '8', '9']","['1', '2', '3', '4']",1,2023.2.3,harveydigits,2.1,[],8,0.75,
0,pause,0.4,None,None,None,0,137,137,137,,,,,,,,,,,,N009,digits,1,"['6', '7', '8', '9']","['1', '2', '3', '4']",1,2023.2.3,harveydigits,2.1,[],8,0.75,
20,digit,0.3,['dot'],['big_1'],black,0,138,138,138,,,50.7002170085907,50.413552045822144,50.71354913711548,"[[0.05093826172229429, 0.057419327933651426]]",['DejaVu Sans'],[0.9],,,,N009,digits,1,"['6', '7', '8', '9']","['1', '2', '3', '4']",1,2023.2.3,harveydigits,2.1,[],8,0.75,
0,pause,0.4,None,None,None,0,139,139,139,,,,,,,,,,,,N009,digits,1,"['6', '7', '8', '9']","['1', '2', '3', '4']",1,2023.2.3,harveydigits,2.1,[],8,0.75,
20,digit,0.3,['dot'],['big_1'],black,0,140,140,140,,,51.40020203590393,51.11356210708618,51.41355514526367,"[[0.0009534786327051736, 0.17283893668607725]]",['DejaVu Sans'],[0.9],,,,N009,digits,1,"['6', '7', '8', '9']","['1', '2', '3', '4']",1,2023.2.3,harveydigits,2.1,[],8,0.75,
0,pause,0.4,None,None,None,0,141,141,141,,,,,,,,,,,,N009,digits,1,"['6', '7', '8', '9']","['1', '2', '3', '4']",1,2023.2.3,harveydigits,2.1,[],8,0.75,
20,digit,0.3,['dot'],['big_1'],black,0,142,142,142,,,52.10021901130676,51.81355118751526,52.11336708068848,"[[-0.18157640056750612, -0.06997651995875029]]",['DejaVu Sans'],[0.9],,,,N009,digits,1,"['6', '7', '8', '9']","['1', '2', '3', '4']",1,2023.2.3,harveydigits,2.1,[],8,0.75,
0,pause,0.4,None,None,None,0,143,143,143,,,,,,,,,,,,N009,digits,1,"['6', '7', '8', '9']","['1', '2', '3', '4']",1,2023.2.3,harveydigits,2.1,[],8,0.75,
20,digit,0.3,['dot'],['big_1'],white,0,144,144,144,,,52.80020809173584,52.51336216926575,52.8133430480957,"[[-0.01319917308372015, -0.022902107422261758]]",['DejaVu Sans'],[0.9],,,,N009,digits,1,"['6', '7', '8', '9']","['1', '2', '3', '4']",1,2023.2.3,harveydigits,2.1,[],8,0.75,
0,pause,0.4,None,None,None,0,145,145,145,,,,,,,,,,,,N009,digits,1,"['6', '7', '8', '9']","['1', '2', '3', '4']",1,2023.2.3,harveydigits,2.1,[],8,0.75,
20,digit,0.3,['dot'],['big_1'],white,0,146,146,146,,,53.50021505355835,53.21334505081177,53.51326298713684,"[[0.16016457694512412, 0.06961493330635649]]",['DejaVu Sans'],[0.9],,,,N009,digits,1,"['6', '7', '8', '9']","['1', '2', '3', '4']",1,2023.2.3,harveydigits,2.1,[],8,0.75,
0,pause,0.4,None,None,None,0,147,147,147,,,,,,,,,,,,N009,digits,1,"['6', '7', '8', '9']","['1', '2', '3', '4']",1,2023.2.3,harveydigits,2.1,[],8,0.75,
20,digit,0.3,['dot'],['big_1'],white,0,148,148,148,,,54.20022106170654,53.9132661819458,54.21325206756592,"[[0.01895447671292816, 0.10966398793871224]]",['DejaVu Sans'],[0.9],,,,N009,digits,1,"['6', '7', '8', '9']","['1', '2', '3', '4']",1,2023.2.3,harveydigits,2.1,[],8,0.75,
0,pause,0.4,None,None,None,0,149,149,149,,,,,,,,,,,,N009,digits,1,"['6', '7', '8', '9']","['1', '2', '3', '4']",1,2023.2.3,harveydigits,2.1,[],8,0.75,
20,digit,0.3,['dot'],['big_1'],white,0,150,150,150,,,54.90019607543945,54.61325001716614,54.91324710845947,"[[-0.03158583390899555, 0.1926712834198369]]",['DejaVu Sans'],[0.9],,,,N009,digits,1,"['6', '7', '8', '9']","['1', '2', '3', '4']",1,2023.2.3,harveydigits,2.1,[],8,0.75,
0,pause,0.4,None,None,None,0,151,151,151,,,,,,,,,,,,N009,digits,1,"['6', '7', '8', '9']","['1', '2', '3', '4']",1,2023.2.3,harveydigits,2.1,[],8,0.75,
20,digit,0.3,['dot'],['big_1'],white,0,152,152,152,,,55.60021495819092,55.31325316429138,55.61325407028198,"[[-0.18182580282665017, -0.037694490499269595]]",['DejaVu Sans'],[0.9],,,,N009,digits,1,"['6', '7', '8', '9']","['1', '2', '3', '4']",1,2023.2.3,harveydigits,2.1,[],8,0.75,
0,pause,0.4,None,None,None,0,153,153,153,,,,,,,,,,,,N009,digits,1,"['6', '7', '8', '9']","['1', '2', '3', '4']",1,2023.2.3,harveydigits,2.1,[],8,0.75,
20,digit,0.3,['dot'],['big_1'],white,0,154,154,154,,,56.30020999908447,56.01321005821228,56.31319618225098,"[[-0.11633645451968952, 0.14873983688911957]]",['DejaVu Sans'],[0.9],,,,N009,digits,1,"['6', '7', '8', '9']","['1', '2', '3', '4']",1,2023.2.3,harveydigits,2.1,[],8,0.75,
0,pause,0.4,None,None,None,0,155,155,155,,,,,,,,,,,,N009,digits,1,"['6', '7', '8', '9']","['1', '2', '3', '4']",1,2023.2.3,harveydigits,2.1,[],8,0.75,
9,digit,0.3,['dot'],['big_1'],black,0,156,156,156,,,57.00019812583923,56.71323108673096,57.013219118118286,"[[-0.0675822929164604, -0.10707063548345197]]",['DejaVu Sans'],[0.9],,,,N009,digits,1,"['6', '7', '8', '9']","['1', '2', '3', '4']",1,2023.2.3,harveydigits,2.1,[],8,0.75,
0,pause,0.4,None,None,None,0,157,157,157,,,,,,,,,,,,N009,digits,1,"['6', '7', '8', '9']","['1', '2', '3', '4']",1,2023.2.3,harveydigits,2.1,[],8,0.75,
9,digit,0.3,['dot'],['big_1'],black,0,158,158,158,,,57.700199127197266,57.413225173950195,57.71320104598999,"[[-0.1981844096366245, -0.004969366012422028]]",['DejaVu Sans'],[0.9],,,,N009,digits,1,"['6', '7', '8', '9']","['1', '2', '3', '4']",1,2023.2.3,harveydigits,2.1,[],8,0.75,
0,pause,0.4,None,None,None,0,159,159,159,,,,,,,,,,,,N009,digits,1,"['6', '7', '8', '9']","['1', '2', '3', '4']",1,2023.2.3,harveydigits,2.1,[],8,0.75,
9,digit,0.3,['dot'],['big_1'],black,0,160,160,160,,,58.40020418167114,58.11321806907654,58.413341999053955,"[[0.05362369482611731, 0.17670812157102492]]",['DejaVu Sans'],[0.9],,,,N009,digits,1,"['6', '7', '8', '9']","['1', '2', '3', '4']",1,2023.2.3,harveydigits,2.1,[],8,0.75,
0,pause,0.4,None,None,None,0,161,161,161,,,,,,,,,,,,N009,digits,1,"['6', '7', '8', '9']","['1', '2', '3', '4']",1,2023.2.3,harveydigits,2.1,[],8,0.75,
9,digit,0.3,['dot'],['big_1'],black,0,162,162,162,,,59.10020208358765,58.81333613395691,59.11313199996948,"[[-0.1524882239267694, -0.07311337029754236]]",['DejaVu Sans'],[0.9],,,,N009,digits,1,"['6', '7', '8', '9']","['1', '2', '3', '4']",1,2023.2.3,harveydigits,2.1,[],8,0.75,
0,pause,0.4,None,None,None,0,163,163,163,,,,,,,,,,,,N009,digits,1,"['6', '7', '8', '9']","['1', '2', '3', '4']",1,2023.2.3,harveydigits,2.1,[],8,0.75,
9,digit,0.3,['dot'],['big_1'],black,0,164,164,164,,,59.800217151641846,59.5131561756134,59.81311106681824,"[[0.18434885660620612, -0.018296904212490604]]",['DejaVu Sans'],[0.9],,,,N009,digits,1,"['6', '7', '8', '9']","['1', '2', '3', '4']",1,2023.2.3,harveydigits,2.1,[],8,0.75,
0,pause,0.4,None,None,None,0,165,165,165,,,,,,,,,,,,N009,digits,1,"['6', '7', '8', '9']","['1', '2', '3', '4']",1,2023.2.3,harveydigits,2.1,[],8,0.75,
9,digit,0.3,['dot'],['big_1'],black,0,166,166,166,,,60.500200033187866,60.21312618255615,60.51315999031067,"[[-0.11449065340461696, 0.024643773408159514]]",['DejaVu Sans'],[0.9],,,,N009,digits,1,"['6', '7', '8', '9']","['1', '2', '3', '4']",1,2023.2.3,harveydigits,2.1,[],8,0.75,
0,pause,0.4,None,None,None,0,167,167,167,,,,,,,,,,,,N009,digits,1,"['6', '7', '8', '9']","['1', '2', '3', '4']",1,2023.2.3,harveydigits,2.1,[],8,0.75,
8,digit,0.3,['dot'],['big_1'],black,0,168,168,168,,,61.20021915435791,60.913087129592896,61.21307706832886,"[[0.13669147249304883, -0.13953329081702312]]",['DejaVu Sans'],[0.9],,,,N009,digits,1,"['6', '7', '8', '9']","['1', '2', '3', '4']",1,2023.2.3,harveydigits,2.1,[],8,0.75,
0,pause,0.4,None,None,None,0,169,169,169,,,,,,,,,,,,N009,digits,1,"['6', '7', '8', '9']","['1', '2', '3', '4']",1,2023.2.3,harveydigits,2.1,[],8,0.75,
8,digit,0.3,['dot'],['big_1'],black,0,170,170,170,,,61.90019512176514,61.613078117370605,61.91312909126282,"[[0.14057415109695484, 0.03799864669623387]]",['DejaVu Sans'],[0.9],,,,N009,digits,1,"['6', '7', '8', '9']","['1', '2', '3', '4']",1,2023.2.3,harveydigits,2.1,[],8,0.75,
0,pause,0.4,None,None,None,0,171,171,171,,,,,,,,,,,,N009,digits,1,"['6', '7', '8', '9']","['1', '2', '3', '4']",1,2023.2.3,harveydigits,2.1,[],8,0.75,
8,digit,0.3,['dot'],['big_1'],black,0,172,172,172,,,62.600213050842285,62.31307816505432,62.61306118965149,"[[0.1091749961303545, 0.10767283222935373]]",['DejaVu Sans'],[0.9],,,,N009,digits,1,"['6', '7', '8', '9']","['1', '2', '3', '4']",1,2023.2.3,harveydigits,2.1,[],8,0.75,
0,pause,0.4,None,None,None,0,173,173,173,,,,,,,,,,,,N009,digits,1,"['6', '7', '8', '9']","['1', '2', '3', '4']",1,2023.2.3,harveydigits,2.1,[],8,0.75,
8,digit,0.3,['dot'],['big_1'],black,0,174,174,174,,,63.30021405220032,63.013044118881226,63.31302809715271,"[[-0.14571615961409023, 0.10846740418853662]]",['DejaVu Sans'],[0.9],,,,N009,digits,1,"['6', '7', '8', '9']","['1', '2', '3', '4']",1,2023.2.3,harveydigits,2.1,[],8,0.75,
0,pause,0.4,None,None,None,0,175,175,175,,,,,,,,,,,,N009,digits,1,"['6', '7', '8', '9']","['1', '2', '3', '4']",1,2023.2.3,harveydigits,2.1,[],8,0.75,
8,digit,0.3,['dot'],['big_1'],black,0,176,176,176,,,64.00019907951355,63.71301817893982,64.01300096511841,"[[0.18352040243467518, 0.06559661602927358]]",['DejaVu Sans'],[0.9],,,,N009,digits,1,"['6', '7', '8', '9']","['1', '2', '3', '4']",1,2023.2.3,harveydigits,2.1,[],8,0.75,
0,pause,0.4,None,None,None,0,177,177,177,,,,,,,,,,,,N009,digits,1,"['6', '7', '8', '9']","['1', '2', '3', '4']",1,2023.2.3,harveydigits,2.1,[],8,0.75,
8,digit,0.3,['dot'],['big_1'],black,0,178,178,178,,,64.70021510124207,64.41302609443665,64.71301317214966,"[[-0.0723362083289508, -0.03641344213245751]]",['DejaVu Sans'],[0.9],,,,N009,digits,1,"['6', '7', '8', '9']","['1', '2', '3', '4']",1,2023.2.3,harveydigits,2.1,[],8,0.75,
0,pause,0.4,None,None,None,0,179,179,179,,,,,,,,,,,,N009,digits,1,"['6', '7', '8', '9']","['1', '2', '3', '4']",1,2023.2.3,harveydigits,2.1,[],8,0.75,
7,digit,0.3,['dot'],['big_1'],black,0,180,180,180,,,65.40020513534546,65.11303210258484,65.41298913955688,"[[-0.07778180333108664, -0.09202741768101315]]",['DejaVu Sans'],[0.9],,,,N009,digits,1,"['6', '7', '8', '9']","['1', '2', '3', '4']",1,2023.2.3,harveydigits,2.1,[],8,0.75,
0,pause,0.4,None,None,None,0,181,181,181,,,,,,,,,,,,N009,digits,1,"['6', '7', '8', '9']","['1', '2', '3', '4']",1,2023.2.3,harveydigits,2.1,[],8,0.75,
7,digit,0.3,['dot'],['big_1'],black,0,182,182,182,,,66.1002140045166,65.81298518180847,66.1129720211029,"[[0.12931473419335202, -0.11351908548656059]]",['DejaVu Sans'],[0.9],,,,N009,digits,1,"['6', '7', '8', '9']","['1', '2', '3', '4']",1,2023.2.3,harveydigits,2.1,[],8,0.75,
0,pause,0.4,None,None,None,0,183,183,183,,,,,,,,,,,,N009,digits,1,"['6', '7', '8', '9']","['1', '2', '3', '4']",1,2023.2.3,harveydigits,2.1,[],8,0.75,
7,digit,0.3,['dot'],['big_1'],black,0,184,184,184,,,66.80020499229431,66.51296496391296,66.81295800209045,"[[-0.053940886425712264, -0.09322118312392166]]",['DejaVu Sans'],[0.9],,,,N009,digits,1,"['6', '7', '8', '9']","['1', '2', '3', '4']",1,2023.2.3,harveydigits,2.1,[],8,0.75,
0,pause,0.4,None,None,None,0,185,185,185,,,,,,,,,,,,N009,digits,1,"['6', '7', '8', '9']","['1', '2', '3', '4']",1,2023.2.3,harveydigits,2.1,[],8,0.75,
7,digit,0.3,['dot'],['big_1'],black,0,186,186,186,,,67.50020599365234,67.21300315856934,67.51293110847473,"[[0.06684448519601913, -0.17041732227238934]]",['DejaVu Sans'],[0.9],,,,N009,digits,1,"['6', '7', '8', '9']","['1', '2', '3', '4']",1,2023.2.3,harveydigits,2.1,[],8,0.75,
0,pause,0.4,None,None,None,0,187,187,187,,,,,,,,,,,,N009,digits,1,"['6', '7', '8', '9']","['1', '2', '3', '4']",1,2023.2.3,harveydigits,2.1,[],8,0.75,
7,digit,0.3,['dot'],['big_1'],black,0,188,188,188,,,68.20022201538086,67.91299319267273,68.2129020690918,"[[0.1454381478485197, 0.11233778581969447]]",['DejaVu Sans'],[0.9],,,,N009,digits,1,"['6', '7', '8', '9']","['1', '2', '3', '4']",1,2023.2.3,harveydigits,2.1,[],8,0.75,
0,pause,0.4,None,None,None,0,189,189,189,,,,,,,,,,,,N009,digits,1,"['6', '7', '8', '9']","['1', '2', '3', '4']",1,2023.2.3,harveydigits,2.1,[],8,0.75,
7,digit,0.3,['dot'],['big_1'],black,0,190,190,190,,,68.90019702911377,68.61308217048645,68.91306710243225,"[[0.12714535799081114, -0.11884546118555257]]",['DejaVu Sans'],[0.9],,,,N009,digits,1,"['6', '7', '8', '9']","['1', '2', '3', '4']",1,2023.2.3,harveydigits,2.1,[],8,0.75,
0,pause,0.4,None,None,None,0,191,191,191,,,,,,,,,,,,N009,digits,1,"['6', '7', '8', '9']","['1', '2', '3', '4']",1,2023.2.3,harveydigits,2.1,[],8,0.75,
6,digit,0.3,['dot'],['big_1'],black,0,192,192,192,,,69.60019612312317,69.3128981590271,69.6128580570221,"[[0.024962511190336795, 0.015098682411343184]]",['DejaVu Sans'],[0.9],,,,N009,digits,1,"['6', '7', '8', '9']","['1', '2', '3', '4']",1,2023.2.3,harveydigits,2.1,[],8,0.75,
0,pause,0.4,None,None,None,0,193,193,193,,,,,,,,,,,,N009,digits,1,"['6', '7', '8', '9']","['1', '2', '3', '4']",1,2023.2.3,harveydigits,2.1,[],8,0.75,
6,digit,0.3,['dot'],['big_1'],black,0,194,194,194,,,70.300213098526,70.01289200782776,70.31284213066101,"[[0.15760217195416262, 0.060471551757319705]]",['DejaVu Sans'],[0.9],,,,N009,digits,1,"['6', '7', '8', '9']","['1', '2', '3', '4']",1,2023.2.3,harveydigits,2.1,[],8,0.75,
0,pause,0.4,None,None,None,0,195,195,195,,,,,,,,,,,,N009,digits,1,"['6', '7', '8', '9']","['1', '2', '3', '4']",1,2023.2.3,harveydigits,2.1,[],8,0.75,
6,digit,0.3,['dot'],['big_1'],black,0,196,196,196,,,71.00019812583923,70.7128701210022,71.01287698745728,"[[-0.17161883648235032, -0.01861613631174143]]",['DejaVu Sans'],[0.9],,,,N009,digits,1,"['6', '7', '8', '9']","['1', '2', '3', '4']",1,2023.2.3,harveydigits,2.1,[],8,0.75,
0,pause,0.4,None,None,None,0,197,197,197,,,,,,,,,,,,N009,digits,1,"['6', '7', '8', '9']","['1', '2', '3', '4']",1,2023.2.3,harveydigits,2.1,[],8,0.75,
6,digit,0.3,['dot'],['big_1'],black,0,198,198,198,,,71.70019698143005,71.41303300857544,71.71283197402954,"[[-0.1471709914685363, 0.04915134147320263]]",['DejaVu Sans'],[0.9],,,,N009,digits,1,"['6', '7', '8', '9']","['1', '2', '3', '4']",1,2023.2.3,harveydigits,2.1,[],8,0.75,
0,pause,0.4,None,None,None,0,199,199,199,,,,,,,,,,,,N009,digits,1,"['6', '7', '8', '9']","['1', '2', '3', '4']",1,2023.2.3,harveydigits,2.1,[],8,0.75,
6,digit,0.3,['dot'],['big_1'],black,0,200,200,200,,,72.40021800994873,72.1130690574646,72.41281604766846,"[[-0.1296008827489633, -0.03219116543994299]]",['DejaVu Sans'],[0.9],,,,N009,digits,1,"['6', '7', '8', '9']","['1', '2', '3', '4']",1,2023.2.3,harveydigits,2.1,[],8,0.75,
0,pause,0.4,None,None,None,0,201,201,201,,,,,,,,,,,,N009,digits,1,"['6', '7', '8', '9']","['1', '2', '3', '4']",1,2023.2.3,harveydigits,2.1,[],8,0.75,
6,digit,0.3,['dot'],['big_1'],black,0,202,202,202,,,73.10020303726196,72.81283903121948,73.11305212974548,"[[0.09577509104096313, -0.030592993098474075]]",['DejaVu Sans'],[0.9],,,,N009,digits,1,"['6', '7', '8', '9']","['1', '2', '3', '4']",1,2023.2.3,harveydigits,2.1,[],8,0.75,
0,pause,0.4,None,None,None,0,203,203,203,,,,,,,,,,,,N009,digits,1,"['6', '7', '8', '9']","['1', '2', '3', '4']",1,2023.2.3,harveydigits,2.1,[],8,0.75,
5,digit,0.3,['dot'],['big_1'],white,0,204,204,204,,,73.800213098526,73.51279997825623,73.81275796890259,"[[0.1265994197641683, 0.12146297826871388]]",['DejaVu Sans'],[0.9],,,,N009,digits,1,"['6', '7', '8', '9']","['1', '2', '3', '4']",1,2023.2.3,harveydigits,2.1,[],8,0.75,
0,pause,0.4,None,None,None,0,205,205,205,,,,,,,,,,,,N009,digits,1,"['6', '7', '8', '9']","['1', '2', '3', '4']",1,2023.2.3,harveydigits,2.1,[],8,0.75,
5,digit,0.3,['dot'],['big_1'],white,0,206,206,206,,,74.5002601146698,74.21276497840881,74.51277709007263,"[[0.1807237630369695, 0.049694887918925845]]",['DejaVu Sans'],[0.9],left,odd,74.27300500869751,N009,digits,1,"['6', '7', '8', '9']","['1', '2', '3', '4']",1,2023.2.3,harveydigits,2.1,[],8,0.75,
0,pause,0.4,None,None,None,0,207,207,207,,,,,,,,,,,,N009,digits,1,"['6', '7', '8', '9']","['1', '2', '3', '4']",1,2023.2.3,harveydigits,2.1,[],8,0.75,
5,digit,0.3,['dot'],['big_1'],white,0,208,208,208,,,75.20022010803223,74.91291999816895,75.21274995803833,"[[-0.1812689245586583, 0.021032881055433397]]",['DejaVu Sans'],[0.9],,,,N009,digits,1,"['6', '7', '8', '9']","['1', '2', '3', '4']",1,2023.2.3,harveydigits,2.1,[],8,0.75,
0,pause,0.4,None,None,None,0,209,209,209,,,,,,,,,,,,N009,digits,1,"['6', '7', '8', '9']","['1', '2', '3', '4']",1,2023.2.3,harveydigits,2.1,[],8,0.75,
5,digit,0.3,['dot'],['big_1'],white,0,210,210,210,,,75.90019798278809,75.61290907859802,75.91286897659302,"[[0.14315365502261565, -0.023703835258580802]]",['DejaVu Sans'],[0.9],,,,N009,digits,1,"['6', '7', '8', '9']","['1', '2', '3', '4']",1,2023.2.3,harveydigits,2.1,[],8,0.75,
0,pause,0.4,None,None,None,0,211,211,211,,,,,,,,,,,,N009,digits,1,"['6', '7', '8', '9']","['1', '2', '3', '4']",1,2023.2.3,harveydigits,2.1,[],8,0.75,
5,digit,0.3,['dot'],['big_1'],white,0,212,212,212,,,76.60020017623901,76.31290817260742,76.612713098526,"[[0.190515157915251, 0.03363560650273075]]",['DejaVu Sans'],[0.9],,,,N009,digits,1,"['6', '7', '8', '9']","['1', '2', '3', '4']",1,2023.2.3,harveydigits,2.1,[],8,0.75,
0,pause,0.4,None,None,None,0,213,213,213,,,,,,,,,,,,N009,digits,1,"['6', '7', '8', '9']","['1', '2', '3', '4']",1,2023.2.3,harveydigits,2.1,[],8,0.75,
5,digit,0.3,['dot'],['big_1'],white,0,214,214,214,,,77.30022311210632,77.01270008087158,77.31288003921509,"[[-0.1508584509090197, -0.03150628134244468]]",['DejaVu Sans'],[0.9],,,,N009,digits,1,"['6', '7', '8', '9']","['1', '2', '3', '4']",1,2023.2.3,harveydigits,2.1,[],8,0.75,
0,pause,0.4,None,None,None,0,215,215,215,,,,,,,,,,,,N009,digits,1,"['6', '7', '8', '9']","['1', '2', '3', '4']",1,2023.2.3,harveydigits,2.1,[],8,0.75,
4,digit,0.3,['dot'],['big_1'],black,0,216,216,216,,,78.00022101402283,77.712886095047,78.01287412643433,"[[0.06694719923818424, 0.10203776380188573]]",['DejaVu Sans'],[0.9],,,,N009,digits,1,"['6', '7', '8', '9']","['1', '2', '3', '4']",1,2023.2.3,harveydigits,2.1,[],8,0.75,
0,pause,0.4,None,None,None,0,217,217,217,,,,,,,,,,,,N009,digits,1,"['6', '7', '8', '9']","['1', '2', '3', '4']",1,2023.2.3,harveydigits,2.1,[],8,0.75,
4,digit,0.3,['dot'],['big_1'],black,0,218,218,218,,,78.70021796226501,78.41266298294067,78.71266007423401,"[[0.13968125377763277, -0.08830792579466187]]",['DejaVu Sans'],[0.9],,,,N009,digits,1,"['6', '7', '8', '9']","['1', '2', '3', '4']",1,2023.2.3,harveydigits,2.1,[],8,0.75,
0,pause,0.4,None,None,None,0,219,219,219,,,,,,,,,,,,N009,digits,1,"['6', '7', '8', '9']","['1', '2', '3', '4']",1,2023.2.3,harveydigits,2.1,[],8,0.75,
4,digit,0.3,['dot'],['big_1'],black,0,220,220,220,,,79.40022015571594,79.11266613006592,79.41263914108276,"[[-0.12749031797936392, 0.08480884304135572]]",['DejaVu Sans'],[0.9],,,,N009,digits,1,"['6', '7', '8', '9']","['1', '2', '3', '4']",1,2023.2.3,harveydigits,2.1,[],8,0.75,
0,pause,0.4,None,None,None,0,221,221,221,,,,,,,,,,,,N009,digits,1,"['6', '7', '8', '9']","['1', '2', '3', '4']",1,2023.2.3,harveydigits,2.1,[],8,0.75,
4,digit,0.3,['dot'],['big_1'],black,0,222,222,222,,,80.10022306442261,79.81263518333435,80.11274814605713,"[[0.17886326074692468, -0.06442880039428014]]",['DejaVu Sans'],[0.9],,,,N009,digits,1,"['6', '7', '8', '9']","['1', '2', '3', '4']",1,2023.2.3,harveydigits,2.1,[],8,0.75,
0,pause,0.4,None,None,None,0,223,223,223,,,,,,,,,,,,N009,digits,1,"['6', '7', '8', '9']","['1', '2', '3', '4']",1,2023.2.3,harveydigits,2.1,[],8,0.75,
4,digit,0.3,['dot'],['big_1'],black,0,224,224,224,,,80.80021810531616,80.51260995864868,80.81274199485779,"[[-0.06891628205749548, -0.16631771822114072]]",['DejaVu Sans'],[0.9],,,,N009,digits,1,"['6', '7', '8', '9']","['1', '2', '3', '4']",1,2023.2.3,harveydigits,2.1,[],8,0.75,
0,pause,0.4,None,None,None,0,225,225,225,,,,,,,,,,,,N009,digits,1,"['6', '7', '8', '9']","['1', '2', '3', '4']",1,2023.2.3,harveydigits,2.1,[],8,0.75,
4,digit,0.3,['dot'],['big_1'],black,0,226,226,226,,,81.50020599365234,81.21259307861328,81.51257300376892,"[[0.14344220088987267, -0.10804584495430947]]",['DejaVu Sans'],[0.9],,,,N009,digits,1,"['6', '7', '8', '9']","['1', '2', '3', '4']",1,2023.2.3,harveydigits,2.1,[],8,0.75,
0,pause,0.4,None,None,None,0,227,227,227,,,,,,,,,,,,N009,digits,1,"['6', '7', '8', '9']","['1', '2', '3', '4']",1,2023.2.3,harveydigits,2.1,[],8,0.75,
3,digit,0.3,['dot'],['big_1'],white,0,228,228,228,,,82.20021605491638,81.91258311271667,82.21270513534546,"[[0.18181486226819518, 0.04896866349531223]]",['DejaVu Sans'],[0.9],,,,N009,digits,1,"['6', '7', '8', '9']","['1', '2', '3', '4']",1,2023.2.3,harveydigits,2.1,[],8,0.75,
0,pause,0.4,None,None,None,0,229,229,229,,,,,,,,,,,,N009,digits,1,"['6', '7', '8', '9']","['1', '2', '3', '4']",1,2023.2.3,harveydigits,2.1,[],8,0.75,
3,digit,0.3,['dot'],['big_1'],white,0,230,230,230,,,82.9002411365509,82.61256313323975,82.91253900527954,"[[-0.06926357866356894, 0.1393156151638217]]",['DejaVu Sans'],[0.9],left,odd,82.39927196502686,N009,digits,1,"['6', '7', '8', '9']","['1', '2', '3', '4']",1,2023.2.3,harveydigits,2.1,[],8,0.75,
0,pause,0.4,None,None,None,0,231,231,231,,,,,,,,,,,,N009,digits,1,"['6', '7', '8', '9']","['1', '2', '3', '4']",1,2023.2.3,harveydigits,2.1,[],8,0.75,
3,digit,0.3,['dot'],['big_1'],white,0,232,232,232,,,83.60021495819092,83.31255006790161,83.61264705657959,"[[0.18722678396993223, 0.05960173077580165]]",['DejaVu Sans'],[0.9],,,,N009,digits,1,"['6', '7', '8', '9']","['1', '2', '3', '4']",1,2023.2.3,harveydigits,2.1,[],8,0.75,
0,pause,0.4,None,None,None,0,233,233,233,,,,,,,,,,,,N009,digits,1,"['6', '7', '8', '9']","['1', '2', '3', '4']",1,2023.2.3,harveydigits,2.1,[],8,0.75,
3,digit,0.3,['dot'],['big_1'],white,0,234,234,234,,,84.30020809173584,84.01252818107605,84.31250214576721,"[[-0.0898197834687532, -0.027979318680066118]]",['DejaVu Sans'],[0.9],,,,N009,digits,1,"['6', '7', '8', '9']","['1', '2', '3', '4']",1,2023.2.3,harveydigits,2.1,[],8,0.75,
0,pause,0.4,None,None,None,0,235,235,235,,,,,,,,,,,,N009,digits,1,"['6', '7', '8', '9']","['1', '2', '3', '4']",1,2023.2.3,harveydigits,2.1,[],8,0.75,
3,digit,0.3,['dot'],['big_1'],white,0,236,236,236,,,85.00021696090698,84.71254515647888,85.0126211643219,"[[0.1074957584690718, 0.13708772467834007]]",['DejaVu Sans'],[0.9],,,,N009,digits,1,"['6', '7', '8', '9']","['1', '2', '3', '4']",1,2023.2.3,harveydigits,2.1,[],8,0.75,
0,pause,0.4,None,None,None,0,237,237,237,,,,,,,,,,,,N009,digits,1,"['6', '7', '8', '9']","['1', '2', '3', '4']",1,2023.2.3,harveydigits,2.1,[],8,0.75,
3,digit,0.3,['dot'],['big_1'],white,0,238,238,238,,,85.70022010803223,85.41262912750244,85.71260905265808,"[[-0.19464533226944594, 0.014894309750740603]]",['DejaVu Sans'],[0.9],,,,N009,digits,1,"['6', '7', '8', '9']","['1', '2', '3', '4']",1,2023.2.3,harveydigits,2.1,[],8,0.75,
0,pause,0.4,None,None,None,0,239,239,239,,,,,,,,,,,,N009,digits,1,"['6', '7', '8', '9']","['1', '2', '3', '4']",1,2023.2.3,harveydigits,2.1,[],8,0.75,
2,digit,0.3,['dot'],['big_1'],black,0,240,240,240,,,86.40019798278809,86.11263918876648,86.41262698173523,"[[-0.06537478640362199, 0.1680192784040385]]",['DejaVu Sans'],[0.9],,,,N009,digits,1,"['6', '7', '8', '9']","['1', '2', '3', '4']",1,2023.2.3,harveydigits,2.1,[],8,0.75,
0,pause,0.4,None,None,None,0,241,241,241,,,,,,,,,,,,N009,digits,1,"['6', '7', '8', '9']","['1', '2', '3', '4']",1,2023.2.3,harveydigits,2.1,[],8,0.75,
2,digit,0.3,['dot'],['big_1'],black,0,242,242,242,,,87.10020518302917,86.81241798400879,87.11246013641357,"[[0.158804958168444, 0.009376571853034796]]",['DejaVu Sans'],[0.9],,,,N009,digits,1,"['6', '7', '8', '9']","['1', '2', '3', '4']",1,2023.2.3,harveydigits,2.1,[],8,0.75,
0,pause,0.4,None,None,None,0,243,243,243,,,,,,,,,,,,N009,digits,1,"['6', '7', '8', '9']","['1', '2', '3', '4']",1,2023.2.3,harveydigits,2.1,[],8,0.75,
2,digit,0.3,['dot'],['big_1'],black,0,244,244,244,,,87.80022096633911,87.51247096061707,87.81244611740112,"[[0.11381933775475103, 0.1566340166018462]]",['DejaVu Sans'],[0.9],,,,N009,digits,1,"['6', '7', '8', '9']","['1', '2', '3', '4']",1,2023.2.3,harveydigits,2.1,[],8,0.75,
0,pause,0.4,None,None,None,0,245,245,245,,,,,,,,,,,,N009,digits,1,"['6', '7', '8', '9']","['1', '2', '3', '4']",1,2023.2.3,harveydigits,2.1,[],8,0.75,
2,digit,0.3,['dot'],['big_1'],black,0,246,246,246,,,88.5002031326294,88.21244406700134,88.51242017745972,"[[-0.035022832558386424, -0.045545803990449385]]",['DejaVu Sans'],[0.9],,,,N009,digits,1,"['6', '7', '8', '9']","['1', '2', '3', '4']",1,2023.2.3,harveydigits,2.1,[],8,0.75,
0,pause,0.4,None,None,None,0,247,247,247,,,,,,,,,,,,N009,digits,1,"['6', '7', '8', '9']","['1', '2', '3', '4']",1,2023.2.3,harveydigits,2.1,[],8,0.75,
2,digit,0.3,['dot'],['big_1'],black,0,248,248,248,,,89.20022511482239,88.91243100166321,89.21240901947021,"[[0.05816233400220919, -0.09078579114836571]]",['DejaVu Sans'],[0.9],,,,N009,digits,1,"['6', '7', '8', '9']","['1', '2', '3', '4']",1,2023.2.3,harveydigits,2.1,[],8,0.75,
0,pause,0.4,None,None,None,0,249,249,249,,,,,,,,,,,,N009,digits,1,"['6', '7', '8', '9']","['1', '2', '3', '4']",1,2023.2.3,harveydigits,2.1,[],8,0.75,
2,digit,0.3,['dot'],['big_1'],black,0,250,250,250,,,89.90020704269409,89.61239814758301,89.91235613822937,"[[0.06077733069447763, -0.15686231341161713]]",['DejaVu Sans'],[0.9],,,,N009,digits,1,"['6', '7', '8', '9']","['1', '2', '3', '4']",1,2023.2.3,harveydigits,2.1,[],8,0.75,
0,pause,0.4,None,None,None,0,251,251,251,,,,,,,,,,,,N009,digits,1,"['6', '7', '8', '9']","['1', '2', '3', '4']",1,2023.2.3,harveydigits,2.1,[],8,0.75,
1,digit,0.3,['dot'],['big_1'],black,0,252,252,252,,,90.60021615028381,90.31236410140991,90.61233615875244,"[[-0.14229523901108107, 0.10014592946186812]]",['DejaVu Sans'],[0.9],,,,N009,digits,1,"['6', '7', '8', '9']","['1', '2', '3', '4']",1,2023.2.3,harveydigits,2.1,[],8,0.75,
0,pause,0.4,None,None,None,0,253,253,253,,,,,,,,,,,,N009,digits,1,"['6', '7', '8', '9']","['1', '2', '3', '4']",1,2023.2.3,harveydigits,2.1,[],8,0.75,
1,digit,0.3,['dot'],['big_1'],black,0,254,254,254,,,91.30020999908447,91.01235508918762,91.31232404708862,"[[0.1624544104288985, 0.05203959424613397]]",['DejaVu Sans'],[0.9],,,,N009,digits,1,"['6', '7', '8', '9']","['1', '2', '3', '4']",1,2023.2.3,harveydigits,2.1,[],8,0.75,
0,pause,0.4,None,None,None,0,255,255,255,,,,,,,,,,,,N009,digits,1,"['6', '7', '8', '9']","['1', '2', '3', '4']",1,2023.2.3,harveydigits,2.1,[],8,0.75,
1,digit,0.3,['dot'],['big_1'],black,0,256,256,256,,,92.00019907951355,91.7123441696167,92.0123131275177,"[[-0.1965190339469029, 0.016866504704671395]]",['DejaVu Sans'],[0.9],,,,N009,digits,1,"['6', '7', '8', '9']","['1', '2', '3', '4']",1,2023.2.3,harveydigits,2.1,[],8,0.75,
0,pause,0.4,None,None,None,0,257,257,257,,,,,,,,,,,,N009,digits,1,"['6', '7', '8', '9']","['1', '2', '3', '4']",1,2023.2.3,harveydigits,2.1,[],8,0.75,
1,digit,0.3,['dot'],['big_1'],black,0,258,258,258,,,92.70022106170654,92.41230702400208,92.71228814125061,"[[-0.010765514055962683, 0.17452646332725263]]",['DejaVu Sans'],[0.9],,,,N009,digits,1,"['6', '7', '8', '9']","['1', '2', '3', '4']",1,2023.2.3,harveydigits,2.1,[],8,0.75,
0,pause,0.4,None,None,None,0,259,259,259,,,,,,,,,,,,N009,digits,1,"['6', '7', '8', '9']","['1', '2', '3', '4']",1,2023.2.3,harveydigits,2.1,[],8,0.75,
1,digit,0.3,['dot'],['big_1'],black,0,260,260,260,,,93.40021514892578,93.11229205131531,93.41226816177368,"[[0.18410519547024198, -0.008250647385925208]]",['DejaVu Sans'],[0.9],,,,N009,digits,1,"['6', '7', '8', '9']","['1', '2', '3', '4']",1,2023.2.3,harveydigits,2.1,[],8,0.75,
0,pause,0.4,None,None,None,0,261,261,261,,,,,,,,,,,,N009,digits,1,"['6', '7', '8', '9']","['1', '2', '3', '4']",1,2023.2.3,harveydigits,2.1,[],8,0.75,
1,digit,0.3,['dot'],['big_1'],black,0,262,262,262,,,94.10021018981934,93.81227707862854,94.11225008964539,"[[0.15764342415505736, 0.05942668201768665]]",['DejaVu Sans'],[0.9],,,,N009,digits,1,"['6', '7', '8', '9']","['1', '2', '3', '4']",1,2023.2.3,harveydigits,2.1,[],8,0.75,
0,pause,0.4,None,None,None,0,263,263,263,,,,,,,,,,,,N009,digits,1,"['6', '7', '8', '9']","['1', '2', '3', '4']",1,2023.2.3,harveydigits,2.1,[],8,0.75,
20,digit,0.3,['dot'],['big_1'],black,0,264,264,264,,,94.80023312568665,94.51226210594177,94.81224417686462,"[[-0.1133975647221641, -0.038205888454660386]]",['DejaVu Sans'],[0.9],,,,N009,digits,1,"['6', '7', '8', '9']","['1', '2', '3', '4']",1,2023.2.3,harveydigits,2.1,[],8,0.75,
0,pause,0.4,None,None,None,0,265,265,265,,,,,,,,,,,,N009,digits,1,"['6', '7', '8', '9']","['1', '2', '3', '4']",1,2023.2.3,harveydigits,2.1,[],8,0.75,
20,digit,0.3,['dot'],['big_1'],black,0,266,266,266,,,95.50020003318787,95.21225810050964,95.51222801208496,"[[0.04211894833131091, 0.06713422616225243]]",['DejaVu Sans'],[0.9],,,,N009,digits,1,"['6', '7', '8', '9']","['1', '2', '3', '4']",1,2023.2.3,harveydigits,2.1,[],8,0.75,
0,pause,0.4,None,None,None,0,267,267,267,,,,,,,,,,,,N009,digits,1,"['6', '7', '8', '9']","['1', '2', '3', '4']",1,2023.2.3,harveydigits,2.1,[],8,0.75,
20,digit,0.3,['dot'],['big_1'],black,0,268,268,268,,,96.20020914077759,95.91224002838135,96.21220707893372,"[[0.004411058991810851, 0.0747586693890154]]",['DejaVu Sans'],[0.9],,,,N009,digits,1,"['6', '7', '8', '9']","['1', '2', '3', '4']",1,2023.2.3,harveydigits,2.1,[],8,0.75,
0,pause,0.4,None,None,None,0,269,269,269,,,,,,,,,,,,N009,digits,1,"['6', '7', '8', '9']","['1', '2', '3', '4']",1,2023.2.3,harveydigits,2.1,[],8,0.75,
20,digit,0.3,['dot'],['big_1'],black,0,270,270,270,,,96.90021204948425,96.61226010322571,96.91222715377808,"[[0.07540073910943298, -0.14436797157656261]]",['DejaVu Sans'],[0.9],,,,N009,digits,1,"['6', '7', '8', '9']","['1', '2', '3', '4']",1,2023.2.3,harveydigits,2.1,[],8,0.75,
0,pause,0.4,None,None,None,0,271,271,271,,,,,,,,,,,,N009,digits,1,"['6', '7', '8', '9']","['1', '2', '3', '4']",1,2023.2.3,harveydigits,2.1,[],8,0.75,
20,digit,0.3,['dot'],['big_1'],black,0,272,272,272,,,97.60020709037781,97.31222796440125,97.61220002174377,"[[0.01868014726127737, 0.19120370082162205]]",['DejaVu Sans'],[0.9],,,,N009,digits,1,"['6', '7', '8', '9']","['1', '2', '3', '4']",1,2023.2.3,harveydigits,2.1,[],8,0.75,
0,pause,0.4,None,None,None,0,273,273,273,,,,,,,,,,,,N009,digits,1,"['6', '7', '8', '9']","['1', '2', '3', '4']",1,2023.2.3,harveydigits,2.1,[],8,0.75,
20,digit,0.3,['dot'],['big_1'],black,0,274,274,274,,,98.30020904541016,98.01219606399536,98.3121771812439,"[[-0.15412868782395733, 0.027147424358806932]]",['DejaVu Sans'],[0.9],,,,N009,digits,1,"['6', '7', '8', '9']","['1', '2', '3', '4']",1,2023.2.3,harveydigits,2.1,[],8,0.75,
0,pause,0.4,None,None,None,0,275,275,275,,,,,,,,,,,,N009,digits,1,"['6', '7', '8', '9']","['1', '2', '3', '4']",1,2023.2.3,harveydigits,2.1,[],8,0.75,
20,digit,0.3,['dot'],['big_1'],black,0,276,276,276,,,99.00022196769714,98.71217203140259,99.01214718818665,"[[-0.052401585711790766, 0.08712995130671719]]",['DejaVu Sans'],[0.9],,,,N009,digits,1,"['6', '7', '8', '9']","['1', '2', '3', '4']",1,2023.2.3,harveydigits,2.1,[],8,0.75,
0,pause,0.4,None,None,None,0,277,277,277,,,,,,,,,,,,N009,digits,1,"['6', '7', '8', '9']","['1', '2', '3', '4']",1,2023.2.3,harveydigits,2.1,[],8,0.75,
20,digit,0.3,['dot'],['big_1'],black,0,278,278,278,,,99.7002329826355,99.41216707229614,99.71213412284851,"[[0.0981804801024033, -0.07335081442570276]]",['DejaVu Sans'],[0.9],,,,N009,digits,1,"['6', '7', '8', '9']","['1', '2', '3', '4']",1,2023.2.3,harveydigits,2.1,[],8,0.75,
0,pause,0.4,None,None,None,0,279,279,279,,,,,,,,,,,,N009,digits,1,"['6', '7', '8', '9']","['1', '2', '3', '4']",1,2023.2.3,harveydigits,2.1,[],8,0.75,
20,digit,0.3,['dot'],['big_1'],black,0,280,280,280,,,100.40022897720337,100.11213397979736,100.41212797164917,"[[-0.03367065076421358, 0.0730583129191403]]",['DejaVu Sans'],[0.9],,,,N009,digits,1,"['6', '7', '8', '9']","['1', '2', '3', '4']",1,2023.2.3,harveydigits,2.1,[],8,0.75,
0,pause,0.4,None,None,None,0,281,281,281,,,,,,,,,,,,N009,digits,1,"['6', '7', '8', '9']","['1', '2', '3', '4']",1,2023.2.3,harveydigits,2.1,[],8,0.75,
20,digit,0.3,['dot'],['big_1'],black,0,282,282,282,,,101.10022616386414,100.81212115287781,101.11209797859192,"[[0.09652989059709613, 0.0170462768515304]]",['DejaVu Sans'],[0.9],,,,N009,digits,1,"['6', '7', '8', '9']","['1', '2', '3', '4']",1,2023.2.3,harveydigits,2.1,[],8,0.75,
0,pause,0.4,None,None,None,0,283,283,283,,,,,,,,,,,,N009,digits,1,"['6', '7', '8', '9']","['1', '2', '3', '4']",1,2023.2.3,harveydigits,2.1,[],8,0.75,
20,digit,0.3,['dot'],['big_1'],black,0,284,284,284,,,101.80021405220032,101.51211595535278,101.81207704544067,"[[-0.19031074849338678, 0.007616966539365291]]",['DejaVu Sans'],[0.9],,,,N009,digits,1,"['6', '7', '8', '9']","['1', '2', '3', '4']",1,2023.2.3,harveydigits,2.1,[],8,0.75,
0,pause,0.4,None,None,None,0,285,285,285,,,,,,,,,,,,N009,digits,1,"['6', '7', '8', '9']","['1', '2', '3', '4']",1,2023.2.3,harveydigits,2.1,[],8,0.75,
20,digit,0.3,['dot'],['big_1'],black,0,286,286,286,,,102.50020408630371,102.21208596229553,102.51207113265991,"[[0.05793421165251564, 0.001635058507454934]]",['DejaVu Sans'],[0.9],,,,N009,digits,1,"['6', '7', '8', '9']","['1', '2', '3', '4']",1,2023.2.3,harveydigits,2.1,[],8,0.75,
0,pause,0.4,None,None,None,0,287,287,287,,,,,,,,,,,,N009,digits,1,"['6', '7', '8', '9']","['1', '2', '3', '4']",1,2023.2.3,harveydigits,2.1,[],8,0.75,
20,digit,0.3,['dot'],['big_1'],black,0,288,288,288,,,103.20022296905518,102.9120659828186,103.21201014518738,"[[-0.02817896352860419, 0.0316210543106174]]",['DejaVu Sans'],[0.9],,,,N009,digits,1,"['6', '7', '8', '9']","['1', '2', '3', '4']",1,2023.2.3,harveydigits,2.1,[],8,0.75,
0,pause,0.4,None,None,None,0,289,289,289,,,,,,,,,,,,N009,digits,1,"['6', '7', '8', '9']","['1', '2', '3', '4']",1,2023.2.3,harveydigits,2.1,[],8,0.75,
20,digit,0.3,['dot'],['big_1'],black,0,290,290,290,,,103.9002091884613,103.61202716827393,103.9120090007782,"[[0.15134633605001194, 0.0795758728613074]]",['DejaVu Sans'],[0.9],,,,N009,digits,1,"['6', '7', '8', '9']","['1', '2', '3', '4']",1,2023.2.3,harveydigits,2.1,[],8,0.75,
0,pause,0.4,None,None,None,0,291,291,291,,,,,,,,,,,,N009,digits,1,"['6', '7', '8', '9']","['1', '2', '3', '4']",1,2023.2.3,harveydigits,2.1,[],8,0.75,
20,digit,0.3,['dot'],['big_1'],black,0,292,292,292,,,104.6002311706543,104.31199812889099,104.61197113990784,"[[-0.054087454841350385, 0.013718525940668275]]",['DejaVu Sans'],[0.9],,,,N009,digits,1,"['6', '7', '8', '9']","['1', '2', '3', '4']",1,2023.2.3,harveydigits,2.1,[],8,0.75,
0,pause,0.4,None,None,None,0,293,293,293,,,,,,,,,,,,N009,digits,1,"['6', '7', '8', '9']","['1', '2', '3', '4']",1,2023.2.3,harveydigits,2.1,[],8,0.75,
20,digit,0.3,['dot'],['big_1'],black,0,294,294,294,,,105.30020713806152,105.01196599006653,105.31213712692261,"[[-0.05973358796645942, -0.08403781458108182]]",['DejaVu Sans'],[0.9],,,,N009,digits,1,"['6', '7', '8', '9']","['1', '2', '3', '4']",1,2023.2.3,harveydigits,2.1,[],8,0.75,
0,pause,0.4,None,None,None,0,295,295,295,,,,,,,,,,,,N009,digits,1,"['6', '7', '8', '9']","['1', '2', '3', '4']",1,2023.2.3,harveydigits,2.1,[],8,0.75,
20,digit,0.3,['dot'],['big_1'],black,0,296,296,296,,,106.00022006034851,105.71195816993713,106.0121431350708,"[[-0.10208501746883485, -0.022663509601602627]]",['DejaVu Sans'],[0.9],,,,N009,digits,1,"['6', '7', '8', '9']","['1', '2', '3', '4']",1,2023.2.3,harveydigits,2.1,[],8,0.75,
0,pause,0.4,None,None,None,0,297,297,297,,,,,,,,,,,,N009,digits,1,"['6', '7', '8', '9']","['1', '2', '3', '4']",1,2023.2.3,harveydigits,2.1,[],8,0.75,
20,digit,0.3,['dot'],['big_1'],black,0,298,298,298,,,106.70023202896118,106.41193008422852,106.71191716194153,"[[-0.12757494173384396, -0.06627625358901909]]",['DejaVu Sans'],[0.9],,,,N009,digits,1,"['6', '7', '8', '9']","['1', '2', '3', '4']",1,2023.2.3,harveydigits,2.1,[],8,0.75,
0,pause,0.4,None,None,None,0,299,299,299,,,,,,,,,,,,N009,digits,1,"['6', '7', '8', '9']","['1', '2', '3', '4']",1,2023.2.3,harveydigits,2.1,[],8,0.75,
20,digit,0.3,['dot'],['big_1'],white,0,300,300,300,,,107.40022301673889,107.11193108558655,107.41189813613892,"[[0.0282046754996422, -0.014952808398052075]]",['DejaVu Sans'],[0.9],,,,N009,digits,1,"['6', '7', '8', '9']","['1', '2', '3', '4']",1,2023.2.3,harveydigits,2.1,[],8,0.75,
0,pause,0.4,None,None,None,0,301,301,301,,,,,,,,,,,,N009,digits,1,"['6', '7', '8', '9']","['1', '2', '3', '4']",1,2023.2.3,harveydigits,2.1,[],8,0.75,
20,digit,0.3,['dot'],['big_1'],white,0,302,302,302,,,108.1002311706543,107.81191802024841,108.11187505722046,"[[0.19857130211223442, -0.013207053782142705]]",['DejaVu Sans'],[0.9],,,,N009,digits,1,"['6', '7', '8', '9']","['1', '2', '3', '4']",1,2023.2.3,harveydigits,2.1,[],8,0.75,
0,pause,0.4,None,None,None,0,303,303,303,,,,,,,,,,,,N009,digits,1,"['6', '7', '8', '9']","['1', '2', '3', '4']",1,2023.2.3,harveydigits,2.1,[],8,0.75,
20,digit,0.3,['dot'],['big_1'],white,0,304,304,304,,,108.80023002624512,108.51187801361084,108.81184601783752,"[[0.03968536724016883, -0.11229784645098058]]",['DejaVu Sans'],[0.9],,,,N009,digits,1,"['6', '7', '8', '9']","['1', '2', '3', '4']",1,2023.2.3,harveydigits,2.1,[],8,0.75,
0,pause,0.4,None,None,None,0,305,305,305,,,,,,,,,,,,N009,digits,1,"['6', '7', '8', '9']","['1', '2', '3', '4']",1,2023.2.3,harveydigits,2.1,[],8,0.75,
20,digit,0.3,['dot'],['big_1'],white,0,306,306,306,,,109.50021505355835,109.21185803413391,109.51185917854309,"[[-0.0900076194936361, -0.1778046329640168]]",['DejaVu Sans'],[0.9],,,,N009,digits,1,"['6', '7', '8', '9']","['1', '2', '3', '4']",1,2023.2.3,harveydigits,2.1,[],8,0.75,
0,pause,0.4,None,None,None,0,307,307,307,,,,,,,,,,,,N009,digits,1,"['6', '7', '8', '9']","['1', '2', '3', '4']",1,2023.2.3,harveydigits,2.1,[],8,0.75,
20,digit,0.3,['dot'],['big_1'],white,0,308,308,308,,,110.20022511482239,109.91185998916626,110.21197605133057,"[[-0.10330692145421407, -0.04715984270313334]]",['DejaVu Sans'],[0.9],,,,N009,digits,1,"['6', '7', '8', '9']","['1', '2', '3', '4']",1,2023.2.3,harveydigits,2.1,[],8,0.75,
0,pause,0.4,None,None,None,0,309,309,309,,,,,,,,,,,,N009,digits,1,"['6', '7', '8', '9']","['1', '2', '3', '4']",1,2023.2.3,harveydigits,2.1,[],8,0.75,
20,digit,0.3,['dot'],['big_1'],white,0,310,310,310,,,110.9002251625061,110.61183905601501,110.91182518005371,"[[-0.11333373346364793, 0.07587533971964744]]",['DejaVu Sans'],[0.9],,,,N009,digits,1,"['6', '7', '8', '9']","['1', '2', '3', '4']",1,2023.2.3,harveydigits,2.1,[],8,0.75,
0,pause,0.4,None,None,None,0,311,311,311,,,,,,,,,,,,N009,digits,1,"['6', '7', '8', '9']","['1', '2', '3', '4']",1,2023.2.3,harveydigits,2.1,[],8,0.75,
1,digit,0.3,['dot'],['small_1'],black,0,312,312,312,,,111.6002311706543,111.31182312965393,111.61192512512207,"[[0.05320827916225007, 0.2227248188459055]]",['DejaVu Sans'],[0.6],,,,N009,digits,1,"['6', '7', '8', '9']","['1', '2', '3', '4']",1,2023.2.3,harveydigits,2.1,[],8,0.75,
0,pause,0.4,None,None,None,0,313,313,313,,,,,,,,,,,,N009,digits,1,"['6', '7', '8', '9']","['1', '2', '3', '4']",1,2023.2.3,harveydigits,2.1,[],8,0.75,
1,digit,0.3,['dot'],['small_1'],black,0,314,314,314,,,112.30020999908447,112.0118019580841,112.31191205978394,"[[0.12811832804589207, 0.019231163821579356]]",['DejaVu Sans'],[0.6],,,,N009,digits,1,"['6', '7', '8', '9']","['1', '2', '3', '4']",1,2023.2.3,harveydigits,2.1,[],8,0.75,
0,pause,0.4,None,None,None,0,315,315,315,,,,,,,,,,,,N009,digits,1,"['6', '7', '8', '9']","['1', '2', '3', '4']",1,2023.2.3,harveydigits,2.1,[],8,0.75,
1,digit,0.3,['dot'],['small_1'],black,0,316,316,316,,,113.00021696090698,112.71178913116455,113.01189613342285,"[[0.34649538268855373, 0.006934576801061354]]",['DejaVu Sans'],[0.6],,,,N009,digits,1,"['6', '7', '8', '9']","['1', '2', '3', '4']",1,2023.2.3,harveydigits,2.1,[],8,0.75,
0,pause,0.4,None,None,None,0,317,317,317,,,,,,,,,,,,N009,digits,1,"['6', '7', '8', '9']","['1', '2', '3', '4']",1,2023.2.3,harveydigits,2.1,[],8,0.75,
1,digit,0.3,['dot'],['small_1'],black,0,318,318,318,,,113.70023608207703,113.41176319122314,113.71174502372742,"[[0.03807382929928821, 0.022687925425142197]]",['DejaVu Sans'],[0.6],,,,N009,digits,1,"['6', '7', '8', '9']","['1', '2', '3', '4']",1,2023.2.3,harveydigits,2.1,[],8,0.75,
0,pause,0.4,None,None,None,0,319,319,319,,,,,,,,,,,,N009,digits,1,"['6', '7', '8', '9']","['1', '2', '3', '4']",1,2023.2.3,harveydigits,2.1,[],8,0.75,
1,digit,0.3,['dot'],['small_1'],black,0,320,320,320,,,114.40022397041321,114.11175298690796,114.41185307502747,"[[0.3081024170587989, -0.1600464903277761]]",['DejaVu Sans'],[0.6],,,,N009,digits,1,"['6', '7', '8', '9']","['1', '2', '3', '4']",1,2023.2.3,harveydigits,2.1,[],8,0.75,
0,pause,0.4,None,None,None,0,321,321,321,,,,,,,,,,,,N009,digits,1,"['6', '7', '8', '9']","['1', '2', '3', '4']",1,2023.2.3,harveydigits,2.1,[],8,0.75,
1,digit,0.3,['dot'],['small_1'],black,0,322,322,322,,,115.10022401809692,114.81188011169434,115.11185216903687,"[[0.09530387943032337, 0.09330236762759431]]",['DejaVu Sans'],[0.6],,,,N009,digits,1,"['6', '7', '8', '9']","['1', '2', '3', '4']",1,2023.2.3,harveydigits,2.1,[],8,0.75,
0,pause,0.4,None,None,None,0,323,323,323,,,,,,,,,,,,N009,digits,1,"['6', '7', '8', '9']","['1', '2', '3', '4']",1,2023.2.3,harveydigits,2.1,[],8,0.75,
2,digit,0.3,['dot'],['small_1'],black,0,324,324,324,,,115.80021595954895,115.51174306869507,115.81181502342224,"[[-0.08162831994969616, 0.011873577013545522]]",['DejaVu Sans'],[0.6],,,,N009,digits,1,"['6', '7', '8', '9']","['1', '2', '3', '4']",1,2023.2.3,harveydigits,2.1,[],8,0.75,
0,pause,0.4,None,None,None,0,325,325,325,,,,,,,,,,,,N009,digits,1,"['6', '7', '8', '9']","['1', '2', '3', '4']",1,2023.2.3,harveydigits,2.1,[],8,0.75,
2,digit,0.3,['dot'],['small_1'],black,0,326,326,326,,,116.50021600723267,116.21168613433838,116.51166105270386,"[[-0.27826942848342084, -0.045982009071985686]]",['DejaVu Sans'],[0.6],,,,N009,digits,1,"['6', '7', '8', '9']","['1', '2', '3', '4']",1,2023.2.3,harveydigits,2.1,[],8,0.75,
0,pause,0.4,None,None,None,0,327,327,327,,,,,,,,,,,,N009,digits,1,"['6', '7', '8', '9']","['1', '2', '3', '4']",1,2023.2.3,harveydigits,2.1,[],8,0.75,
2,digit,0.3,['dot'],['small_1'],black,0,328,328,328,,,117.20021295547485,116.91165709495544,117.21164417266846,"[[-0.3129755103184835, -0.11061387078160434]]",['DejaVu Sans'],[0.6],,,,N009,digits,1,"['6', '7', '8', '9']","['1', '2', '3', '4']",1,2023.2.3,harveydigits,2.1,[],8,0.75,
0,pause,0.4,None,None,None,0,329,329,329,,,,,,,,,,,,N009,digits,1,"['6', '7', '8', '9']","['1', '2', '3', '4']",1,2023.2.3,harveydigits,2.1,[],8,0.75,
2,digit,0.3,['dot'],['small_1'],black,0,330,330,330,,,117.90021705627441,117.61163806915283,117.91177606582642,"[[-0.23829119831363138, 0.2000453746144833]]",['DejaVu Sans'],[0.6],,,,N009,digits,1,"['6', '7', '8', '9']","['1', '2', '3', '4']",1,2023.2.3,harveydigits,2.1,[],8,0.75,
0,pause,0.4,None,None,None,0,331,331,331,,,,,,,,,,,,N009,digits,1,"['6', '7', '8', '9']","['1', '2', '3', '4']",1,2023.2.3,harveydigits,2.1,[],8,0.75,
2,digit,0.3,['dot'],['small_1'],black,0,332,332,332,,,118.60022711753845,118.31164407730103,118.61174511909485,"[[-0.19336898101241717, -0.05479471512666101]]",['DejaVu Sans'],[0.6],,,,N009,digits,1,"['6', '7', '8', '9']","['1', '2', '3', '4']",1,2023.2.3,harveydigits,2.1,[],8,0.75,
0,pause,0.4,None,None,None,0,333,333,333,,,,,,,,,,,,N009,digits,1,"['6', '7', '8', '9']","['1', '2', '3', '4']",1,2023.2.3,harveydigits,2.1,[],8,0.75,
2,digit,0.3,['dot'],['small_1'],black,0,334,334,334,,,119.30021810531616,119.01160597801208,119.31159210205078,"[[0.33296864575489094, -0.07890777502564855]]",['DejaVu Sans'],[0.6],,,,N009,digits,1,"['6', '7', '8', '9']","['1', '2', '3', '4']",1,2023.2.3,harveydigits,2.1,[],8,0.75,
0,pause,0.4,None,None,None,0,335,335,335,,,,,,,,,,,,N009,digits,1,"['6', '7', '8', '9']","['1', '2', '3', '4']",1,2023.2.3,harveydigits,2.1,[],8,0.75,
3,digit,0.3,['dot'],['small_1'],black,0,336,336,336,,,120.00021409988403,119.711580991745,120.01158618927002,"[[-0.1197703291747167, -0.13702316686628718]]",['DejaVu Sans'],[0.6],,,,N009,digits,1,"['6', '7', '8', '9']","['1', '2', '3', '4']",1,2023.2.3,harveydigits,2.1,[],8,0.75,
0,pause,0.4,None,None,None,0,337,337,337,,,,,,,,,,,,N009,digits,1,"['6', '7', '8', '9']","['1', '2', '3', '4']",1,2023.2.3,harveydigits,2.1,[],8,0.75,
3,digit,0.3,['dot'],['small_1'],black,0,338,338,338,,,120.70023608207703,120.41162204742432,120.711599111557,"[[0.19474694416576188, -0.23949823811131005]]",['DejaVu Sans'],[0.6],,,,N009,digits,1,"['6', '7', '8', '9']","['1', '2', '3', '4']",1,2023.2.3,harveydigits,2.1,[],8,0.75,
0,pause,0.4,None,None,None,0,339,339,339,,,,,,,,,,,,N009,digits,1,"['6', '7', '8', '9']","['1', '2', '3', '4']",1,2023.2.3,harveydigits,2.1,[],8,0.75,
3,digit,0.3,['dot'],['small_1'],black,0,340,340,340,,,121.40022802352905,121.11159896850586,121.41158103942871,"[[-0.10209300246661251, -0.28742392762413177]]",['DejaVu Sans'],[0.6],,,,N009,digits,1,"['6', '7', '8', '9']","['1', '2', '3', '4']",1,2023.2.3,harveydigits,2.1,[],8,0.75,
0,pause,0.4,None,None,None,0,341,341,341,,,,,,,,,,,,N009,digits,1,"['6', '7', '8', '9']","['1', '2', '3', '4']",1,2023.2.3,harveydigits,2.1,[],8,0.75,
3,digit,0.3,['dot'],['small_1'],black,0,342,342,342,,,122.10023307800293,121.81158399581909,122.11155414581299,"[[-0.2971120021102553, -0.010183566638279296]]",['DejaVu Sans'],[0.6],,,,N009,digits,1,"['6', '7', '8', '9']","['1', '2', '3', '4']",1,2023.2.3,harveydigits,2.1,[],8,0.75,
0,pause,0.4,None,None,None,0,343,343,343,,,,,,,,,,,,N009,digits,1,"['6', '7', '8', '9']","['1', '2', '3', '4']",1,2023.2.3,harveydigits,2.1,[],8,0.75,
3,digit,0.3,['dot'],['small_1'],black,0,344,344,344,,,122.80020999908447,122.5115339756012,122.81152415275574,"[[0.04141001399084482, 0.2597226156928551]]",['DejaVu Sans'],[0.6],,,,N009,digits,1,"['6', '7', '8', '9']","['1', '2', '3', '4']",1,2023.2.3,harveydigits,2.1,[],8,0.75,
0,pause,0.4,None,None,None,0,345,345,345,,,,,,,,,,,,N009,digits,1,"['6', '7', '8', '9']","['1', '2', '3', '4']",1,2023.2.3,harveydigits,2.1,[],8,0.75,
3,digit,0.3,['dot'],['small_1'],black,0,346,346,346,,,123.50020813941956,123.21154808998108,123.51151204109192,"[[0.07655955933315767, -0.03766268641773829]]",['DejaVu Sans'],[0.6],,,,N009,digits,1,"['6', '7', '8', '9']","['1', '2', '3', '4']",1,2023.2.3,harveydigits,2.1,[],8,0.75,
0,pause,0.4,None,None,None,0,347,347,347,,,,,,,,,,,,N009,digits,1,"['6', '7', '8', '9']","['1', '2', '3', '4']",1,2023.2.3,harveydigits,2.1,[],8,0.75,
4,digit,0.3,['dot'],['small_1'],black,0,348,348,348,,,124.20022916793823,123.91153216362,124.21151900291443,"[[-0.010064383759159912, 0.324421367656129]]",['DejaVu Sans'],[0.6],,,,N009,digits,1,"['6', '7', '8', '9']","['1', '2', '3', '4']",1,2023.2.3,harveydigits,2.1,[],8,0.75,
0,pause,0.4,None,None,None,0,349,349,349,,,,,,,,,,,,N009,digits,1,"['6', '7', '8', '9']","['1', '2', '3', '4']",1,2023.2.3,harveydigits,2.1,[],8,0.75,
4,digit,0.3,['dot'],['small_1'],black,0,350,350,350,,,124.90021109580994,124.6115140914917,124.91150999069214,"[[-0.225811618129169, -0.2478524255673757]]",['DejaVu Sans'],[0.6],,,,N009,digits,1,"['6', '7', '8', '9']","['1', '2', '3', '4']",1,2023.2.3,harveydigits,2.1,[],8,0.75,
0,pause,0.4,None,None,None,0,351,351,351,,,,,,,,,,,,N009,digits,1,"['6', '7', '8', '9']","['1', '2', '3', '4']",1,2023.2.3,harveydigits,2.1,[],8,0.75,
4,digit,0.3,['dot'],['small_1'],black,0,352,352,352,,,125.60022711753845,125.31150007247925,125.6114661693573,"[[0.08725944032996014, -0.02320796702915978]]",['DejaVu Sans'],[0.6],,,,N009,digits,1,"['6', '7', '8', '9']","['1', '2', '3', '4']",1,2023.2.3,harveydigits,2.1,[],8,0.75,
0,pause,0.4,None,None,None,0,353,353,353,,,,,,,,,,,,N009,digits,1,"['6', '7', '8', '9']","['1', '2', '3', '4']",1,2023.2.3,harveydigits,2.1,[],8,0.75,
4,digit,0.3,['dot'],['small_1'],black,0,354,354,354,,,126.3002359867096,126.01147198677063,126.31144309043884,"[[-0.28468478697353794, -0.12263449969025904]]",['DejaVu Sans'],[0.6],,,,N009,digits,1,"['6', '7', '8', '9']","['1', '2', '3', '4']",1,2023.2.3,harveydigits,2.1,[],8,0.75,
0,pause,0.4,None,None,None,0,355,355,355,,,,,,,,,,,,N009,digits,1,"['6', '7', '8', '9']","['1', '2', '3', '4']",1,2023.2.3,harveydigits,2.1,[],8,0.75,
4,digit,0.3,['dot'],['small_1'],black,0,356,356,356,,,127.00022101402283,126.71141695976257,127.01140403747559,"[[-0.19682535093682657, -0.11007551439676083]]",['DejaVu Sans'],[0.6],,,,N009,digits,1,"['6', '7', '8', '9']","['1', '2', '3', '4']",1,2023.2.3,harveydigits,2.1,[],8,0.75,
0,pause,0.4,None,None,None,0,357,357,357,,,,,,,,,,,,N009,digits,1,"['6', '7', '8', '9']","['1', '2', '3', '4']",1,2023.2.3,harveydigits,2.1,[],8,0.75,
4,digit,0.3,['dot'],['small_1'],black,0,358,358,358,,,127.70021915435791,127.411386013031,127.71139001846313,"[[0.2516243918864176, 0.08348683693960313]]",['DejaVu Sans'],[0.6],,,,N009,digits,1,"['6', '7', '8', '9']","['1', '2', '3', '4']",1,2023.2.3,harveydigits,2.1,[],8,0.75,
0,pause,0.4,None,None,None,0,359,359,359,,,,,,,,,,,,N009,digits,1,"['6', '7', '8', '9']","['1', '2', '3', '4']",1,2023.2.3,harveydigits,2.1,[],8,0.75,
5,digit,0.3,['dot'],['small_1'],black,0,360,360,360,,,128.4002330303192,128.11136507987976,128.4113690853119,"[[-0.2106087016725416, -0.0938165474840526]]",['DejaVu Sans'],[0.6],,,,N009,digits,1,"['6', '7', '8', '9']","['1', '2', '3', '4']",1,2023.2.3,harveydigits,2.1,[],8,0.75,
0,pause,0.4,None,None,None,0,361,361,361,,,,,,,,,,,,N009,digits,1,"['6', '7', '8', '9']","['1', '2', '3', '4']",1,2023.2.3,harveydigits,2.1,[],8,0.75,
5,digit,0.3,['dot'],['small_1'],black,0,362,362,362,,,129.10022497177124,128.81137609481812,129.11135411262512,"[[0.06179993403368028, 0.30214850785473796]]",['DejaVu Sans'],[0.6],,,,N009,digits,1,"['6', '7', '8', '9']","['1', '2', '3', '4']",1,2023.2.3,harveydigits,2.1,[],8,0.75,
0,pause,0.4,None,None,None,0,363,363,363,,,,,,,,,,,,N009,digits,1,"['6', '7', '8', '9']","['1', '2', '3', '4']",1,2023.2.3,harveydigits,2.1,[],8,0.75,
5,digit,0.3,['dot'],['small_1'],black,0,364,364,364,,,129.800222158432,129.51135301589966,129.81133103370667,"[[-0.3204649212370462, -0.08642055523086706]]",['DejaVu Sans'],[0.6],,,,N009,digits,1,"['6', '7', '8', '9']","['1', '2', '3', '4']",1,2023.2.3,harveydigits,2.1,[],8,0.75,
0,pause,0.4,None,None,None,0,365,365,365,,,,,,,,,,,,N009,digits,1,"['6', '7', '8', '9']","['1', '2', '3', '4']",1,2023.2.3,harveydigits,2.1,[],8,0.75,
5,digit,0.3,['dot'],['small_1'],black,0,366,366,366,,,130.50020718574524,130.21132802963257,130.51134514808655,"[[0.1762552604361608, 0.18195850813075626]]",['DejaVu Sans'],[0.6],,,,N009,digits,1,"['6', '7', '8', '9']","['1', '2', '3', '4']",1,2023.2.3,harveydigits,2.1,[],8,0.75,
0,pause,0.4,None,None,None,0,367,367,367,,,,,,,,,,,,N009,digits,1,"['6', '7', '8', '9']","['1', '2', '3', '4']",1,2023.2.3,harveydigits,2.1,[],8,0.75,
5,digit,0.3,['dot'],['small_1'],black,0,368,368,368,,,131.2002329826355,130.91134309768677,131.21132397651672,"[[-0.20814184230676008, -0.1232159893940458]]",['DejaVu Sans'],[0.6],,,,N009,digits,1,"['6', '7', '8', '9']","['1', '2', '3', '4']",1,2023.2.3,harveydigits,2.1,[],8,0.75,
0,pause,0.4,None,None,None,0,369,369,369,,,,,,,,,,,,N009,digits,1,"['6', '7', '8', '9']","['1', '2', '3', '4']",1,2023.2.3,harveydigits,2.1,[],8,0.75,
5,digit,0.3,['dot'],['small_1'],black,0,370,370,370,,,131.90022206306458,131.61134004592896,131.9112811088562,"[[-0.01583220046605338, 0.10108865352958779]]",['DejaVu Sans'],[0.6],,,,N009,digits,1,"['6', '7', '8', '9']","['1', '2', '3', '4']",1,2023.2.3,harveydigits,2.1,[],8,0.75,
0,pause,0.4,None,None,None,0,371,371,371,,,,,,,,,,,,N009,digits,1,"['6', '7', '8', '9']","['1', '2', '3', '4']",1,2023.2.3,harveydigits,2.1,[],8,0.75,
6,digit,0.3,['dot'],['small_1'],black,0,372,372,372,,,132.60021901130676,132.31128215789795,132.6112630367279,"[[0.03770421312857564, -0.11879851900935642]]",['DejaVu Sans'],[0.6],,,,N009,digits,1,"['6', '7', '8', '9']","['1', '2', '3', '4']",1,2023.2.3,harveydigits,2.1,[],8,0.75,
0,pause,0.4,None,None,None,0,373,373,373,,,,,,,,,,,,N009,digits,1,"['6', '7', '8', '9']","['1', '2', '3', '4']",1,2023.2.3,harveydigits,2.1,[],8,0.75,
6,digit,0.3,['dot'],['small_1'],black,0,374,374,374,,,133.30020904541016,133.01125407218933,133.3112711906433,"[[-0.22984670002630647, -0.18326223217766352]]",['DejaVu Sans'],[0.6],,,,N009,digits,1,"['6', '7', '8', '9']","['1', '2', '3', '4']",1,2023.2.3,harveydigits,2.1,[],8,0.75,
0,pause,0.4,None,None,None,0,375,375,375,,,,,,,,,,,,N009,digits,1,"['6', '7', '8', '9']","['1', '2', '3', '4']",1,2023.2.3,harveydigits,2.1,[],8,0.75,
6,digit,0.3,['dot'],['small_1'],black,0,376,376,376,,,134.0002281665802,133.711284160614,134.01124715805054,"[[-0.1366584136556288, 0.22644579748269267]]",['DejaVu Sans'],[0.6],,,,N009,digits,1,"['6', '7', '8', '9']","['1', '2', '3', '4']",1,2023.2.3,harveydigits,2.1,[],8,0.75,
0,pause,0.4,None,None,None,0,377,377,377,,,,,,,,,,,,N009,digits,1,"['6', '7', '8', '9']","['1', '2', '3', '4']",1,2023.2.3,harveydigits,2.1,[],8,0.75,
6,digit,0.3,['dot'],['small_1'],black,0,378,378,378,,,134.70021510124207,134.4112629890442,134.71123218536377,"[[-0.02130073109288888, 0.138396463129337]]",['DejaVu Sans'],[0.6],,,,N009,digits,1,"['6', '7', '8', '9']","['1', '2', '3', '4']",1,2023.2.3,harveydigits,2.1,[],8,0.75,
0,pause,0.4,None,None,None,0,379,379,379,,,,,,,,,,,,N009,digits,1,"['6', '7', '8', '9']","['1', '2', '3', '4']",1,2023.2.3,harveydigits,2.1,[],8,0.75,
6,digit,0.3,['dot'],['small_1'],black,0,380,380,380,,,135.40023612976074,135.11124897003174,135.41121912002563,"[[0.30481648645283976, 0.13706751937175354]]",['DejaVu Sans'],[0.6],,,,N009,digits,1,"['6', '7', '8', '9']","['1', '2', '3', '4']",1,2023.2.3,harveydigits,2.1,[],8,0.75,
0,pause,0.4,None,None,None,0,381,381,381,,,,,,,,,,,,N009,digits,1,"['6', '7', '8', '9']","['1', '2', '3', '4']",1,2023.2.3,harveydigits,2.1,[],8,0.75,
6,digit,0.3,['dot'],['small_1'],black,0,382,382,382,,,136.1002390384674,135.81123518943787,136.11119508743286,"[[-0.32930809196062893, 0.10505673434877447]]",['DejaVu Sans'],[0.6],,,,N009,digits,1,"['6', '7', '8', '9']","['1', '2', '3', '4']",1,2023.2.3,harveydigits,2.1,[],8,0.75,
0,pause,0.4,None,None,None,0,383,383,383,,,,,,,,,,,,N009,digits,1,"['6', '7', '8', '9']","['1', '2', '3', '4']",1,2023.2.3,harveydigits,2.1,[],8,0.75,
7,digit,0.3,['dot'],['small_1'],black,0,384,384,384,,,136.80021500587463,136.51119899749756,136.81117415428162,"[[-0.3189976413252976, -0.06222688005305549]]",['DejaVu Sans'],[0.6],,,,N009,digits,1,"['6', '7', '8', '9']","['1', '2', '3', '4']",1,2023.2.3,harveydigits,2.1,[],8,0.75,
0,pause,0.4,None,None,None,0,385,385,385,,,,,,,,,,,,N009,digits,1,"['6', '7', '8', '9']","['1', '2', '3', '4']",1,2023.2.3,harveydigits,2.1,[],8,0.75,
7,digit,0.3,['dot'],['small_1'],black,0,386,386,386,,,137.500226020813,137.21117997169495,137.51116299629211,"[[0.060299166521969594, 0.014394893021025201]]",['DejaVu Sans'],[0.6],,,,N009,digits,1,"['6', '7', '8', '9']","['1', '2', '3', '4']",1,2023.2.3,harveydigits,2.1,[],8,0.75,
0,pause,0.4,None,None,None,0,387,387,387,,,,,,,,,,,,N009,digits,1,"['6', '7', '8', '9']","['1', '2', '3', '4']",1,2023.2.3,harveydigits,2.1,[],8,0.75,
7,digit,0.3,['dot'],['small_1'],black,0,388,388,388,,,138.20022702217102,137.91116213798523,138.2111110687256,"[[0.3428428299375268, 0.025102340910550303]]",['DejaVu Sans'],[0.6],,,,N009,digits,1,"['6', '7', '8', '9']","['1', '2', '3', '4']",1,2023.2.3,harveydigits,2.1,[],8,0.75,
0,pause,0.4,None,None,None,0,389,389,389,,,,,,,,,,,,N009,digits,1,"['6', '7', '8', '9']","['1', '2', '3', '4']",1,2023.2.3,harveydigits,2.1,[],8,0.75,
7,digit,0.3,['dot'],['small_1'],black,0,390,390,390,,,138.9002239704132,138.61114406585693,138.91112613677979,"[[0.26745519776047155, -0.15186955560854054]]",['DejaVu Sans'],[0.6],,,,N009,digits,1,"['6', '7', '8', '9']","['1', '2', '3', '4']",1,2023.2.3,harveydigits,2.1,[],8,0.75,
0,pause,0.4,None,None,None,0,391,391,391,,,,,,,,,,,,N009,digits,1,"['6', '7', '8', '9']","['1', '2', '3', '4']",1,2023.2.3,harveydigits,2.1,[],8,0.75,
7,digit,0.3,['dot'],['small_1'],black,0,392,392,392,,,139.60021495819092,139.31110000610352,139.611083984375,"[[-0.04156421372765118, -0.1324730426963334]]",['DejaVu Sans'],[0.6],,,,N009,digits,1,"['6', '7', '8', '9']","['1', '2', '3', '4']",1,2023.2.3,harveydigits,2.1,[],8,0.75,
0,pause,0.4,None,None,None,0,393,393,393,,,,,,,,,,,,N009,digits,1,"['6', '7', '8', '9']","['1', '2', '3', '4']",1,2023.2.3,harveydigits,2.1,[],8,0.75,
7,digit,0.3,['dot'],['small_1'],black,0,394,394,394,,,140.30022501945496,140.01111507415771,140.31108117103577,"[[-0.22941184593845837, -0.0757838722586022]]",['DejaVu Sans'],[0.6],,,,N009,digits,1,"['6', '7', '8', '9']","['1', '2', '3', '4']",1,2023.2.3,harveydigits,2.1,[],8,0.75,
0,pause,0.4,None,None,None,0,395,395,395,,,,,,,,,,,,N009,digits,1,"['6', '7', '8', '9']","['1', '2', '3', '4']",1,2023.2.3,harveydigits,2.1,[],8,0.75,
8,digit,0.3,['dot'],['small_1'],black,0,396,396,396,,,141.00022101402283,140.71106910705566,141.01102304458618,"[[-0.1997447836053781, -0.026038588178862787]]",['DejaVu Sans'],[0.6],,,,N009,digits,1,"['6', '7', '8', '9']","['1', '2', '3', '4']",1,2023.2.3,harveydigits,2.1,[],8,0.75,
0,pause,0.4,None,None,None,0,397,397,397,,,,,,,,,,,,N009,digits,1,"['6', '7', '8', '9']","['1', '2', '3', '4']",1,2023.2.3,harveydigits,2.1,[],8,0.75,
8,digit,0.3,['dot'],['small_1'],black,0,398,398,398,,,141.70021510124207,141.4110770225525,141.71104407310486,"[[-0.2572543525029188, -0.0009274765047617428]]",['DejaVu Sans'],[0.6],,,,N009,digits,1,"['6', '7', '8', '9']","['1', '2', '3', '4']",1,2023.2.3,harveydigits,2.1,[],8,0.75,
0,pause,0.4,None,None,None,0,399,399,399,,,,,,,,,,,,N009,digits,1,"['6', '7', '8', '9']","['1', '2', '3', '4']",1,2023.2.3,harveydigits,2.1,[],8,0.75,
8,digit,0.3,['dot'],['small_1'],black,0,400,400,400,,,142.40022611618042,142.11103701591492,142.41113805770874,"[[0.3441827192643975, -0.0201459214653541]]",['DejaVu Sans'],[0.6],,,,N009,digits,1,"['6', '7', '8', '9']","['1', '2', '3', '4']",1,2023.2.3,harveydigits,2.1,[],8,0.75,
0,pause,0.4,None,None,None,0,401,401,401,,,,,,,,,,,,N009,digits,1,"['6', '7', '8', '9']","['1', '2', '3', '4']",1,2023.2.3,harveydigits,2.1,[],8,0.75,
8,digit,0.3,['dot'],['small_1'],black,0,402,402,402,,,143.1002380847931,142.81100416183472,143.11096501350403,"[[-0.14194179630671142, 0.26343192207649424]]",['DejaVu Sans'],[0.6],,,,N009,digits,1,"['6', '7', '8', '9']","['1', '2', '3', '4']",1,2023.2.3,harveydigits,2.1,[],8,0.75,
0,pause,0.4,None,None,None,0,403,403,403,,,,,,,,,,,,N009,digits,1,"['6', '7', '8', '9']","['1', '2', '3', '4']",1,2023.2.3,harveydigits,2.1,[],8,0.75,
8,digit,0.3,['dot'],['small_1'],black,0,404,404,404,,,143.80023002624512,143.51098012924194,143.81100606918335,"[[0.3381775098535148, -0.04015598461556361]]",['DejaVu Sans'],[0.6],,,,N009,digits,1,"['6', '7', '8', '9']","['1', '2', '3', '4']",1,2023.2.3,harveydigits,2.1,[],8,0.75,
0,pause,0.4,None,None,None,0,405,405,405,,,,,,,,,,,,N009,digits,1,"['6', '7', '8', '9']","['1', '2', '3', '4']",1,2023.2.3,harveydigits,2.1,[],8,0.75,
8,digit,0.3,['dot'],['small_1'],black,0,406,406,406,,,144.50023317337036,144.21098113059998,144.51093196868896,"[[-0.3148994083767354, 0.0772743401409483]]",['DejaVu Sans'],[0.6],,,,N009,digits,1,"['6', '7', '8', '9']","['1', '2', '3', '4']",1,2023.2.3,harveydigits,2.1,[],8,0.75,
0,pause,0.4,None,None,None,0,407,407,407,,,,,,,,,,,,N009,digits,1,"['6', '7', '8', '9']","['1', '2', '3', '4']",1,2023.2.3,harveydigits,2.1,[],8,0.75,
9,digit,0.3,['dot'],['small_1'],black,0,408,408,408,,,145.20023608207703,144.9109661579132,145.21107697486877,"[[-0.18571109952270579, -0.27672590992384555]]",['DejaVu Sans'],[0.6],,,,N009,digits,1,"['6', '7', '8', '9']","['1', '2', '3', '4']",1,2023.2.3,harveydigits,2.1,[],8,0.75,
0,pause,0.4,None,None,None,0,409,409,409,,,,,,,,,,,,N009,digits,1,"['6', '7', '8', '9']","['1', '2', '3', '4']",1,2023.2.3,harveydigits,2.1,[],8,0.75,
9,digit,0.3,['dot'],['small_1'],black,0,410,410,410,,,145.90021514892578,145.61095809936523,145.91108417510986,"[[-0.1853306526330144, -0.277611929162598]]",['DejaVu Sans'],[0.6],,,,N009,digits,1,"['6', '7', '8', '9']","['1', '2', '3', '4']",1,2023.2.3,harveydigits,2.1,[],8,0.75,
0,pause,0.4,None,None,None,0,411,411,411,,,,,,,,,,,,N009,digits,1,"['6', '7', '8', '9']","['1', '2', '3', '4']",1,2023.2.3,harveydigits,2.1,[],8,0.75,
9,digit,0.3,['dot'],['small_1'],black,0,412,412,412,,,146.60023498535156,146.31092500686646,146.61103415489197,"[[0.03187640197731545, -0.1736576270655334]]",['DejaVu Sans'],[0.6],,,,N009,digits,1,"['6', '7', '8', '9']","['1', '2', '3', '4']",1,2023.2.3,harveydigits,2.1,[],8,0.75,
0,pause,0.4,None,None,None,0,413,413,413,,,,,,,,,,,,N009,digits,1,"['6', '7', '8', '9']","['1', '2', '3', '4']",1,2023.2.3,harveydigits,2.1,[],8,0.75,
9,digit,0.3,['dot'],['small_1'],black,0,414,414,414,,,147.30023503303528,147.0108880996704,147.3109049797058,"[[-0.051158227659644784, 0.27524008422842744]]",['DejaVu Sans'],[0.6],,,,N009,digits,1,"['6', '7', '8', '9']","['1', '2', '3', '4']",1,2023.2.3,harveydigits,2.1,[],8,0.75,
0,pause,0.4,None,None,None,0,415,415,415,,,,,,,,,,,,N009,digits,1,"['6', '7', '8', '9']","['1', '2', '3', '4']",1,2023.2.3,harveydigits,2.1,[],8,0.75,
9,digit,0.3,['dot'],['small_1'],black,0,416,416,416,,,148.00024104118347,147.7108771800995,148.01090216636658,"[[-0.21519913767177637, -0.0126208339947389]]",['DejaVu Sans'],[0.6],,,,N009,digits,1,"['6', '7', '8', '9']","['1', '2', '3', '4']",1,2023.2.3,harveydigits,2.1,[],8,0.75,
0,pause,0.4,None,None,None,0,417,417,417,,,,,,,,,,,,N009,digits,1,"['6', '7', '8', '9']","['1', '2', '3', '4']",1,2023.2.3,harveydigits,2.1,[],8,0.75,
9,digit,0.3,['dot'],['small_1'],black,0,418,418,418,,,148.70021414756775,148.4108669757843,148.71088218688965,"[[-0.019405411340725875, -0.3347656925959094]]",['DejaVu Sans'],[0.6],,,,N009,digits,1,"['6', '7', '8', '9']","['1', '2', '3', '4']",1,2023.2.3,harveydigits,2.1,[],8,0.75,
0,pause,0.4,None,None,None,0,419,419,419,,,,,,,,,,,,N009,digits,1,"['6', '7', '8', '9']","['1', '2', '3', '4']",1,2023.2.3,harveydigits,2.1,[],8,0.75,
20,digit,0.3,['dot'],['small_1'],black,0,420,420,420,,,149.40023398399353,149.11084914207458,149.4108190536499,"[[-0.05434353975669165, -0.023394601815955762]]",['DejaVu Sans'],[0.6],,,,N009,digits,1,"['6', '7', '8', '9']","['1', '2', '3', '4']",1,2023.2.3,harveydigits,2.1,[],8,0.75,
0,pause,0.4,None,None,None,0,421,421,421,,,,,,,,,,,,N009,digits,1,"['6', '7', '8', '9']","['1', '2', '3', '4']",1,2023.2.3,harveydigits,2.1,[],8,0.75,
20,digit,0.3,['dot'],['small_1'],black,0,422,422,422,,,150.1002299785614,149.81082797050476,150.1108160018921,"[[0.2888252031678318, -0.16136243197743944]]",['DejaVu Sans'],[0.6],,,,N009,digits,1,"['6', '7', '8', '9']","['1', '2', '3', '4']",1,2023.2.3,harveydigits,2.1,[],8,0.75,
0,pause,0.4,None,None,None,0,423,423,423,,,,,,,,,,,,N009,digits,1,"['6', '7', '8', '9']","['1', '2', '3', '4']",1,2023.2.3,harveydigits,2.1,[],8,0.75,
20,digit,0.3,['dot'],['small_1'],black,0,424,424,424,,,150.8002290725708,150.51082801818848,150.8109631538391,"[[0.24949464986458114, 0.04119247611452423]]",['DejaVu Sans'],[0.6],,,,N009,digits,1,"['6', '7', '8', '9']","['1', '2', '3', '4']",1,2023.2.3,harveydigits,2.1,[],8,0.75,
0,pause,0.4,None,None,None,0,425,425,425,,,,,,,,,,,,N009,digits,1,"['6', '7', '8', '9']","['1', '2', '3', '4']",1,2023.2.3,harveydigits,2.1,[],8,0.75,
20,digit,0.3,['dot'],['small_1'],black,0,426,426,426,,,151.50022506713867,151.21079897880554,151.51077914237976,"[[-0.21426215701729862, 0.14823355959688894]]",['DejaVu Sans'],[0.6],,,,N009,digits,1,"['6', '7', '8', '9']","['1', '2', '3', '4']",1,2023.2.3,harveydigits,2.1,[],8,0.75,
0,pause,0.4,None,None,None,0,427,427,427,,,,,,,,,,,,N009,digits,1,"['6', '7', '8', '9']","['1', '2', '3', '4']",1,2023.2.3,harveydigits,2.1,[],8,0.75,
20,digit,0.3,['dot'],['small_1'],black,0,428,428,428,,,152.20023703575134,151.9107871055603,152.21092104911804,"[[0.018754511681042196, -0.016382532838561947]]",['DejaVu Sans'],[0.6],,,,N009,digits,1,"['6', '7', '8', '9']","['1', '2', '3', '4']",1,2023.2.3,harveydigits,2.1,[],8,0.75,
0,pause,0.4,None,None,None,0,429,429,429,,,,,,,,,,,,N009,digits,1,"['6', '7', '8', '9']","['1', '2', '3', '4']",1,2023.2.3,harveydigits,2.1,[],8,0.75,
20,digit,0.3,['dot'],['small_1'],black,0,430,430,430,,,152.90023398399353,152.61078214645386,152.91074800491333,"[[-0.13842586446453814, 0.0027975300161402483]]",['DejaVu Sans'],[0.6],,,,N009,digits,1,"['6', '7', '8', '9']","['1', '2', '3', '4']",1,2023.2.3,harveydigits,2.1,[],8,0.75,
0,pause,0.4,None,None,None,0,431,431,431,,,,,,,,,,,,N009,digits,1,"['6', '7', '8', '9']","['1', '2', '3', '4']",1,2023.2.3,harveydigits,2.1,[],8,0.75,
20,digit,0.3,['dot'],['small_1'],black,0,432,432,432,,,153.60024309158325,153.31075716018677,153.61075711250305,"[[0.11637817683789053, -0.060883100971756865]]",['DejaVu Sans'],[0.6],,,,N009,digits,1,"['6', '7', '8', '9']","['1', '2', '3', '4']",1,2023.2.3,harveydigits,2.1,[],8,0.75,
0,pause,0.4,None,None,None,0,433,433,433,,,,,,,,,,,,N009,digits,1,"['6', '7', '8', '9']","['1', '2', '3', '4']",1,2023.2.3,harveydigits,2.1,[],8,0.75,
20,digit,0.3,['dot'],['small_1'],black,0,434,434,434,,,154.30021810531616,154.01077008247375,154.31073808670044,"[[0.06855925295023108, 0.0650696568321481]]",['DejaVu Sans'],[0.6],,,,N009,digits,1,"['6', '7', '8', '9']","['1', '2', '3', '4']",1,2023.2.3,harveydigits,2.1,[],8,0.75,
0,pause,0.4,None,None,None,0,435,435,435,,,,,,,,,,,,N009,digits,1,"['6', '7', '8', '9']","['1', '2', '3', '4']",1,2023.2.3,harveydigits,2.1,[],8,0.75,
20,digit,0.3,['dot'],['small_1'],black,0,436,436,436,,,155.00023698806763,154.71072697639465,155.01070404052734,"[[0.10008746747014585, 0.2480675040602861]]",['DejaVu Sans'],[0.6],,,,N009,digits,1,"['6', '7', '8', '9']","['1', '2', '3', '4']",1,2023.2.3,harveydigits,2.1,[],8,0.75,
0,pause,0.4,None,None,None,0,437,437,437,,,,,,,,,,,,N009,digits,1,"['6', '7', '8', '9']","['1', '2', '3', '4']",1,2023.2.3,harveydigits,2.1,[],8,0.75,
20,digit,0.3,['dot'],['small_1'],black,0,438,438,438,,,155.70021200180054,155.41070103645325,155.71069407463074,"[[-0.12118420689051948, -0.2980540851780664]]",['DejaVu Sans'],[0.6],,,,N009,digits,1,"['6', '7', '8', '9']","['1', '2', '3', '4']",1,2023.2.3,harveydigits,2.1,[],8,0.75,
0,pause,0.4,None,None,None,0,439,439,439,,,,,,,,,,,,N009,digits,1,"['6', '7', '8', '9']","['1', '2', '3', '4']",1,2023.2.3,harveydigits,2.1,[],8,0.75,
20,digit,0.3,['dot'],['small_1'],black,0,440,440,440,,,156.40024518966675,156.1107041835785,156.41065311431885,"[[0.12815814121729668, 0.25334778719058104]]",['DejaVu Sans'],[0.6],,,,N009,digits,1,"['6', '7', '8', '9']","['1', '2', '3', '4']",1,2023.2.3,harveydigits,2.1,[],8,0.75,
0,pause,0.4,None,None,None,0,441,441,441,,,,,,,,,,,,N009,digits,1,"['6', '7', '8', '9']","['1', '2', '3', '4']",1,2023.2.3,harveydigits,2.1,[],8,0.75,
20,digit,0.3,['dot'],['small_1'],black,0,442,442,442,,,157.10022497177124,156.8106620311737,157.1106460094452,"[[-0.262013643454974, 0.09864115760430953]]",['DejaVu Sans'],[0.6],,,,N009,digits,1,"['6', '7', '8', '9']","['1', '2', '3', '4']",1,2023.2.3,harveydigits,2.1,[],8,0.75,
0,pause,0.4,None,None,None,0,443,443,443,,,,,,,,,,,,N009,digits,1,"['6', '7', '8', '9']","['1', '2', '3', '4']",1,2023.2.3,harveydigits,2.1,[],8,0.75,
20,digit,0.3,['dot'],['small_1'],black,0,444,444,444,,,157.80021214485168,157.51065802574158,157.810613155365,"[[0.25221692063262113, 0.19527874027824751]]",['DejaVu Sans'],[0.6],,,,N009,digits,1,"['6', '7', '8', '9']","['1', '2', '3', '4']",1,2023.2.3,harveydigits,2.1,[],8,0.75,
0,pause,0.4,None,None,None,0,445,445,445,,,,,,,,,,,,N009,digits,1,"['6', '7', '8', '9']","['1', '2', '3', '4']",1,2023.2.3,harveydigits,2.1,[],8,0.75,
20,digit,0.3,['dot'],['small_1'],black,0,446,446,446,,,158.50023818016052,158.21061205863953,158.51059007644653,"[[-0.148063431157669, -0.28189368825840616]]",['DejaVu Sans'],[0.6],,,,N009,digits,1,"['6', '7', '8', '9']","['1', '2', '3', '4']",1,2023.2.3,harveydigits,2.1,[],8,0.75,
0,pause,0.4,None,None,None,0,447,447,447,,,,,,,,,,,,N009,digits,1,"['6', '7', '8', '9']","['1', '2', '3', '4']",1,2023.2.3,harveydigits,2.1,[],8,0.75,
20,digit,0.3,['dot'],['small_1'],black,0,448,448,448,,,159.2002410888672,158.9106001853943,159.2105791568756,"[[-0.2232989774986521, -0.089478073272143]]",['DejaVu Sans'],[0.6],,,,N009,digits,1,"['6', '7', '8', '9']","['1', '2', '3', '4']",1,2023.2.3,harveydigits,2.1,[],8,0.75,
0,pause,0.4,None,None,None,0,449,449,449,,,,,,,,,,,,N009,digits,1,"['6', '7', '8', '9']","['1', '2', '3', '4']",1,2023.2.3,harveydigits,2.1,[],8,0.75,
20,digit,0.3,['dot'],['small_1'],black,0,450,450,450,,,159.90021300315857,159.61057209968567,159.91055417060852,"[[0.19682447109347057, 0.12588623464357007]]",['DejaVu Sans'],[0.6],,,,N009,digits,1,"['6', '7', '8', '9']","['1', '2', '3', '4']",1,2023.2.3,harveydigits,2.1,[],8,0.75,
0,pause,0.4,None,None,None,0,451,451,451,,,,,,,,,,,,N009,digits,1,"['6', '7', '8', '9']","['1', '2', '3', '4']",1,2023.2.3,harveydigits,2.1,[],8,0.75,
20,digit,0.3,['dot'],['small_1'],black,0,452,452,452,,,160.60023403167725,160.3105571269989,160.61054396629333,"[[-0.3197333923497285, -0.07186831950622484]]",['DejaVu Sans'],[0.6],,,,N009,digits,1,"['6', '7', '8', '9']","['1', '2', '3', '4']",1,2023.2.3,harveydigits,2.1,[],8,0.75,
0,pause,0.4,None,None,None,0,453,453,453,,,,,,,,,,,,N009,digits,1,"['6', '7', '8', '9']","['1', '2', '3', '4']",1,2023.2.3,harveydigits,2.1,[],8,0.75,
20,digit,0.3,['dot'],['small_1'],black,0,454,454,454,,,161.30023312568665,161.0105540752411,161.31053018569946,"[[0.2909241374198859, 0.06225621732051148]]",['DejaVu Sans'],[0.6],,,,N009,digits,1,"['6', '7', '8', '9']","['1', '2', '3', '4']",1,2023.2.3,harveydigits,2.1,[],8,0.75,
0,pause,0.4,None,None,None,0,455,455,455,,,,,,,,,,,,N009,digits,1,"['6', '7', '8', '9']","['1', '2', '3', '4']",1,2023.2.3,harveydigits,2.1,[],8,0.75,
20,digit,0.3,['dot'],['small_1'],black,0,456,456,456,,,162.0002269744873,161.71054410934448,162.01050996780396,"[[0.041930711195031, -0.1414290802610978]]",['DejaVu Sans'],[0.6],,,,N009,digits,1,"['6', '7', '8', '9']","['1', '2', '3', '4']",1,2023.2.3,harveydigits,2.1,[],8,0.75,
0,pause,0.4,None,None,None,0,457,457,457,,,,,,,,,,,,N009,digits,1,"['6', '7', '8', '9']","['1', '2', '3', '4']",1,2023.2.3,harveydigits,2.1,[],8,0.75,
20,digit,0.3,['dot'],['small_1'],black,0,458,458,458,,,162.70021510124207,162.4104871749878,162.71048307418823,"[[-0.04769655403371298, -0.334973623031154]]",['DejaVu Sans'],[0.6],,,,N009,digits,1,"['6', '7', '8', '9']","['1', '2', '3', '4']",1,2023.2.3,harveydigits,2.1,[],8,0.75,
0,pause,0.4,None,None,None,0,459,459,459,,,,,,,,,,,,N009,digits,1,"['6', '7', '8', '9']","['1', '2', '3', '4']",1,2023.2.3,harveydigits,2.1,[],8,0.75,
20,digit,0.3,['dot'],['small_1'],black,0,460,460,460,,,163.40023708343506,163.110493183136,163.41045808792114,"[[0.19457631784736662, -0.2132811682703057]]",['DejaVu Sans'],[0.6],,,,N009,digits,1,"['6', '7', '8', '9']","['1', '2', '3', '4']",1,2023.2.3,harveydigits,2.1,[],8,0.75,
0,pause,0.4,None,None,None,0,461,461,461,,,,,,,,,,,,N009,digits,1,"['6', '7', '8', '9']","['1', '2', '3', '4']",1,2023.2.3,harveydigits,2.1,[],8,0.75,
20,digit,0.3,['dot'],['small_1'],black,0,462,462,462,,,164.1002161502838,163.8104691505432,164.11044216156006,"[[-0.25092217107180076, 0.18775239044652547]]",['DejaVu Sans'],[0.6],,,,N009,digits,1,"['6', '7', '8', '9']","['1', '2', '3', '4']",1,2023.2.3,harveydigits,2.1,[],8,0.75,
