num,mod,duration,shape,ll_cond,colors,.thisRepN,.thisTrialN,.thisN,.thisIndex,thisRow.t,notes,raw_global_time,t_start,t_stop,shapes,size,pos,cond,color,button,RT,participant,session,starting_run,left button (match/odd),right button (non-match/even),samples_per_block,psychopy version,expName,offset,audio,number_runs,radius,
1,dot,0.3,['dot'],['density'],black,0,0,0,0,,,2.4001920223236084,2.112154960632324,2.412306070327759,dot,[0.06],"[0.01430498756481247, 0.36429701967127975]",density,black,,,D002,visual,1,[],"['1', '2', '3', '4']",1,2023.2.3,harveyvisual,2.1,[],8,0.75,
0,pause,0.4,None,None,None,0,1,1,1,,,,,,,,,,,,,D002,visual,1,[],"['1', '2', '3', '4']",1,2023.2.3,harveyvisual,2.1,[],8,0.75,
1,dot,0.3,['dot'],['density'],black,0,2,2,2,,,3.100209951400757,2.8122220039367676,3.1126270294189453,dot,[0.1],"[0.4765699730395091, 0.34560502551113614]",density,black,,,D002,visual,1,[],"['1', '2', '3', '4']",1,2023.2.3,harveyvisual,2.1,[],8,0.75,
0,pause,0.4,None,None,None,0,3,3,3,,,,,,,,,,,,,D002,visual,1,[],"['1', '2', '3', '4']",1,2023.2.3,harveyvisual,2.1,[],8,0.75,
1,dot,0.3,['dot'],['density'],black,0,4,4,4,,,3.80019211769104,3.5129780769348145,3.8129830360412598,dot,[0.06],"[0.5363314188299194, -0.14809861569100125]",density,black,,,D002,visual,1,[],"['1', '2', '3', '4']",1,2023.2.3,harveyvisual,2.1,[],8,0.75,
0,pause,0.4,None,None,None,0,5,5,5,,,,,,,,,,,,,D002,visual,1,[],"['1', '2', '3', '4']",1,2023.2.3,harveyvisual,2.1,[],8,0.75,
1,dot,0.3,['dot'],['density'],black,0,6,6,6,,,4.500190019607544,4.212613105773926,4.512608051300049,dot,[0.1],"[0.2443568370277045, -0.23874091154858243]",density,black,,,D002,visual,1,[],"['1', '2', '3', '4']",1,2023.2.3,harveyvisual,2.1,[],8,0.75,
0,pause,0.4,None,None,None,0,7,7,7,,,,,,,,,,,,,D002,visual,1,[],"['1', '2', '3', '4']",1,2023.2.3,harveyvisual,2.1,[],8,0.75,
1,dot,0.3,['dot'],['density'],black,0,8,8,8,,,5.200201034545898,4.913095951080322,5.212601900100708,dot,[0.08],"[-0.30422713965878023, 0.0739284850406325]",density,black,,,D002,visual,1,[],"['1', '2', '3', '4']",1,2023.2.3,harveyvisual,2.1,[],8,0.75,
0,pause,0.4,None,None,None,0,9,9,9,,,,,,,,,,,,,D002,visual,1,[],"['1', '2', '3', '4']",1,2023.2.3,harveyvisual,2.1,[],8,0.75,
1,dot,0.3,['dot'],['density'],black,0,10,10,10,,,5.900201082229614,5.614619970321655,5.914606094360352,dot,[0.06],"[-0.31757534052014, 0.30709612076893067]",density,black,,,D002,visual,1,[],"['1', '2', '3', '4']",1,2023.2.3,harveyvisual,2.1,[],8,0.75,
0,pause,0.4,None,None,None,0,11,11,11,,,,,,,,,,,,,D002,visual,1,[],"['1', '2', '3', '4']",1,2023.2.3,harveyvisual,2.1,[],8,0.75,
2,dot,0.3,['dot'],['density'],black,0,12,12,12,,,6.600212097167969,6.314652919769287,6.614634990692139,dot,"[0.06, 0.08]","[[0.1652621768884792, -0.40183218801656556], [-0.03337249546828684, -0.4281924369736378]]",density,black,,,D002,visual,1,[],"['1', '2', '3', '4']",1,2023.2.3,harveyvisual,2.1,[],8,0.75,
0,pause,0.4,None,None,None,0,13,13,13,,,,,,,,,,,,,D002,visual,1,[],"['1', '2', '3', '4']",1,2023.2.3,harveyvisual,2.1,[],8,0.75,
2,dot,0.3,['dot'],['density'],white,0,14,14,14,,,7.300187110900879,7.014389991760254,7.314505100250244,dot,"[0.1, 0.1]","[[-0.19482721327365293, -0.5079820576301489], [-0.36119809377872014, -0.396546877814361]]",density,white,,,D002,visual,1,[],"['1', '2', '3', '4']",1,2023.2.3,harveyvisual,2.1,[],8,0.75,
0,pause,0.4,None,None,None,0,15,15,15,,,,,,,,,,,1,7.406221151351929,D002,visual,1,[],"['1', '2', '3', '4']",1,2023.2.3,harveyvisual,2.1,[],8,0.75,
2,dot,0.3,['dot'],['density'],black,0,16,16,16,,,8.000210046768188,7.714376926422119,8.014484882354736,dot,"[0.08, 0.1]","[[0.5159928458027473, 0.13749655768121952], [0.38343727829172375, 0.28833164788761484]]",density,black,,,D002,visual,1,[],"['1', '2', '3', '4']",1,2023.2.3,harveyvisual,2.1,[],8,0.75,
0,pause,0.4,None,None,None,0,17,17,17,,,,,,,,,,,,,D002,visual,1,[],"['1', '2', '3', '4']",1,2023.2.3,harveyvisual,2.1,[],8,0.75,
2,dot,0.3,['dot'],['density'],black,0,18,18,18,,,8.700212001800537,8.41433310508728,8.714340925216675,dot,"[0.08, 0.08]","[[-0.15489633838679245, 0.20775043904852977], [-0.02477214636975436, 0.05468251249351026]]",density,black,,,D002,visual,1,[],"['1', '2', '3', '4']",1,2023.2.3,harveyvisual,2.1,[],8,0.75,
0,pause,0.4,None,None,None,0,19,19,19,,,,,,,,,,,,,D002,visual,1,[],"['1', '2', '3', '4']",1,2023.2.3,harveyvisual,2.1,[],8,0.75,
2,dot,0.3,['dot'],['density'],black,0,20,20,20,,,9.400190114974976,9.114350080490112,9.414308071136475,dot,"[0.06, 0.08]","[[0.06661886780735636, -0.3109770134588511], [-0.03502229105109153, -0.4833380692870097]]",density,black,,,D002,visual,1,[],"['1', '2', '3', '4']",1,2023.2.3,harveyvisual,2.1,[],8,0.75,
0,pause,0.4,None,None,None,0,21,21,21,,,,,,,,,,,,,D002,visual,1,[],"['1', '2', '3', '4']",1,2023.2.3,harveyvisual,2.1,[],8,0.75,
2,dot,0.3,['dot'],['density'],black,0,22,22,22,,,10.10019588470459,9.814263105392456,10.114233016967773,dot,"[0.1, 0.1]","[[0.002249876020969301, 0.20442088447143333], [-0.056293345030126195, 0.39599742374220376]]",density,black,,,D002,visual,1,[],"['1', '2', '3', '4']",1,2023.2.3,harveyvisual,2.1,[],8,0.75,
0,pause,0.4,None,None,None,0,23,23,23,,,,,,,,,,,,,D002,visual,1,[],"['1', '2', '3', '4']",1,2023.2.3,harveyvisual,2.1,[],8,0.75,
3,dot,0.3,['dot'],['density'],black,0,24,24,24,,,10.800195932388306,10.514240980148315,10.814255952835083,dot,"[0.1, 0.08, 0.06]","[[-0.17720328293608806, -0.4514300161601115], [0.022754438065530718, -0.42143894503716073], [-0.10940085810899225, -0.24791511077847575]]",density,black,,,D002,visual,1,[],"['1', '2', '3', '4']",1,2023.2.3,harveyvisual,2.1,[],8,0.75,
0,pause,0.4,None,None,None,0,25,25,25,,,,,,,,,,,,,D002,visual,1,[],"['1', '2', '3', '4']",1,2023.2.3,harveyvisual,2.1,[],8,0.75,
3,dot,0.3,['dot'],['density'],black,0,26,26,26,,,11.500200986862183,11.214241027832031,11.51423692703247,dot,"[0.06, 0.08, 0.1]","[[0.3935061822875672, 0.2255916562549388], [0.5507663609445765, 0.05974239467682067], [0.33737455125106675, -0.013318187219183488]]",density,black,,,D002,visual,1,[],"['1', '2', '3', '4']",1,2023.2.3,harveyvisual,2.1,[],8,0.75,
0,pause,0.4,None,None,None,0,27,27,27,,,,,,,,,,,,,D002,visual,1,[],"['1', '2', '3', '4']",1,2023.2.3,harveyvisual,2.1,[],8,0.75,
3,dot,0.3,['dot'],['density'],black,0,28,28,28,,,12.200203895568848,11.91423511505127,12.214195013046265,dot,"[0.06, 0.08, 0.08]","[[0.06695044750400271, -0.4036822973150869], [0.2898428615912539, -0.43752325319744867], [0.2484486434572057, -0.2241911098289173]]",density,black,,,D002,visual,1,[],"['1', '2', '3', '4']",1,2023.2.3,harveyvisual,2.1,[],8,0.75,
0,pause,0.4,None,None,None,0,29,29,29,,,,,,,,,,,,,D002,visual,1,[],"['1', '2', '3', '4']",1,2023.2.3,harveyvisual,2.1,[],8,0.75,
3,dot,0.3,['dot'],['density'],black,0,30,30,30,,,12.90018892288208,12.614177942276001,12.914208889007568,dot,"[0.08, 0.08, 0.06]","[[-0.04083818552357515, -0.522177599776496], [0.2241586230204485, -0.5188142294055383], [0.09506152973916207, -0.364648334381489]]",density,black,,,D002,visual,1,[],"['1', '2', '3', '4']",1,2023.2.3,harveyvisual,2.1,[],8,0.75,
0,pause,0.4,None,None,None,0,31,31,31,,,,,,,,,,,,,D002,visual,1,[],"['1', '2', '3', '4']",1,2023.2.3,harveyvisual,2.1,[],8,0.75,
3,dot,0.3,['dot'],['density'],black,0,32,32,32,,,13.600210905075073,13.314167976379395,13.61415410041809,dot,"[0.1, 0.08, 0.1]","[[-0.36641147837046456, 0.28339849123565264], [-0.19108570342652328, 0.4628134959899303], [-0.16564092668537764, 0.24926372681875647]]",density,black,,,D002,visual,1,[],"['1', '2', '3', '4']",1,2023.2.3,harveyvisual,2.1,[],8,0.75,
0,pause,0.4,None,None,None,0,33,33,33,,,,,,,,,,,,,D002,visual,1,[],"['1', '2', '3', '4']",1,2023.2.3,harveyvisual,2.1,[],8,0.75,
3,dot,0.3,['dot'],['density'],black,0,34,34,34,,,14.30020809173584,14.014158964157104,14.314213991165161,dot,"[0.1, 0.08, 0.06]","[[0.2656832518280197, 0.0014864193765316018], [0.3503107158811183, -0.1826455867164705], [0.5188928509039705, -0.04177453376365527]]",density,black,,,D002,visual,1,[],"['1', '2', '3', '4']",1,2023.2.3,harveyvisual,2.1,[],8,0.75,
0,pause,0.4,None,None,None,0,35,35,35,,,,,,,,,,,,,D002,visual,1,[],"['1', '2', '3', '4']",1,2023.2.3,harveyvisual,2.1,[],8,0.75,
4,dot,0.3,['dot'],['density'],black,0,36,36,36,,,15.000210046768188,14.71415400505066,15.01417589187622,dot,"[0.1, 0.08, 0.06, 0.08]","[[-0.1266132934267609, -0.4419116806690939], [0.09906976576587005, -0.33923851916676484], [0.1053941350115203, -0.5768907290059295], [0.29145715672269834, -0.49787884973145785]]",density,black,,,D002,visual,1,[],"['1', '2', '3', '4']",1,2023.2.3,harveyvisual,2.1,[],8,0.75,
0,pause,0.4,None,None,None,0,37,37,37,,,,,,,,,,,,,D002,visual,1,[],"['1', '2', '3', '4']",1,2023.2.3,harveyvisual,2.1,[],8,0.75,
4,dot,0.3,['dot'],['density'],black,0,38,38,38,,,15.70019006729126,15.41415810585022,15.714144945144653,dot,"[0.08, 0.08, 0.08, 0.08]","[[-0.4918595852306691, 0.19162898845839058], [-0.30188041745692074, 0.10218906117132437], [-0.3018224646415858, -0.14357118929282034], [-0.4853871342809682, -0.061736688026617866]]",density,black,,,D002,visual,1,[],"['1', '2', '3', '4']",1,2023.2.3,harveyvisual,2.1,[],8,0.75,
0,pause,0.4,None,None,None,0,39,39,39,,,,,,,,,,,,,D002,visual,1,[],"['1', '2', '3', '4']",1,2023.2.3,harveyvisual,2.1,[],8,0.75,
4,dot,0.3,['dot'],['density'],black,0,40,40,40,,,16.400192975997925,16.114152908325195,16.414132118225098,dot,"[0.08, 0.06, 0.08, 0.06]","[[0.06019618102804278, 0.17823994931545822], [-0.1876584465411705, -0.07971170835358893], [0.026807447441335588, -0.04038633305360204], [-0.17818728785032123, 0.12753763641901858]]",density,black,,,D002,visual,1,[],"['1', '2', '3', '4']",1,2023.2.3,harveyvisual,2.1,[],8,0.75,
0,pause,0.4,None,None,None,0,41,41,41,,,,,,,,,,,,,D002,visual,1,[],"['1', '2', '3', '4']",1,2023.2.3,harveyvisual,2.1,[],8,0.75,
4,dot,0.3,['dot'],['density'],black,0,42,42,42,,,17.100209951400757,16.8141028881073,17.11409306526184,dot,"[0.1, 0.08, 0.06, 0.08]","[[0.3225849294362846, -0.13157286681700714], [0.2615083713376798, -0.38790318245483907], [0.48399895238698887, -0.2981397300552969], [0.514252162939949, -0.043630752066028525]]",density,black,,,D002,visual,1,[],"['1', '2', '3', '4']",1,2023.2.3,harveyvisual,2.1,[],8,0.75,
0,pause,0.4,None,None,None,0,43,43,43,,,,,,,,,,,,,D002,visual,1,[],"['1', '2', '3', '4']",1,2023.2.3,harveyvisual,2.1,[],8,0.75,
4,dot,0.3,['dot'],['density'],black,0,44,44,44,,,17.80021095275879,17.514060020446777,17.814043045043945,dot,"[0.06, 0.1, 0.08, 0.1]","[[-0.1266132934267609, -0.4419116806690939], [0.09906976576587005, -0.33923851916676484], [0.1053941350115203, -0.5768907290059295], [0.29145715672269834, -0.49787884973145785]]",density,black,,,D002,visual,1,[],"['1', '2', '3', '4']",1,2023.2.3,harveyvisual,2.1,[],8,0.75,
0,pause,0.4,None,None,None,0,45,45,45,,,,,,,,,,,,,D002,visual,1,[],"['1', '2', '3', '4']",1,2023.2.3,harveyvisual,2.1,[],8,0.75,
4,dot,0.3,['dot'],['density'],white,0,46,46,46,,,18.50019097328186,18.21405291557312,18.51403498649597,dot,"[0.06, 0.06, 0.1, 0.08]","[[0.28769160010247724, 0.4706884012140322], [0.03735362687931127, 0.4645781312677133], [0.33102019499247487, 0.1847810932959147], [0.1685132699603264, 0.30497059043407926]]",density,white,,,D002,visual,1,[],"['1', '2', '3', '4']",1,2023.2.3,harveyvisual,2.1,[],8,0.75,
0,pause,0.4,None,None,None,0,47,47,47,,,,,,,,,,,1,18.605401039123535,D002,visual,1,[],"['1', '2', '3', '4']",1,2023.2.3,harveyvisual,2.1,[],8,0.75,
5,dot,0.3,['dot'],['density'],black,0,48,48,48,,,19.200203895568848,18.914028882980347,19.214006900787354,dot,"[0.1, 0.08, 0.06, 0.1, 0.06]","[[-0.3632963637400461, -0.33792544526642676], [-0.48189922448633543, -0.036156829306921726], [-0.2958020468624338, 0.07292024124872273], [-0.10639492237515816, -0.0008972940205680791], [-0.20818262001932955, -0.17666930306052683]]",density,black,,,D002,visual,1,[],"['1', '2', '3', '4']",1,2023.2.3,harveyvisual,2.1,[],8,0.75,
0,pause,0.4,None,None,None,0,49,49,49,,,,,,,,,,,,,D002,visual,1,[],"['1', '2', '3', '4']",1,2023.2.3,harveyvisual,2.1,[],8,0.75,
5,dot,0.3,['dot'],['density'],black,0,50,50,50,,,19.900201082229614,19.61400604248047,19.913965940475464,dot,"[0.1, 0.1, 0.06, 0.06, 0.06]","[[0.34746533592570195, 0.16118282603596082], [0.14457128296481445, 0.28865621170929245], [0.4549189851861922, 0.34228556952890804], [0.008483415068308318, 0.44103246018778014], [0.27150044131742485, 0.4621652121832405]]",density,black,,,D002,visual,1,[],"['1', '2', '3', '4']",1,2023.2.3,harveyvisual,2.1,[],8,0.75,
0,pause,0.4,None,None,None,0,51,51,51,,,,,,,,,,,,,D002,visual,1,[],"['1', '2', '3', '4']",1,2023.2.3,harveyvisual,2.1,[],8,0.75,
5,dot,0.3,['dot'],['density'],black,0,52,52,52,,,20.600210905075073,20.313990116119385,20.613960027694702,dot,"[0.06, 0.1, 0.06, 0.06, 0.06]","[[-0.082153098152829, -0.06894165798345762], [0.016766770742065788, -0.42680196676869325], [0.2961099764235258, -0.14925166127785872], [-0.1456021726000032, -0.26669195071034546], [0.10213220283607832, -0.23321095001989858]]",density,black,,,D002,visual,1,[],"['1', '2', '3', '4']",1,2023.2.3,harveyvisual,2.1,[],8,0.75,
0,pause,0.4,None,None,None,0,53,53,53,,,,,,,,,,,,,D002,visual,1,[],"['1', '2', '3', '4']",1,2023.2.3,harveyvisual,2.1,[],8,0.75,
5,dot,0.3,['dot'],['density'],black,0,54,54,54,,,21.300198078155518,21.013957023620605,21.3140070438385,dot,"[0.1, 0.08, 0.1, 0.1, 0.1]","[[0.11182935554897071, 0.3084500478813638], [0.20284409002608467, 0.5199666233992849], [0.31882748915707354, 0.1252782162051447], [0.39083404861423326, 0.3494221689807338], [0.1196046891632849, 0.10173499350566408]]",density,black,,,D002,visual,1,[],"['1', '2', '3', '4']",1,2023.2.3,harveyvisual,2.1,[],8,0.75,
0,pause,0.4,None,None,None,0,55,55,55,,,,,,,,,,,,,D002,visual,1,[],"['1', '2', '3', '4']",1,2023.2.3,harveyvisual,2.1,[],8,0.75,
5,dot,0.3,['dot'],['density'],black,0,56,56,56,,,22.00019097328186,21.713995933532715,22.013986110687256,dot,"[0.06, 0.1, 0.1, 0.1, 0.06]","[[-0.0036269740154891753, 0.5431219823242713], [-0.2646325594942043, 0.5073179604697073], [-0.41902475937036154, 0.37311436690984484], [-0.007163214206743488, 0.2887893175302695], [-0.2156098228659233, 0.2684642371109035]]",density,black,,,D002,visual,1,[],"['1', '2', '3', '4']",1,2023.2.3,harveyvisual,2.1,[],8,0.75,
0,pause,0.4,None,None,None,0,57,57,57,,,,,,,,,,,,,D002,visual,1,[],"['1', '2', '3', '4']",1,2023.2.3,harveyvisual,2.1,[],8,0.75,
5,dot,0.3,['dot'],['density'],black,0,58,58,58,,,22.700191974639893,22.413976907730103,22.7139630317688,dot,"[0.06, 0.1, 0.08, 0.1, 0.06]","[[0.029171133319913545, -0.11913068329317353], [-0.2981845944788078, -0.46624640290839614], [-0.1844599491613969, -0.04126455345730423], [-0.2900988597239497, -0.2493716418714862], [-0.0791391532727178, -0.3057260733699829]]",density,black,,,D002,visual,1,[],"['1', '2', '3', '4']",1,2023.2.3,harveyvisual,2.1,[],8,0.75,
0,pause,0.4,None,None,None,0,59,59,59,,,,,,,,,,,,,D002,visual,1,[],"['1', '2', '3', '4']",1,2023.2.3,harveyvisual,2.1,[],8,0.75,
6,dot,0.3,['dot'],['density'],black,0,60,60,60,,,23.400196075439453,23.113953113555908,23.414087057113647,dot,"[0.06, 0.06, 0.08, 0.06, 0.1, 0.08]","[[0.2333794889108542, 0.5108688068097712], [0.17720399199515413, 0.06488002481085814], [0.3526024925964592, 0.16961020277143707], [0.1596713132306006, 0.321837067503818], [0.0007438407140586783, 0.18344495120876914], [0.42757463853404776, 0.37786691715169374]]",density,black,,,D002,visual,1,[],"['1', '2', '3', '4']",1,2023.2.3,harveyvisual,2.1,[],8,0.75,
0,pause,0.4,None,None,None,0,61,61,61,,,,,,,,,,,,,D002,visual,1,[],"['1', '2', '3', '4']",1,2023.2.3,harveyvisual,2.1,[],8,0.75,
6,dot,0.3,['dot'],['density'],black,0,62,62,62,,,24.100198984146118,23.814127922058105,24.114094018936157,dot,"[0.1, 0.08, 0.1, 0.08, 0.06, 0.08]","[[0.21259181929123794, -0.28356491423097735], [0.48303195854319764, 0.06048455888335473], [0.22913681079270962, 0.07473613686017411], [0.4939377514137012, -0.2837040300549214], [0.055643620130747785, -0.14290468481535015], [0.3711413815128542, -0.10952979375652658]]",density,black,,,D002,visual,1,[],"['1', '2', '3', '4']",1,2023.2.3,harveyvisual,2.1,[],8,0.75,
0,pause,0.4,None,None,None,0,63,63,63,,,,,,,,,,,,,D002,visual,1,[],"['1', '2', '3', '4']",1,2023.2.3,harveyvisual,2.1,[],8,0.75,
6,dot,0.3,['dot'],['density'],black,0,64,64,64,,,24.80019998550415,24.514067888259888,24.814049005508423,dot,"[0.1, 0.08, 0.1, 0.08, 0.06, 0.1]","[[-0.3075905201299059, -0.4396409988488083], [-0.19740249700094745, -0.17714391351551703], [0.053731853964380204, -0.5240815929277938], [0.045148855841778586, -0.17580561296456876], [0.17596231810730836, -0.3386358025171148], [-0.08995737585576556, -0.36423659604885134]]",density,black,,,D002,visual,1,[],"['1', '2', '3', '4']",1,2023.2.3,harveyvisual,2.1,[],8,0.75,
0,pause,0.4,None,None,None,0,65,65,65,,,,,,,,,,,,,D002,visual,1,[],"['1', '2', '3', '4']",1,2023.2.3,harveyvisual,2.1,[],8,0.75,
6,dot,0.3,['dot'],['density'],black,0,66,66,66,,,25.500195026397705,25.21391797065735,25.51403307914734,dot,"[0.1, 0.06, 0.1, 0.1, 0.1, 0.08]","[[0.1344939073868, 0.11682503965153783], [0.2622842826516073, -0.1576809643807538], [0.491422654665352, 0.2653315688189552], [0.5669231994484553, 0.0667155191364867], [0.2299276458131091, 0.29835232047215776], [0.3356420801536577, 0.10517090915368521]]",density,black,,,D002,visual,1,[],"['1', '2', '3', '4']",1,2023.2.3,harveyvisual,2.1,[],8,0.75,
0,pause,0.4,None,None,None,0,67,67,67,,,,,,,,,,,,,D002,visual,1,[],"['1', '2', '3', '4']",1,2023.2.3,harveyvisual,2.1,[],8,0.75,
6,dot,0.3,['dot'],['density'],white,0,68,68,68,,,26.200212001800537,25.914026975631714,26.213865041732788,dot,"[0.1, 0.1, 0.1, 0.1, 0.06, 0.06]","[[-0.08086177951302478, 0.2470577028799217], [0.17809040740055945, 0.25721690350386706], [0.248993691455746, -0.144418230259854], [0.04260816027356476, -0.17251108440570345], [0.26201279645255604, 0.07253913185781388], [-0.0017619790798508912, 0.027830886297901026]]",density,white,,,D002,visual,1,[],"['1', '2', '3', '4']",1,2023.2.3,harveyvisual,2.1,[],8,0.75,
0,pause,0.4,None,None,None,0,69,69,69,,,,,,,,,,,1,26.27962303161621,D002,visual,1,[],"['1', '2', '3', '4']",1,2023.2.3,harveyvisual,2.1,[],8,0.75,
6,dot,0.3,['dot'],['density'],black,0,70,70,70,,,26.900212049484253,26.614005088806152,26.913996934890747,dot,"[0.08, 0.08, 0.06, 0.08, 0.08, 0.06]","[[-0.21871154593458392, 0.523205648483303], [-0.10311842393244862, 0.3355489225101837], [0.008055670172287269, 0.5366903261171385], [0.1303263863168633, 0.3782575370349718], [0.03185769749340688, 0.17145177849191712], [-0.2810167974491763, 0.15418865533644557]]",density,black,,,D002,visual,1,[],"['1', '2', '3', '4']",1,2023.2.3,harveyvisual,2.1,[],8,0.75,
0,pause,0.4,None,None,None,0,71,71,71,,,,,,,,,,,,,D002,visual,1,[],"['1', '2', '3', '4']",1,2023.2.3,harveyvisual,2.1,[],8,0.75,
7,dot,0.3,['dot'],['density'],black,0,72,72,72,,,27.600203037261963,27.313853979110718,27.613980054855347,dot,"[0.1, 0.1, 0.06, 0.08, 0.1, 0.06, 0.06]","[[0.27964692832129656, -0.15500474148311624], [0.48019533028943556, 0.09933774746227163], [0.08203545767143021, 0.28019381302663365], [0.05572057582720619, -0.1426303369841539], [0.31711281236335803, 0.2944831276535668], [-0.041479771322150735, 0.11885700406191958], [0.21045310206912196, 0.07075003364957701]]",density,black,,,D002,visual,1,[],"['1', '2', '3', '4']",1,2023.2.3,harveyvisual,2.1,[],8,0.75,
0,pause,0.4,None,None,None,0,73,73,73,,,,,,,,,,,,,D002,visual,1,[],"['1', '2', '3', '4']",1,2023.2.3,harveyvisual,2.1,[],8,0.75,
7,dot,0.3,['dot'],['density'],black,0,74,74,74,,,28.300199031829834,28.014008045196533,28.31382703781128,dot,"[0.06, 0.08, 0.06, 0.1, 0.06, 0.1, 0.1]","[[-0.026372969700101213, 0.05085620782211805], [-0.16304282038196347, -0.3616501386780019], [-0.013762327205412121, -0.14910430285435466], [0.14729449770710015, -0.3647544547161306], [-0.22494517313234175, -0.12035103032643314], [-0.36514670174418407, -0.33057163197754225], [0.21417125919861074, -0.06627923590771367]]",density,black,,,D002,visual,1,[],"['1', '2', '3', '4']",1,2023.2.3,harveyvisual,2.1,[],8,0.75,
0,pause,0.4,None,None,None,0,75,75,75,,,,,,,,,,,,,D002,visual,1,[],"['1', '2', '3', '4']",1,2023.2.3,harveyvisual,2.1,[],8,0.75,
7,dot,0.3,['dot'],['density'],black,0,76,76,76,,,29.000216960906982,28.714004039764404,29.013997077941895,dot,"[0.1, 0.08, 0.06, 0.08, 0.08, 0.06, 0.1]","[[-0.4123410031792677, -0.32555807737620884], [-0.11281232420725038, -0.2658066965482441], [-0.16970574590124413, 0.10972852905085191], [-0.380148642061964, 0.19816541478521793], [-0.49975943015608576, -0.10400723965324657], [-0.30003386022098844, -0.09340949099572564], [-0.0679185705411078, -0.06780919729272472]]",density,black,,,D002,visual,1,[],"['1', '2', '3', '4']",1,2023.2.3,harveyvisual,2.1,[],8,0.75,
0,pause,0.4,None,None,None,0,77,77,77,,,,,,,,,,,,,D002,visual,1,[],"['1', '2', '3', '4']",1,2023.2.3,harveyvisual,2.1,[],8,0.75,
7,dot,0.3,['dot'],['density'],white,0,78,78,78,,,29.700207948684692,29.41400909423828,29.713978052139282,dot,"[0.08, 0.1, 0.08, 0.1, 0.08, 0.08, 0.1]","[[0.13823229125104186, -0.11287424625882309], [-0.082914425993103, 0.43156227464827385], [0.30107400633957315, 0.2583336012722512], [-0.1103107855725706, 0.20298726112520996], [0.37862923877470095, 0.05664428164281185], [0.10057609128089995, 0.3089177590539603], [0.1009283971288976, 0.1061295027106774]]",density,white,,,D002,visual,1,[],"['1', '2', '3', '4']",1,2023.2.3,harveyvisual,2.1,[],8,0.75,
0,pause,0.4,None,None,None,0,79,79,79,,,,,,,,,,,1,29.80503511428833,D002,visual,1,[],"['1', '2', '3', '4']",1,2023.2.3,harveyvisual,2.1,[],8,0.75,
7,dot,0.3,['dot'],['density'],black,0,80,80,80,,,30.40020203590393,30.11399006843567,30.413975954055786,dot,"[0.1, 0.06, 0.1, 0.06, 0.1, 0.08, 0.06]","[[-0.4123410031792677, -0.32555807737620884], [-0.11281232420725038, -0.2658066965482441], [-0.16970574590124413, 0.10972852905085191], [-0.380148642061964, 0.19816541478521793], [-0.49975943015608576, -0.10400723965324657], [-0.30003386022098844, -0.09340949099572564], [-0.0679185705411078, -0.06780919729272472]]",density,black,,,D002,visual,1,[],"['1', '2', '3', '4']",1,2023.2.3,harveyvisual,2.1,[],8,0.75,
0,pause,0.4,None,None,None,0,81,81,81,,,,,,,,,,,,,D002,visual,1,[],"['1', '2', '3', '4']",1,2023.2.3,harveyvisual,2.1,[],8,0.75,
7,dot,0.3,['dot'],['density'],black,0,82,82,82,,,31.100207090377808,30.813761949539185,31.113996028900146,dot,"[0.08, 0.1, 0.08, 0.1, 0.1, 0.06, 0.08]","[[-0.026372969700101213, 0.05085620782211805], [-0.16304282038196347, -0.3616501386780019], [-0.013762327205412121, -0.14910430285435466], [0.14729449770710015, -0.3647544547161306], [-0.22494517313234175, -0.12035103032643314], [-0.36514670174418407, -0.33057163197754225], [0.21417125919861074, -0.06627923590771367]]",density,black,,,D002,visual,1,[],"['1', '2', '3', '4']",1,2023.2.3,harveyvisual,2.1,[],8,0.75,
0,pause,0.4,None,None,None,0,83,83,83,,,,,,,,,,,,,D002,visual,1,[],"['1', '2', '3', '4']",1,2023.2.3,harveyvisual,2.1,[],8,0.75,
8,dot,0.3,['dot'],['density'],black,0,84,84,84,,,31.800200939178467,31.513899087905884,31.813884973526,dot,"[0.1, 0.08, 0.08, 0.08, 0.06, 0.06, 0.08, 0.1]","[[0.48529715144174124, -0.2697678579736521], [0.37309741842769656, 0.0699077870123373], [0.051182379473491794, 0.02141531407813483], [0.5234917469593858, 0.26578075419350655], [0.558201411832675, -0.037120345964853765], [0.22738215197141995, 0.24608732841731215], [0.3038957292845804, -0.12934366054116395], [0.024689158081869923, 0.25216756052328354]]",density,black,,,D002,visual,1,[],"['1', '2', '3', '4']",1,2023.2.3,harveyvisual,2.1,[],8,0.75,
0,pause,0.4,None,None,None,0,85,85,85,,,,,,,,,,,,,D002,visual,1,[],"['1', '2', '3', '4']",1,2023.2.3,harveyvisual,2.1,[],8,0.75,
8,dot,0.3,['dot'],['density'],black,0,86,86,86,,,32.500202894210815,32.213879108428955,32.51372790336609,dot,"[0.08, 0.08, 0.1, 0.1, 0.1, 0.06, 0.1, 0.06]","[[0.3129921899656287, 0.2226642157048143], [0.41298599633021416, -0.001766323215076977], [0.013785601627645026, 0.39275307090924344], [-0.009407606244017683, 0.02333367620517349], [0.20163499737495916, -0.08731087547331118], [0.31235423233837933, 0.42762820752661124], [0.10705959187470679, 0.21318577255187057], [-0.13233007013452783, 0.20605257250075132]]",density,black,,,D002,visual,1,[],"['1', '2', '3', '4']",1,2023.2.3,harveyvisual,2.1,[],8,0.75,
0,pause,0.4,None,None,None,0,87,87,87,,,,,,,,,,,,,D002,visual,1,[],"['1', '2', '3', '4']",1,2023.2.3,harveyvisual,2.1,[],8,0.75,
8,dot,0.3,['dot'],['density'],black,0,88,88,88,,,33.200196981430054,32.913881063461304,33.213862895965576,dot,"[0.08, 0.06, 0.1, 0.06, 0.1, 0.06, 0.1, 0.06]","[[-0.13470540342303577, 0.06408260861786476], [-0.32633744656496655, 0.15045505181492372], [-0.2908673593763413, -0.0762007135190446], [-0.5368971138264618, 0.18470905249118252], [0.055331558945424124, 0.1732254888039505], [-0.30909967543404826, 0.3845911877556102], [-0.0777863596696305, 0.41921053595603236], [0.03181857584637903, -0.08967320215721851]]",density,black,,,D002,visual,1,[],"['1', '2', '3', '4']",1,2023.2.3,harveyvisual,2.1,[],8,0.75,
0,pause,0.4,None,None,None,0,89,89,89,,,,,,,,,,,,,D002,visual,1,[],"['1', '2', '3', '4']",1,2023.2.3,harveyvisual,2.1,[],8,0.75,
8,dot,0.3,['dot'],['density'],black,0,90,90,90,,,33.90019106864929,33.61387801170349,33.91386389732361,dot,"[0.08, 0.1, 0.1, 0.08, 0.1, 0.1, 0.06, 0.1]","[[0.17295790489511154, -0.46037743866749825], [0.1416591427765588, 0.05421051799673566], [0.21994266958916148, -0.13656690113679631], [0.3639906379971415, 0.0627265571221228], [0.015481321741344221, -0.13916897583717935], [0.440802488837635, -0.2883976186876931], [0.5157567705321767, -0.08800602901884749], [0.24768837887357187, 0.24424825162618136]]",density,black,,,D002,visual,1,[],"['1', '2', '3', '4']",1,2023.2.3,harveyvisual,2.1,[],8,0.75,
0,pause,0.4,None,None,None,0,91,91,91,,,,,,,,,,,,,D002,visual,1,[],"['1', '2', '3', '4']",1,2023.2.3,harveyvisual,2.1,[],8,0.75,
8,dot,0.3,['dot'],['density'],black,0,92,92,92,,,34.60019111633301,34.31387400627136,34.61386704444885,dot,"[0.06, 0.06, 0.06, 0.06, 0.06, 0.06, 0.1, 0.1]","[[-0.3290570048964025, 0.45712517183014534], [-0.12351728740192595, 0.19722326774196852], [-0.44617383739254307, -0.0315435053038489], [0.05824565693526591, 0.08769012542188236], [-0.4904255353169048, 0.31423420558286136], [-0.32491150822629034, 0.16696319418744587], [-0.12614658653380179, 0.4043789036591275], [0.10044097339982726, 0.3130264767685494]]",density,black,,,D002,visual,1,[],"['1', '2', '3', '4']",1,2023.2.3,harveyvisual,2.1,[],8,0.75,
0,pause,0.4,None,None,None,0,93,93,93,,,,,,,,,,,,,D002,visual,1,[],"['1', '2', '3', '4']",1,2023.2.3,harveyvisual,2.1,[],8,0.75,
8,dot,0.3,['dot'],['density'],black,0,94,94,94,,,35.30020999908447,35.01387596130371,35.313770055770874,dot,"[0.08, 0.06, 0.08, 0.1, 0.08, 0.06, 0.1, 0.1]","[[0.11895989691250043, -0.4531686673706004], [-0.16516506104640707, -0.03240926074491446], [0.03539791161122963, 0.017706842047032937], [0.2602726326243711, -0.2021454296306109], [-0.07993394910368964, -0.42305571474287856], [-0.2833532244481061, -0.22994433794129646], [0.3633812293108319, -0.4186270945829863], [-0.04042382183071007, -0.1991401458565282]]",density,black,,,D002,visual,1,[],"['1', '2', '3', '4']",1,2023.2.3,harveyvisual,2.1,[],8,0.75,
0,pause,0.4,None,None,None,0,95,95,95,,,,,,,,,,,,,D002,visual,1,[],"['1', '2', '3', '4']",1,2023.2.3,harveyvisual,2.1,[],8,0.75,
9,dot,0.3,['dot'],['density'],black,0,96,96,96,,,36.00021505355835,35.71373701095581,36.01371097564697,dot,"[0.06, 0.08, 0.06, 0.06, 0.06, 0.06, 0.06, 0.06, 0.08]","[[0.26246064217380705, -0.20881461689055444], [-0.05738061480455322, -0.2104867327221427], [-0.15279665209492657, -0.4570696492981838], [-0.25848085101471047, 0.03539482855188907], [0.05438928923437074, -0.041842351158073866], [-0.266438460152573, -0.22510974363943476], [-0.08630847597628627, 0.16925380219028288], [0.1378984379274782, 0.16880467564350782], [0.14927440204233722, -0.41110624343475755]]",density,black,,,D002,visual,1,[],"['1', '2', '3', '4']",1,2023.2.3,harveyvisual,2.1,[],8,0.75,
0,pause,0.4,None,None,None,0,97,97,97,,,,,,,,,,,,,D002,visual,1,[],"['1', '2', '3', '4']",1,2023.2.3,harveyvisual,2.1,[],8,0.75,
9,dot,0.3,['dot'],['density'],black,0,98,98,98,,,36.70021605491638,36.413716077804565,36.71356010437012,dot,"[0.08, 0.08, 0.1, 0.08, 0.08, 0.06, 0.06, 0.08, 0.06]","[[0.17250841666444466, -0.5173949811024123], [-0.03744062107829021, -0.3895067986023326], [0.30010350549611725, -0.35742528465303014], [0.33064876224298684, -0.08057424749072183], [-0.16743636965090838, -0.09291053242622109], [0.1226827020066543, -0.24711763375004436], [0.047527772487498496, -0.037432207059122605], [0.20928928941955194, 0.09999474740890861], [-0.30040876562534896, -0.42726910911839744]]",density,black,,,D002,visual,1,[],"['1', '2', '3', '4']",1,2023.2.3,harveyvisual,2.1,[],8,0.75,
0,pause,0.4,None,None,None,0,99,99,99,,,,,,,,,,,,,D002,visual,1,[],"['1', '2', '3', '4']",1,2023.2.3,harveyvisual,2.1,[],8,0.75,
9,dot,0.3,['dot'],['density'],black,0,100,100,100,,,37.40021896362305,37.11354899406433,37.413678884506226,dot,"[0.08, 0.08, 0.1, 0.08, 0.1, 0.08, 0.1, 0.06, 0.08]","[[0.27429149071172837, 0.34251676390746333], [0.46797507249945486, 0.005491811463162166], [0.21235580877939833, 0.08757146436558581], [0.046223583492975936, 0.2932249054251131], [0.07051592556679111, -0.0704922843318231], [0.30438918969270623, -0.13028831600800136], [0.11534598117609637, 0.5236829685630697], [-0.06673610159464062, 0.12515255452502297], [-0.14439101605953233, -0.1332028051536465]]",density,black,,,D002,visual,1,[],"['1', '2', '3', '4']",1,2023.2.3,harveyvisual,2.1,[],8,0.75,
0,pause,0.4,None,None,None,0,101,101,101,,,,,,,,,,,,,D002,visual,1,[],"['1', '2', '3', '4']",1,2023.2.3,harveyvisual,2.1,[],8,0.75,
9,dot,0.3,['dot'],['density'],black,0,102,102,102,,,38.100199937820435,37.81367492675781,38.113670110702515,dot,"[0.08, 0.08, 0.08, 0.06, 0.1, 0.06, 0.06, 0.1, 0.1]","[[0.5176022259896301, 0.07013652950073157], [0.29073914382076843, 0.49095716113391286], [0.25755010907869064, 0.10321661572421419], [0.11549350267606502, 0.37871636325142816], [-0.040248060121338324, 0.07603447111469516], [0.35733910828644905, -0.07238149579930037], [0.09184169877402729, -0.10424630849328012], [-0.10934901156313583, -0.14911132891814113], [0.4158094160330474, 0.26019999263529187]]",density,black,,,D002,visual,1,[],"['1', '2', '3', '4']",1,2023.2.3,harveyvisual,2.1,[],8,0.75,
0,pause,0.4,None,None,None,0,103,103,103,,,,,,,,,,,,,D002,visual,1,[],"['1', '2', '3', '4']",1,2023.2.3,harveyvisual,2.1,[],8,0.75,
9,dot,0.3,['dot'],['density'],black,0,104,104,104,,,38.80019402503967,38.51353192329407,38.81365489959717,dot,"[0.08, 0.06, 0.06, 0.1, 0.1, 0.1, 0.08, 0.1, 0.08]","[[-0.5586095828397086, -0.08452232608263664], [-0.5120381862419278, 0.15370428824398014], [-0.08562135647518901, 0.024493186907675612], [-0.3204263364507457, 0.2397592637991136], [-0.21279117965626912, -0.18999926927512983], [-0.34615304282718484, -0.002506468551820401], [-0.32642794983948487, 0.4412976810435594], [-0.12278716272436474, 0.3390467791696382], [0.05505897535061007, 0.17426903254619158]]",density,black,,,D002,visual,1,[],"['1', '2', '3', '4']",1,2023.2.3,harveyvisual,2.1,[],8,0.75,
0,pause,0.4,None,None,None,0,105,105,105,,,,,,,,,,,,,D002,visual,1,[],"['1', '2', '3', '4']",1,2023.2.3,harveyvisual,2.1,[],8,0.75,
9,dot,0.3,['dot'],['density'],white,0,106,106,106,,,39.500195026397705,39.21355104446411,39.513631105422974,dot,"[0.1, 0.06, 0.06, 0.06, 0.08, 0.1, 0.06, 0.06, 0.06]","[[-0.23139737267821464, 0.4582894628988488], [-0.22563640623437264, 0.09161215191469056], [0.08653997658409265, 0.18408404769425912], [-0.34134765149242685, 0.2795210921938051], [-0.45752590330905135, 0.08752711185150099], [-0.035040587470716034, -0.07657027701648178], [-0.27120713465948276, -0.1309343981320133], [-0.3537313425617488, -0.374673418779248], [-0.09309732942360581, 0.2754840453600595]]",density,white,,,D002,visual,1,[],"['1', '2', '3', '4']",1,2023.2.3,harveyvisual,2.1,[],8,0.75,
0,pause,0.4,None,None,None,0,107,107,107,,,,,,,,,,,1,39.79718899726868,D002,visual,1,[],"['1', '2', '3', '4']",1,2023.2.3,harveyvisual,2.1,[],8,0.75,
20,dot,0.3,['dot'],['density'],black,0,108,108,108,,,40.200196981430054,39.91362690925598,40.21360802650452,dot,"[0.06, 0.06, 0.1, 0.06, 0.1, 0.1, 0.08, 0.1, 0.08, 0.06, 0.1, 0.06, 0.1, 0.08, 0.08, 0.1, 0.06, 0.06, 0.08, 0.08]","[[0.12069721835971692, 0.4020802700283699], [0.5669021881618034, -0.1775200389094642], [0.18087334176156866, 0.20959263713130805], [0.16818941454112146, -0.3434797078635021], [-0.09810088290553554, -0.32683300491561235], [0.06314128311841649, -0.07387174234798488], [-0.36361424981749557, 0.08048892534092111], [-0.17007671409890285, 0.46111488449369986], [0.47711594794585876, 0.07262431899764515], [0.3343323678801051, -0.43588092938760686], [0.43104856168599637, 0.3324564948499365], [-0.569435601840652, 0.13188020210146936], [0.31011335045538635, -0.11990549013765694], [-0.11085098709763458, 0.047584711167334426], [-0.4518154620500353, -0.17637944526405747], [-0.3161244433555602, -0.49857671440381984], [0.06465425305185935, -0.543897234656929], [-0.22469918806287192, -0.165637677865266], [-0.4042387328650312, 0.31923662063452063], [0.01163652691968664, 0.560435751001707]]",density,black,,,D002,visual,1,[],"['1', '2', '3', '4']",1,2023.2.3,harveyvisual,2.1,[],8,0.75,
0,pause,0.4,None,None,None,0,109,109,109,,,,,,,,,,,,,D002,visual,1,[],"['1', '2', '3', '4']",1,2023.2.3,harveyvisual,2.1,[],8,0.75,
20,dot,0.3,['dot'],['density'],black,0,110,110,110,,,40.90021109580994,40.61352205276489,40.913604974746704,dot,"[0.06, 0.06, 0.1, 0.08, 0.08, 0.06, 0.08, 0.06, 0.08, 0.08, 0.06, 0.08, 0.1, 0.06, 0.06, 0.08, 0.1, 0.08, 0.1, 0.08]","[[0.17513136005129193, -0.40011572408480345], [0.1470208006977124, 0.2236252113010242], [-0.2542500520835741, 0.016858225465345766], [0.26820203114216823, 0.4138221392209439], [0.5010300543554599, -0.147063800227004], [0.2676443392212591, 0.007982983284745782], [0.5704496990498554, 0.12925667532172552], [-0.09150382787808231, -0.1155233587021689], [-0.49878778312251615, 0.0722190012964703], [-0.3931326395543534, -0.4512909356936257], [0.382427501829844, 0.18880677160139192], [-0.3993409593034141, -0.14322838459326326], [-0.05454448425233427, 0.4770419691257245], [-0.02982674486601322, -0.4094221391515641], [0.10752883791380374, -0.5778931891849146], [-0.5064288334894064, 0.3011148300834642], [-0.2229439051804889, -0.3337515342315882], [0.34125482506265237, -0.25652022470312885], [-0.3741500642937192, 0.467376937274653], [-0.08088656848359621, 0.11344004068802682]]",density,black,,,D002,visual,1,[],"['1', '2', '3', '4']",1,2023.2.3,harveyvisual,2.1,[],8,0.75,
0,pause,0.4,None,None,None,0,111,111,111,,,,,,,,,,,,,D002,visual,1,[],"['1', '2', '3', '4']",1,2023.2.3,harveyvisual,2.1,[],8,0.75,
20,dot,0.3,['dot'],['density'],black,0,112,112,112,,,41.60020303726196,41.31351900100708,41.6134569644928,dot,"[0.08, 0.06, 0.08, 0.08, 0.1, 0.1, 0.06, 0.08, 0.06, 0.1, 0.1, 0.08, 0.1, 0.1, 0.08, 0.1, 0.08, 0.06, 0.08, 0.1]","[[-0.3068633623330642, 0.015204550297331587], [0.05808321978019049, -0.23533974216260922], [0.3820924030239763, 0.4415202946016538], [-0.5109817523554245, 0.1833646502429655], [0.4342184975675495, 0.046202523363164716], [0.3115270535472896, -0.41331015366066004], [-0.41496159487179884, -0.2796330440228174], [0.4119333410048315, -0.1805205335198447], [-0.025295645185117066, 0.3855454066880679], [-0.5584120949258031, -0.10912704616900432], [-0.022785457931697506, -0.46846156087746194], [0.13670906261489357, 0.17674693053863133], [-0.18381933462136174, 0.49395440055269124], [-0.3345887550386632, -0.477130378859757], [-0.14045537451359552, 0.1293828905912452], [0.010558630748110143, -0.01966358615754704], [-0.15450841932803816, -0.3246176851053905], [0.26298282564295483, -0.051629435695107695], [-0.282414900817553, 0.30014061730764985], [0.5226654044146511, 0.23074537568917436]]",density,black,,,D002,visual,1,[],"['1', '2', '3', '4']",1,2023.2.3,harveyvisual,2.1,[],8,0.75,
0,pause,0.4,None,None,None,0,113,113,113,,,,,,,,,,,,,D002,visual,1,[],"['1', '2', '3', '4']",1,2023.2.3,harveyvisual,2.1,[],8,0.75,
20,dot,0.3,['dot'],['density'],black,0,114,114,114,,,42.30021905899048,42.01349711418152,42.31344294548035,dot,"[0.1, 0.08, 0.06, 0.1, 0.06, 0.08, 0.06, 0.06, 0.08, 0.1, 0.08, 0.06, 0.08, 0.1, 0.1, 0.08, 0.1, 0.06, 0.08, 0.08]","[[-0.353226284643762, -0.24588636545056852], [-0.33005945377705287, -0.4856229658667693], [-0.17925417148816974, 0.23064969971589266], [0.3508498933032518, 0.02711935919556352], [-0.5595295796383754, 0.06878368127340737], [0.3469857791756391, 0.4035773886289958], [-0.41819183146410044, 0.26002844540873343], [0.1339320550735824, 0.27935108270950315], [-0.1263908820424171, -0.12849189973689545], [-0.5436924646815096, -0.1771294186924841], [0.17402571863295613, -0.5278186545106305], [-0.24636753823251373, 0.5420804277168395], [0.12557233517865318, 0.5377239727117288], [-0.3333042823732077, 0.05350137528378196], [0.45079446583236027, -0.14136948438359087], [-0.08643201722980443, -0.4544061690282484], [0.16589130402849905, -0.0809680894590995], [0.41597516207527485, -0.4341451959627169], [-0.09303137167195374, 0.4108468827425188], [0.5395907489117654, 0.11780125765428173]]",density,black,,,D002,visual,1,[],"['1', '2', '3', '4']",1,2023.2.3,harveyvisual,2.1,[],8,0.75,
0,pause,0.4,None,None,None,0,115,115,115,,,,,,,,,,,,,D002,visual,1,[],"['1', '2', '3', '4']",1,2023.2.3,harveyvisual,2.1,[],8,0.75,
20,dot,0.3,['dot'],['density'],black,0,116,116,116,,,43.00019598007202,42.71347904205322,43.01342797279358,dot,"[0.08, 0.08, 0.1, 0.06, 0.06, 0.1, 0.06, 0.1, 0.08, 0.08, 0.06, 0.06, 0.1, 0.1, 0.06, 0.08, 0.1, 0.08, 0.1, 0.1]","[[-0.42708047402577753, 0.3773495250497], [-0.01920188818182189, 0.4270194437496978], [0.3039547755668326, -0.20142158656640818], [-0.5836672797285721, -0.027129745065813532], [0.17123487412875238, 0.2102738398345434], [0.4875958069079508, 0.2603389681800338], [-0.5187846578651238, 0.15811719380935224], [0.19936391319256475, -0.007585376980621783], [-0.2389166589440675, 0.009202331474558068], [0.5961563826876565, 0.09610048628069509], [0.4864906608112062, -0.3479804255263656], [0.022018927327179805, -0.46902110560324173], [-0.5646255875976746, -0.21775907417564733], [0.2702358816161645, 0.4759958412336184], [-0.10882911834663694, -0.24032102680686612], [-0.0040941749881612255, 0.08653726216587043], [-0.246546327052098, 0.4482037990095282], [-0.31652766950170486, -0.492472224056821], [0.5275439540949508, -0.11954597581355489], [0.22334743436185334, -0.4739473206830102]]",density,black,,,D002,visual,1,[],"['1', '2', '3', '4']",1,2023.2.3,harveyvisual,2.1,[],8,0.75,
0,pause,0.4,None,None,None,0,117,117,117,,,,,,,,,,,,,D002,visual,1,[],"['1', '2', '3', '4']",1,2023.2.3,harveyvisual,2.1,[],8,0.75,
20,dot,0.3,['dot'],['density'],black,0,118,118,118,,,43.70020008087158,43.413602113723755,43.713412046432495,dot,"[0.08, 0.08, 0.1, 0.1, 0.1, 0.08, 0.1, 0.08, 0.06, 0.06, 0.08, 0.1, 0.08, 0.1, 0.1, 0.1, 0.06, 0.1, 0.06, 0.06]","[[-0.4406012022963478, -0.0578112889961771], [0.012004080100405323, 0.24991783199543505], [0.33959754161897415, -0.049808189490478216], [-0.3780902787203786, -0.45365894613937563], [-0.5543360077969333, -0.23584486344425454], [-0.4324761337982289, 0.38792721825139914], [0.051014386878109885, 0.4531428874536536], [0.41705536701444, -0.3632505800413698], [0.3617685116142556, 0.2359905105935204], [-0.21056055398677448, -0.5483132874553971], [0.25603164693640157, 0.4012641099953088], [0.19757463792375152, -0.21197544437445737], [0.5729801099941939, 0.15493802714321933], [-0.16904027957217554, 0.042611070934803985], [-0.4872269703613978, 0.1679991363338189], [-0.23483728277140092, -0.14183902703951023], [-0.1784254678583666, 0.35676327363932536], [0.22778259592646244, -0.5257451085311019], [0.596384312697613, -0.06394628674741716], [0.15494650200085047, 0.02562685799919384]]",density,black,,,D002,visual,1,[],"['1', '2', '3', '4']",1,2023.2.3,harveyvisual,2.1,[],8,0.75,
0,pause,0.4,None,None,None,0,119,119,119,,,,,,,,,,,,,D002,visual,1,[],"['1', '2', '3', '4']",1,2023.2.3,harveyvisual,2.1,[],8,0.75,
20,dot,0.3,['dot'],['density'],black,0,120,120,120,,,44.40019488334656,44.113544940948486,44.41340398788452,dot,"[0.1, 0.1, 0.06, 0.08, 0.1, 0.08, 0.08, 0.06, 0.1, 0.1, 0.1, 0.08, 0.06, 0.1, 0.1, 0.08, 0.08, 0.06, 0.08, 0.1]","[[0.12014175932645454, -0.03567204734793139], [-0.4594137193168869, 0.3915240353544245], [-0.3143592886798825, -0.41451480412989605], [0.46155113463843855, -0.22015540474338752], [-0.15846037088473186, 0.4318995024199537], [0.07413826179267513, -0.45957514037395475], [-0.4874716520707465, -0.18315851151198356], [0.07634785548810774, 0.190711824813677], [0.2859367734441246, -0.13997366590926247], [0.2830129823332327, 0.3641009274007303], [-0.28780686556005286, -0.19072522692937266], [0.5459880280486563, 0.18772855769312385], [-0.10871960455081114, 0.08162640183463599], [0.5901717520437487, -0.037710316831182034], [-0.13344825450609166, -0.49702709347825497], [-0.03332528738286589, 0.5779801023600273], [-0.6046387494219087, -0.012869472467525287], [-0.04638901165492837, -0.1514760025429605], [-0.5417740544088089, 0.18097881319630604], [-0.25215101251474004, 0.2544961798303116]]",density,black,,,D002,visual,1,[],"['1', '2', '3', '4']",1,2023.2.3,harveyvisual,2.1,[],8,0.75,
0,pause,0.4,None,None,None,0,121,121,121,,,,,,,,,,,,,D002,visual,1,[],"['1', '2', '3', '4']",1,2023.2.3,harveyvisual,2.1,[],8,0.75,
20,dot,0.3,['dot'],['density'],black,0,122,122,122,,,45.10020995140076,44.81339406967163,45.113521099090576,dot,"[0.08, 0.1, 0.1, 0.08, 0.1, 0.06, 0.06, 0.1, 0.08, 0.08, 0.06, 0.1, 0.1, 0.1, 0.1, 0.08, 0.06, 0.08, 0.08, 0.1]","[[-0.5247113692584304, -0.04101674114963039], [-0.256002646620097, 0.4369021769787945], [-0.4501363285922435, -0.3838669191676089], [-0.25457131496380303, -0.12322949928425475], [-0.06471809995928723, 0.013330891799158251], [0.016374712456401763, -0.37491482296927203], [-0.4836683623457328, 0.34375807102354694], [0.2734210459066977, -0.3454997882942615], [0.5885253046706004, -0.11121291405411249], [0.07747666925422703, -0.17717339398968923], [0.17575367122174734, 0.5014676675393139], [0.20677228722053098, 0.17386890936507848], [-0.0983538093167321, 0.29184663461116345], [0.2571803877856551, -0.06186899821897368], [0.3987566173057103, 0.34659298335070005], [-0.19464266767509447, -0.46068413424199106], [0.15481610284037384, -0.5205908584164859], [-0.116147413175193, 0.5844763551079174], [0.5355262318369084, 0.20063281976241415], [-0.26577742337939836, 0.16012360128530634]]",density,black,,,D002,visual,1,[],"['1', '2', '3', '4']",1,2023.2.3,harveyvisual,2.1,[],8,0.75,
0,pause,0.4,None,None,None,0,123,123,123,,,,,,,,,,,,,D002,visual,1,[],"['1', '2', '3', '4']",1,2023.2.3,harveyvisual,2.1,[],8,0.75,
20,dot,0.3,['dot'],['density'],black,0,124,124,124,,,45.80020308494568,45.513516902923584,45.813498973846436,dot,"[0.08, 0.08, 0.06, 0.08, 0.1, 0.08, 0.06, 0.08, 0.1, 0.06, 0.1, 0.06, 0.1, 0.06, 0.08, 0.08, 0.06, 0.1, 0.06, 0.1]","[[-0.4504621742093654, -0.2832806810135359], [-0.04460814715767225, -0.3336537604368674], [-0.33766791584460776, 0.4572417380863123], [-0.19966604003001726, 0.17734284096924036], [0.27352385878442065, -0.21832738473330365], [0.12608026394563265, 0.3639176855175086], [0.2724250941957299, -0.4465664530511954], [0.3247293730542411, 0.41919337457958383], [0.4179505750493332, 0.06389715803547286], [-0.47389726452263536, 0.13603964937767593], [0.23525204036141056, 0.14269568096097662], [-0.01505007824983251, -0.12936395820609697], [-0.07176777328968986, 0.39410460966493865], [-0.20702237572101395, -0.10130324276341734], [-0.5927578192560136, -0.030006882718375455], [0.01268984302618481, -0.6003475572285892], [0.6047384427166486, 0.013733538894943817], [0.501639562320295, -0.21999461451293098], [-0.2745255159805639, -0.43463759785268163], [0.5046970900664177, 0.32464733618153974]]",density,black,,,D002,visual,1,[],"['1', '2', '3', '4']",1,2023.2.3,harveyvisual,2.1,[],8,0.75,
0,pause,0.4,None,None,None,0,125,125,125,,,,,,,,,,,,,D002,visual,1,[],"['1', '2', '3', '4']",1,2023.2.3,harveyvisual,2.1,[],8,0.75,
20,dot,0.3,['dot'],['density'],black,0,126,126,126,,,46.500211000442505,46.213484048843384,46.51350808143616,dot,"[0.08, 0.08, 0.08, 0.1, 0.06, 0.06, 0.08, 0.06, 0.1, 0.08, 0.08, 0.06, 0.08, 0.08, 0.06, 0.1, 0.08, 0.1, 0.08, 0.06]","[[-0.20781618420578113, -0.30787071557774476], [-0.5490784308582853, -0.015548824493323787], [-0.3957132280405827, -0.43758578043602825], [0.16436412906148035, 0.06773335646076872], [0.2558944720915709, -0.3966138189859082], [-0.22321909839532045, 0.43399751009350107], [0.3243848200235966, 0.2608172429780816], [0.016257620473084766, 0.38132142852426676], [-0.16368232776728342, -0.1136338194798141], [-0.3844289037563533, 0.28925607711937956], [0.5925785246889183, 0.09042437925356045], [0.11096906324576972, -0.5494963193888243], [-0.4622514255665402, -0.253023807802214], [0.32850670741563337, -0.20023492589067693], [0.3094113138677391, 0.5177239157837127], [-0.08817594033506959, 0.2213104103515806], [-0.036706427774679584, -0.4220620312551258], [-0.3540256443139699, -0.055427305298746954], [0.5367965573342562, -0.25726816326140894], [0.36642584221062313, 0.06807581049752193]]",density,black,,,D002,visual,1,[],"['1', '2', '3', '4']",1,2023.2.3,harveyvisual,2.1,[],8,0.75,
0,pause,0.4,None,None,None,0,127,127,127,,,,,,,,,,,,,D002,visual,1,[],"['1', '2', '3', '4']",1,2023.2.3,harveyvisual,2.1,[],8,0.75,
20,dot,0.3,['dot'],['density'],black,0,128,128,128,,,47.200206995010376,46.913330078125,47.213459968566895,dot,"[0.06, 0.06, 0.1, 0.1, 0.1, 0.06, 0.06, 0.08, 0.1, 0.1, 0.08, 0.08, 0.08, 0.08, 0.1, 0.06, 0.1, 0.1, 0.1, 0.06]","[[0.04421656736513169, 0.26353862874458756], [0.251777534842584, -0.31929096323710976], [-0.25207223660662487, -0.2858347790671114], [0.17701336501525922, 0.3996479124760751], [-0.4484480355624958, 0.006260115832168289], [-0.06942332983202137, -0.5420526310494345], [0.2710302079231126, 0.18386038898360835], [0.023474161886136935, -0.32985634618249443], [0.5168763381034828, 0.2785776513963527], [-0.4475997757856094, -0.24993350003087414], [0.53792891804625, -0.22032561560865496], [-0.4687949251268291, 0.3696261059185249], [-0.1871015951605678, -0.03193515999372465], [0.16385875292741003, -0.11469601482215486], [-0.04383061823392853, 0.5203361876603395], [-0.25800781616614404, 0.24498083172110552], [-0.3760714787681503, -0.44661858511614383], [0.4088050895644154, -0.051804242988355564], [0.5517394131129042, 0.08026465346942047], [-0.23891758881943193, 0.5265452947014647]]",density,black,,,D002,visual,1,[],"['1', '2', '3', '4']",1,2023.2.3,harveyvisual,2.1,[],8,0.75,
0,pause,0.4,None,None,None,0,129,129,129,,,,,,,,,,,,,D002,visual,1,[],"['1', '2', '3', '4']",1,2023.2.3,harveyvisual,2.1,[],8,0.75,
20,dot,0.3,['dot'],['density'],black,0,130,130,130,,,47.90020799636841,47.61345911026001,47.91345405578613,dot,"[0.06, 0.1, 0.06, 0.1, 0.08, 0.1, 0.1, 0.08, 0.06, 0.1, 0.08, 0.1, 0.1, 0.08, 0.1, 0.06, 0.06, 0.08, 0.08, 0.1]","[[-0.2878085688699497, -0.39717945771583996], [-0.3478234489573713, 0.0386043721579562], [0.3979289136341383, -0.03881277378874615], [-0.15575758344244167, 0.391392127515343], [0.5293754655165833, -0.18226684197727816], [-0.044226098708527006, 0.12600929465954935], [0.18982217332456808, 0.4717055591419441], [-0.06150057490040195, -0.600630358601009], [0.3836127667292094, -0.4248300695253631], [-0.5511269858307483, 0.10338844131271702], [0.14280511454854605, -0.332574878333123], [0.573497628358329, 0.053079211892772454], [-0.4789856661421197, -0.32955297600863814], [-0.04222235797136176, 0.5565553528619739], [-0.49607653234292126, -0.09969758014913607], [-0.18618310666016513, -0.12138217935413609], [0.22240440182670018, 0.23229653732778666], [0.268343697853356, -0.18134141245544483], [0.41168861669714485, 0.24150633823545398], [-0.42303695535134944, 0.30173897970143404]]",density,black,,,D002,visual,1,[],"['1', '2', '3', '4']",1,2023.2.3,harveyvisual,2.1,[],8,0.75,
0,pause,0.4,None,None,None,0,131,131,131,,,,,,,,,,,,,D002,visual,1,[],"['1', '2', '3', '4']",1,2023.2.3,harveyvisual,2.1,[],8,0.75,
20,dot,0.3,['dot'],['density'],black,0,132,132,132,,,48.60020208358765,48.31327199935913,48.613253116607666,dot,"[0.06, 0.1, 0.08, 0.1, 0.08, 0.1, 0.08, 0.06, 0.08, 0.1, 0.08, 0.1, 0.08, 0.1, 0.08, 0.1, 0.08, 0.08, 0.08, 0.1]","[[-0.0342681207821256, 0.13834111484199585], [-0.28654381436192333, -0.21532527312164507], [0.34902801173098474, 0.09759757291821564], [0.36075511311206254, -0.11842889116826938], [-0.37523846659898663, 0.014560327294171338], [0.5664896058163741, 0.07702429311583295], [0.2843787717252346, -0.4169346868578652], [0.43991655022223874, 0.3628435254689002], [0.023835962874448224, -0.1396137774507586], [0.02703095089508656, -0.46112431840953716], [-0.1075834156674838, 0.5930185980812714], [-0.46626772510764414, 0.26289937366428956], [0.5187951328886856, -0.3014195019568866], [-0.16737606655555898, -0.5309265214820081], [-0.5851469513567542, -0.05481538647776517], [-0.39745278548748897, -0.4299225409500258], [-0.29149264431787225, 0.40617722312090765], [-0.11897135691809468, -0.33668385981150045], [-0.11283757204549622, 0.336493329122328], [0.0878293460313131, 0.46858782824936074]]",density,black,,,D002,visual,1,[],"['1', '2', '3', '4']",1,2023.2.3,harveyvisual,2.1,[],8,0.75,
0,pause,0.4,None,None,None,0,133,133,133,,,,,,,,,,,,,D002,visual,1,[],"['1', '2', '3', '4']",1,2023.2.3,harveyvisual,2.1,[],8,0.75,
20,dot,0.3,['dot'],['density'],white,0,134,134,134,,,49.30021095275879,49.01325702667236,49.313271045684814,dot,"[0.06, 0.06, 0.08, 0.08, 0.1, 0.08, 0.1, 0.06, 0.1, 0.08, 0.08, 0.1, 0.06, 0.08, 0.08, 0.08, 0.08, 0.06, 0.1, 0.08]","[[0.3054730765973894, -0.17596907613264634], [0.20831499921432906, 0.24541189782938988], [0.0042289273070499345, 0.4754050505383389], [0.5488022698989593, -0.1072015634150702], [0.3743455828678832, 0.0767675387534712], [0.5904755607757023, 0.0795667686993059], [-0.053790381718215596, 0.04006583028146704], [-0.44992413296071443, -0.2596616730975044], [-0.16005112475984545, -0.12940526736003383], [0.2070019206432504, 0.47908506658547434], [0.13773159014434577, -0.40852686641561], [-0.5812817936207435, 0.05681820159400025], [0.4159794853903426, -0.4201637791553776], [0.006430671405725841, -0.5755665358344975], [-0.28827644249802226, 0.13108449409391443], [-0.48727560041575907, 0.3122793224589378], [-0.3618583283722467, 0.4748554571644883], [0.5068291055292568, 0.25312272012301784], [-0.3523217755232835, -0.4403419288992689], [-0.030512260891071508, -0.28560934250550013]]",density,white,,,D002,visual,1,[],"['1', '2', '3', '4']",1,2023.2.3,harveyvisual,2.1,[],8,0.75,
0,pause,0.4,None,None,None,0,135,135,135,,,,,,,,,,,1,49.52127814292908,D002,visual,1,[],"['1', '2', '3', '4']",1,2023.2.3,harveyvisual,2.1,[],8,0.75,
20,dot,0.3,['dot'],['density'],black,0,136,136,136,,,50.00019407272339,49.713396072387695,50.013267040252686,dot,"[0.1, 0.08, 0.1, 0.06, 0.08, 0.06, 0.08, 0.08, 0.1, 0.08, 0.08, 0.06, 0.1, 0.1, 0.1, 0.08, 0.1, 0.06, 0.08, 0.1]","[[-0.37936594296446474, 0.3853399932252254], [0.46940319425045807, 0.03618651131265832], [-0.18351530579608794, 0.4028520353907923], [-0.10982981040888962, -0.031381847140118824], [-0.030035511597412246, 0.27637218249896756], [0.5310534640460381, 0.22370885047502231], [-0.28931815933841476, 0.06716613585189746], [-0.12781114614742783, -0.312520262543441], [0.0871891350698758, -0.4872154469866626], [-0.5528858423664182, 0.11331137624554385], [0.2992626173183429, 0.39095282433028256], [-0.4413193672271155, -0.16511618234204656], [0.24833978156206515, -0.329678375417103], [-0.2243010096626512, -0.5484419545751366], [0.1385901503103314, 0.11420212832285082], [0.10967635508329288, -0.08783022040366228], [0.4781587167083382, -0.22410006941393484], [0.06318508772979059, 0.6000996405138594], [-0.4318543703592289, -0.3649447091197363], [0.31981725204087885, 0.19158212750800518]]",density,black,,,D002,visual,1,[],"['1', '2', '3', '4']",1,2023.2.3,harveyvisual,2.1,[],8,0.75,
0,pause,0.4,None,None,None,0,137,137,137,,,,,,,,,,,,,D002,visual,1,[],"['1', '2', '3', '4']",1,2023.2.3,harveyvisual,2.1,[],8,0.75,
20,dot,0.3,['dot'],['density'],black,0,138,138,138,,,50.70021891593933,50.41335701942444,50.71323609352112,dot,"[0.06, 0.08, 0.06, 0.08, 0.1, 0.06, 0.1, 0.1, 0.06, 0.06, 0.08, 0.1, 0.1, 0.06, 0.08, 0.08, 0.1, 0.08, 0.06, 0.08]","[[0.034067567882781646, 0.4262303665043231], [-0.2382556109207966, -0.5308672386940995], [0.03411598644364133, -0.584962319316909], [-0.5823354389970661, 0.06881667193440352], [-0.42011424067226943, -0.26795570375887523], [-0.22250355007328293, 0.4385107931846921], [0.07373472661726777, -0.2280596654632701], [-0.14120208353694508, 0.0758263774436726], [-0.22583717211259036, -0.24381926364100787], [0.4494649985345164, 0.20134861466641157], [0.6007254348327798, 0.058036049760184436], [0.5458686314834539, -0.1591209409475682], [0.26454322120099283, 0.09126685212193897], [-0.31924948743747333, 0.24185153805578352], [-0.40236652269221296, 0.0023698405776858], [0.06403994307707217, 0.08553462101867826], [0.2921245635744891, 0.4165404741824056], [0.31966612183483456, -0.1841862402309964], [0.16652921620705763, -0.4069498351363541], [0.4065828870010685, -0.44765699793176905]]",density,black,,,D002,visual,1,[],"['1', '2', '3', '4']",1,2023.2.3,harveyvisual,2.1,[],8,0.75,
0,pause,0.4,None,None,None,0,139,139,139,,,,,,,,,,,,,D002,visual,1,[],"['1', '2', '3', '4']",1,2023.2.3,harveyvisual,2.1,[],8,0.75,
20,dot,0.3,['dot'],['density'],white,0,140,140,140,,,51.40019488334656,51.11323595046997,51.41331601142883,dot,"[0.1, 0.06, 0.08, 0.1, 0.06, 0.06, 0.06, 0.1, 0.08, 0.08, 0.06, 0.08, 0.08, 0.08, 0.1, 0.08, 0.08, 0.1, 0.06, 0.1]","[[-0.08635217972940579, 0.2406879414522416], [0.44320161415158654, -0.1613679520500338], [0.07395567164600514, -0.4892991856167503], [0.18850460374429456, 0.48665930107206434], [-0.3208345474451597, 0.09425121881790055], [-0.15664554536223646, -0.4180115050214944], [0.21841576805146035, 0.2120383123564149], [-0.5072836642539181, -0.06207082598374325], [0.2597615247809293, -0.5320096903234559], [-0.1847329392626088, 0.4366316429303655], [0.4683480225174158, 0.0718342421457594], [-0.554590413790142, 0.24128932243351542], [-0.4263286857068193, -0.2555963487489475], [0.22351547351825596, -0.1531780240387845], [0.4308123129480351, 0.35627214368964694], [-0.01956361723864919, -0.2349354277038917], [0.4332224965047574, -0.39015521727612185], [-0.4128703173487821, 0.38657063964638244], [-0.2266099921836196, -0.17251288949138355], [0.036839820691383696, 0.07831552784183693]]",density,white,,,D002,visual,1,[],"['1', '2', '3', '4']",1,2023.2.3,harveyvisual,2.1,[],8,0.75,
0,pause,0.4,None,None,None,0,141,141,141,,,,,,,,,,,1,51.52065110206604,D002,visual,1,[],"['1', '2', '3', '4']",1,2023.2.3,harveyvisual,2.1,[],8,0.75,
20,dot,0.3,['dot'],['density'],white,0,142,142,142,,,52.10021901130676,51.813369035720825,52.11318588256836,dot,"[0.08, 0.08, 0.08, 0.1, 0.06, 0.06, 0.06, 0.06, 0.08, 0.1, 0.1, 0.1, 0.08, 0.08, 0.06, 0.08, 0.08, 0.1, 0.1, 0.1]","[[-0.06685913839688606, -0.08867866591073092], [0.525578525291868, 0.09698815763696755], [0.27218609450487674, -0.31335897011845715], [-0.5301794496413524, -0.2075170496179029], [0.20096146167869433, 0.310726047401214], [0.23241561912273723, 0.05490003745203209], [-0.3901181686331837, -0.4439087270422147], [-0.27416107987179617, 0.0820661576838374], [0.42677735112703463, 0.2775147665308388], [0.09865061607833936, 0.470286757434931], [-0.30667813998075244, 0.4461549474232146], [0.41690162171373435, -0.1786805567881221], [-0.24318382286310486, -0.24441597393350945], [-0.1920020400918523, 0.28195209755970596], [-0.089884929286705, -0.39456423481769104], [-0.5400687942642024, 0.05648327543412074], [0.13231627570699933, -0.5519973814821516], [-0.5100963099231968, 0.29980243942018453], [-0.10494211270136267, 0.5770081674325377], [0.06288835757346944, -0.27322443916579475]]",density,white,,,D002,visual,1,[],"['1', '2', '3', '4']",1,2023.2.3,harveyvisual,2.1,[],8,0.75,
0,pause,0.4,None,None,None,0,143,143,143,,,,,,,,,,,1,52.177616119384766,D002,visual,1,[],"['1', '2', '3', '4']",1,2023.2.3,harveyvisual,2.1,[],8,0.75,
20,dot,0.3,['dot'],['density'],black,0,144,144,144,,,52.80020308494568,52.5131950378418,52.81316900253296,dot,"[0.06, 0.06, 0.08, 0.08, 0.08, 0.08, 0.08, 0.06, 0.06, 0.1, 0.1, 0.06, 0.1, 0.08, 0.06, 0.1, 0.1, 0.1, 0.06, 0.06]","[[0.003264338189601146, -0.4999356258076957], [0.5548281143155472, 0.08809405894829819], [0.14949477183884607, -0.01770863099074571], [-0.3912384674094409, -0.18669005778902514], [0.3053477665788349, 0.44482453320361415], [-0.03455002318406708, 0.3687353519417754], [-0.3757657186995399, -0.3835546741391536], [-0.03887341162247859, 0.5848314815041298], [0.17313552469618043, 0.3039272331614379], [-0.31523271987311063, 0.29797187692386073], [-0.1840454617079179, -0.40750567433530877], [-0.6040704652514828, -0.0032999363380190605], [-0.015459024452347592, -0.14462184351713264], [-0.2322158289391527, 0.09797642918809935], [0.015460950182529243, 0.13375127414830312], [0.29254644473506897, -0.24446841650433954], [0.315142028374814, -0.46917481947587497], [0.5166682866311364, 0.30581771140668335], [0.49896181608221546, -0.09460057941316852], [0.4850326799022525, -0.32374634879576314]]",density,black,,,D002,visual,1,[],"['1', '2', '3', '4']",1,2023.2.3,harveyvisual,2.1,[],8,0.75,
0,pause,0.4,None,None,None,0,145,145,145,,,,,,,,,,,,,D002,visual,1,[],"['1', '2', '3', '4']",1,2023.2.3,harveyvisual,2.1,[],8,0.75,
20,dot,0.3,['dot'],['density'],black,0,146,146,146,,,53.500205993652344,53.21318006515503,53.5131618976593,dot,"[0.06, 0.1, 0.06, 0.1, 0.1, 0.08, 0.08, 0.08, 0.08, 0.1, 0.06, 0.08, 0.1, 0.1, 0.06, 0.06, 0.08, 0.1, 0.06, 0.06]","[[-0.05616157727978799, 0.2838577454975919], [0.1921103925181049, 0.25073072067516244], [0.48904431657096004, 0.30558023538381784], [0.026023229688244, -0.30107528897277236], [0.32355084274493195, -0.07069817329216155], [-0.0926971428363439, 0.5634609928427275], [-0.565225779850348, 0.060055955475943223], [0.1727024265248016, -0.5603525278119986], [0.5465932085784088, -0.2490585780626133], [-0.3267937178352352, -0.38971971966030106], [-0.1764448807367498, 0.05507326980556393], [0.03394707334394931, 0.05896635832493713], [-0.05835731068935457, -0.600231401676475], [-0.46244413007142415, -0.21351962938317703], [0.3784954938717111, -0.43907949098995114], [0.16778595697103849, 0.4828633702100311], [-0.28364038638966105, 0.4995650042168339], [0.5787328207392902, -0.05946032045576842], [-0.07349554070496689, -0.1278398128012479], [-0.3813873856144038, 0.013492478424263765]]",density,black,,,D002,visual,1,[],"['1', '2', '3', '4']",1,2023.2.3,harveyvisual,2.1,[],8,0.75,
0,pause,0.4,None,None,None,0,147,147,147,,,,,,,,,,,,,D002,visual,1,[],"['1', '2', '3', '4']",1,2023.2.3,harveyvisual,2.1,[],8,0.75,
20,dot,0.3,['dot'],['density'],black,0,148,148,148,,,54.200217962265015,53.913296937942505,54.213155031204224,dot,"[0.08, 0.08, 0.1, 0.1, 0.06, 0.06, 0.1, 0.06, 0.08, 0.1, 0.06, 0.06, 0.08, 0.08, 0.1, 0.06, 0.08, 0.1, 0.06, 0.06]","[[-0.17791388394390573, -0.12698890379251754], [-0.017952709244067888, 0.38666287215477135], [0.2935724215812776, -0.1919036506363349], [0.349318370302542, -0.47459221580682887], [-0.3728136543227177, -0.023099511306295395], [-0.3438200958578719, -0.4462366451095348], [-0.4215260955413201, 0.23984680070004882], [0.21296336344299405, 0.30702658732647115], [-0.006567357250410466, -0.5067329183544781], [0.5750368777251665, -0.14262986923787407], [-0.010284012499050865, -0.2641280305341938], [0.2789463331337583, 0.1128804311431425], [-0.2380698713157725, 0.1112330071575458], [-0.5826783260647027, 0.12508227970737937], [-0.4678583765423153, -0.24787314308707808], [-0.35571597194431703, 0.4895724778097623], [0.02002577682545026, -0.007932162842588242], [0.5354442062388852, 0.08523534807411537], [0.4701312452940928, 0.3350098364374198], [-0.2018434371336445, 0.3311607057846385]]",density,black,,,D002,visual,1,[],"['1', '2', '3', '4']",1,2023.2.3,harveyvisual,2.1,[],8,0.75,
0,pause,0.4,None,None,None,0,149,149,149,,,,,,,,,,,,,D002,visual,1,[],"['1', '2', '3', '4']",1,2023.2.3,harveyvisual,2.1,[],8,0.75,
20,dot,0.3,['dot'],['density'],black,0,150,150,150,,,54.90019607543945,54.61327290534973,54.91309404373169,dot,"[0.08, 0.06, 0.06, 0.1, 0.1, 0.06, 0.06, 0.06, 0.08, 0.08, 0.06, 0.1, 0.08, 0.08, 0.1, 0.08, 0.06, 0.06, 0.06, 0.06]","[[-0.4126389413026262, 0.22953704085274007], [-0.23521443982942286, 0.4897949932078244], [0.034314068807290155, 0.2962933370319383], [0.2584205303645396, 0.4101875232507064], [0.5260781285266126, 0.1190888051424977], [-0.42965853036997603, -0.4093038403645798], [-0.5394739955535348, 0.05115594454449868], [-0.2927922486892131, -0.0930356014750438], [0.325208777678881, -0.12281329437829269], [-0.23007190947888262, -0.4708477283621455], [0.4400482899021382, 0.3311936428203861], [0.5497611662181289, -0.16597682232824706], [0.2220893482356059, -0.3247008253031647], [0.39718010138951365, -0.42861161094150135], [-0.06474461993973135, 0.04743392940007307], [-0.06940028341272175, -0.33303708480518013], [0.025157976152236916, 0.5156237681657232], [0.0834004751579025, -0.47473448637049465], [0.23413575202196824, 0.1486803130434985], [-0.20529934438605624, 0.2662418916351511]]",density,black,,,D002,visual,1,[],"['1', '2', '3', '4']",1,2023.2.3,harveyvisual,2.1,[],8,0.75,
0,pause,0.4,None,None,None,0,151,151,151,,,,,,,,,,,,,D002,visual,1,[],"['1', '2', '3', '4']",1,2023.2.3,harveyvisual,2.1,[],8,0.75,
20,dot,0.3,['dot'],['density'],black,0,152,152,152,,,55.60019493103027,55.31329607963562,55.61312508583069,dot,"[0.1, 0.1, 0.08, 0.06, 0.1, 0.1, 0.08, 0.08, 0.1, 0.06, 0.1, 0.1, 0.06, 0.1, 0.06, 0.08, 0.1, 0.06, 0.1, 0.06]","[[-0.28396171697091244, 0.032240743796675075], [0.34744246360884556, 0.024714283405513127], [0.5578673276373022, -0.17121381636378286], [0.09873228706740489, -0.1404339058395475], [0.14946581067887643, 0.4891655836080895], [-0.2950114491407142, 0.3654922489359719], [-0.021646524055772498, -0.3230675582887897], [-0.04745648250872925, -0.5302048108769658], [0.22307994046807977, -0.44368185357727913], [-0.5456082385268546, 0.2522293618211812], [-0.2896033298511569, -0.5105553093720065], [0.5107173861016249, 0.20770691861817625], [-0.3609417195894008, -0.29186269643902174], [0.0963332755677031, 0.15206267147569263], [-0.16198308223673347, 0.1986988848630773], [-0.22509939521736227, -0.15036518188071563], [-0.14157559575350276, 0.5621371734409056], [-0.5985018308437803, 0.05375678083303029], [-0.5444901878844731, -0.23117871384375133], [-0.04137831355855681, 0.3542976743723618]]",density,black,,,D002,visual,1,[],"['1', '2', '3', '4']",1,2023.2.3,harveyvisual,2.1,[],8,0.75,
0,pause,0.4,None,None,None,0,153,153,153,,,,,,,,,,,,,D002,visual,1,[],"['1', '2', '3', '4']",1,2023.2.3,harveyvisual,2.1,[],8,0.75,
20,dot,0.3,['dot'],['density'],black,0,154,154,154,,,56.300209045410156,56.01310110092163,56.3132541179657,dot,"[0.06, 0.08, 0.1, 0.1, 0.1, 0.1, 0.08, 0.06, 0.1, 0.08, 0.06, 0.1, 0.1, 0.1, 0.08, 0.06, 0.08, 0.1, 0.06, 0.06]","[[-0.5967524373642522, 0.03612534425595752], [0.5901520397429282, 0.016119001413254674], [0.060815101416775486, -0.40085695857037407], [0.477431681176426, 0.34409869716339353], [-0.11342908008337788, -0.14012063535933433], [-0.35833356285701745, -0.10768480309514072], [0.5202122489269013, -0.23016399469320767], [0.2799701631061008, 0.13792290966208165], [0.2739308888549109, -0.1336164259556631], [-0.30257617715268276, -0.4270570633617989], [-0.5479652685718466, 0.2261142736774605], [-0.011054467010114921, 0.21551033485104976], [0.005947417875632133, 0.5603246050153948], [0.37127111377868105, -0.38526036633706495], [0.24376475888749183, 0.5199128494653675], [-0.194477138219932, 0.515585657702868], [-0.3753663261290098, 0.4555115401277982], [-0.2204271133347157, 0.14124534630762764], [0.15014226793975727, 0.3153771171299443], [0.09800235420937664, 0.012054147521118774]]",density,black,,,D002,visual,1,[],"['1', '2', '3', '4']",1,2023.2.3,harveyvisual,2.1,[],8,0.75,
0,pause,0.4,None,None,None,0,155,155,155,,,,,,,,,,,,,D002,visual,1,[],"['1', '2', '3', '4']",1,2023.2.3,harveyvisual,2.1,[],8,0.75,
9,dot,0.3,['dot'],['density'],black,0,156,156,156,,,57.00019598007202,56.71311688423157,57.013062953948975,dot,"[0.1, 0.1, 0.06, 0.1, 0.1, 0.06, 0.08, 0.1, 0.08]","[[0.26246064217380705, -0.20881461689055444], [-0.05738061480455322, -0.2104867327221427], [-0.15279665209492657, -0.4570696492981838], [-0.25848085101471047, 0.03539482855188907], [0.05438928923437074, -0.041842351158073866], [-0.266438460152573, -0.22510974363943476], [-0.08630847597628627, 0.16925380219028288], [0.1378984379274782, 0.16880467564350782], [0.14927440204233722, -0.41110624343475755]]",density,black,,,D002,visual,1,[],"['1', '2', '3', '4']",1,2023.2.3,harveyvisual,2.1,[],8,0.75,
0,pause,0.4,None,None,None,0,157,157,157,,,,,,,,,,,,,D002,visual,1,[],"['1', '2', '3', '4']",1,2023.2.3,harveyvisual,2.1,[],8,0.75,
9,dot,0.3,['dot'],['density'],black,0,158,158,158,,,57.7002010345459,57.4130380153656,57.71303391456604,dot,"[0.06, 0.08, 0.1, 0.1, 0.06, 0.08, 0.06, 0.08, 0.08]","[[0.4907720478217397, -0.04420899316542184], [0.34945142516086164, 0.15252383324094793], [0.5574461082468273, 0.19132091369540322], [0.27860246559707486, -0.040271372914082004], [0.05137088633600719, 0.3166781443626957], [0.3859483744724672, 0.35594746641407654], [0.08124150308634055, -0.11830714188255424], [-0.07254784919135501, 0.1430213671552253], [0.33979531306265204, -0.26214422422440126]]",density,black,,,D002,visual,1,[],"['1', '2', '3', '4']",1,2023.2.3,harveyvisual,2.1,[],8,0.75,
0,pause,0.4,None,None,None,0,159,159,159,,,,,,,,,,,,,D002,visual,1,[],"['1', '2', '3', '4']",1,2023.2.3,harveyvisual,2.1,[],8,0.75,
9,dot,0.3,['dot'],['density'],black,0,160,160,160,,,58.40020203590393,58.11303997039795,58.413017988204956,dot,"[0.06, 0.1, 0.1, 0.06, 0.1, 0.1, 0.08, 0.06, 0.1]","[[0.11766436913102363, -0.04327704920019282], [0.17973489876850246, -0.2957558932143311], [0.4322853556796634, 0.1292829237047714], [-0.0348924626991882, -0.2091692004054023], [0.511593351462966, -0.2715393032181878], [0.39631341359825684, -0.10388811790353111], [0.1759041025424718, 0.35783279634564974], [-0.11077337801993212, 0.08002505665429639], [0.1915495233696259, 0.15329463501335125]]",density,black,,,D002,visual,1,[],"['1', '2', '3', '4']",1,2023.2.3,harveyvisual,2.1,[],8,0.75,
0,pause,0.4,None,None,None,0,161,161,161,,,,,,,,,,,,,D002,visual,1,[],"['1', '2', '3', '4']",1,2023.2.3,harveyvisual,2.1,[],8,0.75,
9,dot,0.3,['dot'],['density'],black,0,162,162,162,,,59.100197076797485,58.81302189826965,59.11299109458923,dot,"[0.06, 0.08, 0.08, 0.1, 0.08, 0.06, 0.1, 0.08, 0.08]","[[0.5571797577834091, 0.07732674165650813], [0.16332656704353227, -0.09331314560094064], [0.4138178119161903, 0.3925230053806507], [0.28711316854655766, 0.07147022394212545], [0.052100496024031176, 0.3810199549023822], [0.2172039135420496, 0.26337040755706287], [-0.2646845915772586, 0.12849707234668142], [0.21844181080216274, 0.4926952285236599], [0.0761275456309072, 0.11718001140956479]]",density,black,,,D002,visual,1,[],"['1', '2', '3', '4']",1,2023.2.3,harveyvisual,2.1,[],8,0.75,
0,pause,0.4,None,None,None,0,163,163,163,,,,,,,,,,,,,D002,visual,1,[],"['1', '2', '3', '4']",1,2023.2.3,harveyvisual,2.1,[],8,0.75,
9,dot,0.3,['dot'],['density'],black,0,164,164,164,,,59.80020093917847,59.51300311088562,59.812978982925415,dot,"[0.06, 0.08, 0.08, 0.1, 0.08, 0.1, 0.08, 0.06, 0.06]","[[-0.05049485011715354, 0.3013521193238899], [0.15354596755057998, 0.36785015051376163], [0.22995749783639982, 0.07309138415424772], [0.13460311710395165, -0.18603378415368982], [0.33097739113381164, -0.13822260855557728], [-0.16464148731134703, 0.07190493829483618], [0.521154897315396, -0.007803673430992942], [0.02684304494395013, 0.0018704401699241912], [-0.15545279255173522, -0.15329938800760382]]",density,black,,,D002,visual,1,[],"['1', '2', '3', '4']",1,2023.2.3,harveyvisual,2.1,[],8,0.75,
0,pause,0.4,None,None,None,0,165,165,165,,,,,,,,,,,,,D002,visual,1,[],"['1', '2', '3', '4']",1,2023.2.3,harveyvisual,2.1,[],8,0.75,
9,dot,0.3,['dot'],['density'],black,0,166,166,166,,,60.5002179145813,60.212975025177,60.51295804977417,dot,"[0.08, 0.06, 0.08, 0.06, 0.1, 0.08, 0.08, 0.1, 0.08]","[[-0.08858128315591524, -0.3480052213079807], [0.37291707470974605, -0.0809562497479422], [-0.04311872097798103, 0.23152249840731254], [0.1734412630875083, -0.16491363602164627], [-0.024044713080900382, -0.04824256513196188], [0.126438571592319, 0.09122014985587756], [-0.2168202887682383, 0.11190421567656858], [-0.23215605484234547, -0.20356583507002532], [0.291417597339289, 0.24351333182926893]]",density,black,,,D002,visual,1,[],"['1', '2', '3', '4']",1,2023.2.3,harveyvisual,2.1,[],8,0.75,
0,pause,0.4,None,None,None,0,167,167,167,,,,,,,,,,,,,D002,visual,1,[],"['1', '2', '3', '4']",1,2023.2.3,harveyvisual,2.1,[],8,0.75,
8,dot,0.3,['dot'],['density'],black,0,168,168,168,,,61.20021104812622,60.912983894348145,61.21316909790039,dot,"[0.1, 0.08, 0.08, 0.06, 0.08, 0.1, 0.08, 0.06]","[[0.3364035831170529, 0.12390393923093283], [0.4336864367158133, 0.35981147627037974], [0.06743640335689947, 0.0759148581953004], [-0.079559988999742, 0.39531058321326396], [0.21309668101319243, 0.48855257098982907], [0.23478258025928536, -0.08446837776908474], [-0.12854716397353463, 0.17339976512773136], [0.14965136140762586, 0.26897313353206964]]",density,black,,,D002,visual,1,[],"['1', '2', '3', '4']",1,2023.2.3,harveyvisual,2.1,[],8,0.75,
0,pause,0.4,None,None,None,0,169,169,169,,,,,,,,,,,,,D002,visual,1,[],"['1', '2', '3', '4']",1,2023.2.3,harveyvisual,2.1,[],8,0.75,
8,dot,0.3,['dot'],['density'],white,0,170,170,170,,,61.900206089019775,61.61292791366577,61.91296601295471,dot,"[0.06, 0.06, 0.08, 0.1, 0.08, 0.1, 0.1, 0.1]","[[-0.08486713456805763, -0.4233549652310786], [-0.34121661687321897, 0.009931669871959016], [0.06179899905610707, -0.01287726204627424], [-0.01080387642187049, -0.20774715314808884], [-0.2259787915635077, -0.2257096572683263], [-0.31087639520469923, -0.4457762681120083], [-0.07938707884489006, 0.17996906985975966], [-0.13919465900414296, -0.03133413505419433]]",density,white,,,D002,visual,1,[],"['1', '2', '3', '4']",1,2023.2.3,harveyvisual,2.1,[],8,0.75,
0,pause,0.4,None,None,None,0,171,171,171,,,,,,,,,,,1,62.047802209854126,D002,visual,1,[],"['1', '2', '3', '4']",1,2023.2.3,harveyvisual,2.1,[],8,0.75,
8,dot,0.3,['dot'],['density'],black,0,172,172,172,,,62.60021710395813,62.31294298171997,62.61290693283081,dot,"[0.06, 0.06, 0.08, 0.08, 0.08, 0.08, 0.08, 0.06]","[[0.29210958841889567, 0.026991922891258572], [0.03093533645276146, 0.3258936230244337], [-0.13014708308220477, 0.20110385145229231], [0.463805327987396, 0.2670013362689149], [0.17887675575806267, 0.48912385903522404], [0.2495142025194702, 0.28253247413027655], [0.03200252102949923, -0.1932501096446728], [0.04457092617056691, 0.07668709382136672]]",density,black,,,D002,visual,1,[],"['1', '2', '3', '4']",1,2023.2.3,harveyvisual,2.1,[],8,0.75,
0,pause,0.4,None,None,None,0,173,173,173,,,,,,,,,,,,,D002,visual,1,[],"['1', '2', '3', '4']",1,2023.2.3,harveyvisual,2.1,[],8,0.75,
8,dot,0.3,['dot'],['density'],black,0,174,174,174,,,63.300199031829834,63.012901067733765,63.31296992301941,dot,"[0.08, 0.08, 0.06, 0.08, 0.06, 0.08, 0.1, 0.06]","[[-0.17001050475317317, -0.17367687575201368], [0.3600613666554234, 0.010096468830953859], [-0.08326222131596324, 0.04242117989324811], [0.04296950773068638, 0.29875887990525135], [0.04919814700692566, -0.23206276490508926], [0.2733682510361541, 0.19343137942482672], [0.15974695196996483, -0.02827404827190698], [-0.2919014881818027, 0.0006738684867251376]]",density,black,,,D002,visual,1,[],"['1', '2', '3', '4']",1,2023.2.3,harveyvisual,2.1,[],8,0.75,
0,pause,0.4,None,None,None,0,175,175,175,,,,,,,,,,,,,D002,visual,1,[],"['1', '2', '3', '4']",1,2023.2.3,harveyvisual,2.1,[],8,0.75,
8,dot,0.3,['dot'],['density'],black,0,176,176,176,,,64.00021195411682,63.71287488937378,64.01286005973816,dot,"[0.08, 0.1, 0.1, 0.06, 0.08, 0.1, 0.06, 0.1]","[[0.2715518471235014, -0.4245138665073026], [0.03602391524707561, -0.40638782213015096], [0.4828297141312073, -0.09119901312376678], [0.02835794216237903, 0.028275321652194735], [-0.0895445032969687, -0.19822740391127236], [0.3178997883629752, 0.08245100984997318], [0.21920060966397442, -0.22342839817001514], [0.46807969757011175, -0.32427319705723295]]",density,black,,,D002,visual,1,[],"['1', '2', '3', '4']",1,2023.2.3,harveyvisual,2.1,[],8,0.75,
0,pause,0.4,None,None,None,0,177,177,177,,,,,,,,,,,,,D002,visual,1,[],"['1', '2', '3', '4']",1,2023.2.3,harveyvisual,2.1,[],8,0.75,
8,dot,0.3,['dot'],['density'],black,0,178,178,178,,,64.70022296905518,64.41311407089233,64.71285700798035,dot,"[0.1, 0.06, 0.06, 0.08, 0.1, 0.08, 0.08, 0.08]","[[0.15461278376755175, 0.017690045563684864], [0.4404146441246234, 0.21813023399178458], [0.05487595867990863, 0.4084021637362207], [-0.13585566436679766, 0.08658391491112073], [0.3753260993018466, -0.0029057217730488138], [0.24206240898487613, 0.3367355195829085], [0.06992318211572668, 0.2078151862649802], [0.2541279777615451, -0.17357647893213385]]",density,black,,,D002,visual,1,[],"['1', '2', '3', '4']",1,2023.2.3,harveyvisual,2.1,[],8,0.75,
0,pause,0.4,None,None,None,0,179,179,179,,,,,,,,,,,,,D002,visual,1,[],"['1', '2', '3', '4']",1,2023.2.3,harveyvisual,2.1,[],8,0.75,
7,dot,0.3,['dot'],['density'],black,0,180,180,180,,,65.40021991729736,65.1128659248352,65.4128270149231,dot,"[0.08, 0.08, 0.08, 0.1, 0.1, 0.08, 0.06]","[[0.43636558899465056, -0.019888822856555858], [0.3422654810486562, -0.28596623187093184], [0.19265053263460555, -0.4439876245838232], [0.13726272111749335, -0.2453614523272762], [0.002381890354708078, -0.04768315945896726], [0.5336827108411983, -0.21507725682246784], [0.22437755209563529, -0.002563521851875305]]",density,black,,,D002,visual,1,[],"['1', '2', '3', '4']",1,2023.2.3,harveyvisual,2.1,[],8,0.75,
0,pause,0.4,None,None,None,0,181,181,181,,,,,,,,,,,,,D002,visual,1,[],"['1', '2', '3', '4']",1,2023.2.3,harveyvisual,2.1,[],8,0.75,
7,dot,0.3,['dot'],['density'],black,0,182,182,182,,,66.10021305084229,65.8128399848938,66.11280608177185,dot,"[0.08, 0.08, 0.1, 0.1, 0.06, 0.08, 0.06]","[[0.13823229125104186, -0.11287424625882309], [-0.082914425993103, 0.43156227464827385], [0.30107400633957315, 0.2583336012722512], [-0.1103107855725706, 0.20298726112520996], [0.37862923877470095, 0.05664428164281185], [0.10057609128089995, 0.3089177590539603], [0.1009283971288976, 0.1061295027106774]]",density,black,,,D002,visual,1,[],"['1', '2', '3', '4']",1,2023.2.3,harveyvisual,2.1,[],8,0.75,
0,pause,0.4,None,None,None,0,183,183,183,,,,,,,,,,,,,D002,visual,1,[],"['1', '2', '3', '4']",1,2023.2.3,harveyvisual,2.1,[],8,0.75,
7,dot,0.3,['dot'],['density'],black,0,184,184,184,,,66.80022311210632,66.51281499862671,66.81279397010803,dot,"[0.08, 0.06, 0.06, 0.08, 0.08, 0.1, 0.1]","[[-0.3025445156539714, -0.42280529123536587], [0.12162933753582021, -0.2851722644810181], [-0.2753205641105948, -0.038672864930592576], [-0.4202189534315163, -0.18742991959605093], [-0.15636117447925973, -0.27217203193286355], [-0.09967880665522989, -0.47242523529006747], [-0.06261398545311019, -0.08879309989794046]]",density,black,,,D002,visual,1,[],"['1', '2', '3', '4']",1,2023.2.3,harveyvisual,2.1,[],8,0.75,
0,pause,0.4,None,None,None,0,185,185,185,,,,,,,,,,,,,D002,visual,1,[],"['1', '2', '3', '4']",1,2023.2.3,harveyvisual,2.1,[],8,0.75,
7,dot,0.3,['dot'],['density'],black,0,186,186,186,,,67.5002019405365,67.21275591850281,67.5127420425415,dot,"[0.06, 0.08, 0.08, 0.08, 0.1, 0.08, 0.06]","[[-0.026372969700101213, 0.05085620782211805], [-0.16304282038196347, -0.3616501386780019], [-0.013762327205412121, -0.14910430285435466], [0.14729449770710015, -0.3647544547161306], [-0.22494517313234175, -0.12035103032643314], [-0.36514670174418407, -0.33057163197754225], [0.21417125919861074, -0.06627923590771367]]",density,black,,,D002,visual,1,[],"['1', '2', '3', '4']",1,2023.2.3,harveyvisual,2.1,[],8,0.75,
0,pause,0.4,None,None,None,0,187,187,187,,,,,,,,,,,,,D002,visual,1,[],"['1', '2', '3', '4']",1,2023.2.3,harveyvisual,2.1,[],8,0.75,
7,dot,0.3,['dot'],['density'],black,0,188,188,188,,,68.20022201538086,67.91274905204773,68.21272492408752,dot,"[0.1, 0.08, 0.06, 0.1, 0.1, 0.1, 0.06]","[[-0.0840690222646118, 0.326581156863932], [0.2873095043411744, 0.40733497502034743], [0.3312644566818162, -0.06338498518608723], [-0.0506181805300269, 0.10889297565070959], [0.1236891467835978, 0.25045991881734525], [0.122473450616654, -0.061936092255746894], [0.3019459967494134, 0.15241064997072415]]",density,black,,,D002,visual,1,[],"['1', '2', '3', '4']",1,2023.2.3,harveyvisual,2.1,[],8,0.75,
0,pause,0.4,None,None,None,0,189,189,189,,,,,,,,,,,,,D002,visual,1,[],"['1', '2', '3', '4']",1,2023.2.3,harveyvisual,2.1,[],8,0.75,
7,dot,0.3,['dot'],['density'],black,0,190,190,190,,,68.90021896362305,68.61273694038391,68.9127049446106,dot,"[0.08, 0.1, 0.08, 0.1, 0.08, 0.06, 0.06]","[[-0.15204905838880944, -0.5333107186751418], [-0.1519936835116667, -0.2986813487337615], [0.3123805602017952, -0.370842296180838], [-0.04397638837772695, -0.01669328424437847], [0.11716920447009348, -0.14912816843546053], [0.1067198166566748, -0.5553575834591685], [0.04038917577175449, -0.3541606866516689]]",density,black,,,D002,visual,1,[],"['1', '2', '3', '4']",1,2023.2.3,harveyvisual,2.1,[],8,0.75,
0,pause,0.4,None,None,None,0,191,191,191,,,,,,,,,,,,,D002,visual,1,[],"['1', '2', '3', '4']",1,2023.2.3,harveyvisual,2.1,[],8,0.75,
6,dot,0.3,['dot'],['density'],black,0,192,192,192,,,69.60021710395813,69.31270790100098,69.61268711090088,dot,"[0.08, 0.1, 0.1, 0.1, 0.1, 0.08]","[[0.1643264729387965, -0.2471077239796436], [-0.22534804549937193, -0.4918728234310363], [-0.026166131246113146, -0.09278119687647148], [-0.24451989516519138, -0.21339523607155425], [0.11868454116144263, -0.4574197693624388], [-0.058907778787058426, -0.30919141315076737]]",density,black,,,D002,visual,1,[],"['1', '2', '3', '4']",1,2023.2.3,harveyvisual,2.1,[],8,0.75,
0,pause,0.4,None,None,None,0,193,193,193,,,,,,,,,,,,,D002,visual,1,[],"['1', '2', '3', '4']",1,2023.2.3,harveyvisual,2.1,[],8,0.75,
6,dot,0.3,['dot'],['density'],black,0,194,194,194,,,70.30020809173584,70.01268005371094,70.31266403198242,dot,"[0.06, 0.08, 0.06, 0.08, 0.06, 0.08]","[[0.1344939073868, 0.11682503965153783], [0.2622842826516073, -0.1576809643807538], [0.491422654665352, 0.2653315688189552], [0.5669231994484553, 0.0667155191364867], [0.2299276458131091, 0.29835232047215776], [0.3356420801536577, 0.10517090915368521]]",density,black,,,D002,visual,1,[],"['1', '2', '3', '4']",1,2023.2.3,harveyvisual,2.1,[],8,0.75,
0,pause,0.4,None,None,None,0,195,195,195,,,,,,,,,,,,,D002,visual,1,[],"['1', '2', '3', '4']",1,2023.2.3,harveyvisual,2.1,[],8,0.75,
6,dot,0.3,['dot'],['density'],black,0,196,196,196,,,71.00022506713867,70.71265411376953,71.0126690864563,dot,"[0.08, 0.06, 0.06, 0.06, 0.08, 0.1]","[[-0.36904347190091025, 0.2789229011504548], [-0.01038079434194998, 0.053649704929766846], [-0.08735338951653393, 0.578282782753283], [5.153534382930422e-05, 0.38446941554394387], [-0.22753401468201206, 0.43210907521897474], [-0.14647282530567177, 0.24517240432070728]]",density,black,,,D002,visual,1,[],"['1', '2', '3', '4']",1,2023.2.3,harveyvisual,2.1,[],8,0.75,
0,pause,0.4,None,None,None,0,197,197,197,,,,,,,,,,,,,D002,visual,1,[],"['1', '2', '3', '4']",1,2023.2.3,harveyvisual,2.1,[],8,0.75,
6,dot,0.3,['dot'],['density'],white,0,198,198,198,,,71.70021605491638,71.41280508041382,71.71267294883728,dot,"[0.1, 0.1, 0.06, 0.08, 0.06, 0.1]","[[0.26568550625605564, -0.48823100126060537], [0.030589778490880962, -0.34307155488476027], [0.2920158589989485, -0.005481777194348812], [0.4969139129819881, -0.3034402107212153], [0.2924968692334099, -0.2393606426967254], [0.09404279540557291, -0.1505005030192783]]",density,white,,,D002,visual,1,[],"['1', '2', '3', '4']",1,2023.2.3,harveyvisual,2.1,[],8,0.75,
0,pause,0.4,None,None,None,0,199,199,199,,,,,,,,,,,,,D002,visual,1,[],"['1', '2', '3', '4']",1,2023.2.3,harveyvisual,2.1,[],8,0.75,
6,dot,0.3,['dot'],['density'],black,0,200,200,200,,,72.4002571105957,72.11277508735657,72.41278600692749,dot,"[0.1, 0.1, 0.06, 0.1, 0.08, 0.08]","[[-0.11553075830627273, 0.47698778124428043], [-0.1112787518129194, 0.10456141670764223], [-0.48855705683845824, 0.21494657582805063], [-0.2538299919008863, 0.2532006538804931], [-0.3271837865365474, 0.4662148945367939], [0.006792750312598743, 0.27345996435494924]]",density,black,1,72.11899709701538,D002,visual,1,[],"['1', '2', '3', '4']",1,2023.2.3,harveyvisual,2.1,[],8,0.75,
0,pause,0.4,None,None,None,0,201,201,201,,,,,,,,,,,,,D002,visual,1,[],"['1', '2', '3', '4']",1,2023.2.3,harveyvisual,2.1,[],8,0.75,
6,dot,0.3,['dot'],['density'],black,0,202,202,202,,,73.10020804405212,72.81265902519226,73.1127610206604,dot,"[0.08, 0.1, 0.1, 0.06, 0.06, 0.08]","[[-0.060066269329224556, -0.3459973645598818], [-0.2267112282887438, -0.46433083725857055], [-0.03368736353914721, -0.0592740518520544], [0.1129416353875032, -0.20466059509733167], [0.13908697530976044, -0.42386339769443276], [-0.2931789080149146, -0.2669036372638095]]",density,black,,,D002,visual,1,[],"['1', '2', '3', '4']",1,2023.2.3,harveyvisual,2.1,[],8,0.75,
0,pause,0.4,None,None,None,0,203,203,203,,,,,,,,,,,,,D002,visual,1,[],"['1', '2', '3', '4']",1,2023.2.3,harveyvisual,2.1,[],8,0.75,
5,dot,0.3,['dot'],['density'],black,0,204,204,204,,,73.80022597312927,73.51276803016663,73.81276202201843,dot,"[0.1, 0.06, 0.06, 0.1, 0.1]","[[-0.082153098152829, -0.06894165798345762], [0.016766770742065788, -0.42680196676869325], [0.2961099764235258, -0.14925166127785872], [-0.1456021726000032, -0.26669195071034546], [0.10213220283607832, -0.23321095001989858]]",density,black,,,D002,visual,1,[],"['1', '2', '3', '4']",1,2023.2.3,harveyvisual,2.1,[],8,0.75,
0,pause,0.4,None,None,None,0,205,205,205,,,,,,,,,,,,,D002,visual,1,[],"['1', '2', '3', '4']",1,2023.2.3,harveyvisual,2.1,[],8,0.75,
5,dot,0.3,['dot'],['density'],white,0,206,206,206,,,74.50020289421082,74.21262192726135,74.51272892951965,dot,"[0.06, 0.1, 0.1, 0.06, 0.06]","[[-0.3632963637400461, -0.33792544526642676], [-0.48189922448633543, -0.036156829306921726], [-0.2958020468624338, 0.07292024124872273], [-0.10639492237515816, -0.0008972940205680791], [-0.20818262001932955, -0.17666930306052683]]",density,white,,,D002,visual,1,[],"['1', '2', '3', '4']",1,2023.2.3,harveyvisual,2.1,[],8,0.75,
0,pause,0.4,None,None,None,0,207,207,207,,,,,,,,,,,1,74.61031818389893,D002,visual,1,[],"['1', '2', '3', '4']",1,2023.2.3,harveyvisual,2.1,[],8,0.75,
5,dot,0.3,['dot'],['density'],black,0,208,208,208,,,75.20021390914917,74.9127459526062,75.21259808540344,dot,"[0.08, 0.1, 0.06, 0.06, 0.1]","[[0.10176071415026891, -0.0029310292721688898], [0.32748853803000494, -0.2831003617774451], [0.10999898603900501, -0.23076615641811304], [0.2383494361888625, 0.16403485824849598], [0.3558293804179042, -0.08171974316418079]]",density,black,,,D002,visual,1,[],"['1', '2', '3', '4']",1,2023.2.3,harveyvisual,2.1,[],8,0.75,
0,pause,0.4,None,None,None,0,209,209,209,,,,,,,,,,,,,D002,visual,1,[],"['1', '2', '3', '4']",1,2023.2.3,harveyvisual,2.1,[],8,0.75,
5,dot,0.3,['dot'],['density'],black,0,210,210,210,,,75.90020704269409,75.6127200126648,75.91257309913635,dot,"[0.08, 0.06, 0.08, 0.06, 0.1]","[[-0.11834215492801986, 0.412508379109845], [0.31881799646300274, 0.30859303438359803], [-0.06368743078099719, 0.10105058071702504], [0.1133485112468387, 0.46262203184429457], [0.11957051434631445, 0.24197418837926052]]",density,black,,,D002,visual,1,[],"['1', '2', '3', '4']",1,2023.2.3,harveyvisual,2.1,[],8,0.75,
0,pause,0.4,None,None,None,0,211,211,211,,,,,,,,,,,,,D002,visual,1,[],"['1', '2', '3', '4']",1,2023.2.3,harveyvisual,2.1,[],8,0.75,
5,dot,0.3,['dot'],['density'],black,0,212,212,212,,,76.60020899772644,76.31270790100098,76.61269402503967,dot,"[0.08, 0.1, 0.08, 0.06, 0.08]","[[-0.4004020094395207, -0.04445243948850948], [-0.17181756668418613, -0.18180129995893848], [-0.46264198425852476, 0.17889071841303528], [-0.23640824159873003, 0.08340028676903545], [-0.2824747884808712, 0.2826805534387526]]",density,black,,,D002,visual,1,[],"['1', '2', '3', '4']",1,2023.2.3,harveyvisual,2.1,[],8,0.75,
0,pause,0.4,None,None,None,0,213,213,213,,,,,,,,,,,,,D002,visual,1,[],"['1', '2', '3', '4']",1,2023.2.3,harveyvisual,2.1,[],8,0.75,
5,dot,0.3,['dot'],['density'],black,0,214,214,214,,,77.30021691322327,77.01268410682678,77.3125410079956,dot,"[0.1, 0.06, 0.08, 0.08, 0.1]","[[0.2075830250205083, 0.5448960418430373], [0.010600229768786232, 0.45420498888786176], [-0.10187712889758427, 0.28364076042242115], [0.1691377395635631, 0.293820614486451], [-0.2596336492265815, 0.40815120909286945]]",density,black,,,D002,visual,1,[],"['1', '2', '3', '4']",1,2023.2.3,harveyvisual,2.1,[],8,0.75,
0,pause,0.4,None,None,None,0,215,215,215,,,,,,,,,,,,,D002,visual,1,[],"['1', '2', '3', '4']",1,2023.2.3,harveyvisual,2.1,[],8,0.75,
4,dot,0.3,['dot'],['density'],black,0,216,216,216,,,78.00021195411682,77.71267509460449,78.01252293586731,dot,"[0.1, 0.08, 0.08, 0.08]","[[-0.1807894278345534, -0.050693892368996955], [-0.03778933673514029, -0.29773510453537966], [0.0747201162679791, -0.1287424711559737], [-0.02241484737224569, 0.07404475448468936]]",density,black,,,D002,visual,1,[],"['1', '2', '3', '4']",1,2023.2.3,harveyvisual,2.1,[],8,0.75,
0,pause,0.4,None,None,None,0,217,217,217,,,,,,,,,,,,,D002,visual,1,[],"['1', '2', '3', '4']",1,2023.2.3,harveyvisual,2.1,[],8,0.75,
4,dot,0.3,['dot'],['density'],black,0,218,218,218,,,78.70021891593933,78.41252398490906,78.71250891685486,dot,"[0.08, 0.06, 0.08, 0.1]","[[0.2541297109701026, -0.03410267595110144], [0.396116024817599, -0.19002287009394117], [0.4303711222235913, 0.2602585224666286], [0.4446461975978109, 0.027516111316963392]]",density,black,,,D002,visual,1,[],"['1', '2', '3', '4']",1,2023.2.3,harveyvisual,2.1,[],8,0.75,
0,pause,0.4,None,None,None,0,219,219,219,,,,,,,,,,,,,D002,visual,1,[],"['1', '2', '3', '4']",1,2023.2.3,harveyvisual,2.1,[],8,0.75,
4,dot,0.3,['dot'],['density'],black,0,220,220,220,,,79.40021705627441,79.11263394355774,79.41246509552002,dot,"[0.06, 0.06, 0.1, 0.1]","[[0.1665887267295909, 0.08389582001604734], [0.4584359263982055, 0.26405512465689546], [0.4157764543415929, 0.03513878013061779], [0.2392225064082761, 0.29777239984320175]]",density,black,,,D002,visual,1,[],"['1', '2', '3', '4']",1,2023.2.3,harveyvisual,2.1,[],8,0.75,
0,pause,0.4,None,None,None,0,221,221,221,,,,,,,,,,,,,D002,visual,1,[],"['1', '2', '3', '4']",1,2023.2.3,harveyvisual,2.1,[],8,0.75,
4,dot,0.3,['dot'],['density'],white,0,222,222,222,,,80.10020399093628,79.8124589920044,80.1124529838562,dot,"[0.06, 0.08, 0.1, 0.08]","[[-0.5133923796685119, -0.13567638448558317], [-0.3102378593599109, -0.17790160316510653], [-0.5338837235738882, 0.07316730980410076], [-0.255286731521037, 0.022123457211080083]]",density,white,,,D002,visual,1,[],"['1', '2', '3', '4']",1,2023.2.3,harveyvisual,2.1,[],8,0.75,
0,pause,0.4,None,None,None,0,223,223,223,,,,,,,,,,,1,80.37097311019897,D002,visual,1,[],"['1', '2', '3', '4']",1,2023.2.3,harveyvisual,2.1,[],8,0.75,
4,dot,0.3,['dot'],['density'],black,0,224,224,224,,,80.80020594596863,80.51243495941162,80.8124430179596,dot,"[0.06, 0.06, 0.1, 0.06]","[[-0.035956560563939345, -0.32709283091503677], [-0.2190429995428959, -0.2035699502326352], [-0.06992348234594314, -0.5664776463754845], [-0.220471277594294, -0.41208836036752056]]",density,black,,,D002,visual,1,[],"['1', '2', '3', '4']",1,2023.2.3,harveyvisual,2.1,[],8,0.75,
0,pause,0.4,None,None,None,0,225,225,225,,,,,,,,,,,,,D002,visual,1,[],"['1', '2', '3', '4']",1,2023.2.3,harveyvisual,2.1,[],8,0.75,
4,dot,0.3,['dot'],['density'],black,0,226,226,226,,,81.5002110004425,81.21245002746582,81.51237106323242,dot,"[0.1, 0.08, 0.08, 0.06]","[[-0.24855901342904946, 0.4326179111294549], [-0.33066739519925503, 0.24314919490711104], [-0.015728317870896572, 0.5189617074191414], [-0.09686463175319387, 0.28200212383687606]]",density,black,,,D002,visual,1,[],"['1', '2', '3', '4']",1,2023.2.3,harveyvisual,2.1,[],8,0.75,
0,pause,0.4,None,None,None,0,227,227,227,,,,,,,,,,,,,D002,visual,1,[],"['1', '2', '3', '4']",1,2023.2.3,harveyvisual,2.1,[],8,0.75,
3,dot,0.3,['dot'],['density'],black,0,228,228,228,,,82.20020198822021,81.91236805915833,82.2123498916626,dot,"[0.08, 0.1, 0.06]","[[0.026071599024748527, -0.32860913997604846], [-0.11834724389398482, -0.18584523127985947], [0.10068982493997472, -0.12518245043845455]]",density,black,,,D002,visual,1,[],"['1', '2', '3', '4']",1,2023.2.3,harveyvisual,2.1,[],8,0.75,
0,pause,0.4,None,None,None,0,229,229,229,,,,,,,,,,,,,D002,visual,1,[],"['1', '2', '3', '4']",1,2023.2.3,harveyvisual,2.1,[],8,0.75,
3,dot,0.3,['dot'],['density'],black,0,230,230,230,,,82.90022492408752,82.61237406730652,82.91236710548401,dot,"[0.06, 0.06, 0.1]","[[-0.04083818552357515, -0.522177599776496], [0.2241586230204485, -0.5188142294055383], [0.09506152973916207, -0.364648334381489]]",density,black,,,D002,visual,1,[],"['1', '2', '3', '4']",1,2023.2.3,harveyvisual,2.1,[],8,0.75,
0,pause,0.4,None,None,None,0,231,231,231,,,,,,,,,,,,,D002,visual,1,[],"['1', '2', '3', '4']",1,2023.2.3,harveyvisual,2.1,[],8,0.75,
3,dot,0.3,['dot'],['density'],black,0,232,232,232,,,83.60021090507507,83.3123528957367,83.61235094070435,dot,"[0.08, 0.06, 0.08]","[[-0.31319101668702665, 0.019781348947723338], [-0.5473895760332308, 0.024991247927059115], [-0.4494119348059314, -0.1602141851013313]]",density,black,,,D002,visual,1,[],"['1', '2', '3', '4']",1,2023.2.3,harveyvisual,2.1,[],8,0.75,
0,pause,0.4,None,None,None,0,233,233,233,,,,,,,,,,,,,D002,visual,1,[],"['1', '2', '3', '4']",1,2023.2.3,harveyvisual,2.1,[],8,0.75,
3,dot,0.3,['dot'],['density'],black,0,234,234,234,,,84.30021095275879,84.0123360157013,84.31232190132141,dot,"[0.06, 0.1, 0.08]","[[-0.09236249555143743, 0.14437879021360575], [0.06053771141254397, 0.008702735453236923], [-0.17336599953316903, -0.04113967592870183]]",density,black,,,D002,visual,1,[],"['1', '2', '3', '4']",1,2023.2.3,harveyvisual,2.1,[],8,0.75,
0,pause,0.4,None,None,None,0,235,235,235,,,,,,,,,,,,,D002,visual,1,[],"['1', '2', '3', '4']",1,2023.2.3,harveyvisual,2.1,[],8,0.75,
3,dot,0.3,['dot'],['density'],black,0,236,236,236,,,85.00020098686218,84.71228504180908,85.01227593421936,dot,"[0.08, 0.06, 0.1]","[[-0.32034981165049564, 0.18083778238314796], [-0.3344619052850136, -0.04022521570367012], [-0.13485517643248812, 0.10330846540140716]]",density,black,,,D002,visual,1,[],"['1', '2', '3', '4']",1,2023.2.3,harveyvisual,2.1,[],8,0.75,
0,pause,0.4,None,None,None,0,237,237,237,,,,,,,,,,,,,D002,visual,1,[],"['1', '2', '3', '4']",1,2023.2.3,harveyvisual,2.1,[],8,0.75,
3,dot,0.3,['dot'],['density'],black,0,238,238,238,,,85.70021605491638,85.41227197647095,85.7122700214386,dot,"[0.06, 0.1, 0.1]","[[-0.17592395544936776, 0.40510565415719324], [-0.30566154612550034, 0.21848422264492345], [-0.39822260978708685, 0.43144058222919995]]",density,black,,,D002,visual,1,[],"['1', '2', '3', '4']",1,2023.2.3,harveyvisual,2.1,[],8,0.75,
0,pause,0.4,None,None,None,0,239,239,239,,,,,,,,,,,,,D002,visual,1,[],"['1', '2', '3', '4']",1,2023.2.3,harveyvisual,2.1,[],8,0.75,
2,dot,0.3,['dot'],['density'],black,0,240,240,240,,,86.40022110939026,86.11228108406067,86.4122679233551,dot,"[0.06, 0.08]","[[0.3054529246123127, 0.4455278178545299], [0.3548458028228903, 0.2510588499170468]]",density,black,,,D002,visual,1,[],"['1', '2', '3', '4']",1,2023.2.3,harveyvisual,2.1,[],8,0.75,
0,pause,0.4,None,None,None,0,241,241,241,,,,,,,,,,,,,D002,visual,1,[],"['1', '2', '3', '4']",1,2023.2.3,harveyvisual,2.1,[],8,0.75,
2,dot,0.3,['dot'],['density'],black,0,242,242,242,,,87.10021710395813,86.81223392486572,87.11223292350769,dot,"[0.1, 0.08]","[[-0.19482721327365293, -0.5079820576301489], [-0.36119809377872014, -0.396546877814361]]",density,black,,,D002,visual,1,[],"['1', '2', '3', '4']",1,2023.2.3,harveyvisual,2.1,[],8,0.75,
0,pause,0.4,None,None,None,0,243,243,243,,,,,,,,,,,,,D002,visual,1,[],"['1', '2', '3', '4']",1,2023.2.3,harveyvisual,2.1,[],8,0.75,
2,dot,0.3,['dot'],['density'],black,0,244,244,244,,,87.80021810531616,87.51225399971008,87.8122398853302,dot,"[0.08, 0.06]","[[-0.22226122312079244, -0.00806926593831646], [-0.023245446524914906, -0.037240983575548024]]",density,black,,,D002,visual,1,[],"['1', '2', '3', '4']",1,2023.2.3,harveyvisual,2.1,[],8,0.75,
0,pause,0.4,None,None,None,0,245,245,245,,,,,,,,,,,,,D002,visual,1,[],"['1', '2', '3', '4']",1,2023.2.3,harveyvisual,2.1,[],8,0.75,
2,dot,0.3,['dot'],['density'],black,0,246,246,246,,,88.5002269744873,88.21218800544739,88.5121738910675,dot,"[0.06, 0.1]","[[-0.16440981108753766, 0.5378091218652469], [-0.08422838651173449, 0.35445914222875186]]",density,black,,,D002,visual,1,[],"['1', '2', '3', '4']",1,2023.2.3,harveyvisual,2.1,[],8,0.75,
0,pause,0.4,None,None,None,0,247,247,247,,,,,,,,,,,,,D002,visual,1,[],"['1', '2', '3', '4']",1,2023.2.3,harveyvisual,2.1,[],8,0.75,
2,dot,0.3,['dot'],['density'],black,0,248,248,248,,,89.20020008087158,88.91216993331909,89.21216797828674,dot,"[0.1, 0.06]","[[0.07059805578258149, -0.2458188734665979], [0.058763118304238846, -0.4455693812784497]]",density,black,,,D002,visual,1,[],"['1', '2', '3', '4']",1,2023.2.3,harveyvisual,2.1,[],8,0.75,
0,pause,0.4,None,None,None,0,249,249,249,,,,,,,,,,,,,D002,visual,1,[],"['1', '2', '3', '4']",1,2023.2.3,harveyvisual,2.1,[],8,0.75,
2,dot,0.3,['dot'],['density'],black,0,250,250,250,,,89.90021800994873,89.61215806007385,89.91215109825134,dot,"[0.08, 0.06]","[[-0.19482721327365293, -0.5079820576301489], [-0.36119809377872014, -0.396546877814361]]",density,black,,,D002,visual,1,[],"['1', '2', '3', '4']",1,2023.2.3,harveyvisual,2.1,[],8,0.75,
0,pause,0.4,None,None,None,0,251,251,251,,,,,,,,,,,,,D002,visual,1,[],"['1', '2', '3', '4']",1,2023.2.3,harveyvisual,2.1,[],8,0.75,
1,dot,0.3,['dot'],['density'],black,0,252,252,252,,,90.60019898414612,90.31219291687012,90.61220002174377,dot,[0.06],"[0.00661777001411412, 0.39634766145863237]",density,black,,,D002,visual,1,[],"['1', '2', '3', '4']",1,2023.2.3,harveyvisual,2.1,[],8,0.75,
0,pause,0.4,None,None,None,0,253,253,253,,,,,,,,,,,,,D002,visual,1,[],"['1', '2', '3', '4']",1,2023.2.3,harveyvisual,2.1,[],8,0.75,
1,dot,0.3,['dot'],['density'],black,0,254,254,254,,,91.30022811889648,91.01220893859863,91.31218695640564,dot,[0.06],"[0.01430498756481247, 0.36429701967127975]",density,black,,,D002,visual,1,[],"['1', '2', '3', '4']",1,2023.2.3,harveyvisual,2.1,[],8,0.75,
0,pause,0.4,None,None,None,0,255,255,255,,,,,,,,,,,,,D002,visual,1,[],"['1', '2', '3', '4']",1,2023.2.3,harveyvisual,2.1,[],8,0.75,
1,dot,0.3,['dot'],['density'],black,0,256,256,256,,,92.00020408630371,91.71212005615234,92.01208806037903,dot,[0.06],"[-0.48958603946102763, 0.32731293615049173]",density,black,,,D002,visual,1,[],"['1', '2', '3', '4']",1,2023.2.3,harveyvisual,2.1,[],8,0.75,
0,pause,0.4,None,None,None,0,257,257,257,,,,,,,,,,,,,D002,visual,1,[],"['1', '2', '3', '4']",1,2023.2.3,harveyvisual,2.1,[],8,0.75,
1,dot,0.3,['dot'],['density'],black,0,258,258,258,,,92.70020794868469,92.41209506988525,92.71227192878723,dot,[0.06],"[0.43730911014729085, 0.38068286015665653]",density,black,,,D002,visual,1,[],"['1', '2', '3', '4']",1,2023.2.3,harveyvisual,2.1,[],8,0.75,
0,pause,0.4,None,None,None,0,259,259,259,,,,,,,,,,,,,D002,visual,1,[],"['1', '2', '3', '4']",1,2023.2.3,harveyvisual,2.1,[],8,0.75,
1,dot,0.3,['dot'],['density'],black,0,260,260,260,,,93.40022397041321,93.11212706565857,93.41225790977478,dot,[0.1],"[0.5668064281626585, -0.020013277593342628]",density,black,,,D002,visual,1,[],"['1', '2', '3', '4']",1,2023.2.3,harveyvisual,2.1,[],8,0.75,
0,pause,0.4,None,None,None,0,261,261,261,,,,,,,,,,,,,D002,visual,1,[],"['1', '2', '3', '4']",1,2023.2.3,harveyvisual,2.1,[],8,0.75,
1,dot,0.3,['dot'],['density'],black,0,262,262,262,,,94.10020995140076,93.81226706504822,94.11209797859192,dot,[0.06],"[-0.43400380483721984, 0.10531265887229962]",density,black,,,D002,visual,1,[],"['1', '2', '3', '4']",1,2023.2.3,harveyvisual,2.1,[],8,0.75,
0,pause,0.4,None,None,None,0,263,263,263,,,,,,,,,,,,,D002,visual,1,[],"['1', '2', '3', '4']",1,2023.2.3,harveyvisual,2.1,[],8,0.75,
20,dot,0.3,['dot'],['density'],black,0,264,264,264,,,94.80022096633911,94.51223993301392,94.81209301948547,dot,"[0.06, 0.08, 0.06, 0.1, 0.08, 0.08, 0.1, 0.1, 0.06, 0.1, 0.06, 0.06, 0.06, 0.08, 0.1, 0.08, 0.08, 0.1, 0.1, 0.08]","[[0.3744478757526004, 0.15223799930055876], [0.32966582819439705, 0.43145167339964563], [0.2284775232478603, -0.1684973596748029], [-0.5427410731330169, -0.13958420430257962], [0.23010724392814585, -0.3605094010012502], [-0.28520037439946827, -0.15528429180557946], [-0.3464020415847344, 0.4131754238484491], [-0.022510092138991578, -0.4994099534044531], [-0.005596493345269793, 0.5445886385333496], [-0.10152533484196224, 0.30060655174583883], [-0.32248752722607643, -0.49355273029431784], [0.2179172217934321, 0.2653528573650853], [0.3927563728386504, -0.05951417015325139], [-0.47251517035450663, 0.1657750046217547], [0.5897297947110248, 0.1045558203660622], [-0.220935625946867, 0.09416100944914729], [0.5683528441410007, -0.19139225512190142], [-0.16755961292776517, -0.37230157515642237], [-0.09169495435038144, -0.18092393042930555], [0.21548137677425272, 0.033690373811024354]]",density,black,,,D002,visual,1,[],"['1', '2', '3', '4']",1,2023.2.3,harveyvisual,2.1,[],8,0.75,
0,pause,0.4,None,None,None,0,265,265,265,,,,,,,,,,,,,D002,visual,1,[],"['1', '2', '3', '4']",1,2023.2.3,harveyvisual,2.1,[],8,0.75,
20,dot,0.3,['dot'],['density'],white,0,266,266,266,,,95.50021600723267,95.21209907531738,95.51209998130798,dot,"[0.1, 0.08, 0.1, 0.1, 0.08, 0.08, 0.08, 0.06, 0.06, 0.06, 0.06, 0.06, 0.06, 0.06, 0.08, 0.1, 0.08, 0.1, 0.08, 0.06]","[[-0.6044111581754704, 0.029054214664598683], [0.4285387403988271, -0.2707037154048955], [-0.05138823043111018, -0.2760865963068821], [0.5933261151669885, -0.020112416549501785], [-0.25437059592200695, 0.09311835383866063], [-0.3657697299798961, -0.32219287481752923], [0.538760189456371, 0.16221591324870932], [0.21371753327766918, 0.46309696142292556], [-0.18289845529956555, 0.5592273405044424], [0.22491925389339062, -0.08988568441329153], [-0.4391184218016602, 0.1667701816255736], [0.20137701522304607, -0.32798226108020956], [-0.48862485778951475, -0.1698944033274259], [0.033660769925870415, -0.09774821423524138], [0.14174279197138406, 0.1779986310341929], [0.15937738840594284, -0.5642269549102528], [-0.22722977747732925, -0.10731642199479713], [-0.02517859266147693, 0.37819947233713125], [0.4119954715508892, 0.38636835981237144], [-0.18140100053255404, -0.49858872494474726]]",density,white,,,D002,visual,1,[],"['1', '2', '3', '4']",1,2023.2.3,harveyvisual,2.1,[],8,0.75,
0,pause,0.4,None,None,None,0,267,267,267,,,,,,,,,,,1,95.56910800933838,D002,visual,1,[],"['1', '2', '3', '4']",1,2023.2.3,harveyvisual,2.1,[],8,0.75,
