num,mod,duration,shape,ll_cond,colors,.thisRepN,.thisTrialN,.thisN,.thisIndex,thisRow.t,notes,raw_global_time,t_start,t_stop,shapes,size,pos,cond,color,button,RT,participant,session,starting_run,left button (match/odd),right button (non-match/even),samples_per_block,psychopy version,expName,offset,audio,number_runs,radius,
1,dot,0.3,['dot'],['density'],white,0,0,0,0,,,2.4002110958099365,2.1009671688079834,2.417800188064575,dot,[0.1],"[0.1600937909388646, -0.5041032805904762]",density,white,,,D002,visual,1,[],"['1', '2', '3', '4']",1,2023.2.3,harveyvisual,2.1,[],8,0.75,
0,pause,0.4,None,None,None,0,1,1,1,,,,,,,,,,,1,2.655061960220337,D002,visual,1,[],"['1', '2', '3', '4']",1,2023.2.3,harveyvisual,2.1,[],8,0.75,
1,dot,0.3,['dot'],['density'],black,0,2,2,2,,,3.100210189819336,2.801023006439209,3.118070125579834,dot,[0.06],"[0.43730911014729085, 0.38068286015665653]",density,black,,,D002,visual,1,[],"['1', '2', '3', '4']",1,2023.2.3,harveyvisual,2.1,[],8,0.75,
0,pause,0.4,None,None,None,0,3,3,3,,,,,,,,,,,,,D002,visual,1,[],"['1', '2', '3', '4']",1,2023.2.3,harveyvisual,2.1,[],8,0.75,
1,dot,0.3,['dot'],['density'],black,0,4,4,4,,,3.800199031829834,3.5014262199401855,3.81815505027771,dot,[0.1],"[-0.4309303250570785, -0.37878052449928096]",density,black,,,D002,visual,1,[],"['1', '2', '3', '4']",1,2023.2.3,harveyvisual,2.1,[],8,0.75,
0,pause,0.4,None,None,None,0,5,5,5,,,,,,,,,,,,,D002,visual,1,[],"['1', '2', '3', '4']",1,2023.2.3,harveyvisual,2.1,[],8,0.75,
1,dot,0.3,['dot'],['density'],black,0,6,6,6,,,4.500200986862183,4.201492071151733,4.518020153045654,dot,[0.1],"[-0.06064478149429028, 0.10204082006191012]",density,black,,,D002,visual,1,[],"['1', '2', '3', '4']",1,2023.2.3,harveyvisual,2.1,[],8,0.75,
0,pause,0.4,None,None,None,0,7,7,7,,,,,,,,,,,,,D002,visual,1,[],"['1', '2', '3', '4']",1,2023.2.3,harveyvisual,2.1,[],8,0.75,
1,dot,0.3,['dot'],['density'],black,0,8,8,8,,,5.2002081871032715,4.901396036148071,5.217969179153442,dot,[0.06],"[-0.4309303250570785, -0.37878052449928096]",density,black,,,D002,visual,1,[],"['1', '2', '3', '4']",1,2023.2.3,harveyvisual,2.1,[],8,0.75,
0,pause,0.4,None,None,None,0,9,9,9,,,,,,,,,,,,,D002,visual,1,[],"['1', '2', '3', '4']",1,2023.2.3,harveyvisual,2.1,[],8,0.75,
1,dot,0.3,['dot'],['density'],black,0,10,10,10,,,5.900207042694092,5.603346109390259,5.919885158538818,dot,[0.1],"[0.39967490259390637, -0.2576437183111264]",density,black,,,D002,visual,1,[],"['1', '2', '3', '4']",1,2023.2.3,harveyvisual,2.1,[],8,0.75,
0,pause,0.4,None,None,None,0,11,11,11,,,,,,,,,,,,,D002,visual,1,[],"['1', '2', '3', '4']",1,2023.2.3,harveyvisual,2.1,[],8,0.75,
2,dot,0.3,['dot'],['density'],white,0,12,12,12,,,6.600210189819336,6.319883108139038,6.6198890209198,dot,"[0.1, 0.06]","[[0.24818458179829028, -0.5230613829255512], [0.05315527151035717, -0.47711981276458415]]",density,white,,,D002,visual,1,[],"['1', '2', '3', '4']",1,2023.2.3,harveyvisual,2.1,[],8,0.75,
0,pause,0.4,None,None,None,0,13,13,13,,,,,,,,,,,1,6.745403051376343,D002,visual,1,[],"['1', '2', '3', '4']",1,2023.2.3,harveyvisual,2.1,[],8,0.75,
2,dot,0.3,['dot'],['density'],black,0,14,14,14,,,7.300207138061523,7.0198140144348145,7.319966077804565,dot,"[0.08, 0.1]","[[0.28379985726396956, 0.19228106150028407], [0.10160376615595414, 0.2763535177041957]]",density,black,,,D002,visual,1,[],"['1', '2', '3', '4']",1,2023.2.3,harveyvisual,2.1,[],8,0.75,
0,pause,0.4,None,None,None,0,15,15,15,,,,,,,,,,,,,D002,visual,1,[],"['1', '2', '3', '4']",1,2023.2.3,harveyvisual,2.1,[],8,0.75,
2,dot,0.3,['dot'],['density'],black,0,16,16,16,,,8.00020718574524,7.7198710441589355,8.069867134094238,dot,"[0.06, 0.06]","[[-0.22226122312079244, -0.00806926593831646], [-0.023245446524914906, -0.037240983575548024]]",density,black,,,D002,visual,1,[],"['1', '2', '3', '4']",1,2023.2.3,harveyvisual,2.1,[],8,0.75,
0,pause,0.4,None,None,None,0,17,17,17,,,,,,,,,,,,,D002,visual,1,[],"['1', '2', '3', '4']",1,2023.2.3,harveyvisual,2.1,[],8,0.75,
2,dot,0.3,['dot'],['density'],black,0,18,18,18,,,8.700206995010376,8.419786214828491,8.719776153564453,dot,"[0.1, 0.1]","[[0.5590929928249944, 0.05901985638302875], [0.5065513741473344, -0.13409141480534237]]",density,black,,,D002,visual,1,[],"['1', '2', '3', '4']",1,2023.2.3,harveyvisual,2.1,[],8,0.75,
0,pause,0.4,None,None,None,0,19,19,19,,,,,,,,,,,,,D002,visual,1,[],"['1', '2', '3', '4']",1,2023.2.3,harveyvisual,2.1,[],8,0.75,
2,dot,0.3,['dot'],['density'],black,0,20,20,20,,,9.40021014213562,9.119939088821411,9.41991400718689,dot,"[0.06, 0.08]","[[0.075840462383643, -0.21806900392302264], [0.2761252679018853, -0.22101292055433702]]",density,black,,,D002,visual,1,[],"['1', '2', '3', '4']",1,2023.2.3,harveyvisual,2.1,[],8,0.75,
0,pause,0.4,None,None,None,0,21,21,21,,,,,,,,,,,,,D002,visual,1,[],"['1', '2', '3', '4']",1,2023.2.3,harveyvisual,2.1,[],8,0.75,
2,dot,0.3,['dot'],['density'],black,0,22,22,22,,,10.10020899772644,9.819783210754395,10.119746208190918,dot,"[0.1, 0.1]","[[-0.4579128382498026, -0.013317831223324628], [-0.28624676016543393, -0.11681778735554697]]",density,black,,,D002,visual,1,[],"['1', '2', '3', '4']",1,2023.2.3,harveyvisual,2.1,[],8,0.75,
0,pause,0.4,None,None,None,0,23,23,23,,,,,,,,,,,,,D002,visual,1,[],"['1', '2', '3', '4']",1,2023.2.3,harveyvisual,2.1,[],8,0.75,
3,dot,0.3,['dot'],['density'],black,0,24,24,24,,,10.800214052200317,10.519760131835938,10.819746017456055,dot,"[0.08, 0.08, 0.08]","[[-0.32034981165049564, 0.18083778238314796], [-0.3344619052850136, -0.04022521570367012], [-0.13485517643248812, 0.10330846540140716]]",density,black,,,D002,visual,1,[],"['1', '2', '3', '4']",1,2023.2.3,harveyvisual,2.1,[],8,0.75,
0,pause,0.4,None,None,None,0,25,25,25,,,,,,,,,,,,,D002,visual,1,[],"['1', '2', '3', '4']",1,2023.2.3,harveyvisual,2.1,[],8,0.75,
3,dot,0.3,['dot'],['density'],black,0,26,26,26,,,11.500226020812988,11.219725131988525,11.519711017608643,dot,"[0.1, 0.1, 0.08]","[[-0.31319101668702665, 0.019781348947723338], [-0.5473895760332308, 0.024991247927059115], [-0.4494119348059314, -0.1602141851013313]]",density,black,,,D002,visual,1,[],"['1', '2', '3', '4']",1,2023.2.3,harveyvisual,2.1,[],8,0.75,
0,pause,0.4,None,None,None,0,27,27,27,,,,,,,,,,,,,D002,visual,1,[],"['1', '2', '3', '4']",1,2023.2.3,harveyvisual,2.1,[],8,0.75,
3,dot,0.3,['dot'],['density'],black,0,28,28,28,,,12.200215101242065,11.919670104980469,12.219657182693481,dot,"[0.08, 0.08, 0.08]","[[0.3935061822875672, 0.2255916562549388], [0.5507663609445765, 0.05974239467682067], [0.33737455125106675, -0.013318187219183488]]",density,black,,,D002,visual,1,[],"['1', '2', '3', '4']",1,2023.2.3,harveyvisual,2.1,[],8,0.75,
0,pause,0.4,None,None,None,0,29,29,29,,,,,,,,,,,,,D002,visual,1,[],"['1', '2', '3', '4']",1,2023.2.3,harveyvisual,2.1,[],8,0.75,
3,dot,0.3,['dot'],['density'],white,0,30,30,30,,,12.900219202041626,12.619654178619385,12.919680118560791,dot,"[0.08, 0.1, 0.06]","[[-0.32034981165049564, 0.18083778238314796], [-0.3344619052850136, -0.04022521570367012], [-0.13485517643248812, 0.10330846540140716]]",density,white,,,D002,visual,1,[],"['1', '2', '3', '4']",1,2023.2.3,harveyvisual,2.1,[],8,0.75,
0,pause,0.4,None,None,None,0,31,31,31,,,,,,,,,,,1,13.03012490272522,D002,visual,1,[],"['1', '2', '3', '4']",1,2023.2.3,harveyvisual,2.1,[],8,0.75,
3,dot,0.3,['dot'],['density'],black,0,32,32,32,,,13.600203037261963,13.319658041000366,13.619663000106812,dot,"[0.06, 0.1, 0.08]","[[0.3835821938049364, -0.20766469641190155], [0.321707527308891, -0.4175939354614905], [0.1897943789354585, -0.2642367600490923]]",density,black,,,D002,visual,1,[],"['1', '2', '3', '4']",1,2023.2.3,harveyvisual,2.1,[],8,0.75,
0,pause,0.4,None,None,None,0,33,33,33,,,,,,,,,,,,,D002,visual,1,[],"['1', '2', '3', '4']",1,2023.2.3,harveyvisual,2.1,[],8,0.75,
3,dot,0.3,['dot'],['density'],black,0,34,34,34,,,14.300207138061523,14.019647121429443,14.3196280002594,dot,"[0.1, 0.06, 0.08]","[[-0.1599523582230929, -0.020289166781496174], [-0.3458010015304564, -0.14250622038001895], [-0.3538668896253721, 0.08903610231223419]]",density,black,,,D002,visual,1,[],"['1', '2', '3', '4']",1,2023.2.3,harveyvisual,2.1,[],8,0.75,
0,pause,0.4,None,None,None,0,35,35,35,,,,,,,,,,,,,D002,visual,1,[],"['1', '2', '3', '4']",1,2023.2.3,harveyvisual,2.1,[],8,0.75,
4,dot,0.3,['dot'],['density'],black,0,36,36,36,,,15.000223159790039,14.719649076461792,15.019592046737671,dot,"[0.08, 0.06, 0.08, 0.1]","[[-0.0389916918612136, -0.388752419995929], [-0.2709884701808293, -0.36873671266769453], [0.09349318837137091, -0.23801008290575854], [-0.09100040788429245, -0.11490803606521542]]",density,black,,,D002,visual,1,[],"['1', '2', '3', '4']",1,2023.2.3,harveyvisual,2.1,[],8,0.75,
0,pause,0.4,None,None,None,0,37,37,37,,,,,,,,,,,,,D002,visual,1,[],"['1', '2', '3', '4']",1,2023.2.3,harveyvisual,2.1,[],8,0.75,
4,dot,0.3,['dot'],['density'],black,0,38,38,38,,,15.700204133987427,15.41958212852478,15.719567060470581,dot,"[0.06, 0.06, 0.06, 0.06]","[[0.0004228548582206217, 0.4437421379736539], [0.24572762857664815, 0.2260868474052859], [0.007756854070108054, 0.1846819218217072], [0.22099789303306372, 0.4278063517398125]]",density,black,,,D002,visual,1,[],"['1', '2', '3', '4']",1,2023.2.3,harveyvisual,2.1,[],8,0.75,
0,pause,0.4,None,None,None,0,39,39,39,,,,,,,,,,,,,D002,visual,1,[],"['1', '2', '3', '4']",1,2023.2.3,harveyvisual,2.1,[],8,0.75,
4,dot,0.3,['dot'],['density'],black,0,40,40,40,,,16.400214195251465,16.11957311630249,16.419541120529175,dot,"[0.1, 0.1, 0.1, 0.1]","[[-0.0389916918612136, -0.388752419995929], [-0.2709884701808293, -0.36873671266769453], [0.09349318837137091, -0.23801008290575854], [-0.09100040788429245, -0.11490803606521542]]",density,black,,,D002,visual,1,[],"['1', '2', '3', '4']",1,2023.2.3,harveyvisual,2.1,[],8,0.75,
0,pause,0.4,None,None,None,0,41,41,41,,,,,,,,,,,,,D002,visual,1,[],"['1', '2', '3', '4']",1,2023.2.3,harveyvisual,2.1,[],8,0.75,
4,dot,0.3,['dot'],['density'],black,0,42,42,42,,,17.100223064422607,16.819554090499878,17.119571208953857,dot,"[0.1, 0.08, 0.06, 0.1]","[[-0.47693618450386616, -0.1525114564248906], [-0.12413069550496705, 0.03327587270375396], [-0.32964510574757994, -0.012304557788591533], [-0.22851041427491325, -0.22018408257550984]]",density,black,,,D002,visual,1,[],"['1', '2', '3', '4']",1,2023.2.3,harveyvisual,2.1,[],8,0.75,
0,pause,0.4,None,None,None,0,43,43,43,,,,,,,,,,,,,D002,visual,1,[],"['1', '2', '3', '4']",1,2023.2.3,harveyvisual,2.1,[],8,0.75,
4,dot,0.3,['dot'],['density'],white,0,44,44,44,,,17.800212144851685,17.519562005996704,17.819552183151245,dot,"[0.06, 0.06, 0.08, 0.1]","[[0.0004228548582206217, 0.4437421379736539], [0.24572762857664815, 0.2260868474052859], [0.007756854070108054, 0.1846819218217072], [0.22099789303306372, 0.4278063517398125]]",density,white,,,D002,visual,1,[],"['1', '2', '3', '4']",1,2023.2.3,harveyvisual,2.1,[],8,0.75,
0,pause,0.4,None,None,None,0,45,45,45,,,,,,,,,,,1,17.922725915908813,D002,visual,1,[],"['1', '2', '3', '4']",1,2023.2.3,harveyvisual,2.1,[],8,0.75,
4,dot,0.3,['dot'],['density'],black,0,46,46,46,,,18.500202178955078,18.21955704689026,18.519545078277588,dot,"[0.08, 0.08, 0.1, 0.1]","[[-0.0389916918612136, -0.388752419995929], [-0.2709884701808293, -0.36873671266769453], [0.09349318837137091, -0.23801008290575854], [-0.09100040788429245, -0.11490803606521542]]",density,black,,,D002,visual,1,[],"['1', '2', '3', '4']",1,2023.2.3,harveyvisual,2.1,[],8,0.75,
0,pause,0.4,None,None,None,0,47,47,47,,,,,,,,,,,,,D002,visual,1,[],"['1', '2', '3', '4']",1,2023.2.3,harveyvisual,2.1,[],8,0.75,
5,dot,0.3,['dot'],['density'],black,0,48,48,48,,,19.200216054916382,18.919498205184937,19.21948003768921,dot,"[0.08, 0.08, 0.1, 0.08, 0.06]","[[-0.07969108163070573, 0.258241044050758], [-0.3301768112222262, 0.22562982972330062], [-0.16453040906828167, -0.1622271318141552], [-0.21753854086321037, 0.04365873274764029], [0.030347216865940038, 0.07834852794011457]]",density,black,,,D002,visual,1,[],"['1', '2', '3', '4']",1,2023.2.3,harveyvisual,2.1,[],8,0.75,
0,pause,0.4,None,None,None,0,49,49,49,,,,,,,,,,,,,D002,visual,1,[],"['1', '2', '3', '4']",1,2023.2.3,harveyvisual,2.1,[],8,0.75,
5,dot,0.3,['dot'],['density'],black,0,50,50,50,,,19.900224208831787,19.61947011947632,19.91950821876526,dot,"[0.06, 0.08, 0.06, 0.1, 0.08]","[[0.36014554898799966, 0.387810422325294], [0.055757472799778995, 0.16941293674392635], [0.2210739480460382, 0.008175952352481365], [0.48495712857242873, 0.07425785546611247], [0.25975240449222103, 0.2092734881649904]]",density,black,,,D002,visual,1,[],"['1', '2', '3', '4']",1,2023.2.3,harveyvisual,2.1,[],8,0.75,
0,pause,0.4,None,None,None,0,51,51,51,,,,,,,,,,,,,D002,visual,1,[],"['1', '2', '3', '4']",1,2023.2.3,harveyvisual,2.1,[],8,0.75,
5,dot,0.3,['dot'],['density'],black,0,52,52,52,,,20.600207090377808,20.319563150405884,20.619548082351685,dot,"[0.06, 0.1, 0.1, 0.06, 0.06]","[[0.08548847697718086, 0.4135790235028826], [-0.012611048966726563, 0.22662400259503446], [0.27435170057987585, 0.4853016025774898], [-0.23063129862993442, 0.3109017384705433], [-0.11887524344887646, 0.49040580377695175]]",density,black,,,D002,visual,1,[],"['1', '2', '3', '4']",1,2023.2.3,harveyvisual,2.1,[],8,0.75,
0,pause,0.4,None,None,None,0,53,53,53,,,,,,,,,,,,,D002,visual,1,[],"['1', '2', '3', '4']",1,2023.2.3,harveyvisual,2.1,[],8,0.75,
5,dot,0.3,['dot'],['density'],black,0,54,54,54,,,21.300209045410156,21.019440174102783,21.319424152374268,dot,"[0.1, 0.08, 0.08, 0.1, 0.08]","[[0.11182935554897071, 0.3084500478813638], [0.20284409002608467, 0.5199666233992849], [0.31882748915707354, 0.1252782162051447], [0.39083404861423326, 0.3494221689807338], [0.1196046891632849, 0.10173499350566408]]",density,black,,,D002,visual,1,[],"['1', '2', '3', '4']",1,2023.2.3,harveyvisual,2.1,[],8,0.75,
0,pause,0.4,None,None,None,0,55,55,55,,,,,,,,,,,,,D002,visual,1,[],"['1', '2', '3', '4']",1,2023.2.3,harveyvisual,2.1,[],8,0.75,
5,dot,0.3,['dot'],['density'],black,0,56,56,56,,,22.00020718574524,21.719428062438965,22.019402027130127,dot,"[0.06, 0.08, 0.08, 0.08, 0.06]","[[-0.3593586909609717, -0.014123405231526708], [-0.016214713675271986, 0.25764317450247104], [-0.14180258575993823, 0.0328893580167688], [-0.4739301778776912, 0.15719809156630632], [-0.2718601341595813, 0.23222304362681612]]",density,black,,,D002,visual,1,[],"['1', '2', '3', '4']",1,2023.2.3,harveyvisual,2.1,[],8,0.75,
0,pause,0.4,None,None,None,0,57,57,57,,,,,,,,,,,,,D002,visual,1,[],"['1', '2', '3', '4']",1,2023.2.3,harveyvisual,2.1,[],8,0.75,
5,dot,0.3,['dot'],['density'],black,0,58,58,58,,,22.70021104812622,22.419421195983887,22.71939206123352,dot,"[0.1, 0.08, 0.08, 0.06, 0.1]","[[-0.08906257038347729, 0.3326351968500321], [0.2173987091792188, 0.026220721131276364], [0.07996259445097068, 0.4821024141609844], [0.14345365083950706, 0.2501481494916038], [-0.03323208063638199, 0.08804517681276208]]",density,black,,,D002,visual,1,[],"['1', '2', '3', '4']",1,2023.2.3,harveyvisual,2.1,[],8,0.75,
0,pause,0.4,None,None,None,0,59,59,59,,,,,,,,,,,,,D002,visual,1,[],"['1', '2', '3', '4']",1,2023.2.3,harveyvisual,2.1,[],8,0.75,
6,dot,0.3,['dot'],['density'],black,0,60,60,60,,,23.40020513534546,23.119386196136475,23.419369220733643,dot,"[0.06, 0.06, 0.08, 0.08, 0.1, 0.1]","[[0.23041567882598732, 0.45619944218456715], [0.5278859611842325, 0.18245830030246968], [0.08738225171760033, 0.1578384040678088], [0.20561463112105705, -0.03996865664556224], [0.3021721310554224, 0.21718230064421146], [0.4273755636869532, 0.38341374408431883]]",density,black,,,D002,visual,1,[],"['1', '2', '3', '4']",1,2023.2.3,harveyvisual,2.1,[],8,0.75,
0,pause,0.4,None,None,None,0,61,61,61,,,,,,,,,,,,,D002,visual,1,[],"['1', '2', '3', '4']",1,2023.2.3,harveyvisual,2.1,[],8,0.75,
6,dot,0.3,['dot'],['density'],black,0,62,62,62,,,24.100226163864136,23.81936502456665,24.119365215301514,dot,"[0.08, 0.08, 0.06, 0.1, 0.1, 0.06]","[[0.01776890784276672, 0.3448500499300058], [-0.18238616215991446, 0.4840889924469993], [-0.2129582374372363, 0.07157874559070018], [-0.41549008775918617, 0.14353268657608398], [0.019487844458329944, 0.1389587799501653], [-0.21004805074000235, 0.2837936954907191]]",density,black,,,D002,visual,1,[],"['1', '2', '3', '4']",1,2023.2.3,harveyvisual,2.1,[],8,0.75,
0,pause,0.4,None,None,None,0,63,63,63,,,,,,,,,,,,,D002,visual,1,[],"['1', '2', '3', '4']",1,2023.2.3,harveyvisual,2.1,[],8,0.75,
6,dot,0.3,['dot'],['density'],black,0,64,64,64,,,24.800214052200317,24.519352197647095,24.81933307647705,dot,"[0.08, 0.06, 0.08, 0.1, 0.1, 0.08]","[[0.26568550625605564, -0.48823100126060537], [0.030589778490880962, -0.34307155488476027], [0.2920158589989485, -0.005481777194348812], [0.4969139129819881, -0.3034402107212153], [0.2924968692334099, -0.2393606426967254], [0.09404279540557291, -0.1505005030192783]]",density,black,,,D002,visual,1,[],"['1', '2', '3', '4']",1,2023.2.3,harveyvisual,2.1,[],8,0.75,
0,pause,0.4,None,None,None,0,65,65,65,,,,,,,,,,,,,D002,visual,1,[],"['1', '2', '3', '4']",1,2023.2.3,harveyvisual,2.1,[],8,0.75,
6,dot,0.3,['dot'],['density'],black,0,66,66,66,,,25.500213146209717,25.21932101249695,25.5193030834198,dot,"[0.06, 0.08, 0.06, 0.08, 0.1, 0.06]","[[-0.521575560759306, -0.09896409503936293], [-0.11005055439098525, 0.007412765662050641], [-0.2691644509192311, -0.32034241736757013], [-0.33082776037640693, 0.11579187391948328], [-0.031037041641207554, -0.21820435357846482], [-0.2943013415457968, -0.09543215727460275]]",density,black,,,D002,visual,1,[],"['1', '2', '3', '4']",1,2023.2.3,harveyvisual,2.1,[],8,0.75,
0,pause,0.4,None,None,None,0,67,67,67,,,,,,,,,,,,,D002,visual,1,[],"['1', '2', '3', '4']",1,2023.2.3,harveyvisual,2.1,[],8,0.75,
6,dot,0.3,['dot'],['density'],black,0,68,68,68,,,26.200213193893433,25.919305086135864,26.21932101249695,dot,"[0.1, 0.1, 0.1, 0.08, 0.1, 0.06]","[[-0.36874454135919904, -0.07559312273534534], [-0.010504004432700158, -0.20559114413973084], [-0.17044584652251332, 0.17221059634863578], [-0.26251446752681207, -0.3074850979938877], [0.06633568674208327, -0.020893677029436595], [-0.1538914639536258, -0.02772778393149798]]",density,black,,,D002,visual,1,[],"['1', '2', '3', '4']",1,2023.2.3,harveyvisual,2.1,[],8,0.75,
0,pause,0.4,None,None,None,0,69,69,69,,,,,,,,,,,,,D002,visual,1,[],"['1', '2', '3', '4']",1,2023.2.3,harveyvisual,2.1,[],8,0.75,
6,dot,0.3,['dot'],['density'],black,0,70,70,70,,,26.900225162506104,26.61928915977478,26.919273138046265,dot,"[0.08, 0.08, 0.06, 0.08, 0.08, 0.1]","[[0.4249538099490167, -0.025354946498656116], [0.305005901383002, 0.397829445973664], [0.04954868862097969, 0.09819418046919175], [0.452299537631068, 0.2574679639516015], [0.21081936584905453, -0.08903757916275208], [0.27954488569289765, 0.14103100078867375]]",density,black,,,D002,visual,1,[],"['1', '2', '3', '4']",1,2023.2.3,harveyvisual,2.1,[],8,0.75,
0,pause,0.4,None,None,None,0,71,71,71,,,,,,,,,,,,,D002,visual,1,[],"['1', '2', '3', '4']",1,2023.2.3,harveyvisual,2.1,[],8,0.75,
7,dot,0.3,['dot'],['density'],black,0,72,72,72,,,27.600224018096924,27.3192720413208,27.61925220489502,dot,"[0.1, 0.08, 0.08, 0.1, 0.1, 0.08, 0.06]","[[-0.0015444251822213466, 0.17452400993182896], [-0.3864233363803332, 0.3856338194384884], [-0.45841970572989144, 0.11901701190004808], [-0.23552014845846486, 0.11986313412455778], [-0.06694767956243396, -0.029831379541550785], [-0.3576154478026905, -0.11072010138878656], [-0.17113735677840214, 0.37123035181888253]]",density,black,,,D002,visual,1,[],"['1', '2', '3', '4']",1,2023.2.3,harveyvisual,2.1,[],8,0.75,
0,pause,0.4,None,None,None,0,73,73,73,,,,,,,,,,,,,D002,visual,1,[],"['1', '2', '3', '4']",1,2023.2.3,harveyvisual,2.1,[],8,0.75,
7,dot,0.3,['dot'],['density'],black,0,74,74,74,,,28.30022120475769,28.019344091415405,28.319329023361206,dot,"[0.06, 0.08, 0.08, 0.06, 0.06, 0.08, 0.08]","[[0.3350011905151264, 0.09255159473130091], [-0.07424962927914175, -0.2643067362759337], [-0.0068732696698998825, 0.04948606721470151], [0.12855319879406235, -0.3381192636220083], [0.11551090787938859, 0.24000211478775196], [0.3415900712266813, -0.1269386107563701], [0.14228147320501944, -0.08533637750285226]]",density,black,,,D002,visual,1,[],"['1', '2', '3', '4']",1,2023.2.3,harveyvisual,2.1,[],8,0.75,
0,pause,0.4,None,None,None,0,75,75,75,,,,,,,,,,,,,D002,visual,1,[],"['1', '2', '3', '4']",1,2023.2.3,harveyvisual,2.1,[],8,0.75,
7,dot,0.3,['dot'],['density'],black,0,76,76,76,,,29.000224113464355,28.719420194625854,29.019245147705078,dot,"[0.1, 0.1, 0.1, 0.1, 0.06, 0.06, 0.08]","[[0.21536278937261513, -0.01733091677764761], [-0.08931035591216824, -0.05246349631749078], [0.21870610454298933, 0.21067491250041093], [-0.1587576617113587, 0.26068369883413384], [0.04623079518225047, 0.4568527369480977], [0.022942391481424712, 0.13939122930077608], [-0.27674911739568203, 0.09730719745121558]]",density,black,,,D002,visual,1,[],"['1', '2', '3', '4']",1,2023.2.3,harveyvisual,2.1,[],8,0.75,
0,pause,0.4,None,None,None,0,77,77,77,,,,,,,,,,,,,D002,visual,1,[],"['1', '2', '3', '4']",1,2023.2.3,harveyvisual,2.1,[],8,0.75,
7,dot,0.3,['dot'],['density'],black,0,78,78,78,,,29.7002010345459,29.41922402381897,29.71922016143799,dot,"[0.1, 0.06, 0.06, 0.1, 0.06, 0.06, 0.1]","[[-0.23895008888738212, 0.05027357720500052], [0.04847041368780161, 0.3376116924566045], [0.007425979130163878, -0.07582657330311053], [-0.16109724709992976, 0.33554312732420544], [-0.17199436159673825, -0.1887904434853683], [0.1858169564317131, 0.14031933770952934], [-0.038655615351801086, 0.15226176997737048]]",density,black,,,D002,visual,1,[],"['1', '2', '3', '4']",1,2023.2.3,harveyvisual,2.1,[],8,0.75,
0,pause,0.4,None,None,None,0,79,79,79,,,,,,,,,,,,,D002,visual,1,[],"['1', '2', '3', '4']",1,2023.2.3,harveyvisual,2.1,[],8,0.75,
7,dot,0.3,['dot'],['density'],black,0,80,80,80,,,30.400225162506104,30.119209051132202,30.419207096099854,dot,"[0.08, 0.1, 0.06, 0.08, 0.1, 0.1, 0.06]","[[0.020512593940644967, 0.06058225053891463], [-0.12457192929091994, 0.22210134043855223], [0.2267676360835929, 0.07227077176864677], [-0.19381219694833235, -0.14277017550647156], [0.096077147208419, -0.13886261858003718], [0.087393672000005, 0.26445259248386815], [-0.018663113410245565, 0.4344684582511623]]",density,black,,,D002,visual,1,[],"['1', '2', '3', '4']",1,2023.2.3,harveyvisual,2.1,[],8,0.75,
0,pause,0.4,None,None,None,0,81,81,81,,,,,,,,,,,,,D002,visual,1,[],"['1', '2', '3', '4']",1,2023.2.3,harveyvisual,2.1,[],8,0.75,
7,dot,0.3,['dot'],['density'],black,0,82,82,82,,,31.100220203399658,30.819199085235596,31.11917805671692,dot,"[0.1, 0.06, 0.1, 0.08, 0.08, 0.1, 0.06]","[[-0.27882252076513336, 0.33055409005240166], [-0.4957633793454142, -0.06140876275196145], [-0.0066404743852866415, -0.09326226909207957], [-0.0437417051997281, 0.24568157295930956], [-0.4653499650939929, 0.1386387143322748], [-0.23664853702636232, 0.07695828400639043], [-0.2650254833014284, -0.12289079349875774]]",density,black,,,D002,visual,1,[],"['1', '2', '3', '4']",1,2023.2.3,harveyvisual,2.1,[],8,0.75,
0,pause,0.4,None,None,None,0,83,83,83,,,,,,,,,,,,,D002,visual,1,[],"['1', '2', '3', '4']",1,2023.2.3,harveyvisual,2.1,[],8,0.75,
8,dot,0.3,['dot'],['density'],black,0,84,84,84,,,31.800222158432007,31.519179105758667,31.819164037704468,dot,"[0.1, 0.08, 0.06, 0.06, 0.06, 0.08, 0.08, 0.08]","[[0.1740819983727909, -0.16863019829442621], [0.14644114519141543, -0.4524198896657212], [0.0024885361438939093, 0.023531574910491997], [-0.23717340943857948, -0.31112918658627675], [-0.11311749148073028, -0.46867866316561874], [-0.17928248077090506, -0.060241557052319365], [-0.03957999532622772, -0.24759906754331504], [-0.4644327601918011, -0.3627803331480915]]",density,black,,,D002,visual,1,[],"['1', '2', '3', '4']",1,2023.2.3,harveyvisual,2.1,[],8,0.75,
0,pause,0.4,None,None,None,0,85,85,85,,,,,,,,,,,,,D002,visual,1,[],"['1', '2', '3', '4']",1,2023.2.3,harveyvisual,2.1,[],8,0.75,
8,dot,0.3,['dot'],['density'],black,0,86,86,86,,,32.50022506713867,32.21916699409485,32.51915216445923,dot,"[0.06, 0.06, 0.06, 0.1, 0.1, 0.08, 0.06, 0.1]","[[0.3129921899656287, 0.2226642157048143], [0.41298599633021416, -0.001766323215076977], [0.013785601627645026, 0.39275307090924344], [-0.009407606244017683, 0.02333367620517349], [0.20163499737495916, -0.08731087547331118], [0.31235423233837933, 0.42762820752661124], [0.10705959187470679, 0.21318577255187057], [-0.13233007013452783, 0.20605257250075132]]",density,black,,,D002,visual,1,[],"['1', '2', '3', '4']",1,2023.2.3,harveyvisual,2.1,[],8,0.75,
0,pause,0.4,None,None,None,0,87,87,87,,,,,,,,,,,,,D002,visual,1,[],"['1', '2', '3', '4']",1,2023.2.3,harveyvisual,2.1,[],8,0.75,
8,dot,0.3,['dot'],['density'],black,0,88,88,88,,,33.200206995010376,32.91914510726929,33.21912217140198,dot,"[0.1, 0.1, 0.08, 0.1, 0.06, 0.1, 0.08, 0.1]","[[0.32983457944800887, -0.09988122376634187], [0.002544499336209532, 0.05447162498302279], [0.49322357980250997, 0.04173156098678792], [0.3398992085464782, -0.3241559212022164], [0.12656458423521935, -0.36323236959635974], [0.5072737450674915, -0.19500703868861743], [0.06482113683766944, -0.1422911224505784], [0.25865538318477954, 0.20042726536108785]]",density,black,,,D002,visual,1,[],"['1', '2', '3', '4']",1,2023.2.3,harveyvisual,2.1,[],8,0.75,
0,pause,0.4,None,None,None,0,89,89,89,,,,,,,,,,,,,D002,visual,1,[],"['1', '2', '3', '4']",1,2023.2.3,harveyvisual,2.1,[],8,0.75,
8,dot,0.3,['dot'],['density'],black,0,90,90,90,,,33.9002161026001,33.619126081466675,33.91910004615784,dot,"[0.06, 0.08, 0.08, 0.06, 0.08, 0.1, 0.06, 0.1]","[[0.28112832868380594, 0.3075763237432237], [-0.21381995858864508, 0.197554992839043], [0.14035436555963224, -0.1470740351963634], [-0.04856350071149823, -0.017306043905309515], [0.12070301707556046, 0.11279463428917226], [0.35236156425888765, 0.046198621115284964], [-0.012223412543992913, 0.3265760435025566], [0.11745206869397669, 0.49408919182137495]]",density,black,,,D002,visual,1,[],"['1', '2', '3', '4']",1,2023.2.3,harveyvisual,2.1,[],8,0.75,
0,pause,0.4,None,None,None,0,91,91,91,,,,,,,,,,,,,D002,visual,1,[],"['1', '2', '3', '4']",1,2023.2.3,harveyvisual,2.1,[],8,0.75,
8,dot,0.3,['dot'],['density'],black,0,92,92,92,,,34.600218057632446,34.319106101989746,34.61907601356506,dot,"[0.06, 0.06, 0.1, 0.06, 0.08, 0.08, 0.1, 0.1]","[[-0.25621621658373334, -0.516505587173681], [-0.1662036889407214, -0.08514196380588028], [-0.18387329975925823, -0.32724781719236296], [0.018951322384734254, -0.28276580262079387], [-0.4257935961758009, -0.11165978892152287], [-0.38337046113926315, -0.34678862335127664], [0.08447884857343574, -0.4920123821830729], [0.02561025798733424, 0.0007844895199748298]]",density,black,,,D002,visual,1,[],"['1', '2', '3', '4']",1,2023.2.3,harveyvisual,2.1,[],8,0.75,
0,pause,0.4,None,None,None,0,93,93,93,,,,,,,,,,,,,D002,visual,1,[],"['1', '2', '3', '4']",1,2023.2.3,harveyvisual,2.1,[],8,0.75,
8,dot,0.3,['dot'],['density'],black,0,94,94,94,,,35.30023002624512,35.01911520957947,35.31912803649902,dot,"[0.1, 0.1, 0.08, 0.06, 0.1, 0.06, 0.1, 0.1]","[[0.3129921899656287, 0.2226642157048143], [0.41298599633021416, -0.001766323215076977], [0.013785601627645026, 0.39275307090924344], [-0.009407606244017683, 0.02333367620517349], [0.20163499737495916, -0.08731087547331118], [0.31235423233837933, 0.42762820752661124], [0.10705959187470679, 0.21318577255187057], [-0.13233007013452783, 0.20605257250075132]]",density,black,,,D002,visual,1,[],"['1', '2', '3', '4']",1,2023.2.3,harveyvisual,2.1,[],8,0.75,
0,pause,0.4,None,None,None,0,95,95,95,,,,,,,,,,,,,D002,visual,1,[],"['1', '2', '3', '4']",1,2023.2.3,harveyvisual,2.1,[],8,0.75,
9,dot,0.3,['dot'],['density'],black,0,96,96,96,,,36.00021004676819,35.71912717819214,36.01907801628113,dot,"[0.1, 0.08, 0.1, 0.08, 0.1, 0.1, 0.08, 0.08, 0.08]","[[-0.08858128315591524, -0.3480052213079807], [0.37291707470974605, -0.0809562497479422], [-0.04311872097798103, 0.23152249840731254], [0.1734412630875083, -0.16491363602164627], [-0.024044713080900382, -0.04824256513196188], [0.126438571592319, 0.09122014985587756], [-0.2168202887682383, 0.11190421567656858], [-0.23215605484234547, -0.20356583507002532], [0.291417597339289, 0.24351333182926893]]",density,black,,,D002,visual,1,[],"['1', '2', '3', '4']",1,2023.2.3,harveyvisual,2.1,[],8,0.75,
0,pause,0.4,None,None,None,0,97,97,97,,,,,,,,,,,,,D002,visual,1,[],"['1', '2', '3', '4']",1,2023.2.3,harveyvisual,2.1,[],8,0.75,
9,dot,0.3,['dot'],['density'],white,0,98,98,98,,,36.70020508766174,36.41925311088562,36.71923518180847,dot,"[0.1, 0.08, 0.06, 0.1, 0.1, 0.06, 0.1, 0.1, 0.06]","[[0.15603996265512696, -0.0872053538661942], [-0.29211765964195757, -0.04110002513656992], [-0.071087909845803, -0.33174387981618686], [-0.13011395490928096, 0.2584597801106329], [-0.08364541374476576, -0.0980664528631432], [-0.26669569773039664, -0.25481833902542456], [-0.35582819085755485, -0.4494505046102014], [-0.1269674344078877, -0.5566175884613933], [0.011820482989003244, 0.07934247632600783]]",density,white,,,D002,visual,1,[],"['1', '2', '3', '4']",1,2023.2.3,harveyvisual,2.1,[],8,0.75,
0,pause,0.4,None,None,None,0,99,99,99,,,,,,,,,,,1,36.830256938934326,D002,visual,1,[],"['1', '2', '3', '4']",1,2023.2.3,harveyvisual,2.1,[],8,0.75,
9,dot,0.3,['dot'],['density'],white,0,100,100,100,,,37.40021204948425,37.11925005912781,37.41924810409546,dot,"[0.1, 0.06, 0.1, 0.1, 0.1, 0.06, 0.06, 0.1, 0.1]","[[-0.03413633707233166, 0.539775862693792], [0.03045342777742709, 0.14881397110038386], [0.3968101769942594, 0.3516381959676015], [-0.12464897846505978, 0.27513009849494485], [0.24828272947848068, 0.13372878599656182], [0.1825630446668698, 0.5466865974155928], [-0.40057775338259505, 0.3148646888607764], [0.06988801613907401, -0.06658504348068199], [0.07277149512897427, 0.3699912437376705]]",density,white,,,D002,visual,1,[],"['1', '2', '3', '4']",1,2023.2.3,harveyvisual,2.1,[],8,0.75,
0,pause,0.4,None,None,None,0,101,101,101,,,,,,,,,,,1,37.54835605621338,D002,visual,1,[],"['1', '2', '3', '4']",1,2023.2.3,harveyvisual,2.1,[],8,0.75,
9,dot,0.3,['dot'],['density'],black,0,102,102,102,,,38.10022807121277,37.8191921710968,38.119182109832764,dot,"[0.08, 0.08, 0.08, 0.1, 0.06, 0.08, 0.08, 0.06, 0.06]","[[-0.05049485011715354, 0.3013521193238899], [0.15354596755057998, 0.36785015051376163], [0.22995749783639982, 0.07309138415424772], [0.13460311710395165, -0.18603378415368982], [0.33097739113381164, -0.13822260855557728], [-0.16464148731134703, 0.07190493829483618], [0.521154897315396, -0.007803673430992942], [0.02684304494395013, 0.0018704401699241912], [-0.15545279255173522, -0.15329938800760382]]",density,black,,,D002,visual,1,[],"['1', '2', '3', '4']",1,2023.2.3,harveyvisual,2.1,[],8,0.75,
0,pause,0.4,None,None,None,0,103,103,103,,,,,,,,,,,,,D002,visual,1,[],"['1', '2', '3', '4']",1,2023.2.3,harveyvisual,2.1,[],8,0.75,
9,dot,0.3,['dot'],['density'],black,0,104,104,104,,,38.800213098526,38.51918005943298,38.819133043289185,dot,"[0.06, 0.06, 0.06, 0.08, 0.08, 0.08, 0.1, 0.06, 0.08]","[[0.43694394638140777, -0.3313910020207278], [-0.12671083892604185, -0.2904925475365486], [0.20104083284362928, 0.10806727359081147], [0.1376754545064979, -0.09924520624161907], [0.19021248837847174, -0.31516489548878085], [0.3653456942078643, -0.09076399745187974], [0.1403131072824284, -0.5562242851951704], [-0.005445667935095978, 0.0898710966384087], [-0.11923067905189093, -0.07827803450029165]]",density,black,,,D002,visual,1,[],"['1', '2', '3', '4']",1,2023.2.3,harveyvisual,2.1,[],8,0.75,
0,pause,0.4,None,None,None,0,105,105,105,,,,,,,,,,,,,D002,visual,1,[],"['1', '2', '3', '4']",1,2023.2.3,harveyvisual,2.1,[],8,0.75,
9,dot,0.3,['dot'],['density'],black,0,106,106,106,,,39.5002121925354,39.21913504600525,39.518983125686646,dot,"[0.06, 0.08, 0.06, 0.1, 0.1, 0.08, 0.06, 0.1, 0.08]","[[0.005765111513037631, -0.143111035787845], [-0.396275933094447, -0.3321437400526764], [0.037546025436095476, -0.5612590109297682], [-0.23561619682408028, -0.19372599185683617], [-0.24582953746203298, -0.47553838121684505], [-0.07047609790874906, -0.3562711323606942], [-0.09403038697424164, 0.06164574472317626], [0.13577280496850042, -0.3868547356250126], [0.15608206217807025, 0.06264253907795621]]",density,black,,,D002,visual,1,[],"['1', '2', '3', '4']",1,2023.2.3,harveyvisual,2.1,[],8,0.75,
0,pause,0.4,None,None,None,0,107,107,107,,,,,,,,,,,,,D002,visual,1,[],"['1', '2', '3', '4']",1,2023.2.3,harveyvisual,2.1,[],8,0.75,
20,dot,0.3,['dot'],['density'],black,0,108,108,108,,,40.20021104812622,39.918976068496704,40.219133138656616,dot,"[0.06, 0.1, 0.1, 0.1, 0.08, 0.08, 0.1, 0.1, 0.1, 0.08, 0.1, 0.1, 0.08, 0.1, 0.1, 0.08, 0.1, 0.08, 0.06, 0.1]","[[0.3046531697883059, 0.06275281474032757], [-0.34911326097823087, 0.17430481975439477], [-0.13950952067675632, -0.38292579752790334], [-0.46028188661522706, 0.3395171479588832], [-0.3722619979595385, -0.2289790548174132], [-0.17641342520918396, 0.42214211037120764], [0.09838739429567933, -0.37138209972781366], [0.3054089858058535, -0.2892209808350453], [0.2159895245184429, 0.36252988285092647], [-0.0608165927042561, -0.04704872403343252], [-0.582090984136684, 0.10523152437385064], [0.005328653451743159, 0.22537069231889184], [0.14996616461458123, -0.11420896641368744], [-0.004966981363501488, -0.566578046238252], [-0.5879538931372581, -0.13964116272444235], [0.5987680250160216, -0.03712307747841027], [0.5667091348251737, 0.1602211053466229], [0.5475960524869156, -0.2281564301193028], [0.4287212291477359, 0.3289805416945], [0.09999473222997224, 0.5476871247580946]]",density,black,,,D002,visual,1,[],"['1', '2', '3', '4']",1,2023.2.3,harveyvisual,2.1,[],8,0.75,
0,pause,0.4,None,None,None,0,109,109,109,,,,,,,,,,,,,D002,visual,1,[],"['1', '2', '3', '4']",1,2023.2.3,harveyvisual,2.1,[],8,0.75,
20,dot,0.3,['dot'],['density'],black,0,110,110,110,,,40.900219202041626,40.61909198760986,40.91908311843872,dot,"[0.06, 0.1, 0.06, 0.06, 0.06, 0.1, 0.08, 0.1, 0.08, 0.06, 0.08, 0.08, 0.08, 0.06, 0.1, 0.1, 0.06, 0.06, 0.1, 0.06]","[[0.005116329420209231, -0.5352495186961355], [0.48162297097737083, 0.3564255566258321], [-0.35150969710490665, 0.049745211650930155], [0.5090326609329138, -0.2907432998054131], [0.2913421808041965, -0.45193813711533537], [-0.426641069215813, -0.28280449445646305], [-0.11532000886631188, -0.03030675507106828], [0.19242382895094923, 0.47177275556136], [0.28444859847992976, -0.013837158122517401], [-0.02065746178803285, -0.28930788820040865], [-0.540996385085089, 0.16803608598692116], [-0.033337768749374885, 0.3162827989499618], [-0.22306597880341933, -0.24664033892698212], [-0.4189343904994792, 0.33059069459505336], [0.5865826469346281, 0.10408360151524695], [-0.0073235418216908155, 0.589698584586487], [-0.25839494345695724, -0.4996736369724165], [0.0709929989249376, -0.1231123044130496], [-0.3038650481834173, 0.49677158761345563], [0.1979527044319569, -0.2736597416592646]]",density,black,,,D002,visual,1,[],"['1', '2', '3', '4']",1,2023.2.3,harveyvisual,2.1,[],8,0.75,
0,pause,0.4,None,None,None,0,111,111,111,,,,,,,,,,,,,D002,visual,1,[],"['1', '2', '3', '4']",1,2023.2.3,harveyvisual,2.1,[],8,0.75,
20,dot,0.3,['dot'],['density'],black,0,112,112,112,,,41.600218057632446,41.31908106803894,41.61906313896179,dot,"[0.1, 0.08, 0.06, 0.06, 0.1, 0.08, 0.1, 0.1, 0.06, 0.1, 0.06, 0.1, 0.08, 0.06, 0.06, 0.06, 0.1, 0.1, 0.06, 0.1]","[[0.13033396853228185, -0.4705791040090854], [-0.49319872607185133, -0.06242522912266335], [0.4678556517348519, -0.3771665957711742], [0.4155349729224459, 0.42482409498380996], [0.5653694740788106, -0.18149620874116792], [0.05614249970197349, 0.3875808877292114], [0.2973711226410336, 0.13316881606991082], [-0.10013736123927286, 0.526045764782723], [-0.11738634910964635, -0.34193033470482054], [-0.02235956776798176, 0.13938352716159896], [-0.4322511771066181, -0.28270600100804966], [-0.19193840061248052, -0.06226506376982688], [-0.3560291313436871, 0.43392751684845543], [0.1573511507510058, -0.20676175668003588], [0.5709847413906434, 0.16297621982017188], [-0.5228940415622362, 0.2735615427472164], [0.1473675035277443, 0.5688824381747546], [-0.26440410196860736, 0.22325885860919614], [0.4129234848092548, -0.02882452497231275], [-0.05444023374264384, -0.5619371148520136]]",density,black,,,D002,visual,1,[],"['1', '2', '3', '4']",1,2023.2.3,harveyvisual,2.1,[],8,0.75,
0,pause,0.4,None,None,None,0,113,113,113,,,,,,,,,,,,,D002,visual,1,[],"['1', '2', '3', '4']",1,2023.2.3,harveyvisual,2.1,[],8,0.75,
20,dot,0.3,['dot'],['density'],black,0,114,114,114,,,42.30020999908447,42.019071102142334,42.319037199020386,dot,"[0.08, 0.06, 0.08, 0.1, 0.08, 0.1, 0.1, 0.06, 0.06, 0.1, 0.1, 0.06, 0.06, 0.08, 0.06, 0.08, 0.1, 0.08, 0.1, 0.1]","[[0.2409669089164609, 0.41506566601987016], [-0.30835005201860993, -0.24319924772443013], [0.11216437884300401, 0.1405547300699742], [-0.4721934510844539, 0.11844225130657099], [-0.12355215040473388, -0.5842402471393741], [-0.35107626336129477, 0.44666638801480835], [0.507591122581608, 0.274442427101166], [-0.12081530153837544, -0.02639454286385945], [-0.20814265958544897, 0.2249767927272881], [0.48184939076115174, -0.08957932356733828], [0.46105552852395026, -0.36982088899503407], [-0.19432371702478496, -0.40048735499923527], [-0.003191289342259429, 0.5356470702063861], [0.15899397179698993, -0.04908401250159722], [0.25918553182969206, -0.32632125950122887], [0.10470702193901704, -0.5652091828650117], [-0.5811343510965642, -0.038256834586945815], [0.03868084850097686, -0.2114284563759603], [-0.43432666729677183, -0.39708611360902396], [-0.3325860450976611, -0.01902433209765353]]",density,black,,,D002,visual,1,[],"['1', '2', '3', '4']",1,2023.2.3,harveyvisual,2.1,[],8,0.75,
0,pause,0.4,None,None,None,0,115,115,115,,,,,,,,,,,,,D002,visual,1,[],"['1', '2', '3', '4']",1,2023.2.3,harveyvisual,2.1,[],8,0.75,
20,dot,0.3,['dot'],['density'],black,0,116,116,116,,,43.000224113464355,42.71904921531677,43.01903200149536,dot,"[0.1, 0.1, 0.1, 0.1, 0.08, 0.06, 0.08, 0.06, 0.1, 0.08, 0.06, 0.06, 0.1, 0.08, 0.1, 0.1, 0.06, 0.1, 0.08, 0.1]","[[-0.5239060302931282, -0.08317202595856638], [0.25222143750804094, -0.23790172767476447], [0.10935241150938302, 0.11171366163686258], [0.3494872975891604, 0.278757177192183], [-0.17703235641799991, -0.3693087063344339], [0.5977301248933576, 0.05562286127044527], [0.23200053509201035, -0.49423015650462104], [-0.44151464068032253, 0.3599127645338111], [0.21166852467286323, 0.44703792938592235], [0.05156960562876822, -0.1661720898604177], [-0.05703746675253829, -0.5383317132460596], [-0.11218531766880491, 0.5854537721515299], [-0.16009739319371813, 0.045218311714781856], [0.3742281413875709, 0.08535214378447259], [-0.2906679794481182, -0.5248197726952324], [-0.11210396747616008, 0.37896544784923525], [-0.392255760601758, 0.10411085450700086], [0.5416661266538637, -0.21845968872947685], [-0.3483989997512318, -0.27669076887016153], [-0.18399905572268077, -0.15580587351703246]]",density,black,,,D002,visual,1,[],"['1', '2', '3', '4']",1,2023.2.3,harveyvisual,2.1,[],8,0.75,
0,pause,0.4,None,None,None,0,117,117,117,,,,,,,,,,,,,D002,visual,1,[],"['1', '2', '3', '4']",1,2023.2.3,harveyvisual,2.1,[],8,0.75,
20,dot,0.3,['dot'],['density'],black,0,118,118,118,,,43.700223207473755,43.41903114318848,43.71900510787964,dot,"[0.06, 0.06, 0.06, 0.1, 0.08, 0.08, 0.1, 0.1, 0.06, 0.08, 0.08, 0.1, 0.1, 0.06, 0.06, 0.08, 0.08, 0.06, 0.1, 0.08]","[[-0.2606010674473739, -0.48725763454801074], [0.457539602974835, 0.07184861446770696], [0.24090432834875397, 0.1306182153499006], [0.006164140355499836, -0.6044812795956368], [0.05061965776201183, 0.2820770963531698], [-0.3198504223389083, 0.05262148892162266], [-0.25273140465388033, 0.48587935495472556], [0.38004121865845364, -0.3467758614998784], [-0.5397567441972422, 0.0956490341548118], [0.12164209975186224, -0.0834379354918191], [0.10185229811483276, -0.4099896511770088], [-0.4033092226260422, 0.341302313944157], [-0.17505766359810732, 0.23149303198885862], [0.01698139625846118, 0.08115691833680172], [-0.056223730603155, -0.29231096140313245], [0.36811629210755437, 0.3852652391709514], [0.05947982093096327, 0.576958068244899], [-0.20587515161709263, -0.165809329727244], [0.311126401182497, -0.13344181682854078], [-0.5601971392431121, -0.09911024542260544]]",density,black,,,D002,visual,1,[],"['1', '2', '3', '4']",1,2023.2.3,harveyvisual,2.1,[],8,0.75,
0,pause,0.4,None,None,None,0,119,119,119,,,,,,,,,,,,,D002,visual,1,[],"['1', '2', '3', '4']",1,2023.2.3,harveyvisual,2.1,[],8,0.75,
20,dot,0.3,['dot'],['density'],black,0,120,120,120,,,44.40020704269409,44.11900210380554,44.41898322105408,dot,"[0.1, 0.08, 0.06, 0.06, 0.06, 0.08, 0.06, 0.08, 0.08, 0.1, 0.1, 0.06, 0.1, 0.06, 0.08, 0.06, 0.06, 0.08, 0.1, 0.1]","[[-0.24127266525326496, -0.04593302316305303], [0.44973332410280953, 0.026139049071932263], [0.2526415973325392, -0.00850425877137928], [-0.3927246357192228, -0.37596867353507624], [0.22749861329272292, 0.5175315100525589], [0.5771007930422473, -0.16005504947364424], [-0.4841710138803349, 0.01411721389234899], [-0.37386734780918596, 0.32782914577400657], [0.3687012760320858, 0.2281782783180754], [0.035475436066408794, 0.10797021913606675], [-0.13961404636804609, 0.5016863020833748], [-0.5637773761639162, -0.1608377750271217], [-0.013348283017341367, -0.3782769663779063], [0.46051014796151424, -0.39115412787997605], [-0.2468391228887888, -0.534351083961009], [-0.14126196367644311, -0.22783088708824234], [-0.043735631525296914, 0.29449612687743454], [0.30838269261743345, -0.19198093195937155], [0.23461886085898254, -0.37419763042849963], [0.04532979973981455, -0.11085716933286027]]",density,black,,,D002,visual,1,[],"['1', '2', '3', '4']",1,2023.2.3,harveyvisual,2.1,[],8,0.75,
0,pause,0.4,None,None,None,0,121,121,121,,,,,,,,,,,,,D002,visual,1,[],"['1', '2', '3', '4']",1,2023.2.3,harveyvisual,2.1,[],8,0.75,
20,dot,0.3,['dot'],['density'],black,0,122,122,122,,,45.100218057632446,44.819008111953735,45.1190071105957,dot,"[0.1, 0.06, 0.06, 0.06, 0.1, 0.1, 0.06, 0.1, 0.08, 0.1, 0.1, 0.06, 0.1, 0.06, 0.06, 0.08, 0.08, 0.08, 0.1, 0.08]","[[0.5203548652108091, 0.1017170389657408], [-0.3764298634694503, -0.014038594488528122], [0.1742410795969046, -0.3296216224230877], [0.08629023140436642, 0.5328679639598771], [-0.10402938541742679, 0.08677650413357973], [-0.5739217086293186, 0.030633363609276543], [-0.1425143325431833, -0.42568835504764263], [-0.2223177703029428, 0.2378521616017446], [0.0530478651000611, 0.3333325908458632], [0.566465672817822, -0.19547354403455228], [0.06578408208687403, -0.03396050408608853], [0.2648325631098001, 0.19592072238794278], [-0.4871405284094548, -0.22217684526564963], [0.2607357930026466, -0.010962968286591712], [-0.1741099398417698, 0.5755470851623665], [0.38269328193238006, 0.46069423362761147], [-0.2813895891884079, -0.19907240607272708], [-0.06041650211705607, -0.20926406574674922], [0.31453998898637003, -0.4892950343001627], [-0.337794396402114, 0.4665108427385011]]",density,black,,,D002,visual,1,[],"['1', '2', '3', '4']",1,2023.2.3,harveyvisual,2.1,[],8,0.75,
0,pause,0.4,None,None,None,0,123,123,123,,,,,,,,,,,,,D002,visual,1,[],"['1', '2', '3', '4']",1,2023.2.3,harveyvisual,2.1,[],8,0.75,
20,dot,0.3,['dot'],['density'],black,0,124,124,124,,,45.80020618438721,45.51904106140137,45.81902718544006,dot,"[0.1, 0.06, 0.08, 0.1, 0.1, 0.08, 0.1, 0.08, 0.06, 0.1, 0.06, 0.08, 0.08, 0.08, 0.1, 0.08, 0.06, 0.08, 0.1, 0.06]","[[-0.2325365332210677, -0.14592382476990656], [-0.13080629789431542, -0.5375559062375939], [0.3574394219712327, -0.32804665587726345], [-0.002458404219811361, 0.2148616642788238], [-0.4329732561748334, 0.176241485053853], [0.24862552882212086, 0.4067260181669051], [-0.03944654675298487, 0.028525151035006857], [-0.20997043535680732, 0.14168086472100083], [0.5501565874418818, -0.08299309979329739], [0.2527094709154024, 0.010568872472086044], [-0.3508778735315684, -0.35144054511111156], [-0.10868257727355529, 0.5423332655163501], [-0.603732791477801, -0.01877233959925632], [0.17952310572221997, -0.5119002343109702], [0.08112696115381712, 0.5250962979290361], [-0.030058185269664528, -0.2788237373197067], [-0.5289605871530118, -0.2146928747924152], [-0.38155579970958897, -0.023915019644209945], [0.43340337330101797, 0.338796943202062], [-0.16575937527732182, 0.3372309196414358]]",density,black,,,D002,visual,1,[],"['1', '2', '3', '4']",1,2023.2.3,harveyvisual,2.1,[],8,0.75,
0,pause,0.4,None,None,None,0,125,125,125,,,,,,,,,,,,,D002,visual,1,[],"['1', '2', '3', '4']",1,2023.2.3,harveyvisual,2.1,[],8,0.75,
20,dot,0.3,['dot'],['density'],black,0,126,126,126,,,46.500224113464355,46.21898317337036,46.51897621154785,dot,"[0.08, 0.06, 0.1, 0.06, 0.1, 0.06, 0.1, 0.1, 0.1, 0.08, 0.1, 0.08, 0.08, 0.06, 0.1, 0.1, 0.06, 0.08, 0.1, 0.1]","[[0.3284242651650482, 0.3697056966180713], [-0.5510933837161875, 0.08509141762233596], [-0.4649469211078337, -0.34564732479420607], [0.22391732712462153, -0.40289201624450804], [-0.33211991983569084, 0.48359723814322], [-0.27522449737313853, 0.24386353578754605], [0.009220394574214086, -0.1905196488078249], [-0.4842374896741365, -0.09223620174193764], [0.015325700875576831, 0.4927095367162264], [0.43815261488629254, -0.022314323965163807], [0.1555088641555692, 0.15392881851848206], [0.010893045748001096, -0.5285127507640344], [0.2526233211532303, -0.08210290830183886], [-0.2047829508597686, 0.00807750257906592], [0.4560202003516619, 0.20577434474738465], [-0.1879439362683542, -0.45703423298622725], [-0.03740559526602327, 0.19957593262874462], [-0.18161990760941416, -0.2135491717815191], [0.5356476484881024, -0.2413212420968133], [0.20412661813320065, 0.5169665453541047]]",density,black,,,D002,visual,1,[],"['1', '2', '3', '4']",1,2023.2.3,harveyvisual,2.1,[],8,0.75,
0,pause,0.4,None,None,None,0,127,127,127,,,,,,,,,,,,,D002,visual,1,[],"['1', '2', '3', '4']",1,2023.2.3,harveyvisual,2.1,[],8,0.75,
20,dot,0.3,['dot'],['density'],black,0,128,128,128,,,47.20020818710327,46.91901421546936,47.21891212463379,dot,"[0.06, 0.1, 0.08, 0.08, 0.08, 0.08, 0.1, 0.06, 0.1, 0.06, 0.1, 0.08, 0.08, 0.06, 0.08, 0.08, 0.06, 0.08, 0.1, 0.06]","[[-0.18053094597433011, 0.30445859697406585], [-0.5897167389669049, 0.07071000889952736], [0.06005300452776596, -0.20164683568358727], [0.09602352077059984, -0.5845280785272103], [0.300657126319539, 0.21035739653022512], [0.2579704500296919, -0.47293900803969213], [-0.060675636831469704, -0.43125295519896223], [0.08435812167557499, 0.3084406035055747], [0.4937078666090585, -0.1707217492727807], [0.5784105215989287, 0.1360485853279581], [0.15977071875716464, 0.5333479434562653], [-0.209204756036458, -0.007847130898027799], [-0.45046316253045515, -0.2952212355743858], [0.2834340820284966, -0.24013493663243335], [0.2837040939428761, -0.0008087784336937576], [-0.016192010884778507, 0.025497801649121077], [-0.3269148634862662, 0.47377434577080946], [0.45856027882725725, 0.39296099280913194], [-0.4033110884308551, 0.22173137523868214], [-0.30619883248017343, -0.5193142037910964]]",density,black,,,D002,visual,1,[],"['1', '2', '3', '4']",1,2023.2.3,harveyvisual,2.1,[],8,0.75,
0,pause,0.4,None,None,None,0,129,129,129,,,,,,,,,,,,,D002,visual,1,[],"['1', '2', '3', '4']",1,2023.2.3,harveyvisual,2.1,[],8,0.75,
20,dot,0.3,['dot'],['density'],black,0,130,130,130,,,47.90022110939026,47.6189169883728,47.91892409324646,dot,"[0.06, 0.1, 0.08, 0.08, 0.1, 0.1, 0.1, 0.1, 0.06, 0.06, 0.1, 0.06, 0.08, 0.06, 0.1, 0.1, 0.06, 0.06, 0.1, 0.06]","[[0.5562915066381201, 0.16240394142922765], [-0.1458481975131501, -0.026099698340972144], [0.342259191373676, -0.1803638870775549], [0.11365487214348524, 0.09673005040434057], [0.43374879951652134, -0.40313123631494563], [-0.11151364884156695, 0.2862986153023692], [0.24235401693751868, 0.5012745010806112], [-0.49704970554817873, 0.3069057037608951], [-0.37270115950428717, 0.05690827054516484], [-0.3771729124762933, 0.46029019648829345], [-0.03531902117324193, -0.254890432328162], [-0.2940331917332795, -0.46137050958735537], [-0.5165508303275533, -0.08347867403769302], [0.023818507946500977, 0.5967279221096237], [0.43355083724222265, 0.38625925387532134], [-0.5028873982213582, -0.28767016456004135], [0.1858754041017393, 0.29505966210793677], [0.582543660985177, -0.11388631058372026], [0.22329117369312168, -0.3331853074830901], [-0.2801771761500527, -0.16301777374840054]]",density,black,,,D002,visual,1,[],"['1', '2', '3', '4']",1,2023.2.3,harveyvisual,2.1,[],8,0.75,
0,pause,0.4,None,None,None,0,131,131,131,,,,,,,,,,,,,D002,visual,1,[],"['1', '2', '3', '4']",1,2023.2.3,harveyvisual,2.1,[],8,0.75,
20,dot,0.3,['dot'],['density'],black,0,132,132,132,,,48.60023808479309,48.31878113746643,48.61875605583191,dot,"[0.1, 0.08, 0.06, 0.1, 0.06, 0.1, 0.06, 0.1, 0.08, 0.08, 0.06, 0.08, 0.1, 0.06, 0.08, 0.1, 0.1, 0.1, 0.08, 0.08]","[[-0.5315677087743544, -0.07358236614041525], [0.4152506801579746, -0.0010650979601419253], [0.40391155647406507, 0.2887804265051849], [-0.35792989850485846, -0.2507463405074598], [-0.08482232813860124, 0.08457087971828325], [0.03997957004238073, -0.09146339952187044], [0.555905913843359, -0.17201242530052885], [0.23674492410304693, 0.1237151470632667], [0.02390717702042, 0.46690777401615946], [-0.25247604119380235, 0.21902559346807837], [-0.45501699512006555, 0.2206339031379589], [-0.32243255105168067, 0.45605508807977224], [0.15896951357298839, -0.5436006221630343], [-0.10718198005908885, -0.3873805078125382], [0.33186663323703447, -0.2352933341233378], [-0.2893055046801527, -0.5018316357704271], [-0.33768312173070997, -0.04096734822461512], [0.6026192720800158, 0.047580166063416716], [-0.09933145659318987, -0.5883225023483638], [0.20435628041958898, 0.35752707608948286]]",density,black,,,D002,visual,1,[],"['1', '2', '3', '4']",1,2023.2.3,harveyvisual,2.1,[],8,0.75,
0,pause,0.4,None,None,None,0,133,133,133,,,,,,,,,,,,,D002,visual,1,[],"['1', '2', '3', '4']",1,2023.2.3,harveyvisual,2.1,[],8,0.75,
20,dot,0.3,['dot'],['density'],black,0,134,134,134,,,49.300213098526,49.018882036209106,49.31886005401611,dot,"[0.06, 0.1, 0.06, 0.08, 0.08, 0.06, 0.1, 0.06, 0.1, 0.06, 0.06, 0.06, 0.1, 0.08, 0.08, 0.1, 0.1, 0.1, 0.08, 0.08]","[[-0.12399613208675503, 0.10607417033308464], [0.5869444530147049, 0.017749943613656644], [-0.5641619461223867, -0.11500877880773602], [0.35761508980738566, -0.3145139556071672], [-0.313155721140431, 0.11733927186382176], [0.18507279640254837, 0.11829172870770144], [-0.3229882220199011, -0.25872469565525696], [0.5477662251122847, 0.24900295748542073], [-0.06223242588329769, -0.12202546416513438], [0.32402709076272396, 0.3466935117972614], [0.029361407309703047, 0.3430722443157441], [0.18196657592313004, -0.3856520148363224], [-0.48134403488079963, 0.3414969929669235], [-0.30572989842077974, -0.4757275220519351], [0.35007026270466357, -0.04817208040943499], [-0.5126522075433841, -0.31102545420084743], [0.0680652760509729, 0.5691210848187335], [-0.5682849109239956, 0.15475089517733354], [-0.05440534641018879, -0.5896164365195312], [-0.1865680221060812, 0.38914849077950275]]",density,black,,,D002,visual,1,[],"['1', '2', '3', '4']",1,2023.2.3,harveyvisual,2.1,[],8,0.75,
0,pause,0.4,None,None,None,0,135,135,135,,,,,,,,,,,,,D002,visual,1,[],"['1', '2', '3', '4']",1,2023.2.3,harveyvisual,2.1,[],8,0.75,
20,dot,0.3,['dot'],['density'],black,0,136,136,136,,,50.00022101402283,49.718860149383545,50.018848180770874,dot,"[0.06, 0.08, 0.08, 0.08, 0.1, 0.08, 0.06, 0.08, 0.1, 0.06, 0.06, 0.06, 0.06, 0.08, 0.1, 0.1, 0.08, 0.08, 0.06, 0.1]","[[-0.5284672302236845, 0.09358184056493579], [-0.16397234971337327, -0.10396709367814178], [-0.25548804823067406, 0.07806719038716758], [0.24398997377031306, -0.0944514442699051], [-0.5274259392403166, -0.12709502349000898], [0.3168328340135331, -0.3042564743069095], [-0.4913293290782092, 0.286646731522137], [0.5689274172712809, -0.09957466373705307], [-0.19420996033324406, -0.434223812818726], [0.05504240616767753, 0.18644550850259478], [-0.41637236769078445, -0.29206952122458674], [0.14564184393958113, 0.4514005502315962], [0.4728166872806637, 0.23114895888730652], [-0.09514893641297195, 0.37530537597792946], [0.3485681169254876, 0.45072903521884783], [0.13748909424323374, -0.5486059511349349], [-0.005187625324812872, -0.3896574099120164], [-0.017244784600031426, 0.5622569860405204], [0.05130267873169414, -0.03579140720503027], [0.2630517209349915, 0.22404016713752806]]",density,black,,,D002,visual,1,[],"['1', '2', '3', '4']",1,2023.2.3,harveyvisual,2.1,[],8,0.75,
0,pause,0.4,None,None,None,0,137,137,137,,,,,,,,,,,,,D002,visual,1,[],"['1', '2', '3', '4']",1,2023.2.3,harveyvisual,2.1,[],8,0.75,
20,dot,0.3,['dot'],['density'],black,0,138,138,138,,,50.70022511482239,50.41885209083557,50.718844175338745,dot,"[0.06, 0.1, 0.06, 0.06, 0.1, 0.06, 0.06, 0.08, 0.1, 0.06, 0.1, 0.08, 0.06, 0.06, 0.08, 0.08, 0.1, 0.08, 0.1, 0.06]","[[0.12326562849087097, -0.5486995094272611], [-0.2171432942265215, -0.24320340923471923], [-0.1604349153497331, 0.24569084347209058], [0.44649027344585235, 0.17051571396546988], [0.04290311288138482, 0.24022200640019709], [-0.5191849738830888, 0.1345467222656745], [0.03986365980810891, -0.006421981423904488], [0.4208505503342189, 0.4214237637339038], [0.4392559087314679, -0.39010755078002357], [0.6006304311721865, -0.03534219745392318], [0.2351645363667012, -0.3365105586679594], [-0.36775582275445434, 0.4253773073527419], [0.37511026312009144, -0.14427700638097224], [0.009715704694711391, -0.24024927736082763], [0.258111709764105, 0.03443245006350615], [-0.04268566078814162, 0.5312997700220247], [-0.5496727479695391, -0.16381689425340232], [-0.07961035991067733, -0.5010256369685903], [-0.17799239792987842, 0.03952590752732299], [0.17338093258089182, 0.5729638062434493]]",density,black,,,D002,visual,1,[],"['1', '2', '3', '4']",1,2023.2.3,harveyvisual,2.1,[],8,0.75,
0,pause,0.4,None,None,None,0,139,139,139,,,,,,,,,,,,,D002,visual,1,[],"['1', '2', '3', '4']",1,2023.2.3,harveyvisual,2.1,[],8,0.75,
20,dot,0.3,['dot'],['density'],black,0,140,140,140,,,51.400214195251465,51.118654012680054,51.41862916946411,dot,"[0.1, 0.1, 0.06, 0.06, 0.06, 0.1, 0.08, 0.08, 0.06, 0.06, 0.1, 0.1, 0.1, 0.1, 0.06, 0.06, 0.1, 0.06, 0.1, 0.1]","[[0.4181215111143749, 0.2409119933190963], [-0.043473912486267974, -0.18050024096480577], [-0.2984611912106317, -0.3939213736006619], [-0.24236604776983878, 0.19204182277090265], [0.24730559073411973, 0.11575916207021075], [0.5995742630711961, 0.027159453601289255], [0.42018740646456354, -0.24109322694103083], [0.14893236322309633, 0.36655153509702865], [0.14719844551291883, -0.16567870083966463], [-0.020206465666357087, 0.069556066395143], [-0.49378555692591203, -0.13725960961256614], [-0.5536494185158417, 0.1620568791856663], [-0.35373016492419673, 0.4334021844635322], [0.023902846491817398, -0.39502436872980495], [0.04331293597061492, 0.5274921249614664], [-0.20846749883981286, -0.07479348255686152], [0.3576760730563465, -0.46181871125184565], [-0.11712297415996342, -0.5794542897871633], [-0.057799308756280365, 0.32550883278572473], [0.32327382951288863, 0.4463360305870321]]",density,black,,,D002,visual,1,[],"['1', '2', '3', '4']",1,2023.2.3,harveyvisual,2.1,[],8,0.75,
0,pause,0.4,None,None,None,0,141,141,141,,,,,,,,,,,,,D002,visual,1,[],"['1', '2', '3', '4']",1,2023.2.3,harveyvisual,2.1,[],8,0.75,
20,dot,0.3,['dot'],['density'],black,0,142,142,142,,,52.10023212432861,51.81865406036377,52.118643045425415,dot,"[0.06, 0.1, 0.08, 0.06, 0.06, 0.06, 0.06, 0.08, 0.06, 0.1, 0.1, 0.08, 0.1, 0.06, 0.1, 0.1, 0.1, 0.06, 0.08, 0.06]","[[0.5600746713885209, 0.20906422336229308], [-0.2897915678456562, 0.30653992739799674], [0.11424095569949122, 0.421609697508159], [0.2706816279407602, 0.13935045465826645], [0.09461914949019468, 0.06834846431526376], [-0.5513662617509277, 0.24441125794479823], [0.2743557095793253, -0.5141890283433738], [-0.31967677313999665, -0.4873341724546322], [-0.19703114851635833, -0.06329664756224573], [-0.4452664314743186, 0.06311906501771258], [-0.34226869658953113, -0.24437652611128713], [0.599533265800347, -0.026760405117899025], [0.3964267773489448, -0.22371266756335872], [0.0552580803248468, -0.44948937246023457], [-0.19174622689401588, 0.5230916921750465], [-0.5646514215259997, -0.1373178057541357], [0.45879379907393936, 0.3930144332479022], [0.110562680078931, -0.22019960297607927], [-0.06281178798547793, 0.35318150566608486], [-0.12171375678224322, -0.2849735303583329]]",density,black,,,D002,visual,1,[],"['1', '2', '3', '4']",1,2023.2.3,harveyvisual,2.1,[],8,0.75,
0,pause,0.4,None,None,None,0,143,143,143,,,,,,,,,,,,,D002,visual,1,[],"['1', '2', '3', '4']",1,2023.2.3,harveyvisual,2.1,[],8,0.75,
20,dot,0.3,['dot'],['density'],black,0,144,144,144,,,52.800217151641846,52.518617153167725,52.81860399246216,dot,"[0.06, 0.06, 0.06, 0.1, 0.08, 0.08, 0.06, 0.08, 0.1, 0.1, 0.08, 0.1, 0.1, 0.08, 0.08, 0.06, 0.08, 0.08, 0.06, 0.06]","[[-0.2679350228782332, 0.049597981745366226], [-0.43573518189943194, 0.40158076064704984], [0.5143069276894637, 0.2103330525819349], [0.17371798429780339, 0.187000536872736], [0.03525605672727883, -0.38094237216288723], [-0.39573529799212814, -0.3290702002640111], [-0.10215090833928897, 0.5174052460659767], [0.2008880947650058, -0.14365234895978374], [-0.037871355327413925, 0.27457243445052903], [0.25017733882932225, -0.4607531323528437], [-0.4868006540043368, -0.005221293702581564], [0.42591023309975007, 0.38364481122290983], [-0.07821875301020553, 0.0474087297545982], [-0.31393508548250515, -0.14900499553514124], [-0.20314508765459938, -0.3259212682954613], [0.5221045159158114, -0.2996814379763889], [0.4224042161114464, -0.11218906433279391], [0.1329384727055375, 0.4743217144936641], [-0.1519813578529931, -0.5233153988136392], [0.5965611657139968, -0.0191505327593261]]",density,black,,,D002,visual,1,[],"['1', '2', '3', '4']",1,2023.2.3,harveyvisual,2.1,[],8,0.75,
0,pause,0.4,None,None,None,0,145,145,145,,,,,,,,,,,,,D002,visual,1,[],"['1', '2', '3', '4']",1,2023.2.3,harveyvisual,2.1,[],8,0.75,
20,dot,0.3,['dot'],['density'],black,0,146,146,146,,,53.50022220611572,53.218605041503906,53.51863408088684,dot,"[0.06, 0.08, 0.06, 0.06, 0.06, 0.06, 0.08, 0.06, 0.08, 0.1, 0.1, 0.08, 0.1, 0.08, 0.1, 0.1, 0.1, 0.1, 0.06, 0.06]","[[0.47184288174877487, -0.3329747903497817], [0.20447707486108269, -0.2619369287524531], [-0.35342397451500507, -0.020751371114777706], [0.4277870625356771, 0.32566172088593154], [0.2589655279044102, 0.008010927211822727], [0.5904733379375077, -0.1084123014237439], [-0.020894542183931164, -0.41914696165483945], [-0.367333668772644, 0.25721691007502556], [-0.47139714546934053, -0.20062680682524248], [0.12775988693928608, 0.365344163229279], [-0.0950369397908758, -0.12042160039804828], [0.04489988904815423, 0.06456475067628442], [-0.6005713311409986, 0.05465846162463664], [-0.3237604713707723, -0.4520646143522824], [0.23709837085395358, 0.5506379774388007], [0.22736571745525824, -0.46659078702664175], [-0.10942634368759119, 0.17761623147938144], [0.5655762788822439, 0.10969901807116411], [-0.18186769840949085, 0.43356475331737876], [-0.021586981359282276, 0.5633746748551819]]",density,black,,,D002,visual,1,[],"['1', '2', '3', '4']",1,2023.2.3,harveyvisual,2.1,[],8,0.75,
0,pause,0.4,None,None,None,0,147,147,147,,,,,,,,,,,,,D002,visual,1,[],"['1', '2', '3', '4']",1,2023.2.3,harveyvisual,2.1,[],8,0.75,
20,dot,0.3,['dot'],['density'],black,0,148,148,148,,,54.20021104812622,53.91864514350891,54.21856904029846,dot,"[0.1, 0.08, 0.08, 0.06, 0.1, 0.1, 0.1, 0.08, 0.1, 0.08, 0.06, 0.08, 0.1, 0.1, 0.06, 0.06, 0.08, 0.1, 0.1, 0.08]","[[-0.60519698013886, -0.008142561907816752], [-0.3979495718642122, -0.4094511005150279], [-0.24356466683033318, 0.31458007554621203], [-0.2069820149011531, -0.02292773403724302], [0.5108299244579514, 0.20445851562782252], [-0.44434745863902503, 0.3672510535113839], [0.02445881579198317, -0.5448243365226836], [0.06476049652483773, 0.0027681891375965773], [0.018284960897585023, -0.28706577744656975], [-0.03324567261883682, 0.40697137290352814], [-0.5707175459860976, -0.1993892671333006], [0.26344302124724306, 0.25309996155927894], [0.23762959206813195, -0.15876750032529835], [-0.13953345587426796, 0.5884301859630052], [0.519020386130166, -0.0027773666686412013], [0.3095434918537042, -0.42524874316585304], [-0.4025706061784039, -0.056000197969643284], [0.43929608623191096, -0.1871092306167829], [0.36474684114310274, 0.41602800272547996], [0.1645980428628362, 0.4485379587897328]]",density,black,,,D002,visual,1,[],"['1', '2', '3', '4']",1,2023.2.3,harveyvisual,2.1,[],8,0.75,
0,pause,0.4,None,None,None,0,149,149,149,,,,,,,,,,,,,D002,visual,1,[],"['1', '2', '3', '4']",1,2023.2.3,harveyvisual,2.1,[],8,0.75,
20,dot,0.3,['dot'],['density'],white,0,150,150,150,,,54.900233030319214,54.61857008934021,54.91854810714722,dot,"[0.1, 0.08, 0.06, 0.1, 0.06, 0.08, 0.06, 0.06, 0.08, 0.1, 0.1, 0.08, 0.06, 0.06, 0.08, 0.06, 0.1, 0.06, 0.08, 0.08]","[[0.5254568169419359, 0.15113813674781895], [0.43971303820484053, -0.37791642357337524], [-0.008873213538479918, -0.32349831533667306], [-0.053728050213416756, 0.008720519843226304], [0.40815493391331026, 0.4445018116256671], [-0.31296464926775996, -0.09863071429098708], [-0.29330218912564004, 0.1519678313422076], [0.35562652048010635, -0.10494936971676366], [-0.496641402343022, 0.2673285225754486], [-0.20074857215927322, 0.39098646811850857], [0.20445484129675873, -0.23134083239455433], [-0.1466559582903264, -0.499252478052444], [-0.48920334173917257, -0.3193287460613762], [0.18175556743519683, 0.43594276333959336], [-0.5012797201488572, -0.07792430002739126], [-0.3607820784899442, -0.4720365851859166], [0.574769031998651, -0.1615332828258201], [-0.3927327652047407, 0.44444555121792434], [0.022276036752228112, 0.26202882980113584], [0.07121149411581107, 0.5984344671759916]]",density,white,,,D002,visual,1,[],"['1', '2', '3', '4']",1,2023.2.3,harveyvisual,2.1,[],8,0.75,
0,pause,0.4,None,None,None,0,151,151,151,,,,,,,,,,,1,55.108301877975464,D002,visual,1,[],"['1', '2', '3', '4']",1,2023.2.3,harveyvisual,2.1,[],8,0.75,
20,dot,0.3,['dot'],['density'],black,0,152,152,152,,,55.60023021697998,55.318549156188965,55.61853003501892,dot,"[0.06, 0.06, 0.06, 0.1, 0.08, 0.1, 0.08, 0.1, 0.06, 0.06, 0.06, 0.08, 0.08, 0.06, 0.1, 0.1, 0.06, 0.06, 0.1, 0.08]","[[-0.5355713066200105, -0.04722127349116645], [-0.19313229148424005, -0.21136319768235567], [-0.4048370688607337, 0.332277066489078], [0.02344230812066328, 0.07785987008630635], [-0.32735330972536775, -0.43376769517518887], [-0.18468331512050212, 0.03997825866339211], [0.31773826528250493, 0.4253291717999955], [-0.04190908636504964, 0.5827885842175752], [-0.3120143725397542, 0.5167868055059591], [0.5733277113250025, -0.16915473935522587], [0.3520089012718094, -0.17681741631937004], [-0.0433644168025723, 0.31177650878096985], [0.18135868754204254, 0.2636227331014238], [-0.5191517951860045, 0.1474577615792863], [0.01575877803528669, -0.5684985441467859], [0.5457898308708532, 0.23073208461417138], [-0.03203311885159221, -0.3295781597425837], [0.570796946105436, 0.022200205614265722], [0.17064204019213036, -0.43401483710093763], [0.1581792090748968, -0.14986075949792943]]",density,black,,,D002,visual,1,[],"['1', '2', '3', '4']",1,2023.2.3,harveyvisual,2.1,[],8,0.75,
0,pause,0.4,None,None,None,0,153,153,153,,,,,,,,,,,,,D002,visual,1,[],"['1', '2', '3', '4']",1,2023.2.3,harveyvisual,2.1,[],8,0.75,
20,dot,0.3,['dot'],['density'],black,0,154,154,154,,,56.30022311210632,56.018548011779785,56.31851315498352,dot,"[0.1, 0.1, 0.06, 0.08, 0.08, 0.08, 0.08, 0.06, 0.06, 0.06, 0.1, 0.06, 0.06, 0.08, 0.1, 0.08, 0.08, 0.1, 0.1, 0.1]","[[0.35022178662848946, -0.24019402565596598], [-0.1018420768505145, 0.2747406423665807], [-0.21035324119771798, -0.021070498094230783], [0.22771274654108753, 0.0004916377811371442], [-0.30673642822617836, 0.4427086543882591], [0.45741548056107917, 0.02545812482575255], [0.16688077860472883, 0.34248363948954963], [-0.5169155909522425, 0.21805464375843348], [-0.28610454709584154, -0.3754859026127191], [-0.47522015993346667, -0.1528703260164718], [0.3669610228671456, 0.4255778127200139], [0.29490924977961364, -0.4440573952910531], [0.021616811664538105, 0.4659976634178976], [-0.026076051332673433, 0.06480813051346568], [-0.2881173839702881, 0.17161169152989408], [0.5424810161583796, 0.23543334387429765], [0.006364101684661838, -0.2226776358746163], [-0.6003621047277731, 0.027531527007001136], [-0.06493594025279836, -0.44258606923745625], [0.3366612562024751, 0.20915510589469988]]",density,black,,,D002,visual,1,[],"['1', '2', '3', '4']",1,2023.2.3,harveyvisual,2.1,[],8,0.75,
0,pause,0.4,None,None,None,0,155,155,155,,,,,,,,,,,,,D002,visual,1,[],"['1', '2', '3', '4']",1,2023.2.3,harveyvisual,2.1,[],8,0.75,
9,dot,0.3,['dot'],['density'],black,0,156,156,156,,,57.000224113464355,56.718510150909424,57.01849603652954,dot,"[0.1, 0.06, 0.1, 0.1, 0.06, 0.1, 0.08, 0.1, 0.1]","[[0.23250081832313607, -0.03448075506690146], [0.3034476098774822, 0.1830296703973891], [-0.18904104685434053, 0.18833284185042862], [0.2553794676357457, 0.5314352583170906], [0.16363099535363254, 0.3461022642192175], [-0.0841935017478271, 0.3664174397160571], [-0.26748786402911323, -0.05736109653727262], [0.043842773669028334, 0.577246673499167], [0.02102957219118283, 0.0979254794926055]]",density,black,,,D002,visual,1,[],"['1', '2', '3', '4']",1,2023.2.3,harveyvisual,2.1,[],8,0.75,
0,pause,0.4,None,None,None,0,157,157,157,,,,,,,,,,,,,D002,visual,1,[],"['1', '2', '3', '4']",1,2023.2.3,harveyvisual,2.1,[],8,0.75,
9,dot,0.3,['dot'],['density'],white,0,158,158,158,,,57.70020604133606,57.41849112510681,57.71848917007446,dot,"[0.06, 0.06, 0.06, 0.1, 0.06, 0.06, 0.08, 0.1, 0.06]","[[-0.5242180236495622, 0.2097960018926228], [-0.2671382220306689, 0.3003190330968159], [-0.06183693718886379, 0.22592490829479475], [-0.2001015593906042, -0.14641750634996328], [-0.09246193223873551, 0.43765994221656135], [-0.29330373087767303, 0.05285487614136386], [0.007094383220706952, 0.008748553761596398], [0.1465325421295601, 0.294910430799518], [0.04425292235957525, -0.2230758375085622]]",density,white,,,D002,visual,1,[],"['1', '2', '3', '4']",1,2023.2.3,harveyvisual,2.1,[],8,0.75,
0,pause,0.4,None,None,None,0,159,159,159,,,,,,,,,,,1,57.883638858795166,D002,visual,1,[],"['1', '2', '3', '4']",1,2023.2.3,harveyvisual,2.1,[],8,0.75,
9,dot,0.3,['dot'],['density'],black,0,160,160,160,,,58.400235176086426,58.118473052978516,58.418456077575684,dot,"[0.06, 0.1, 0.1, 0.1, 0.08, 0.08, 0.08, 0.08, 0.06]","[[0.5633060189111645, -0.020447411670609934], [0.24486306384976717, 0.44476630120442473], [0.18428866344346043, -0.051083701103786204], [0.30165572131442664, 0.2239114093385097], [-0.0017431279865323516, 0.11759053127645673], [0.36864926730470376, 0.029118730319846676], [0.08307425003498874, 0.31712463906399285], [0.26393370779995823, -0.24286541122091637], [0.5109425385251136, 0.2557989077594731]]",density,black,,,D002,visual,1,[],"['1', '2', '3', '4']",1,2023.2.3,harveyvisual,2.1,[],8,0.75,
0,pause,0.4,None,None,None,0,161,161,161,,,,,,,,,,,,,D002,visual,1,[],"['1', '2', '3', '4']",1,2023.2.3,harveyvisual,2.1,[],8,0.75,
9,dot,0.3,['dot'],['density'],black,0,162,162,162,,,59.10022020339966,58.81853008270264,59.118630170822144,dot,"[0.1, 0.06, 0.1, 0.06, 0.1, 0.08, 0.1, 0.06, 0.1]","[[-0.08830733675648182, -0.32541118850070216], [0.2573655446525002, -0.0029570100823114536], [0.27547652153196345, -0.34332263321768475], [-0.10322368112243578, -0.12113330350182801], [-0.09512634339583304, 0.07974184968350245], [0.1087639633701519, -0.14934854126711464], [-0.2976800736237512, -0.022953619774800198], [0.014308470788770018, -0.5004438889851849], [-0.3557422450128242, -0.24953541402881954]]",density,black,,,D002,visual,1,[],"['1', '2', '3', '4']",1,2023.2.3,harveyvisual,2.1,[],8,0.75,
0,pause,0.4,None,None,None,0,163,163,163,,,,,,,,,,,,,D002,visual,1,[],"['1', '2', '3', '4']",1,2023.2.3,harveyvisual,2.1,[],8,0.75,
9,dot,0.3,['dot'],['density'],black,0,164,164,164,,,59.80022621154785,59.51850199699402,59.81850218772888,dot,"[0.06, 0.1, 0.08, 0.1, 0.08, 0.08, 0.08, 0.06, 0.08]","[[0.02295687172906439, -0.4555612238154966], [0.343534432465795, -0.2595759245515751], [-0.16187815285083418, -0.09052449078383604], [0.11251247888811697, -0.27313237114007116], [0.30947849701411384, 0.04064216277921932], [0.06991680920562879, 0.010838090335221196], [-0.17538857600721916, -0.30040513178321704], [-0.11470383471809205, 0.10558329706542706], [-0.35883798189287325, -0.15372405551062507]]",density,black,,,D002,visual,1,[],"['1', '2', '3', '4']",1,2023.2.3,harveyvisual,2.1,[],8,0.75,
0,pause,0.4,None,None,None,0,165,165,165,,,,,,,,,,,,,D002,visual,1,[],"['1', '2', '3', '4']",1,2023.2.3,harveyvisual,2.1,[],8,0.75,
9,dot,0.3,['dot'],['density'],black,0,166,166,166,,,60.500224113464355,60.21849322319031,60.518452167510986,dot,"[0.08, 0.08, 0.06, 0.06, 0.08, 0.06, 0.1, 0.06, 0.06]","[[0.26246064217380705, -0.20881461689055444], [-0.05738061480455322, -0.2104867327221427], [-0.15279665209492657, -0.4570696492981838], [-0.25848085101471047, 0.03539482855188907], [0.05438928923437074, -0.041842351158073866], [-0.266438460152573, -0.22510974363943476], [-0.08630847597628627, 0.16925380219028288], [0.1378984379274782, 0.16880467564350782], [0.14927440204233722, -0.41110624343475755]]",density,black,,,D002,visual,1,[],"['1', '2', '3', '4']",1,2023.2.3,harveyvisual,2.1,[],8,0.75,
0,pause,0.4,None,None,None,0,167,167,167,,,,,,,,,,,,,D002,visual,1,[],"['1', '2', '3', '4']",1,2023.2.3,harveyvisual,2.1,[],8,0.75,
8,dot,0.3,['dot'],['density'],black,0,168,168,168,,,61.20021605491638,60.91841006278992,61.2183940410614,dot,"[0.06, 0.06, 0.1, 0.06, 0.1, 0.06, 0.1, 0.1]","[[-0.19469543066458847, -0.326291241472255], [0.30343637985980976, -0.10925869102227477], [-0.1969922581528186, -0.11664339975312436], [0.2570255161168456, -0.3247060146943647], [0.10684135558856425, -0.18174565546534566], [0.03482742583321104, -0.4893606045609451], [-0.015658395544436696, -0.0001692298399926468], [0.11980560642279467, 0.15585563517441894]]",density,black,,,D002,visual,1,[],"['1', '2', '3', '4']",1,2023.2.3,harveyvisual,2.1,[],8,0.75,
0,pause,0.4,None,None,None,0,169,169,169,,,,,,,,,,,,,D002,visual,1,[],"['1', '2', '3', '4']",1,2023.2.3,harveyvisual,2.1,[],8,0.75,
8,dot,0.3,['dot'],['density'],black,0,170,170,170,,,61.90022921562195,61.61840319633484,61.91838216781616,dot,"[0.08, 0.08, 0.08, 0.06, 0.06, 0.1, 0.08, 0.1]","[[-0.3290570048964025, 0.45712517183014534], [-0.12351728740192595, 0.19722326774196852], [-0.44617383739254307, -0.0315435053038489], [0.05824565693526591, 0.08769012542188236], [-0.4904255353169048, 0.31423420558286136], [-0.32491150822629034, 0.16696319418744587], [-0.12614658653380179, 0.4043789036591275], [0.10044097339982726, 0.3130264767685494]]",density,black,,,D002,visual,1,[],"['1', '2', '3', '4']",1,2023.2.3,harveyvisual,2.1,[],8,0.75,
0,pause,0.4,None,None,None,0,171,171,171,,,,,,,,,,,,,D002,visual,1,[],"['1', '2', '3', '4']",1,2023.2.3,harveyvisual,2.1,[],8,0.75,
8,dot,0.3,['dot'],['density'],black,0,172,172,172,,,62.600208044052124,62.318361043930054,62.61842203140259,dot,"[0.08, 0.1, 0.06, 0.1, 0.1, 0.1, 0.06, 0.1]","[[-0.2395708272612018, -0.3613018167456044], [-0.39529086986423073, -0.13116056396528103], [0.016143118738118, -0.3000453801144436], [-0.10247857353615338, 0.12176090555598315], [0.11784264820349834, -0.12422453235794288], [-0.1468533202112338, -0.18280007972172757], [-0.31504288856899026, 0.06147683711297207], [0.2614313121475242, -0.33215718180641224]]",density,black,,,D002,visual,1,[],"['1', '2', '3', '4']",1,2023.2.3,harveyvisual,2.1,[],8,0.75,
0,pause,0.4,None,None,None,0,173,173,173,,,,,,,,,,,,,D002,visual,1,[],"['1', '2', '3', '4']",1,2023.2.3,harveyvisual,2.1,[],8,0.75,
8,dot,0.3,['dot'],['density'],black,0,174,174,174,,,63.300213098526,63.01835322380066,63.318334102630615,dot,"[0.06, 0.06, 0.06, 0.08, 0.08, 0.08, 0.1, 0.06]","[[-0.0012777187897950197, 0.3966007492927722], [-0.28447363834021117, 0.3159852715582059], [0.19942587273623266, 0.5530929527666414], [0.21318140018031628, 0.35154814550636243], [0.2022184519229619, 0.1402347591191321], [-0.03399167273692697, 0.18426518172063944], [0.09045107803968953, -0.0428478536761596], [-0.13826990130262626, -0.021750669296841257]]",density,black,,,D002,visual,1,[],"['1', '2', '3', '4']",1,2023.2.3,harveyvisual,2.1,[],8,0.75,
0,pause,0.4,None,None,None,0,175,175,175,,,,,,,,,,,,,D002,visual,1,[],"['1', '2', '3', '4']",1,2023.2.3,harveyvisual,2.1,[],8,0.75,
8,dot,0.3,['dot'],['density'],black,0,176,176,176,,,64.00022220611572,63.718345165252686,64.01832914352417,dot,"[0.06, 0.08, 0.1, 0.08, 0.1, 0.08, 0.08, 0.06]","[[-0.16499387414028463, -0.418455346753131], [0.031011941373623824, -0.006148034068666969], [-0.4150712424924157, -0.28668557629476243], [-0.199054958380199, -0.21375968732837633], [-0.4870789535587041, 0.00515905815181239], [-0.198479811208303, 0.006815000109153054], [-0.3273741662815474, 0.19008037141614484], [0.04340096687518584, -0.25044408321713213]]",density,black,,,D002,visual,1,[],"['1', '2', '3', '4']",1,2023.2.3,harveyvisual,2.1,[],8,0.75,
0,pause,0.4,None,None,None,0,177,177,177,,,,,,,,,,,,,D002,visual,1,[],"['1', '2', '3', '4']",1,2023.2.3,harveyvisual,2.1,[],8,0.75,
8,dot,0.3,['dot'],['density'],black,0,178,178,178,,,64.7002182006836,64.41832613945007,64.71829509735107,dot,"[0.1, 0.06, 0.1, 0.06, 0.1, 0.06, 0.1, 0.06]","[[-0.43120034012996816, -0.3965796075128045], [0.1478983624034229, -0.46770986256388064], [-0.23058307999139557, -0.3238539366063682], [-0.07988642296593639, -0.13993938361429092], [-0.08664795903044427, -0.5418074813242995], [0.11879255589163208, -0.1637425359681226], [-0.09873641234556067, 0.08705286872936738], [-0.025120016651009644, -0.34045580780112095]]",density,black,,,D002,visual,1,[],"['1', '2', '3', '4']",1,2023.2.3,harveyvisual,2.1,[],8,0.75,
0,pause,0.4,None,None,None,0,179,179,179,,,,,,,,,,,,,D002,visual,1,[],"['1', '2', '3', '4']",1,2023.2.3,harveyvisual,2.1,[],8,0.75,
7,dot,0.3,['dot'],['density'],black,0,180,180,180,,,65.40022706985474,65.1182930469513,65.41829419136047,dot,"[0.08, 0.1, 0.08, 0.06, 0.06, 0.08, 0.1]","[[0.27964692832129656, -0.15500474148311624], [0.48019533028943556, 0.09933774746227163], [0.08203545767143021, 0.28019381302663365], [0.05572057582720619, -0.1426303369841539], [0.31711281236335803, 0.2944831276535668], [-0.041479771322150735, 0.11885700406191958], [0.21045310206912196, 0.07075003364957701]]",density,black,,,D002,visual,1,[],"['1', '2', '3', '4']",1,2023.2.3,harveyvisual,2.1,[],8,0.75,
0,pause,0.4,None,None,None,0,181,181,181,,,,,,,,,,,,,D002,visual,1,[],"['1', '2', '3', '4']",1,2023.2.3,harveyvisual,2.1,[],8,0.75,
7,dot,0.3,['dot'],['density'],white,0,182,182,182,,,66.10022020339966,65.81828212738037,66.1182770729065,dot,"[0.1, 0.08, 0.08, 0.06, 0.06, 0.1, 0.06]","[[0.1318978468379982, 0.48780960721302624], [-0.15530952210580917, 0.2429536962773128], [0.21675324185561073, 0.09111206147250148], [0.13033099328542835, 0.28547066376201063], [0.3859901392997328, 0.20497483482614012], [0.014590257841440182, 0.0970646397970693], [0.1730960121663288, -0.1180805096677859]]",density,white,,,D002,visual,1,[],"['1', '2', '3', '4']",1,2023.2.3,harveyvisual,2.1,[],8,0.75,
0,pause,0.4,None,None,None,0,183,183,183,,,,,,,,,,,1,66.31075692176819,D002,visual,1,[],"['1', '2', '3', '4']",1,2023.2.3,harveyvisual,2.1,[],8,0.75,
7,dot,0.3,['dot'],['density'],black,0,184,184,184,,,66.80023217201233,66.51827311515808,66.81827402114868,dot,"[0.08, 0.1, 0.06, 0.1, 0.1, 0.06, 0.08]","[[-0.0015444251822213466, 0.17452400993182896], [-0.3864233363803332, 0.3856338194384884], [-0.45841970572989144, 0.11901701190004808], [-0.23552014845846486, 0.11986313412455778], [-0.06694767956243396, -0.029831379541550785], [-0.3576154478026905, -0.11072010138878656], [-0.17113735677840214, 0.37123035181888253]]",density,black,,,D002,visual,1,[],"['1', '2', '3', '4']",1,2023.2.3,harveyvisual,2.1,[],8,0.75,
0,pause,0.4,None,None,None,0,185,185,185,,,,,,,,,,,,,D002,visual,1,[],"['1', '2', '3', '4']",1,2023.2.3,harveyvisual,2.1,[],8,0.75,
7,dot,0.3,['dot'],['density'],black,0,186,186,186,,,67.50023317337036,67.21828699111938,67.51839900016785,dot,"[0.06, 0.1, 0.08, 0.08, 0.1, 0.06, 0.06]","[[0.12430361198122393, -0.484697593056103], [0.0493599320108737, -0.036540600477799993], [0.2536650008125765, -0.05314613827093128], [-0.10908149692518246, -0.38401305955505927], [0.3510411480849886, -0.3949608705840701], [0.16732256025271752, -0.2817377092689904], [0.4277002215428168, -0.1937739732965619]]",density,black,,,D002,visual,1,[],"['1', '2', '3', '4']",1,2023.2.3,harveyvisual,2.1,[],8,0.75,
0,pause,0.4,None,None,None,0,187,187,187,,,,,,,,,,,,,D002,visual,1,[],"['1', '2', '3', '4']",1,2023.2.3,harveyvisual,2.1,[],8,0.75,
7,dot,0.3,['dot'],['density'],black,0,188,188,188,,,68.2002260684967,67.91829800605774,68.21823906898499,dot,"[0.08, 0.1, 0.08, 0.06, 0.06, 0.08, 0.06]","[[-0.23022292756182125, -0.05768485575552839], [-0.3970021412728509, -0.1722837668104814], [-0.2989980436724142, -0.5015189566068301], [-0.1887121522124618, -0.3052937986494308], [-0.001193606839323686, -0.45187687349833133], [-0.45251418858811787, -0.367940027934103], [0.11213422846620591, -0.19711986939188722]]",density,black,,,D002,visual,1,[],"['1', '2', '3', '4']",1,2023.2.3,harveyvisual,2.1,[],8,0.75,
0,pause,0.4,None,None,None,0,189,189,189,,,,,,,,,,,,,D002,visual,1,[],"['1', '2', '3', '4']",1,2023.2.3,harveyvisual,2.1,[],8,0.75,
7,dot,0.3,['dot'],['density'],black,0,190,190,190,,,68.90020799636841,68.61823606491089,68.91822099685669,dot,"[0.08, 0.08, 0.06, 0.08, 0.08, 0.08, 0.08]","[[-0.2822174821233986, 0.002117056236134186], [-0.10673242512413421, 0.4781556216085482], [-0.18432519539246728, 0.19072201575640843], [-0.4524596318479574, 0.13966285650530724], [0.06907010423411483, 0.2912708813513049], [-0.07412436007020941, -0.021022205933558278], [-0.3208835015251209, 0.3986768431743725]]",density,black,,,D002,visual,1,[],"['1', '2', '3', '4']",1,2023.2.3,harveyvisual,2.1,[],8,0.75,
0,pause,0.4,None,None,None,0,191,191,191,,,,,,,,,,,,,D002,visual,1,[],"['1', '2', '3', '4']",1,2023.2.3,harveyvisual,2.1,[],8,0.75,
6,dot,0.3,['dot'],['density'],black,0,192,192,192,,,69.60021615028381,69.31821012496948,69.61816000938416,dot,"[0.1, 0.08, 0.1, 0.06, 0.1, 0.1]","[[0.23041567882598732, 0.45619944218456715], [0.5278859611842325, 0.18245830030246968], [0.08738225171760033, 0.1578384040678088], [0.20561463112105705, -0.03996865664556224], [0.3021721310554224, 0.21718230064421146], [0.4273755636869532, 0.38341374408431883]]",density,black,,,D002,visual,1,[],"['1', '2', '3', '4']",1,2023.2.3,harveyvisual,2.1,[],8,0.75,
0,pause,0.4,None,None,None,0,193,193,193,,,,,,,,,,,,,D002,visual,1,[],"['1', '2', '3', '4']",1,2023.2.3,harveyvisual,2.1,[],8,0.75,
6,dot,0.3,['dot'],['density'],black,0,194,194,194,,,70.30023121833801,70.01817321777344,70.31818318367004,dot,"[0.1, 0.06, 0.1, 0.1, 0.06, 0.08]","[[0.26568550625605564, -0.48823100126060537], [0.030589778490880962, -0.34307155488476027], [0.2920158589989485, -0.005481777194348812], [0.4969139129819881, -0.3034402107212153], [0.2924968692334099, -0.2393606426967254], [0.09404279540557291, -0.1505005030192783]]",density,black,,,D002,visual,1,[],"['1', '2', '3', '4']",1,2023.2.3,harveyvisual,2.1,[],8,0.75,
0,pause,0.4,None,None,None,0,195,195,195,,,,,,,,,,,,,D002,visual,1,[],"['1', '2', '3', '4']",1,2023.2.3,harveyvisual,2.1,[],8,0.75,
6,dot,0.3,['dot'],['density'],black,0,196,196,196,,,71.00023412704468,70.71818614006042,71.0182511806488,dot,"[0.1, 0.1, 0.06, 0.1, 0.06, 0.1]","[[-0.060066269329224556, -0.3459973645598818], [-0.2267112282887438, -0.46433083725857055], [-0.03368736353914721, -0.0592740518520544], [0.1129416353875032, -0.20466059509733167], [0.13908697530976044, -0.42386339769443276], [-0.2931789080149146, -0.2669036372638095]]",density,black,,,D002,visual,1,[],"['1', '2', '3', '4']",1,2023.2.3,harveyvisual,2.1,[],8,0.75,
0,pause,0.4,None,None,None,0,197,197,197,,,,,,,,,,,,,D002,visual,1,[],"['1', '2', '3', '4']",1,2023.2.3,harveyvisual,2.1,[],8,0.75,
6,dot,0.3,['dot'],['density'],black,0,198,198,198,,,71.70022106170654,71.41820311546326,71.71827101707458,dot,"[0.08, 0.06, 0.1, 0.06, 0.08, 0.08]","[[-0.5416753121247185, 0.020803147184574915], [-0.3232269173664433, -0.07161231053200118], [-0.3008479376061402, -0.286480119217458], [-0.22299540496279888, 0.12470258063391813], [-0.10776740766186912, -0.19554033341247495], [-0.5165544979209102, -0.21376225914528924]]",density,black,,,D002,visual,1,[],"['1', '2', '3', '4']",1,2023.2.3,harveyvisual,2.1,[],8,0.75,
0,pause,0.4,None,None,None,0,199,199,199,,,,,,,,,,,,,D002,visual,1,[],"['1', '2', '3', '4']",1,2023.2.3,harveyvisual,2.1,[],8,0.75,
6,dot,0.3,['dot'],['density'],black,0,200,200,200,,,72.40021109580994,72.11821007728577,72.41827917098999,dot,"[0.08, 0.06, 0.1, 0.1, 0.08, 0.06]","[[-0.08086177951302478, 0.2470577028799217], [0.17809040740055945, 0.25721690350386706], [0.248993691455746, -0.144418230259854], [0.04260816027356476, -0.17251108440570345], [0.26201279645255604, 0.07253913185781388], [-0.0017619790798508912, 0.027830886297901026]]",density,black,,,D002,visual,1,[],"['1', '2', '3', '4']",1,2023.2.3,harveyvisual,2.1,[],8,0.75,
0,pause,0.4,None,None,None,0,201,201,201,,,,,,,,,,,,,D002,visual,1,[],"['1', '2', '3', '4']",1,2023.2.3,harveyvisual,2.1,[],8,0.75,
6,dot,0.3,['dot'],['density'],black,0,202,202,202,,,73.10023021697998,72.81829810142517,73.11818504333496,dot,"[0.1, 0.08, 0.08, 0.08, 0.08, 0.1]","[[-0.36904347190091025, 0.2789229011504548], [-0.01038079434194998, 0.053649704929766846], [-0.08735338951653393, 0.578282782753283], [5.153534382930422e-05, 0.38446941554394387], [-0.22753401468201206, 0.43210907521897474], [-0.14647282530567177, 0.24517240432070728]]",density,black,,,D002,visual,1,[],"['1', '2', '3', '4']",1,2023.2.3,harveyvisual,2.1,[],8,0.75,
0,pause,0.4,None,None,None,0,203,203,203,,,,,,,,,,,,,D002,visual,1,[],"['1', '2', '3', '4']",1,2023.2.3,harveyvisual,2.1,[],8,0.75,
5,dot,0.3,['dot'],['density'],black,0,204,204,204,,,73.8002359867096,73.51809310913086,73.81807398796082,dot,"[0.1, 0.08, 0.1, 0.1, 0.1]","[[-0.08906257038347729, 0.3326351968500321], [0.2173987091792188, 0.026220721131276364], [0.07996259445097068, 0.4821024141609844], [0.14345365083950706, 0.2501481494916038], [-0.03323208063638199, 0.08804517681276208]]",density,black,,,D002,visual,1,[],"['1', '2', '3', '4']",1,2023.2.3,harveyvisual,2.1,[],8,0.75,
0,pause,0.4,None,None,None,0,205,205,205,,,,,,,,,,,,,D002,visual,1,[],"['1', '2', '3', '4']",1,2023.2.3,harveyvisual,2.1,[],8,0.75,
5,dot,0.3,['dot'],['density'],black,0,206,206,206,,,74.50022721290588,74.21805620193481,74.51804804801941,dot,"[0.08, 0.06, 0.08, 0.06, 0.08]","[[-0.08906257038347729, 0.3326351968500321], [0.2173987091792188, 0.026220721131276364], [0.07996259445097068, 0.4821024141609844], [0.14345365083950706, 0.2501481494916038], [-0.03323208063638199, 0.08804517681276208]]",density,black,,,D002,visual,1,[],"['1', '2', '3', '4']",1,2023.2.3,harveyvisual,2.1,[],8,0.75,
0,pause,0.4,None,None,None,0,207,207,207,,,,,,,,,,,,,D002,visual,1,[],"['1', '2', '3', '4']",1,2023.2.3,harveyvisual,2.1,[],8,0.75,
5,dot,0.3,['dot'],['density'],black,0,208,208,208,,,75.20021510124207,74.91807508468628,75.21806311607361,dot,"[0.06, 0.08, 0.08, 0.08, 0.08]","[[0.08548847697718086, 0.4135790235028826], [-0.012611048966726563, 0.22662400259503446], [0.27435170057987585, 0.4853016025774898], [-0.23063129862993442, 0.3109017384705433], [-0.11887524344887646, 0.49040580377695175]]",density,black,,,D002,visual,1,[],"['1', '2', '3', '4']",1,2023.2.3,harveyvisual,2.1,[],8,0.75,
0,pause,0.4,None,None,None,0,209,209,209,,,,,,,,,,,,,D002,visual,1,[],"['1', '2', '3', '4']",1,2023.2.3,harveyvisual,2.1,[],8,0.75,
5,dot,0.3,['dot'],['density'],black,0,210,210,210,,,75.90021014213562,75.61801505088806,75.91799807548523,dot,"[0.1, 0.1, 0.1, 0.08, 0.06]","[[-0.416197921377668, -0.28619329865683824], [-0.20866628843358032, -0.3460647126262422], [-0.5570429559765239, -0.05989317214741584], [-0.28028983240144106, -0.12146425093182346], [-0.3531870384577651, 0.07845006904085886]]",density,black,,,D002,visual,1,[],"['1', '2', '3', '4']",1,2023.2.3,harveyvisual,2.1,[],8,0.75,
0,pause,0.4,None,None,None,0,211,211,211,,,,,,,,,,,,,D002,visual,1,[],"['1', '2', '3', '4']",1,2023.2.3,harveyvisual,2.1,[],8,0.75,
5,dot,0.3,['dot'],['density'],black,0,212,212,212,,,76.60022401809692,76.31801009178162,76.61798310279846,dot,"[0.1, 0.06, 0.08, 0.06, 0.06]","[[0.2075830250205083, 0.5448960418430373], [0.010600229768786232, 0.45420498888786176], [-0.10187712889758427, 0.28364076042242115], [0.1691377395635631, 0.293820614486451], [-0.2596336492265815, 0.40815120909286945]]",density,black,,,D002,visual,1,[],"['1', '2', '3', '4']",1,2023.2.3,harveyvisual,2.1,[],8,0.75,
0,pause,0.4,None,None,None,0,213,213,213,,,,,,,,,,,,,D002,visual,1,[],"['1', '2', '3', '4']",1,2023.2.3,harveyvisual,2.1,[],8,0.75,
5,dot,0.3,['dot'],['density'],white,0,214,214,214,,,77.30021119117737,77.01799321174622,77.31797313690186,dot,"[0.1, 0.1, 0.06, 0.08, 0.08]","[[-0.26965218803342234, -0.06061691990321757], [-0.44412238708790114, -0.1605793459593267], [-0.2738608688716076, -0.33598391440877745], [-0.06160694910013377, -0.19463283807086704], [-0.16469008497891707, 0.13324638745272324]]",density,white,,,D002,visual,1,[],"['1', '2', '3', '4']",1,2023.2.3,harveyvisual,2.1,[],8,0.75,
0,pause,0.4,None,None,None,0,215,215,215,,,,,,,,,,,1,77.4390480518341,D002,visual,1,[],"['1', '2', '3', '4']",1,2023.2.3,harveyvisual,2.1,[],8,0.75,
4,dot,0.3,['dot'],['density'],black,0,216,216,216,,,78.0002110004425,77.71797204017639,78.01795315742493,dot,"[0.08, 0.08, 0.06, 0.08]","[[-0.5372831058023291, 0.07679305146548565], [-0.47746952625478134, -0.11455356156484316], [-0.2888199447118168, 0.02804534169422597], [-0.3317661241759115, -0.2533775510137967]]",density,black,,,D002,visual,1,[],"['1', '2', '3', '4']",1,2023.2.3,harveyvisual,2.1,[],8,0.75,
0,pause,0.4,None,None,None,0,217,217,217,,,,,,,,,,,,,D002,visual,1,[],"['1', '2', '3', '4']",1,2023.2.3,harveyvisual,2.1,[],8,0.75,
4,dot,0.3,['dot'],['density'],black,0,218,218,218,,,78.70022416114807,78.41795301437378,78.71794700622559,dot,"[0.08, 0.1, 0.06, 0.08]","[[-0.3130108772186628, 0.4658633188731559], [0.06875292536802097, 0.3619778545149697], [-0.12928423743784842, 0.28835211797578114], [-0.08764786508193922, 0.5151731075523892]]",density,black,,,D002,visual,1,[],"['1', '2', '3', '4']",1,2023.2.3,harveyvisual,2.1,[],8,0.75,
0,pause,0.4,None,None,None,0,219,219,219,,,,,,,,,,,,,D002,visual,1,[],"['1', '2', '3', '4']",1,2023.2.3,harveyvisual,2.1,[],8,0.75,
4,dot,0.3,['dot'],['density'],white,0,220,220,220,,,79.40022110939026,79.11792612075806,79.41792011260986,dot,"[0.06, 0.08, 0.08, 0.06]","[[0.37520814465037905, -0.4432880181017862], [0.4692830223283075, -0.19655799526205012], [0.3063896805601884, -0.036788685454167226], [0.2471196723673293, -0.2344474043623998]]",density,white,,,D002,visual,1,[],"['1', '2', '3', '4']",1,2023.2.3,harveyvisual,2.1,[],8,0.75,
0,pause,0.4,None,None,None,0,221,221,221,,,,,,,,,,,1,79.5982940196991,D002,visual,1,[],"['1', '2', '3', '4']",1,2023.2.3,harveyvisual,2.1,[],8,0.75,
4,dot,0.3,['dot'],['density'],white,0,222,222,222,,,80.10022711753845,79.81792211532593,80.11790299415588,dot,"[0.08, 0.06, 0.08, 0.06]","[[-0.2516773625496151, -0.30151264897341506], [-0.16747001932966935, -0.11477707456203952], [0.007305472957725734, -0.4586877449884055], [0.017540980065453668, -0.20354321808263612]]",density,white,,,D002,visual,1,[],"['1', '2', '3', '4']",1,2023.2.3,harveyvisual,2.1,[],8,0.75,
0,pause,0.4,None,None,None,0,223,223,223,,,,,,,,,,,1,80.25538992881775,D002,visual,1,[],"['1', '2', '3', '4']",1,2023.2.3,harveyvisual,2.1,[],8,0.75,
4,dot,0.3,['dot'],['density'],black,0,224,224,224,,,80.80022406578064,80.51795721054077,80.8179121017456,dot,"[0.06, 0.1, 0.06, 0.1]","[[-0.4116264312708952, 0.16775371224632304], [-0.5618780911112883, -0.04134114392370045], [-0.3363713887364365, -0.04915619770205748], [-0.48212301157369764, -0.2249233832905235]]",density,black,,,D002,visual,1,[],"['1', '2', '3', '4']",1,2023.2.3,harveyvisual,2.1,[],8,0.75,
0,pause,0.4,None,None,None,0,225,225,225,,,,,,,,,,,,,D002,visual,1,[],"['1', '2', '3', '4']",1,2023.2.3,harveyvisual,2.1,[],8,0.75,
4,dot,0.3,['dot'],['density'],black,0,226,226,226,,,81.50021409988403,81.21791315078735,81.51792407035828,dot,"[0.08, 0.1, 0.08, 0.1]","[[-0.43942495523079517, -0.22401056498097033], [-0.009260832099230759, -0.1633376679159051], [-0.21598309108097546, -0.10172603009605206], [-0.2278206133413005, -0.33154874685782076]]",density,black,,,D002,visual,1,[],"['1', '2', '3', '4']",1,2023.2.3,harveyvisual,2.1,[],8,0.75,
0,pause,0.4,None,None,None,0,227,227,227,,,,,,,,,,,,,D002,visual,1,[],"['1', '2', '3', '4']",1,2023.2.3,harveyvisual,2.1,[],8,0.75,
3,dot,0.3,['dot'],['density'],black,0,228,228,228,,,82.20023322105408,81.91806316375732,82.21804714202881,dot,"[0.06, 0.06, 0.06]","[[-0.5599668940784417, -0.1503624274944763], [-0.33715825845103314, -0.1742393560729378], [-0.447658281307079, 0.035586458508876644]]",density,black,,,D002,visual,1,[],"['1', '2', '3', '4']",1,2023.2.3,harveyvisual,2.1,[],8,0.75,
0,pause,0.4,None,None,None,0,229,229,229,,,,,,,,,,,,,D002,visual,1,[],"['1', '2', '3', '4']",1,2023.2.3,harveyvisual,2.1,[],8,0.75,
3,dot,0.3,['dot'],['density'],black,0,230,230,230,,,82.90021419525146,82.61804008483887,82.91802310943604,dot,"[0.06, 0.08, 0.06]","[[0.07700183490032705, -0.35627018624379625], [-0.11838355721398923, -0.41989981358322065], [0.04553884901650391, -0.5822363694770394]]",density,black,,,D002,visual,1,[],"['1', '2', '3', '4']",1,2023.2.3,harveyvisual,2.1,[],8,0.75,
0,pause,0.4,None,None,None,0,231,231,231,,,,,,,,,,,,,D002,visual,1,[],"['1', '2', '3', '4']",1,2023.2.3,harveyvisual,2.1,[],8,0.75,
3,dot,0.3,['dot'],['density'],black,0,232,232,232,,,83.60023522377014,83.31802415847778,83.6179711818695,dot,"[0.1, 0.06, 0.06]","[[-0.31319101668702665, 0.019781348947723338], [-0.5473895760332308, 0.024991247927059115], [-0.4494119348059314, -0.1602141851013313]]",density,black,,,D002,visual,1,[],"['1', '2', '3', '4']",1,2023.2.3,harveyvisual,2.1,[],8,0.75,
0,pause,0.4,None,None,None,0,233,233,233,,,,,,,,,,,,,D002,visual,1,[],"['1', '2', '3', '4']",1,2023.2.3,harveyvisual,2.1,[],8,0.75,
3,dot,0.3,['dot'],['density'],black,0,234,234,234,,,84.30023407936096,84.01795411109924,84.31795716285706,dot,"[0.1, 0.06, 0.06]","[[0.041215869578383385, -0.00689674906403758], [0.17500875751152645, 0.21459232562634095], [-0.03632281132631849, 0.2012994076415249]]",density,black,,,D002,visual,1,[],"['1', '2', '3', '4']",1,2023.2.3,harveyvisual,2.1,[],8,0.75,
0,pause,0.4,None,None,None,0,235,235,235,,,,,,,,,,,,,D002,visual,1,[],"['1', '2', '3', '4']",1,2023.2.3,harveyvisual,2.1,[],8,0.75,
3,dot,0.3,['dot'],['density'],black,0,236,236,236,,,85.00023221969604,84.71799802780151,85.01794910430908,dot,"[0.1, 0.1, 0.1]","[[-0.021384933427115945, -0.26055744462645497], [0.16478637362895734, -0.404980755917603], [-0.025077849445719256, -0.48190209473619267]]",density,black,,,D002,visual,1,[],"['1', '2', '3', '4']",1,2023.2.3,harveyvisual,2.1,[],8,0.75,
0,pause,0.4,None,None,None,0,237,237,237,,,,,,,,,,,,,D002,visual,1,[],"['1', '2', '3', '4']",1,2023.2.3,harveyvisual,2.1,[],8,0.75,
3,dot,0.3,['dot'],['density'],white,0,238,238,238,,,85.70023798942566,85.41798400878906,85.71779608726501,dot,"[0.06, 0.1, 0.06]","[[-0.476501853024302, 0.3110516410681161], [-0.26865065753742645, 0.4732574608261889], [-0.2772428868380306, 0.2516539537451065]]",density,white,,,D002,visual,1,[],"['1', '2', '3', '4']",1,2023.2.3,harveyvisual,2.1,[],8,0.75,
0,pause,0.4,None,None,None,0,239,239,239,,,,,,,,,,,1,85.97520208358765,D002,visual,1,[],"['1', '2', '3', '4']",1,2023.2.3,harveyvisual,2.1,[],8,0.75,
2,dot,0.3,['dot'],['density'],black,0,240,240,240,,,86.40022611618042,86.11795806884766,86.41799211502075,dot,"[0.06, 0.08]","[[-0.22226122312079244, -0.00806926593831646], [-0.023245446524914906, -0.037240983575548024]]",density,black,,,D002,visual,1,[],"['1', '2', '3', '4']",1,2023.2.3,harveyvisual,2.1,[],8,0.75,
0,pause,0.4,None,None,None,0,241,241,241,,,,,,,,,,,,,D002,visual,1,[],"['1', '2', '3', '4']",1,2023.2.3,harveyvisual,2.1,[],8,0.75,
2,dot,0.3,['dot'],['density'],white,0,242,242,242,,,87.10021805763245,86.81801009178162,87.11798214912415,dot,"[0.1, 0.06]","[[0.02987007740145294, 0.4330921892138179], [-0.1698845640653836, 0.4119973540264252]]",density,white,,,D002,visual,1,[],"['1', '2', '3', '4']",1,2023.2.3,harveyvisual,2.1,[],8,0.75,
0,pause,0.4,None,None,None,0,243,243,243,,,,,,,,,,,1,87.18348789215088,D002,visual,1,[],"['1', '2', '3', '4']",1,2023.2.3,harveyvisual,2.1,[],8,0.75,
2,dot,0.3,['dot'],['density'],white,0,244,244,244,,,87.800213098526,87.51800298690796,87.81796312332153,dot,"[0.1, 0.06]","[[0.3859848860398513, -0.03650274153894256], [0.5613034441480618, 0.06134992989862206]]",density,white,,,D002,visual,1,[],"['1', '2', '3', '4']",1,2023.2.3,harveyvisual,2.1,[],8,0.75,
0,pause,0.4,None,None,None,0,245,245,245,,,,,,,,,,,1,87.87438297271729,D002,visual,1,[],"['1', '2', '3', '4']",1,2023.2.3,harveyvisual,2.1,[],8,0.75,
2,dot,0.3,['dot'],['density'],black,0,246,246,246,,,88.50024008750916,88.21787619590759,88.5178771018982,dot,"[0.1, 0.08]","[[-0.15001882639889116, 0.48719053997247297], [-0.1736568080125972, 0.28835755901726084]]",density,black,,,D002,visual,1,[],"['1', '2', '3', '4']",1,2023.2.3,harveyvisual,2.1,[],8,0.75,
0,pause,0.4,None,None,None,0,247,247,247,,,,,,,,,,,,,D002,visual,1,[],"['1', '2', '3', '4']",1,2023.2.3,harveyvisual,2.1,[],8,0.75,
2,dot,0.3,['dot'],['density'],white,0,248,248,248,,,89.20023322105408,88.91786313056946,89.21784400939941,dot,"[0.1, 0.08]","[[0.28379985726396956, 0.19228106150028407], [0.10160376615595414, 0.2763535177041957]]",density,white,,,D002,visual,1,[],"['1', '2', '3', '4']",1,2023.2.3,harveyvisual,2.1,[],8,0.75,
0,pause,0.4,None,None,None,0,249,249,249,,,,,,,,,,,1,89.31371688842773,D002,visual,1,[],"['1', '2', '3', '4']",1,2023.2.3,harveyvisual,2.1,[],8,0.75,
2,dot,0.3,['dot'],['density'],black,0,250,250,250,,,89.9002411365509,89.61784100532532,89.91771912574768,dot,"[0.08, 0.1]","[[0.06661886780735636, -0.3109770134588511], [-0.03502229105109153, -0.4833380692870097]]",density,black,,,D002,visual,1,[],"['1', '2', '3', '4']",1,2023.2.3,harveyvisual,2.1,[],8,0.75,
0,pause,0.4,None,None,None,0,251,251,251,,,,,,,,,,,,,D002,visual,1,[],"['1', '2', '3', '4']",1,2023.2.3,harveyvisual,2.1,[],8,0.75,
1,dot,0.3,['dot'],['density'],white,0,252,252,252,,,90.60022711753845,90.31767416000366,90.61769318580627,dot,[0.1],"[0.03111034986587176, -0.1137363894063533]",density,white,,,D002,visual,1,[],"['1', '2', '3', '4']",1,2023.2.3,harveyvisual,2.1,[],8,0.75,
0,pause,0.4,None,None,None,0,253,253,253,,,,,,,,,,,1,90.67371201515198,D002,visual,1,[],"['1', '2', '3', '4']",1,2023.2.3,harveyvisual,2.1,[],8,0.75,
1,dot,0.3,['dot'],['density'],black,0,254,254,254,,,91.30023002624512,91.0176591873169,91.3176600933075,dot,[0.06],"[0.2287398259034258, -0.3932960849464651]",density,black,,,D002,visual,1,[],"['1', '2', '3', '4']",1,2023.2.3,harveyvisual,2.1,[],8,0.75,
0,pause,0.4,None,None,None,0,255,255,255,,,,,,,,,,,,,D002,visual,1,[],"['1', '2', '3', '4']",1,2023.2.3,harveyvisual,2.1,[],8,0.75,
1,dot,0.3,['dot'],['density'],black,0,256,256,256,,,92.0002121925354,91.71765398979187,92.01766705513,dot,[0.06],"[0.03111034986587176, -0.1137363894063533]",density,black,,,D002,visual,1,[],"['1', '2', '3', '4']",1,2023.2.3,harveyvisual,2.1,[],8,0.75,
0,pause,0.4,None,None,None,0,257,257,257,,,,,,,,,,,,,D002,visual,1,[],"['1', '2', '3', '4']",1,2023.2.3,harveyvisual,2.1,[],8,0.75,
1,dot,0.3,['dot'],['density'],black,0,258,258,258,,,92.70022320747375,92.41762113571167,92.71757817268372,dot,[0.08],"[0.5363314188299194, -0.14809861569100125]",density,black,,,D002,visual,1,[],"['1', '2', '3', '4']",1,2023.2.3,harveyvisual,2.1,[],8,0.75,
0,pause,0.4,None,None,None,0,259,259,259,,,,,,,,,,,,,D002,visual,1,[],"['1', '2', '3', '4']",1,2023.2.3,harveyvisual,2.1,[],8,0.75,
1,dot,0.3,['dot'],['density'],black,0,260,260,260,,,93.40022611618042,93.11757206916809,93.41754913330078,dot,[0.06],"[0.0956549371127339, 0.09579573331985794]",density,black,,,D002,visual,1,[],"['1', '2', '3', '4']",1,2023.2.3,harveyvisual,2.1,[],8,0.75,
0,pause,0.4,None,None,None,0,261,261,261,,,,,,,,,,,,,D002,visual,1,[],"['1', '2', '3', '4']",1,2023.2.3,harveyvisual,2.1,[],8,0.75,
1,dot,0.3,['dot'],['density'],black,0,262,262,262,,,94.10022020339966,93.817556142807,94.11753821372986,dot,[0.1],"[0.21839164384074103, 0.06179923858190914]",density,black,,,D002,visual,1,[],"['1', '2', '3', '4']",1,2023.2.3,harveyvisual,2.1,[],8,0.75,
0,pause,0.4,None,None,None,0,263,263,263,,,,,,,,,,,,,D002,visual,1,[],"['1', '2', '3', '4']",1,2023.2.3,harveyvisual,2.1,[],8,0.75,
20,dot,0.3,['dot'],['density'],black,0,264,264,264,,,94.8002381324768,94.51753306388855,94.81751608848572,dot,"[0.08, 0.08, 0.06, 0.1, 0.06, 0.08, 0.1, 0.1, 0.06, 0.06, 0.08, 0.06, 0.08, 0.08, 0.06, 0.1, 0.06, 0.06, 0.06, 0.1]","[[0.33115989480932007, -0.06780234411414832], [0.182545524896362, -0.29803684032383654], [0.4943796767303775, 0.10782377650663721], [-0.14552756113614107, -0.30932586292050285], [-0.42452880288021316, 0.0952242091892197], [-0.5559096039118581, -0.09219672751061017], [-0.2724124885366048, -0.029208283063225204], [0.14033624470340134, 0.1417895660201911], [0.5011717319355152, 0.3155406047333057], [-0.3622329447540913, 0.4049604590879041], [-0.36496066653026604, -0.39392138394472614], [0.256305093445912, 0.44691295769927986], [-0.0486067416484135, 0.4397118484981488], [0.39641296650655955, -0.25212414465594735], [-0.06774007569267237, -0.029013699628337997], [0.24015501609957146, -0.5024145873035537], [-0.005026648359419905, -0.5699206096251843], [0.5928597143983639, -0.08257434746095849], [0.12458509405742868, -0.0780294482608539], [-0.23611257150804227, 0.21560706190088907]]",density,black,,,D002,visual,1,[],"['1', '2', '3', '4']",1,2023.2.3,harveyvisual,2.1,[],8,0.75,
0,pause,0.4,None,None,None,0,265,265,265,,,,,,,,,,,,,D002,visual,1,[],"['1', '2', '3', '4']",1,2023.2.3,harveyvisual,2.1,[],8,0.75,
20,dot,0.3,['dot'],['density'],black,0,266,266,266,,,95.50024318695068,95.21751499176025,95.51749920845032,dot,"[0.08, 0.08, 0.08, 0.06, 0.1, 0.1, 0.06, 0.1, 0.08, 0.08, 0.1, 0.1, 0.1, 0.08, 0.08, 0.08, 0.08, 0.1, 0.06, 0.08]","[[0.5845363134075593, 0.031148448872413553], [0.36597863350817117, -0.13087670402344692], [-0.2780601276127142, 0.08816196645097318], [-0.0017755260264324946, 0.24533811183422372], [-0.5525322888764439, -0.245169637124988], [-0.36093980802245473, -0.23023473332492933], [-0.03291712748469555, -0.5173802895423087], [0.47052845303564983, -0.3704978022934369], [0.39275816790454343, 0.3487150038603885], [-0.41677460413180534, 0.3362555366989297], [0.1484552553699643, 0.016696940445353414], [0.26330422358542793, 0.497074289005345], [-0.544384354567174, 0.11730562790409443], [-0.10693937725156283, 0.4844610260126273], [-0.025227485231667734, -0.15996304539567618], [0.1918584072394881, -0.42010640391175436], [-0.21621119740277184, 0.2945009947110325], [-0.2884821600945008, -0.40544612762603105], [0.07467941412830237, 0.5499300442388404], [-0.4421560573730008, -0.048589557613606005]]",density,black,,,D002,visual,1,[],"['1', '2', '3', '4']",1,2023.2.3,harveyvisual,2.1,[],8,0.75,
0,pause,0.4,None,None,None,0,267,267,267,,,,,,,,,,,,,D002,visual,1,[],"['1', '2', '3', '4']",1,2023.2.3,harveyvisual,2.1,[],8,0.75,
