num,mod,duration,shape,ll_cond,colors,.thisRepN,.thisTrialN,.thisN,.thisIndex,thisRow.t,notes,raw_global_time,t_start,t_stop,shapes,size,pos,cond,color,button,RT,participant,session,starting_run,left button (match/odd),right button (non-match/even),samples_per_block,psychopy version,expName,offset,audio,number_runs,radius,
1,dot,0.3,['dot'],['density'],black,0,0,0,0,,,2.4002339839935303,2.100654125213623,2.4173591136932373,dot,[0.06],"[-0.3678067964802796, -0.3513177213804687]",density,black,,,D002,visual,1,[],"['1', '2', '3', '4']",1,2023.2.3,harveyvisual,2.1,[],8,0.75,
0,pause,0.4,None,None,None,0,1,1,1,,,,,,,,,,,,,D002,visual,1,[],"['1', '2', '3', '4']",1,2023.2.3,harveyvisual,2.1,[],8,0.75,
1,dot,0.3,['dot'],['density'],black,0,2,2,2,,,3.1002089977264404,2.8005659580230713,3.1180810928344727,dot,[0.1],"[-0.43400380483721984, 0.10531265887229962]",density,black,,,D002,visual,1,[],"['1', '2', '3', '4']",1,2023.2.3,harveyvisual,2.1,[],8,0.75,
0,pause,0.4,None,None,None,0,3,3,3,,,,,,,,,,,,,D002,visual,1,[],"['1', '2', '3', '4']",1,2023.2.3,harveyvisual,2.1,[],8,0.75,
1,dot,0.3,['dot'],['density'],black,0,4,4,4,,,3.80020809173584,3.501491069793701,3.8180291652679443,dot,[0.06],"[0.5163804524385218, 0.172353611070521]",density,black,,,D002,visual,1,[],"['1', '2', '3', '4']",1,2023.2.3,harveyvisual,2.1,[],8,0.75,
0,pause,0.4,None,None,None,0,5,5,5,,,,,,,,,,,,,D002,visual,1,[],"['1', '2', '3', '4']",1,2023.2.3,harveyvisual,2.1,[],8,0.75,
1,dot,0.3,['dot'],['density'],black,0,6,6,6,,,4.500204086303711,4.2010581493377686,4.518026113510132,dot,[0.08],"[0.4765699730395091, 0.34560502551113614]",density,black,,,D002,visual,1,[],"['1', '2', '3', '4']",1,2023.2.3,harveyvisual,2.1,[],8,0.75,
0,pause,0.4,None,None,None,0,7,7,7,,,,,,,,,,,,,D002,visual,1,[],"['1', '2', '3', '4']",1,2023.2.3,harveyvisual,2.1,[],8,0.75,
1,dot,0.3,['dot'],['density'],black,0,8,8,8,,,5.200229167938232,4.901118040084839,5.217664003372192,dot,[0.1],"[-0.3678067964802796, -0.3513177213804687]",density,black,,,D002,visual,1,[],"['1', '2', '3', '4']",1,2023.2.3,harveyvisual,2.1,[],8,0.75,
0,pause,0.4,None,None,None,0,9,9,9,,,,,,,,,,,,,D002,visual,1,[],"['1', '2', '3', '4']",1,2023.2.3,harveyvisual,2.1,[],8,0.75,
1,dot,0.3,['dot'],['density'],black,0,10,10,10,,,5.90022611618042,5.619713068008423,5.919677972793579,dot,[0.06],"[0.31457923939875737, -0.4122609730770665]",density,black,,,D002,visual,1,[],"['1', '2', '3', '4']",1,2023.2.3,harveyvisual,2.1,[],8,0.75,
0,pause,0.4,None,None,None,0,11,11,11,,,,,,,,,,,,,D002,visual,1,[],"['1', '2', '3', '4']",1,2023.2.3,harveyvisual,2.1,[],8,0.75,
2,dot,0.3,['dot'],['density'],black,0,12,12,12,,,6.600227117538452,6.3196539878845215,6.619654178619385,dot,"[0.08, 0.08]","[[0.3054529246123127, 0.4455278178545299], [0.3548458028228903, 0.2510588499170468]]",density,black,,,D002,visual,1,[],"['1', '2', '3', '4']",1,2023.2.3,harveyvisual,2.1,[],8,0.75,
0,pause,0.4,None,None,None,0,13,13,13,,,,,,,,,,,,,D002,visual,1,[],"['1', '2', '3', '4']",1,2023.2.3,harveyvisual,2.1,[],8,0.75,
2,dot,0.3,['dot'],['density'],black,0,14,14,14,,,7.30020809173584,7.019534111022949,7.319524049758911,dot,"[0.06, 0.1]","[[0.500151128333041, 0.1656925720118866], [0.3771979967144504, 0.3235340638115745]]",density,black,,,D002,visual,1,[],"['1', '2', '3', '4']",1,2023.2.3,harveyvisual,2.1,[],8,0.75,
0,pause,0.4,None,None,None,0,15,15,15,,,,,,,,,,,,,D002,visual,1,[],"['1', '2', '3', '4']",1,2023.2.3,harveyvisual,2.1,[],8,0.75,
2,dot,0.3,['dot'],['density'],black,0,16,16,16,,,8.000216960906982,7.719519138336182,8.019504070281982,dot,"[0.06, 0.1]","[[-0.19266755722762574, -0.036106715323925336], [-0.096675332858716, 0.13967695308521302]]",density,black,,,D002,visual,1,[],"['1', '2', '3', '4']",1,2023.2.3,harveyvisual,2.1,[],8,0.75,
0,pause,0.4,None,None,None,0,17,17,17,,,,,,,,,,,,,D002,visual,1,[],"['1', '2', '3', '4']",1,2023.2.3,harveyvisual,2.1,[],8,0.75,
2,dot,0.3,['dot'],['density'],black,0,18,18,18,,,8.700217008590698,8.419494152069092,8.719465970993042,dot,"[0.06, 0.06]","[[-0.3970652553054307, 0.36151140161898554], [-0.22306532646831484, 0.26288994227005946]]",density,black,,,D002,visual,1,[],"['1', '2', '3', '4']",1,2023.2.3,harveyvisual,2.1,[],8,0.75,
0,pause,0.4,None,None,None,0,19,19,19,,,,,,,,,,,,,D002,visual,1,[],"['1', '2', '3', '4']",1,2023.2.3,harveyvisual,2.1,[],8,0.75,
2,dot,0.3,['dot'],['density'],black,0,20,20,20,,,9.40021800994873,9.119446039199829,9.419394969940186,dot,"[0.06, 0.08]","[[0.510744558366804, -0.07965895932329134], [0.5183014925016622, -0.2796299572401246]]",density,black,,,D002,visual,1,[],"['1', '2', '3', '4']",1,2023.2.3,harveyvisual,2.1,[],8,0.75,
0,pause,0.4,None,None,None,0,21,21,21,,,,,,,,,,,,,D002,visual,1,[],"['1', '2', '3', '4']",1,2023.2.3,harveyvisual,2.1,[],8,0.75,
2,dot,0.3,['dot'],['density'],black,0,22,22,22,,,10.100223064422607,9.819400072097778,10.119379043579102,dot,"[0.08, 0.1]","[[0.45098141687762733, -0.20237638590572143], [0.5433504117931098, -0.02475258047346216]]",density,black,,,D002,visual,1,[],"['1', '2', '3', '4']",1,2023.2.3,harveyvisual,2.1,[],8,0.75,
0,pause,0.4,None,None,None,0,23,23,23,,,,,,,,,,,,,D002,visual,1,[],"['1', '2', '3', '4']",1,2023.2.3,harveyvisual,2.1,[],8,0.75,
3,dot,0.3,['dot'],['density'],black,0,24,24,24,,,10.800218105316162,10.519371032714844,10.819403171539307,dot,"[0.1, 0.06, 0.06]","[[-0.3391924794566746, 0.43027756448319565], [-0.33080415183405026, 0.2112686575961512], [-0.14277619127331137, 0.29962579604826906]]",density,black,,,D002,visual,1,[],"['1', '2', '3', '4']",1,2023.2.3,harveyvisual,2.1,[],8,0.75,
0,pause,0.4,None,None,None,0,25,25,25,,,,,,,,,,,,,D002,visual,1,[],"['1', '2', '3', '4']",1,2023.2.3,harveyvisual,2.1,[],8,0.75,
3,dot,0.3,['dot'],['density'],black,0,26,26,26,,,11.500221014022827,11.21943712234497,11.519428014755249,dot,"[0.08, 0.08, 0.08]","[[0.48628142840140876, 0.1515230430224543], [0.28796188866220057, 0.19625725416133796], [0.3371406364253883, -0.002661880310138811]]",density,black,,,D002,visual,1,[],"['1', '2', '3', '4']",1,2023.2.3,harveyvisual,2.1,[],8,0.75,
0,pause,0.4,None,None,None,0,27,27,27,,,,,,,,,,,,,D002,visual,1,[],"['1', '2', '3', '4']",1,2023.2.3,harveyvisual,2.1,[],8,0.75,
3,dot,0.3,['dot'],['density'],black,0,28,28,28,,,12.200210094451904,11.919435977935791,12.219397068023682,dot,"[0.08, 0.08, 0.06]","[[0.3835821938049364, -0.20766469641190155], [0.321707527308891, -0.4175939354614905], [0.1897943789354585, -0.2642367600490923]]",density,black,,,D002,visual,1,[],"['1', '2', '3', '4']",1,2023.2.3,harveyvisual,2.1,[],8,0.75,
0,pause,0.4,None,None,None,0,29,29,29,,,,,,,,,,,,,D002,visual,1,[],"['1', '2', '3', '4']",1,2023.2.3,harveyvisual,2.1,[],8,0.75,
3,dot,0.3,['dot'],['density'],black,0,30,30,30,,,12.900211095809937,12.61940598487854,12.919402122497559,dot,"[0.08, 0.1, 0.06]","[[-0.18534860244577742, 0.5145019772121514], [0.05660586421610542, 0.42456432010350276], [-0.11463700911578348, 0.31489985189225056]]",density,black,,,D002,visual,1,[],"['1', '2', '3', '4']",1,2023.2.3,harveyvisual,2.1,[],8,0.75,
0,pause,0.4,None,None,None,0,31,31,31,,,,,,,,,,,,,D002,visual,1,[],"['1', '2', '3', '4']",1,2023.2.3,harveyvisual,2.1,[],8,0.75,
3,dot,0.3,['dot'],['density'],black,0,32,32,32,,,13.600224018096924,13.319393157958984,13.61934208869934,dot,"[0.08, 0.06, 0.08]","[[-0.09236249555143743, 0.14437879021360575], [0.06053771141254397, 0.008702735453236923], [-0.17336599953316903, -0.04113967592870183]]",density,black,,,D002,visual,1,[],"['1', '2', '3', '4']",1,2023.2.3,harveyvisual,2.1,[],8,0.75,
0,pause,0.4,None,None,None,0,33,33,33,,,,,,,,,,,,,D002,visual,1,[],"['1', '2', '3', '4']",1,2023.2.3,harveyvisual,2.1,[],8,0.75,
3,dot,0.3,['dot'],['density'],black,0,34,34,34,,,14.300209999084473,14.019483089447021,14.319524049758911,dot,"[0.06, 0.06, 0.08]","[[-0.32034981165049564, 0.18083778238314796], [-0.3344619052850136, -0.04022521570367012], [-0.13485517643248812, 0.10330846540140716]]",density,black,,,D002,visual,1,[],"['1', '2', '3', '4']",1,2023.2.3,harveyvisual,2.1,[],8,0.75,
0,pause,0.4,None,None,None,0,35,35,35,,,,,,,,,,,,,D002,visual,1,[],"['1', '2', '3', '4']",1,2023.2.3,harveyvisual,2.1,[],8,0.75,
4,dot,0.3,['dot'],['density'],black,0,36,36,36,,,15.000221014022827,14.719491958618164,15.019495010375977,dot,"[0.08, 0.08, 0.06, 0.08]","[[-0.4771446773377139, 0.25157103962592786], [-0.4259846000875058, -0.15982147080050188], [-0.5514119563937664, 0.017569371675289724], [-0.3400083930451492, 0.09263869595453958]]",density,black,,,D002,visual,1,[],"['1', '2', '3', '4']",1,2023.2.3,harveyvisual,2.1,[],8,0.75,
0,pause,0.4,None,None,None,0,37,37,37,,,,,,,,,,,,,D002,visual,1,[],"['1', '2', '3', '4']",1,2023.2.3,harveyvisual,2.1,[],8,0.75,
4,dot,0.3,['dot'],['density'],black,0,38,38,38,,,15.700221061706543,15.419531106948853,15.71948504447937,dot,"[0.06, 0.08, 0.06, 0.08]","[[-0.264878088602857, 0.22906395790450432], [0.07239228809704809, 0.2615492699427171], [0.10034738543262733, 0.4676118263175188], [-0.09637524959065707, 0.3769302803343899]]",density,black,,,D002,visual,1,[],"['1', '2', '3', '4']",1,2023.2.3,harveyvisual,2.1,[],8,0.75,
0,pause,0.4,None,None,None,0,39,39,39,,,,,,,,,,,,,D002,visual,1,[],"['1', '2', '3', '4']",1,2023.2.3,harveyvisual,2.1,[],8,0.75,
4,dot,0.3,['dot'],['density'],black,0,40,40,40,,,16.40021514892578,16.119502067565918,16.41948699951172,dot,"[0.1, 0.06, 0.06, 0.06]","[[0.0015408600658227804, 0.35051751062746694], [-0.20674122870780898, 0.3211588031025307], [-0.08430622538187964, 0.13383917563087117], [0.1780252705082131, 0.19175915241248492]]",density,black,,,D002,visual,1,[],"['1', '2', '3', '4']",1,2023.2.3,harveyvisual,2.1,[],8,0.75,
0,pause,0.4,None,None,None,0,41,41,41,,,,,,,,,,,,,D002,visual,1,[],"['1', '2', '3', '4']",1,2023.2.3,harveyvisual,2.1,[],8,0.75,
4,dot,0.3,['dot'],['density'],black,0,42,42,42,,,17.100211143493652,16.819257020950317,17.119389057159424,dot,"[0.1, 0.1, 0.08, 0.1]","[[-0.46485289602757673, 0.3603628353310837], [-0.30733625211232357, 0.21626236973196436], [-0.38991578213366157, 0.024479253410336757], [-0.570234662048439, 0.14093512067028166]]",density,black,,,D002,visual,1,[],"['1', '2', '3', '4']",1,2023.2.3,harveyvisual,2.1,[],8,0.75,
0,pause,0.4,None,None,None,0,43,43,43,,,,,,,,,,,,,D002,visual,1,[],"['1', '2', '3', '4']",1,2023.2.3,harveyvisual,2.1,[],8,0.75,
4,dot,0.3,['dot'],['density'],black,0,44,44,44,,,17.800220012664795,17.519208192825317,17.819188117980957,dot,"[0.1, 0.1, 0.06, 0.06]","[[0.041567121943163726, -0.05225384285034155], [-0.0805660347394345, -0.3501797602382367], [-0.1695568067340664, -0.0700859275369407], [0.1361950610904954, -0.2628340353233457]]",density,black,,,D002,visual,1,[],"['1', '2', '3', '4']",1,2023.2.3,harveyvisual,2.1,[],8,0.75,
0,pause,0.4,None,None,None,0,45,45,45,,,,,,,,,,,,,D002,visual,1,[],"['1', '2', '3', '4']",1,2023.2.3,harveyvisual,2.1,[],8,0.75,
4,dot,0.3,['dot'],['density'],black,0,46,46,46,,,18.500214099884033,18.219233989715576,18.51925301551819,dot,"[0.1, 0.06, 0.06, 0.08]","[[-0.1807894278345534, -0.050693892368996955], [-0.03778933673514029, -0.29773510453537966], [0.0747201162679791, -0.1287424711559737], [-0.02241484737224569, 0.07404475448468936]]",density,black,,,D002,visual,1,[],"['1', '2', '3', '4']",1,2023.2.3,harveyvisual,2.1,[],8,0.75,
0,pause,0.4,None,None,None,0,47,47,47,,,,,,,,,,,,,D002,visual,1,[],"['1', '2', '3', '4']",1,2023.2.3,harveyvisual,2.1,[],8,0.75,
5,dot,0.3,['dot'],['density'],black,0,48,48,48,,,19.200209140777588,18.91916298866272,19.21940016746521,dot,"[0.06, 0.1, 0.08, 0.1, 0.08]","[[-0.19096480170835262, 0.2202776521134577], [0.009488999043989208, 0.5721548226574139], [0.16477125949827795, 0.3732973518003487], [0.07476286221063107, 0.1476230553836633], [-0.051949696108355745, 0.36609537475325354]]",density,black,,,D002,visual,1,[],"['1', '2', '3', '4']",1,2023.2.3,harveyvisual,2.1,[],8,0.75,
0,pause,0.4,None,None,None,0,49,49,49,,,,,,,,,,,,,D002,visual,1,[],"['1', '2', '3', '4']",1,2023.2.3,harveyvisual,2.1,[],8,0.75,
5,dot,0.3,['dot'],['density'],black,0,50,50,50,,,19.90022897720337,19.619134187698364,19.919140100479126,dot,"[0.06, 0.08, 0.06, 0.1, 0.1]","[[0.45108699871130137, 0.12052648913612102], [0.3120839015871755, -0.055344110322042436], [0.5361186937318446, -0.08608482415671545], [0.24926945818158194, 0.15209517992691748], [0.3855135356736719, -0.25840400127360613]]",density,black,,,D002,visual,1,[],"['1', '2', '3', '4']",1,2023.2.3,harveyvisual,2.1,[],8,0.75,
0,pause,0.4,None,None,None,0,51,51,51,,,,,,,,,,,,,D002,visual,1,[],"['1', '2', '3', '4']",1,2023.2.3,harveyvisual,2.1,[],8,0.75,
5,dot,0.3,['dot'],['density'],black,0,52,52,52,,,20.600216150283813,20.319202184677124,20.619189977645874,dot,"[0.06, 0.08, 0.06, 0.06, 0.08]","[[-0.0036269740154891753, 0.5431219823242713], [-0.2646325594942043, 0.5073179604697073], [-0.41902475937036154, 0.37311436690984484], [-0.007163214206743488, 0.2887893175302695], [-0.2156098228659233, 0.2684642371109035]]",density,black,,,D002,visual,1,[],"['1', '2', '3', '4']",1,2023.2.3,harveyvisual,2.1,[],8,0.75,
0,pause,0.4,None,None,None,0,53,53,53,,,,,,,,,,,,,D002,visual,1,[],"['1', '2', '3', '4']",1,2023.2.3,harveyvisual,2.1,[],8,0.75,
5,dot,0.3,['dot'],['density'],black,0,54,54,54,,,21.300209045410156,21.019087076187134,21.31907606124878,dot,"[0.1, 0.08, 0.08, 0.1, 0.1]","[[-0.2338402938730933, 0.15846616122991625], [-0.3229678957369872, -0.0901175890533356], [-0.5034912146055804, 0.021834460539281654], [-0.23914892391179104, -0.28496604153387733], [-0.10132718886958789, -0.1172648190903725]]",density,black,,,D002,visual,1,[],"['1', '2', '3', '4']",1,2023.2.3,harveyvisual,2.1,[],8,0.75,
0,pause,0.4,None,None,None,0,55,55,55,,,,,,,,,,,,,D002,visual,1,[],"['1', '2', '3', '4']",1,2023.2.3,harveyvisual,2.1,[],8,0.75,
5,dot,0.3,['dot'],['density'],black,0,56,56,56,,,22.000216960906982,21.719078063964844,22.019062042236328,dot,"[0.06, 0.1, 0.06, 0.06, 0.1]","[[0.10558973120531606, -0.20428866875977839], [-0.0893225412758366, 0.16524926947551877], [-0.05793580974794309, -0.07826743033729393], [0.11130747138107101, 0.10875249109580729], [0.28035132100960686, -0.09064984251937742]]",density,black,,,D002,visual,1,[],"['1', '2', '3', '4']",1,2023.2.3,harveyvisual,2.1,[],8,0.75,
0,pause,0.4,None,None,None,0,57,57,57,,,,,,,,,,,,,D002,visual,1,[],"['1', '2', '3', '4']",1,2023.2.3,harveyvisual,2.1,[],8,0.75,
5,dot,0.3,['dot'],['density'],black,0,58,58,58,,,22.700212001800537,22.419074058532715,22.719045162200928,dot,"[0.1, 0.06, 0.06, 0.06, 0.08]","[[0.2447541601906441, 0.3086669061463178], [0.2085849672204031, -0.04267428248465989], [0.44393754570968663, -0.061602228714441105], [0.027125763574429876, 0.05764502161176834], [0.36879828001487897, 0.1310025380577708]]",density,black,,,D002,visual,1,[],"['1', '2', '3', '4']",1,2023.2.3,harveyvisual,2.1,[],8,0.75,
0,pause,0.4,None,None,None,0,59,59,59,,,,,,,,,,,,,D002,visual,1,[],"['1', '2', '3', '4']",1,2023.2.3,harveyvisual,2.1,[],8,0.75,
6,dot,0.3,['dot'],['density'],black,0,60,60,60,,,23.400232076644897,23.119031190872192,23.419026136398315,dot,"[0.06, 0.08, 0.08, 0.06, 0.06, 0.1]","[[-0.4718675517483807, -0.080313523620691], [-0.31247550484642445, -0.23218356379105512], [-0.2575593735283343, 0.24158811959194182], [-0.2948669609652105, 0.017652028830845004], [-0.0883702388727292, 0.027494606567874856], [-0.45154527444290743, 0.17691331155056722]]",density,black,,,D002,visual,1,[],"['1', '2', '3', '4']",1,2023.2.3,harveyvisual,2.1,[],8,0.75,
0,pause,0.4,None,None,None,0,61,61,61,,,,,,,,,,,,,D002,visual,1,[],"['1', '2', '3', '4']",1,2023.2.3,harveyvisual,2.1,[],8,0.75,
6,dot,0.3,['dot'],['density'],black,0,62,62,62,,,24.10022211074829,23.819032192230225,24.11898899078369,dot,"[0.08, 0.1, 0.1, 0.06, 0.1, 0.1]","[[-0.21871154593458392, 0.523205648483303], [-0.10311842393244862, 0.3355489225101837], [0.008055670172287269, 0.5366903261171385], [0.1303263863168633, 0.3782575370349718], [0.03185769749340688, 0.17145177849191712], [-0.2810167974491763, 0.15418865533644557]]",density,black,,,D002,visual,1,[],"['1', '2', '3', '4']",1,2023.2.3,harveyvisual,2.1,[],8,0.75,
0,pause,0.4,None,None,None,0,63,63,63,,,,,,,,,,,,,D002,visual,1,[],"['1', '2', '3', '4']",1,2023.2.3,harveyvisual,2.1,[],8,0.75,
6,dot,0.3,['dot'],['density'],black,0,64,64,64,,,24.800225973129272,24.519023180007935,24.819013118743896,dot,"[0.1, 0.06, 0.08, 0.1, 0.06, 0.08]","[[-0.521575560759306, -0.09896409503936293], [-0.11005055439098525, 0.007412765662050641], [-0.2691644509192311, -0.32034241736757013], [-0.33082776037640693, 0.11579187391948328], [-0.031037041641207554, -0.21820435357846482], [-0.2943013415457968, -0.09543215727460275]]",density,black,,,D002,visual,1,[],"['1', '2', '3', '4']",1,2023.2.3,harveyvisual,2.1,[],8,0.75,
0,pause,0.4,None,None,None,0,65,65,65,,,,,,,,,,,,,D002,visual,1,[],"['1', '2', '3', '4']",1,2023.2.3,harveyvisual,2.1,[],8,0.75,
6,dot,0.3,['dot'],['density'],black,0,66,66,66,,,25.50022602081299,25.218995094299316,25.51898503303528,dot,"[0.08, 0.06, 0.06, 0.06, 0.1, 0.1]","[[-0.2094991805307552, 0.08302354111181451], [0.09557258300728075, 0.3458622669714129], [0.22056408800171526, -0.017094369341425636], [0.026601936584830878, 0.1297564650757722], [-0.11681768564656844, 0.2726391152528644], [-0.03570146891163527, -0.09222923444939024]]",density,black,,,D002,visual,1,[],"['1', '2', '3', '4']",1,2023.2.3,harveyvisual,2.1,[],8,0.75,
0,pause,0.4,None,None,None,0,67,67,67,,,,,,,,,,,,,D002,visual,1,[],"['1', '2', '3', '4']",1,2023.2.3,harveyvisual,2.1,[],8,0.75,
6,dot,0.3,['dot'],['density'],black,0,68,68,68,,,26.200215101242065,25.919023036956787,26.218995094299316,dot,"[0.1, 0.1, 0.1, 0.08, 0.08, 0.06]","[[-0.560843418842529, -0.11752527585456686], [-0.31277608783648175, 0.04003545118838376], [-0.18207900664359264, -0.3652956678781814], [-0.41442909117718774, -0.4038021739217259], [-0.14446849917993246, -0.07035639226176245], [-0.3420415871796019, -0.1631057353810994]]",density,black,,,D002,visual,1,[],"['1', '2', '3', '4']",1,2023.2.3,harveyvisual,2.1,[],8,0.75,
0,pause,0.4,None,None,None,0,69,69,69,,,,,,,,,,,,,D002,visual,1,[],"['1', '2', '3', '4']",1,2023.2.3,harveyvisual,2.1,[],8,0.75,
6,dot,0.3,['dot'],['density'],black,0,70,70,70,,,26.900220155715942,26.61899995803833,26.91893696784973,dot,"[0.08, 0.06, 0.08, 0.1, 0.1, 0.06]","[[-0.11553075830627273, 0.47698778124428043], [-0.1112787518129194, 0.10456141670764223], [-0.48855705683845824, 0.21494657582805063], [-0.2538299919008863, 0.2532006538804931], [-0.3271837865365474, 0.4662148945367939], [0.006792750312598743, 0.27345996435494924]]",density,black,,,D002,visual,1,[],"['1', '2', '3', '4']",1,2023.2.3,harveyvisual,2.1,[],8,0.75,
0,pause,0.4,None,None,None,0,71,71,71,,,,,,,,,,,,,D002,visual,1,[],"['1', '2', '3', '4']",1,2023.2.3,harveyvisual,2.1,[],8,0.75,
7,dot,0.3,['dot'],['density'],black,0,72,72,72,,,27.600216150283813,27.31898808479309,27.618993997573853,dot,"[0.06, 0.1, 0.1, 0.1, 0.1, 0.06, 0.08]","[[0.06935229908748385, 0.4911641494940837], [-0.19266199922505295, 0.07836852906048222], [0.055274369019684175, 0.020452523162812593], [0.26239471350362015, 0.1001529216481179], [-0.06036973858781391, 0.3360513952533211], [-0.2638544135394649, 0.29089327984911306], [0.14813816713374972, 0.28344041791591096]]",density,black,,,D002,visual,1,[],"['1', '2', '3', '4']",1,2023.2.3,harveyvisual,2.1,[],8,0.75,
0,pause,0.4,None,None,None,0,73,73,73,,,,,,,,,,,,,D002,visual,1,[],"['1', '2', '3', '4']",1,2023.2.3,harveyvisual,2.1,[],8,0.75,
7,dot,0.3,['dot'],['density'],black,0,74,74,74,,,28.300220012664795,28.01898503303528,28.318907022476196,dot,"[0.1, 0.1, 0.06, 0.08, 0.06, 0.08, 0.1]","[[-0.0840690222646118, 0.326581156863932], [0.2873095043411744, 0.40733497502034743], [0.3312644566818162, -0.06338498518608723], [-0.0506181805300269, 0.10889297565070959], [0.1236891467835978, 0.25045991881734525], [0.122473450616654, -0.061936092255746894], [0.3019459967494134, 0.15241064997072415]]",density,black,,,D002,visual,1,[],"['1', '2', '3', '4']",1,2023.2.3,harveyvisual,2.1,[],8,0.75,
0,pause,0.4,None,None,None,0,75,75,75,,,,,,,,,,,,,D002,visual,1,[],"['1', '2', '3', '4']",1,2023.2.3,harveyvisual,2.1,[],8,0.75,
7,dot,0.3,['dot'],['density'],black,0,76,76,76,,,29.000221014022827,28.71890616416931,29.018898963928223,dot,"[0.08, 0.06, 0.08, 0.1, 0.1, 0.1, 0.06]","[[-0.4069355390488937, 0.37207368581823036], [-0.24593577727054447, 0.19917396778247878], [-0.42360727833657225, -0.08003411738888748], [-0.22269992972584096, -0.007913174381400552], [-0.5458110461780458, 0.2006057762678532], [-0.12767295506375728, 0.3689678629588407], [-0.26313434255033313, 0.5223746060296944]]",density,black,,,D002,visual,1,[],"['1', '2', '3', '4']",1,2023.2.3,harveyvisual,2.1,[],8,0.75,
0,pause,0.4,None,None,None,0,77,77,77,,,,,,,,,,,,,D002,visual,1,[],"['1', '2', '3', '4']",1,2023.2.3,harveyvisual,2.1,[],8,0.75,
7,dot,0.3,['dot'],['density'],black,0,78,78,78,,,29.7002170085907,29.41889214515686,29.718878030776978,dot,"[0.1, 0.08, 0.06, 0.08, 0.08, 0.06, 0.06]","[[-0.4123410031792677, -0.32555807737620884], [-0.11281232420725038, -0.2658066965482441], [-0.16970574590124413, 0.10972852905085191], [-0.380148642061964, 0.19816541478521793], [-0.49975943015608576, -0.10400723965324657], [-0.30003386022098844, -0.09340949099572564], [-0.0679185705411078, -0.06780919729272472]]",density,black,,,D002,visual,1,[],"['1', '2', '3', '4']",1,2023.2.3,harveyvisual,2.1,[],8,0.75,
0,pause,0.4,None,None,None,0,79,79,79,,,,,,,,,,,,,D002,visual,1,[],"['1', '2', '3', '4']",1,2023.2.3,harveyvisual,2.1,[],8,0.75,
7,dot,0.3,['dot'],['density'],black,0,80,80,80,,,30.400216102600098,30.118880033493042,30.41885805130005,dot,"[0.06, 0.06, 0.1, 0.08, 0.06, 0.1, 0.08]","[[-0.4069355390488937, 0.37207368581823036], [-0.24593577727054447, 0.19917396778247878], [-0.42360727833657225, -0.08003411738888748], [-0.22269992972584096, -0.007913174381400552], [-0.5458110461780458, 0.2006057762678532], [-0.12767295506375728, 0.3689678629588407], [-0.26313434255033313, 0.5223746060296944]]",density,black,,,D002,visual,1,[],"['1', '2', '3', '4']",1,2023.2.3,harveyvisual,2.1,[],8,0.75,
0,pause,0.4,None,None,None,0,81,81,81,,,,,,,,,,,,,D002,visual,1,[],"['1', '2', '3', '4']",1,2023.2.3,harveyvisual,2.1,[],8,0.75,
7,dot,0.3,['dot'],['density'],black,0,82,82,82,,,31.10021996498108,30.818968057632446,31.11886715888977,dot,"[0.08, 0.08, 0.06, 0.08, 0.06, 0.06, 0.08]","[[-0.15204905838880944, -0.5333107186751418], [-0.1519936835116667, -0.2986813487337615], [0.3123805602017952, -0.370842296180838], [-0.04397638837772695, -0.01669328424437847], [0.11716920447009348, -0.14912816843546053], [0.1067198166566748, -0.5553575834591685], [0.04038917577175449, -0.3541606866516689]]",density,black,,,D002,visual,1,[],"['1', '2', '3', '4']",1,2023.2.3,harveyvisual,2.1,[],8,0.75,
0,pause,0.4,None,None,None,0,83,83,83,,,,,,,,,,,,,D002,visual,1,[],"['1', '2', '3', '4']",1,2023.2.3,harveyvisual,2.1,[],8,0.75,
8,dot,0.3,['dot'],['density'],black,0,84,84,84,,,31.800209999084473,31.518835067749023,31.81879997253418,dot,"[0.1, 0.06, 0.06, 0.1, 0.06, 0.08, 0.08, 0.1]","[[-0.3306282708070712, -0.09459634407206743], [0.17708038186302957, -0.36794437316098305], [-0.34368294577136044, -0.39688855169369486], [-0.16397220561896333, 0.03033928826277653], [-0.08476975953586025, -0.41834960305423746], [-0.16765121495786453, -0.2265743681515788], [0.0449590487082352, -0.10546915507075137], [-0.5574709661459258, -0.15664368712912546]]",density,black,,,D002,visual,1,[],"['1', '2', '3', '4']",1,2023.2.3,harveyvisual,2.1,[],8,0.75,
0,pause,0.4,None,None,None,0,85,85,85,,,,,,,,,,,,,D002,visual,1,[],"['1', '2', '3', '4']",1,2023.2.3,harveyvisual,2.1,[],8,0.75,
8,dot,0.3,['dot'],['density'],black,0,86,86,86,,,32.500231981277466,32.21880102157593,32.51876997947693,dot,"[0.06, 0.1, 0.1, 0.1, 0.06, 0.08, 0.1, 0.06]","[[0.4578461037593053, -0.0425280984807614], [0.3105081462658962, -0.253400778181943], [0.5107466611240274, 0.18303335057259504], [0.05013881804369301, 0.21472050036076742], [0.11913774150617627, -0.046477809882714556], [0.3069987493408211, 0.11186211070896974], [0.10261508471656716, -0.25482825738733483], [-0.08881417545548334, 0.035709595317019026]]",density,black,,,D002,visual,1,[],"['1', '2', '3', '4']",1,2023.2.3,harveyvisual,2.1,[],8,0.75,
0,pause,0.4,None,None,None,0,87,87,87,,,,,,,,,,,,,D002,visual,1,[],"['1', '2', '3', '4']",1,2023.2.3,harveyvisual,2.1,[],8,0.75,
8,dot,0.3,['dot'],['density'],black,0,88,88,88,,,33.20021605491638,32.9187650680542,33.218762159347534,dot,"[0.08, 0.06, 0.08, 0.08, 0.06, 0.06, 0.1, 0.1]","[[0.17295790489511154, -0.46037743866749825], [0.1416591427765588, 0.05421051799673566], [0.21994266958916148, -0.13656690113679631], [0.3639906379971415, 0.0627265571221228], [0.015481321741344221, -0.13916897583717935], [0.440802488837635, -0.2883976186876931], [0.5157567705321767, -0.08800602901884749], [0.24768837887357187, 0.24424825162618136]]",density,black,,,D002,visual,1,[],"['1', '2', '3', '4']",1,2023.2.3,harveyvisual,2.1,[],8,0.75,
0,pause,0.4,None,None,None,0,89,89,89,,,,,,,,,,,,,D002,visual,1,[],"['1', '2', '3', '4']",1,2023.2.3,harveyvisual,2.1,[],8,0.75,
8,dot,0.3,['dot'],['density'],black,0,90,90,90,,,33.90022897720337,33.61878299713135,33.91874313354492,dot,"[0.08, 0.1, 0.06, 0.1, 0.06, 0.08, 0.06, 0.1]","[[0.4578461037593053, -0.0425280984807614], [0.3105081462658962, -0.253400778181943], [0.5107466611240274, 0.18303335057259504], [0.05013881804369301, 0.21472050036076742], [0.11913774150617627, -0.046477809882714556], [0.3069987493408211, 0.11186211070896974], [0.10261508471656716, -0.25482825738733483], [-0.08881417545548334, 0.035709595317019026]]",density,black,,,D002,visual,1,[],"['1', '2', '3', '4']",1,2023.2.3,harveyvisual,2.1,[],8,0.75,
0,pause,0.4,None,None,None,0,91,91,91,,,,,,,,,,,,,D002,visual,1,[],"['1', '2', '3', '4']",1,2023.2.3,harveyvisual,2.1,[],8,0.75,
8,dot,0.3,['dot'],['density'],black,0,92,92,92,,,34.60021901130676,34.31873297691345,34.61871910095215,dot,"[0.06, 0.08, 0.1, 0.06, 0.06, 0.08, 0.1, 0.06]","[[0.016639406518403475, -0.10031965053970064], [-0.49734137941811546, 0.023312718056099104], [0.03171158295547566, 0.2028207856397581], [-0.3777108616291506, 0.18827317115199685], [-0.2734124440264558, -0.20525012861841768], [-0.1742574757978524, 0.04093824739900491], [-0.17815403785603903, 0.26205888083036905], [-0.2502819750276768, 0.4804358206127844]]",density,black,,,D002,visual,1,[],"['1', '2', '3', '4']",1,2023.2.3,harveyvisual,2.1,[],8,0.75,
0,pause,0.4,None,None,None,0,93,93,93,,,,,,,,,,,,,D002,visual,1,[],"['1', '2', '3', '4']",1,2023.2.3,harveyvisual,2.1,[],8,0.75,
8,dot,0.3,['dot'],['density'],black,0,94,94,94,,,35.30022096633911,35.01875305175781,35.31871318817139,dot,"[0.06, 0.1, 0.08, 0.1, 0.08, 0.1, 0.1, 0.08]","[[0.17295790489511154, -0.46037743866749825], [0.1416591427765588, 0.05421051799673566], [0.21994266958916148, -0.13656690113679631], [0.3639906379971415, 0.0627265571221228], [0.015481321741344221, -0.13916897583717935], [0.440802488837635, -0.2883976186876931], [0.5157567705321767, -0.08800602901884749], [0.24768837887357187, 0.24424825162618136]]",density,black,,,D002,visual,1,[],"['1', '2', '3', '4']",1,2023.2.3,harveyvisual,2.1,[],8,0.75,
0,pause,0.4,None,None,None,0,95,95,95,,,,,,,,,,,,,D002,visual,1,[],"['1', '2', '3', '4']",1,2023.2.3,harveyvisual,2.1,[],8,0.75,
9,dot,0.3,['dot'],['density'],black,0,96,96,96,,,36.00023317337036,35.71870017051697,36.01867699623108,dot,"[0.06, 0.08, 0.1, 0.08, 0.06, 0.1, 0.06, 0.1, 0.1]","[[-0.03413633707233166, 0.539775862693792], [0.03045342777742709, 0.14881397110038386], [0.3968101769942594, 0.3516381959676015], [-0.12464897846505978, 0.27513009849494485], [0.24828272947848068, 0.13372878599656182], [0.1825630446668698, 0.5466865974155928], [-0.40057775338259505, 0.3148646888607764], [0.06988801613907401, -0.06658504348068199], [0.07277149512897427, 0.3699912437376705]]",density,black,,,D002,visual,1,[],"['1', '2', '3', '4']",1,2023.2.3,harveyvisual,2.1,[],8,0.75,
0,pause,0.4,None,None,None,0,97,97,97,,,,,,,,,,,,,D002,visual,1,[],"['1', '2', '3', '4']",1,2023.2.3,harveyvisual,2.1,[],8,0.75,
9,dot,0.3,['dot'],['density'],black,0,98,98,98,,,36.70022916793823,36.41873598098755,36.71871304512024,dot,"[0.1, 0.08, 0.06, 0.1, 0.08, 0.1, 0.06, 0.1, 0.06]","[[-0.01550530976013749, -0.4685693709261764], [-0.18673980358629047, -0.03677939788938074], [-0.492500386343057, -0.31631588298646995], [-0.31211872613566405, -0.49615226168915794], [-0.29213402726227655, -0.2779210730957987], [-0.48141959868665407, -0.11483975315711048], [0.2805727548720413, -0.20550850813502752], [-0.0662162642732561, -0.2200496541038322], [0.06776853683421198, -0.046300179137656175]]",density,black,,,D002,visual,1,[],"['1', '2', '3', '4']",1,2023.2.3,harveyvisual,2.1,[],8,0.75,
0,pause,0.4,None,None,None,0,99,99,99,,,,,,,,,,,,,D002,visual,1,[],"['1', '2', '3', '4']",1,2023.2.3,harveyvisual,2.1,[],8,0.75,
9,dot,0.3,['dot'],['density'],black,0,100,100,100,,,37.40023708343506,37.11869716644287,37.41866707801819,dot,"[0.06, 0.1, 0.1, 0.1, 0.06, 0.06, 0.08, 0.08, 0.06]","[[-0.08830733675648182, -0.32541118850070216], [0.2573655446525002, -0.0029570100823114536], [0.27547652153196345, -0.34332263321768475], [-0.10322368112243578, -0.12113330350182801], [-0.09512634339583304, 0.07974184968350245], [0.1087639633701519, -0.14934854126711464], [-0.2976800736237512, -0.022953619774800198], [0.014308470788770018, -0.5004438889851849], [-0.3557422450128242, -0.24953541402881954]]",density,black,,,D002,visual,1,[],"['1', '2', '3', '4']",1,2023.2.3,harveyvisual,2.1,[],8,0.75,
0,pause,0.4,None,None,None,0,101,101,101,,,,,,,,,,,,,D002,visual,1,[],"['1', '2', '3', '4']",1,2023.2.3,harveyvisual,2.1,[],8,0.75,
9,dot,0.3,['dot'],['density'],black,0,102,102,102,,,38.10023498535156,37.8186821937561,38.11866617202759,dot,"[0.06, 0.1, 0.06, 0.08, 0.08, 0.06, 0.08, 0.08, 0.06]","[[0.050129075631511706, -0.29659829200500587], [0.1522424042566208, -0.02012498145544232], [-0.31773020450764894, 0.09756431981266957], [-0.25388767024787284, -0.20865833148222632], [-0.06549152868915667, -0.10253084504872755], [-0.047012852932693645, 0.11741599898337682], [0.26526013051082903, -0.18996189821299347], [0.2442588296558726, 0.17404051307925203], [0.053323608967773835, 0.34462047536600726]]",density,black,,,D002,visual,1,[],"['1', '2', '3', '4']",1,2023.2.3,harveyvisual,2.1,[],8,0.75,
0,pause,0.4,None,None,None,0,103,103,103,,,,,,,,,,,,,D002,visual,1,[],"['1', '2', '3', '4']",1,2023.2.3,harveyvisual,2.1,[],8,0.75,
9,dot,0.3,['dot'],['density'],white,0,104,104,104,,,38.800235986709595,38.51866316795349,38.81865215301514,dot,"[0.1, 0.08, 0.08, 0.1, 0.08, 0.08, 0.1, 0.1, 0.08]","[[-0.011980588702785358, -0.14271344386551676], [-0.15345504415890063, -0.3599837049237609], [0.2909474261289129, -0.3591516282942406], [0.16239073734315843, -0.5386624114967425], [0.2227638828830022, -0.11271380419745088], [0.06426208015886789, 0.04859175461581491], [-0.3648571389210414, -0.3413683676300365], [0.3831858227582706, 0.019718563726728144], [0.06479696894599615, -0.3534524636945761]]",density,white,,,D002,visual,1,[],"['1', '2', '3', '4']",1,2023.2.3,harveyvisual,2.1,[],8,0.75,
0,pause,0.4,None,None,None,0,105,105,105,,,,,,,,,,,1,38.96570086479187,D002,visual,1,[],"['1', '2', '3', '4']",1,2023.2.3,harveyvisual,2.1,[],8,0.75,
9,dot,0.3,['dot'],['density'],black,0,106,106,106,,,39.500226974487305,39.218611001968384,39.518604040145874,dot,"[0.06, 0.06, 0.08, 0.08, 0.06, 0.1, 0.06, 0.08, 0.1]","[[0.23250081832313607, -0.03448075506690146], [0.3034476098774822, 0.1830296703973891], [-0.18904104685434053, 0.18833284185042862], [0.2553794676357457, 0.5314352583170906], [0.16363099535363254, 0.3461022642192175], [-0.0841935017478271, 0.3664174397160571], [-0.26748786402911323, -0.05736109653727262], [0.043842773669028334, 0.577246673499167], [0.02102957219118283, 0.0979254794926055]]",density,black,,,D002,visual,1,[],"['1', '2', '3', '4']",1,2023.2.3,harveyvisual,2.1,[],8,0.75,
0,pause,0.4,None,None,None,0,107,107,107,,,,,,,,,,,,,D002,visual,1,[],"['1', '2', '3', '4']",1,2023.2.3,harveyvisual,2.1,[],8,0.75,
20,dot,0.3,['dot'],['density'],black,0,108,108,108,,,40.200234174728394,39.918795108795166,40.218778133392334,dot,"[0.1, 0.06, 0.06, 0.08, 0.08, 0.1, 0.08, 0.06, 0.08, 0.08, 0.06, 0.08, 0.08, 0.08, 0.1, 0.08, 0.06, 0.08, 0.08, 0.06]","[[-0.455089869130499, 0.09151595501689752], [0.4330976518862252, -0.2927523552325274], [0.2667981889421217, -0.057845265252980616], [-0.33822728019769255, 0.2945669691626446], [-0.5523083387199683, -0.24549338469324133], [0.2515789667773837, 0.39342410781133574], [0.3566230332474437, 0.12431724439547776], [0.5792037660305304, -0.1461883390400948], [-0.05176125924712327, -0.19119141367450926], [0.17407153978504852, -0.5035219573370134], [0.043330278957105284, 0.05384214773279439], [-0.17282161566973142, 0.5665283352256187], [0.5515172109478254, 0.14915066762087512], [-0.1635472952689836, -0.40596227978511173], [-0.0023078190587539904, -0.5807574426025242], [-0.054606432546428496, 0.41791049000634795], [0.14382877198306177, -0.2120650021944011], [-0.2869168506637892, -0.14664407731211615], [0.46771246543379597, 0.32678537106135147], [-0.17719773249098075, 0.13188897568136093]]",density,black,,,D002,visual,1,[],"['1', '2', '3', '4']",1,2023.2.3,harveyvisual,2.1,[],8,0.75,
0,pause,0.4,None,None,None,0,109,109,109,,,,,,,,,,,,,D002,visual,1,[],"['1', '2', '3', '4']",1,2023.2.3,harveyvisual,2.1,[],8,0.75,
20,dot,0.3,['dot'],['density'],black,0,110,110,110,,,40.900227069854736,40.61874318122864,40.91873502731323,dot,"[0.1, 0.08, 0.1, 0.06, 0.08, 0.1, 0.06, 0.1, 0.06, 0.1, 0.06, 0.1, 0.1, 0.08, 0.08, 0.1, 0.08, 0.06, 0.06, 0.06]","[[-0.37878362037629365, 0.16372134300078256], [0.13399628639541172, 0.14543186400452113], [0.1469822445041653, -0.21427040373704948], [-0.22404384030503832, 0.477771664819701], [-0.5187454854369674, -0.20495400007086234], [-0.17864285002314684, -0.17566337773415935], [0.36134518331161014, -0.29125979606147345], [-0.030114607577857222, -0.5218489216797331], [-0.282759432178675, -0.3653621009769165], [0.5368584387075189, -0.004645643442574676], [-0.5782020561175883, 0.08476324252040382], [0.48399620365645435, 0.20515331155245314], [0.026129183720480897, 0.48187525224165606], [-0.07299568629250575, 0.10523902387308948], [0.34516139034177495, 0.3658314752871016], [0.29085911432026, -0.4883742808718794], [-0.1167936223830946, 0.3021609095665174], [0.2444242873671365, -0.013756540022360486], [-0.48244654252855024, 0.3258172814869149], [0.1476970093370824, 0.33523770186833013]]",density,black,,,D002,visual,1,[],"['1', '2', '3', '4']",1,2023.2.3,harveyvisual,2.1,[],8,0.75,
0,pause,0.4,None,None,None,0,111,111,111,,,,,,,,,,,,,D002,visual,1,[],"['1', '2', '3', '4']",1,2023.2.3,harveyvisual,2.1,[],8,0.75,
20,dot,0.3,['dot'],['density'],white,0,112,112,112,,,41.60023212432861,41.318742990493774,41.61870098114014,dot,"[0.1, 0.08, 0.1, 0.1, 0.08, 0.1, 0.1, 0.08, 0.1, 0.08, 0.1, 0.1, 0.08, 0.1, 0.08, 0.1, 0.1, 0.1, 0.06, 0.08]","[[0.43235343230822376, -0.39875323402144003], [-0.19357261971859513, -0.37721010065257676], [-0.02070473458543931, 0.3172554445303071], [0.23318051437288934, -0.3493499601812785], [0.2238652768227568, -0.12856227374194368], [0.3127333843230725, 0.3939859118389931], [-0.27619214274250625, 0.09026740744857775], [0.4026814877082766, 0.22569863325614248], [-0.05333506313166658, -0.08282554916868246], [0.21974766268343648, 0.15936084052524724], [-0.4947938851989911, -0.18842945592009794], [-0.028166962974030763, -0.5946579341480565], [0.5585446322983, 0.09089983785140635], [0.45145071756125865, -0.1708741245300116], [0.07246135935540421, 0.5622153536377918], [-0.4699708687395271, 0.008418395329879202], [-0.3823574689310467, -0.3560549694450721], [-0.30746827120914416, 0.4823819291228364], [-0.2900585644672175, -0.13305403934738308], [-0.0032507701571106162, -0.4010090630628545]]",density,white,,,D002,visual,1,[],"['1', '2', '3', '4']",1,2023.2.3,harveyvisual,2.1,[],8,0.75,
0,pause,0.4,None,None,None,0,113,113,113,,,,,,,,,,,,,D002,visual,1,[],"['1', '2', '3', '4']",1,2023.2.3,harveyvisual,2.1,[],8,0.75,
20,dot,0.3,['dot'],['density'],black,0,114,114,114,,,42.300235986709595,42.01870799064636,42.318732023239136,dot,"[0.1, 0.08, 0.1, 0.08, 0.08, 0.06, 0.08, 0.08, 0.08, 0.06, 0.08, 0.08, 0.08, 0.08, 0.06, 0.08, 0.1, 0.08, 0.08, 0.08]","[[0.3736924015966887, 0.23188415412898095], [-0.2521373630735783, 0.004887143563411023], [0.5811953996133107, -0.13602926764428586], [-0.4832192556231723, 0.10027346520328112], [0.1192035934694815, -0.4455074095323498], [-0.048818756430113575, 0.0031134986647550766], [-0.3886640087612876, -0.3843388701992701], [-0.5532812813363287, -0.24029315082523206], [-0.06164755271560385, 0.57485698073192], [-0.4175620974799952, 0.30376500544127766], [-0.10575215455667669, -0.5216212145715347], [0.3103476501828444, -0.3927072167435165], [-0.25487188665292515, 0.4553386629898988], [0.21249358003806318, 0.03822126166194939], [0.45493821208438845, 0.023594231181697845], [-0.24750834475269418, -0.24842744149181173], [0.1295076881096362, 0.47169191322923787], [0.35840238810626124, 0.4469671812394647], [0.04594755631173686, 0.26050235799522103], [0.5798212066280736, 0.16800594945761152]]",density,black,,,D002,visual,1,[],"['1', '2', '3', '4']",1,2023.2.3,harveyvisual,2.1,[],8,0.75,
0,pause,0.4,None,None,None,0,115,115,115,,,,,,,,,,,,,D002,visual,1,[],"['1', '2', '3', '4']",1,2023.2.3,harveyvisual,2.1,[],8,0.75,
20,dot,0.3,['dot'],['density'],black,0,116,116,116,,,43.00021004676819,42.71875596046448,43.018736124038696,dot,"[0.06, 0.1, 0.06, 0.1, 0.1, 0.1, 0.08, 0.1, 0.08, 0.08, 0.08, 0.06, 0.06, 0.1, 0.06, 0.08, 0.06, 0.1, 0.08, 0.08]","[[0.21856463981597718, 0.4932847039092978], [0.024797104259118852, -0.576762686833781], [-0.09063443599020715, -0.1591720221888775], [0.5392803089008115, 0.24168213994226145], [-0.5785622014137486, -0.005833202037305502], [-0.3373000039465606, -0.1720228442537911], [-0.33123027636037095, 0.40241544137481444], [-0.39707375632669045, -0.42148706853981094], [0.13655226332033277, -0.2243927766428911], [0.4519366944799189, -0.3787576183039948], [0.09867777750836493, 0.2575358559917661], [-0.301145028546679, 0.15462622122185388], [0.27805960492798343, -0.5308107914483853], [0.5602849875414778, -0.15945121800376766], [-0.0100848964077902, 0.5975923595773971], [0.3214654568870171, 0.15771089563639007], [-0.4885321272669174, 0.22663749669794298], [0.32647979482417433, -0.22916047807027456], [-0.09782377128311026, -0.4228056612101867], [-0.2192230388963461, 0.5596011892510266]]",density,black,,,D002,visual,1,[],"['1', '2', '3', '4']",1,2023.2.3,harveyvisual,2.1,[],8,0.75,
0,pause,0.4,None,None,None,0,117,117,117,,,,,,,,,,,,,D002,visual,1,[],"['1', '2', '3', '4']",1,2023.2.3,harveyvisual,2.1,[],8,0.75,
20,dot,0.3,['dot'],['density'],black,0,118,118,118,,,43.70021915435791,43.41874599456787,43.718722105026245,dot,"[0.08, 0.06, 0.1, 0.06, 0.1, 0.1, 0.06, 0.08, 0.08, 0.1, 0.1, 0.08, 0.1, 0.06, 0.06, 0.1, 0.1, 0.08, 0.06, 0.1]","[[0.5966152251288249, -0.05421393679352367], [0.2740303690831146, -0.06998177581864512], [-0.28879327871106963, 0.37127432384196446], [0.41618438666524626, 0.3154926023995848], [0.23232065670045443, 0.2519676082167309], [-0.5051429122717233, -0.1365989284357781], [-0.46061525690982974, 0.21266803255105715], [0.08900155314634439, 0.4739500788791199], [0.5429622469150049, -0.2601010987183476], [-0.3163488942601509, -0.40359537642259674], [0.018392641934851794, -0.2567041588825039], [-0.11384717155483848, 0.5781470857268247], [0.46762929915251206, 0.0963073237501651], [-0.08199522835624284, -0.505110628857732], [0.26629132557818325, -0.4641923520034406], [-0.3189444960778871, -0.05544391923246883], [-0.19300966700832256, 0.08741260843220022], [-0.08699134687387489, 0.2743759235225227], [0.08916766737818638, 0.022908803487543317], [-0.5792790861136963, 0.03959007775759246]]",density,black,,,D002,visual,1,[],"['1', '2', '3', '4']",1,2023.2.3,harveyvisual,2.1,[],8,0.75,
0,pause,0.4,None,None,None,0,119,119,119,,,,,,,,,,,,,D002,visual,1,[],"['1', '2', '3', '4']",1,2023.2.3,harveyvisual,2.1,[],8,0.75,
20,dot,0.3,['dot'],['density'],black,0,120,120,120,,,44.40021896362305,44.11874318122864,44.41854500770569,dot,"[0.1, 0.1, 0.08, 0.08, 0.08, 0.06, 0.1, 0.1, 0.06, 0.1, 0.08, 0.08, 0.08, 0.1, 0.06, 0.08, 0.08, 0.06, 0.1, 0.08]","[[0.37141986736673294, 0.15997392053979875], [-0.4009438368889203, -0.15960343589186543], [0.16669968160012127, -0.10782190973225747], [0.07128087486208301, -0.2768598620127775], [0.3299437501527932, -0.35010507641270133], [0.01591582066351227, -0.5143274778378377], [-0.30751187004507324, 0.23700008043414167], [-0.5724416444884955, 0.12425417689566973], [0.004062078468942132, 0.5681119801191757], [-0.2883741503448936, -0.4396898167430653], [0.5874927546754248, -0.04094250229055267], [0.16883476346236204, 0.38845644511379296], [-0.0412822450487057, 0.20752659225792236], [0.4667581967840505, 0.3496535222854309], [0.154544570342104, 0.13705717945846907], [-0.4761942719147113, -0.3643617861847802], [-0.3437005297674176, 0.4299510409436916], [0.3962159653123166, -0.12497402951289571], [-0.3387737135328787, 0.04425063714358046], [-0.12626538932381914, -0.14655977870164894]]",density,black,,,D002,visual,1,[],"['1', '2', '3', '4']",1,2023.2.3,harveyvisual,2.1,[],8,0.75,
0,pause,0.4,None,None,None,0,121,121,121,,,,,,,,,,,,,D002,visual,1,[],"['1', '2', '3', '4']",1,2023.2.3,harveyvisual,2.1,[],8,0.75,
20,dot,0.3,['dot'],['density'],black,0,122,122,122,,,45.10023498535156,44.81846618652344,45.11846113204956,dot,"[0.08, 0.08, 0.1, 0.08, 0.08, 0.1, 0.08, 0.08, 0.08, 0.1, 0.1, 0.08, 0.1, 0.1, 0.1, 0.06, 0.1, 0.1, 0.08, 0.1]","[[0.32141938766736233, -0.40025954496518357], [0.4260320811499302, 0.3274619594822706], [0.20561035946477024, 0.25333490936769465], [-0.09046495183046, 0.3782551089876919], [-0.4909127605483582, 0.09660493929684594], [0.512052489166911, 0.007377907270709361], [-0.1825668086689602, -0.3977254283486122], [-0.212706752622019, 0.09024347370080643], [-0.022036325607079577, -0.12775477703101246], [-0.14372371949409374, 0.57816836871628], [0.008519595956520631, 0.16416411375494555], [-0.33847969386483073, -0.11395625141181193], [-0.4575197439315881, -0.28906663562640933], [0.11945600605780604, 0.4641292134966266], [0.5404949111777312, -0.2576260057204366], [-0.39789305304301936, 0.2656881151715069], [0.1874192026491277, -0.026868881997683225], [0.12611692643797312, -0.5144044615642438], [-0.5857956422942043, -0.10964440361896224], [0.005822378301894471, -0.3333605327276568]]",density,black,,,D002,visual,1,[],"['1', '2', '3', '4']",1,2023.2.3,harveyvisual,2.1,[],8,0.75,
0,pause,0.4,None,None,None,0,123,123,123,,,,,,,,,,,,,D002,visual,1,[],"['1', '2', '3', '4']",1,2023.2.3,harveyvisual,2.1,[],8,0.75,
20,dot,0.3,['dot'],['density'],black,0,124,124,124,,,45.80022096633911,45.5184440612793,45.81844115257263,dot,"[0.06, 0.08, 0.1, 0.06, 0.1, 0.08, 0.08, 0.08, 0.08, 0.1, 0.08, 0.1, 0.1, 0.1, 0.06, 0.1, 0.08, 0.08, 0.08, 0.08]","[[-0.1947098989822985, 0.34435862898361913], [-0.1618869959223786, 0.141805039498621], [0.5699603227545665, 0.022636643254638072], [0.29213047042591034, 0.20017622108035993], [0.4181570934982185, 0.3937873708924737], [0.38502246773673665, -0.41767772281746174], [-0.3622712345663365, -0.35515986302606994], [-0.06357504984172513, -0.5926676652005255], [-0.25201441798611113, -0.08727101795094627], [-0.1415278081510175, -0.3582221172926279], [-0.4730984570612692, 0.3748131900326419], [-0.5680566201586663, 0.007139969459788842], [0.0342082911539775, 0.0779623227701467], [0.5629969592764928, -0.1835535991028755], [0.07775656458786628, -0.2660452543389305], [-0.12882033925683045, 0.5647756041775537], [0.3116081223677777, -0.09745038006967466], [0.16434099970051042, -0.5329118584778396], [0.07861764694888818, 0.3346551013531127], [-0.48472781289190825, -0.17193127879621783]]",density,black,,,D002,visual,1,[],"['1', '2', '3', '4']",1,2023.2.3,harveyvisual,2.1,[],8,0.75,
0,pause,0.4,None,None,None,0,125,125,125,,,,,,,,,,,,,D002,visual,1,[],"['1', '2', '3', '4']",1,2023.2.3,harveyvisual,2.1,[],8,0.75,
20,dot,0.3,['dot'],['density'],black,0,126,126,126,,,46.50023603439331,46.218417167663574,46.51839900016785,dot,"[0.08, 0.1, 0.08, 0.1, 0.06, 0.1, 0.1, 0.06, 0.08, 0.08, 0.08, 0.06, 0.06, 0.1, 0.08, 0.08, 0.06, 0.08, 0.1, 0.08]","[[-0.26647123457761224, 0.37303060376246666], [0.024426384930032685, -0.49732791952946387], [-0.5765104071767075, -0.047082163349320194], [0.31993780289440954, 0.4494681349417361], [-0.2663518475806164, -0.25142110597599027], [0.09524897888316985, 0.5746171461229092], [-0.06691640688223555, 0.05922908042443864], [0.29616111108564414, 0.0588431149220926], [0.39194888520418425, -0.4051614840194075], [-0.1882070460319673, -0.4381886468157296], [0.04965895958910571, -0.28239977186221404], [-0.00424273458994906, 0.36822695788349125], [0.5856921209728178, -0.09785114384992116], [-0.3704711109906162, -0.03979400828671387], [0.5260622969511201, 0.28983094974849044], [0.11705964260761814, 0.1241450097527792], [-0.4268363797614153, 0.16455242961008432], [0.5439478251663953, 0.08890744762523412], [0.23395519101279327, -0.5400868641501408], [-0.4470505815690302, -0.32298251439766296]]",density,black,,,D002,visual,1,[],"['1', '2', '3', '4']",1,2023.2.3,harveyvisual,2.1,[],8,0.75,
0,pause,0.4,None,None,None,0,127,127,127,,,,,,,,,,,,,D002,visual,1,[],"['1', '2', '3', '4']",1,2023.2.3,harveyvisual,2.1,[],8,0.75,
20,dot,0.3,['dot'],['density'],black,0,128,128,128,,,47.2002170085907,46.91841197013855,47.21838903427124,dot,"[0.1, 0.08, 0.1, 0.08, 0.08, 0.08, 0.06, 0.06, 0.1, 0.06, 0.06, 0.06, 0.06, 0.06, 0.08, 0.1, 0.1, 0.08, 0.06, 0.1]","[[0.21424536692642704, 0.3012784396949728], [-0.03231617874607273, 0.031489872777635264], [-0.16001034654587964, -0.24455647780335565], [-0.0021293011215782753, -0.3699513935254443], [-0.3041102299869301, -0.5226540069365511], [-0.42602386855021535, 0.12868871473928667], [-0.21143410914284755, 0.48346133606889563], [0.03906727903493912, -0.5794673607339581], [-0.48043314179051366, -0.1928063572477225], [0.42330415341888405, 0.34321763181465703], [0.4561481732901519, -0.20122368566840615], [0.2348999965763373, 0.00030018734526593427], [-0.2500718017037126, 0.0056018716471633034], [0.4640149793481848, 0.014535432356874933], [-0.4474898516822571, 0.36306427299667454], [0.09277715679857201, -0.15179958139140753], [0.14055765657587616, 0.5798520071503978], [0.23317498175479656, -0.5492185541103344], [-0.6027412508454218, 0.03144736070293939], [-0.18579682553893145, 0.2877626364090935]]",density,black,,,D002,visual,1,[],"['1', '2', '3', '4']",1,2023.2.3,harveyvisual,2.1,[],8,0.75,
0,pause,0.4,None,None,None,0,129,129,129,,,,,,,,,,,,,D002,visual,1,[],"['1', '2', '3', '4']",1,2023.2.3,harveyvisual,2.1,[],8,0.75,
20,dot,0.3,['dot'],['density'],black,0,130,130,130,,,47.90023398399353,47.61838912963867,47.91836500167847,dot,"[0.06, 0.06, 0.1, 0.06, 0.08, 0.1, 0.06, 0.08, 0.06, 0.1, 0.1, 0.08, 0.06, 0.06, 0.08, 0.1, 0.08, 0.06, 0.1, 0.08]","[[-0.5267068950825924, -0.1991003538156048], [-0.022789003549316678, -0.4486576998882076], [-0.5258216010409742, 0.2079890440702824], [-0.030805534632291964, 0.28783664352181215], [0.36899298645140866, -0.4578533436731354], [-0.10220587840345507, -0.15431175223235544], [-0.16403789766995064, 0.4886838543066778], [0.3795892455536657, 0.46587197007221987], [0.4843091430293579, -0.2616846518938967], [-0.45340883842699536, 0.011579666484469398], [-0.2028099798341782, 0.09419131307563189], [0.1323765048951453, 0.4613072287972153], [0.4049491212184483, 0.03937047022454537], [0.15088608937494308, -0.005444546121078142], [0.22345627314794936, -0.20815758701364073], [0.597936500528529, -0.039377129541026845], [0.3860177645134404, 0.2498858116381873], [-0.2706910762043159, -0.33170446170653634], [-0.31281815725422035, 0.3448604727187563], [0.5693768026255456, 0.18437645123037188]]",density,black,,,D002,visual,1,[],"['1', '2', '3', '4']",1,2023.2.3,harveyvisual,2.1,[],8,0.75,
0,pause,0.4,None,None,None,0,131,131,131,,,,,,,,,,,,,D002,visual,1,[],"['1', '2', '3', '4']",1,2023.2.3,harveyvisual,2.1,[],8,0.75,
20,dot,0.3,['dot'],['density'],black,0,132,132,132,,,48.600224018096924,48.318371057510376,48.61837410926819,dot,"[0.06, 0.1, 0.1, 0.1, 0.08, 0.08, 0.1, 0.06, 0.06, 0.06, 0.06, 0.1, 0.08, 0.08, 0.08, 0.06, 0.1, 0.08, 0.08, 0.08]","[[0.060602056557468864, 0.5003486477758277], [-0.5665377752789397, 0.17381249268197285], [-0.09801846277774362, 0.2999511544935892], [0.5355698712619593, -0.12736816127132455], [0.45911614930447386, 0.359864288270074], [-0.10540135010546625, -0.2927799076799086], [0.3370515638592204, -0.3167219766160503], [0.26219183184185035, 0.2012638527564249], [-0.5888174550367867, -0.1068302512605371], [-0.05240594426326284, 0.04866804087543086], [-0.2874219151574745, 0.4868034399239428], [-0.3174533821269332, -0.0669878893613805], [0.34742958430834214, -0.09050625386039307], [-0.34409768946717645, -0.35140734103734217], [-0.007929252419324295, -0.5341087452833612], [0.22203633833296155, -0.523090199347573], [-0.47546053814062395, 0.34764307560508906], [0.5250137376714142, 0.10814036024985146], [0.06718592194046191, -0.14889754277214495], [0.27278162608725165, 0.5221640085071514]]",density,black,,,D002,visual,1,[],"['1', '2', '3', '4']",1,2023.2.3,harveyvisual,2.1,[],8,0.75,
0,pause,0.4,None,None,None,0,133,133,133,,,,,,,,,,,,,D002,visual,1,[],"['1', '2', '3', '4']",1,2023.2.3,harveyvisual,2.1,[],8,0.75,
20,dot,0.3,['dot'],['density'],black,0,134,134,134,,,49.30023717880249,49.01841616630554,49.31838917732239,dot,"[0.1, 0.06, 0.06, 0.1, 0.1, 0.06, 0.1, 0.08, 0.08, 0.1, 0.08, 0.06, 0.06, 0.08, 0.06, 0.1, 0.08, 0.06, 0.06, 0.1]","[[-0.12525911099728082, -0.032606726959022], [-0.5384678963722481, 0.18575703333327398], [0.5263627965206813, -0.12686997840811937], [-0.014395486857012751, 0.4253511390320007], [-0.4429498199997217, -0.04861851981768894], [0.4426857326464634, 0.4091421601856056], [0.08450115337209374, -0.06708176797974874], [-0.4554179047461521, -0.30777477881343807], [0.5499425924085225, 0.2517092757566116], [0.025597700909923415, 0.15486082860068084], [0.20721761893089385, -0.3095984613260174], [-0.08631287556603362, -0.29839191766537515], [-0.33628725073002247, 0.21419510001948472], [0.3409170657783376, 0.20868168822643607], [-0.20168339633966298, -0.5210504089627643], [-0.01001635585933447, -0.534757219258446], [-0.3895341554690708, 0.43375585352866375], [0.19560976926653484, 0.33576292361242543], [0.3277357662287481, -0.15788667744522655], [0.16735098282452576, 0.5351121627944267]]",density,black,,,D002,visual,1,[],"['1', '2', '3', '4']",1,2023.2.3,harveyvisual,2.1,[],8,0.75,
0,pause,0.4,None,None,None,0,135,135,135,,,,,,,,,,,,,D002,visual,1,[],"['1', '2', '3', '4']",1,2023.2.3,harveyvisual,2.1,[],8,0.75,
20,dot,0.3,['dot'],['density'],black,0,136,136,136,,,50.00024104118347,49.71831798553467,50.018354177474976,dot,"[0.06, 0.1, 0.06, 0.06, 0.06, 0.06, 0.1, 0.1, 0.1, 0.08, 0.1, 0.06, 0.06, 0.1, 0.06, 0.1, 0.1, 0.08, 0.08, 0.06]","[[-0.3456285945187665, 0.0588977534383508], [0.24460782731154607, 0.2580441884643694], [-0.15935933684247516, -0.31641577143493865], [-0.20767953971430025, -0.5098264222848383], [-0.1943243876454136, 0.32264917999804676], [0.2942539315507854, -0.4268464706565672], [0.3792943661765735, 0.0717166705102476], [-0.02161254545406477, 0.08330362994763185], [-0.43132935450368703, -0.3547239561602189], [0.5332784436865233, -0.27237724835774463], [0.1622423920689583, -0.19736689097004662], [0.04604832401463377, -0.5395338658786215], [-0.0020281223655577163, 0.41583752762557324], [0.5123061804586625, 0.2136675723965767], [-0.5020071700330757, -0.16388981269825803], [-0.6029314984755765, 0.044674742700499225], [-0.5117215781107325, 0.21592667264133808], [-0.12321872816814095, 0.5729618431258325], [-0.028447828815978515, -0.11515384192172828], [0.543146781219875, -0.07490849677080089]]",density,black,,,D002,visual,1,[],"['1', '2', '3', '4']",1,2023.2.3,harveyvisual,2.1,[],8,0.75,
0,pause,0.4,None,None,None,0,137,137,137,,,,,,,,,,,,,D002,visual,1,[],"['1', '2', '3', '4']",1,2023.2.3,harveyvisual,2.1,[],8,0.75,
20,dot,0.3,['dot'],['density'],black,0,138,138,138,,,50.70022797584534,50.418307065963745,50.71829319000244,dot,"[0.1, 0.06, 0.1, 0.1, 0.1, 0.1, 0.08, 0.06, 0.1, 0.08, 0.1, 0.08, 0.1, 0.06, 0.08, 0.08, 0.1, 0.06, 0.08, 0.1]","[[-0.3994736747932105, 0.05830868569595965], [-0.5513004941845204, 0.17534188103378662], [-0.2777688698929542, -0.33600177623010574], [0.15592507359674246, -0.52334452540773], [0.4668158761123581, -0.22761774899644485], [0.05995853301644827, 0.5241123068311208], [-0.06045192212562989, 0.09960835045134031], [0.2548121587367982, 0.0038119450715635717], [0.34049912038215435, 0.35596492108204136], [-0.17612236697949502, 0.5787341910442971], [-0.5308853313499928, -0.18927395080386544], [-0.21945030984765695, 0.26334319204496937], [0.5486757044016316, 0.16321458356715074], [0.08957295180604519, -0.2232560956465942], [-0.23997370080982167, -0.14842143965170945], [-0.45747646878448284, 0.3962527548329619], [0.2636569560047065, -0.35597359447716603], [-0.08313058433431753, -0.5800741237756399], [0.5893652211225905, -0.04141141239950294], [-0.003731440136581776, 0.33690614395526963]]",density,black,,,D002,visual,1,[],"['1', '2', '3', '4']",1,2023.2.3,harveyvisual,2.1,[],8,0.75,
0,pause,0.4,None,None,None,0,139,139,139,,,,,,,,,,,,,D002,visual,1,[],"['1', '2', '3', '4']",1,2023.2.3,harveyvisual,2.1,[],8,0.75,
20,dot,0.3,['dot'],['density'],white,0,140,140,140,,,51.40023708343506,51.118293046951294,51.41828107833862,dot,"[0.06, 0.06, 0.1, 0.1, 0.08, 0.06, 0.08, 0.06, 0.08, 0.06, 0.08, 0.1, 0.1, 0.08, 0.06, 0.06, 0.1, 0.08, 0.06, 0.08]","[[0.00878158007080354, 0.15547430995068579], [0.4155369500584073, -0.30096471296997707], [-0.5952890659602876, -0.04923236173253495], [0.4837488165394729, 0.32216778294039206], [-0.47641128078708334, 0.36613683941887526], [0.4210302579559081, 0.11383445370683515], [-0.4460146794312378, -0.2521757174698468], [0.08045669754698981, -0.41532253822445253], [-0.17686433009969732, 0.43457614107998566], [0.27377603168802944, 0.40463310356716764], [-0.3792097419201022, -0.43183636493499616], [-0.1709741435875396, 0.013957364909588876], [0.5645801815036212, -0.07691797529574437], [0.23350141085274312, -0.08000261919104895], [-0.3664122981054899, 0.06338723461641355], [-0.17832817174229482, -0.18740943705406388], [0.06066321734189806, 0.42669583222900775], [0.27817052639275186, -0.4397289747494115], [0.19276081621673802, 0.10772955080673263], [-0.1150571157502917, -0.5215724974188786]]",density,white,,,D002,visual,1,[],"['1', '2', '3', '4']",1,2023.2.3,harveyvisual,2.1,[],8,0.75,
0,pause,0.4,None,None,None,0,141,141,141,,,,,,,,,,,1,51.51620888710022,D002,visual,1,[],"['1', '2', '3', '4']",1,2023.2.3,harveyvisual,2.1,[],8,0.75,
20,dot,0.3,['dot'],['density'],black,0,142,142,142,,,52.10022497177124,51.81829309463501,52.11825704574585,dot,"[0.1, 0.1, 0.1, 0.08, 0.1, 0.08, 0.1, 0.06, 0.06, 0.06, 0.08, 0.08, 0.06, 0.08, 0.06, 0.06, 0.08, 0.06, 0.06, 0.06]","[[0.31870701770292464, -0.3125067923603975], [0.2088882291417582, 0.3160597908825943], [-0.2068210832633029, 0.5437553078826115], [-0.553471096843731, -0.21199629188146918], [0.42858523334353016, -0.0028309600724490402], [0.17700528803112026, -0.5195695617182078], [-0.10351381553779482, -0.06359754995332456], [0.12117560900259006, -0.06794747914280275], [-0.5752685021488282, 0.15727371655917158], [-0.40927161342460816, -0.3874599972355167], [-0.061933466730915154, 0.12313377393888914], [-0.13522843097502307, -0.3711929941560108], [-1.215990359271224e-05, 0.34643280230142726], [0.4453109784908037, 0.2548618060100341], [-0.18566120724659485, -0.5658830695215027], [-0.49490039266782987, 0.3336422127906353], [-0.23229711535606895, 0.3192421773806573], [-0.39840663696597056, -0.07155404875948346], [0.5227131464793632, -0.2069611801089258], [0.17096931136634919, 0.5218263849623318]]",density,black,,,D002,visual,1,[],"['1', '2', '3', '4']",1,2023.2.3,harveyvisual,2.1,[],8,0.75,
0,pause,0.4,None,None,None,0,143,143,143,,,,,,,,,,,,,D002,visual,1,[],"['1', '2', '3', '4']",1,2023.2.3,harveyvisual,2.1,[],8,0.75,
20,dot,0.3,['dot'],['density'],black,0,144,144,144,,,52.800233125686646,52.5182580947876,52.81823015213013,dot,"[0.06, 0.08, 0.08, 0.06, 0.06, 0.1, 0.06, 0.1, 0.06, 0.08, 0.1, 0.1, 0.08, 0.06, 0.08, 0.06, 0.06, 0.08, 0.1, 0.1]","[[-0.14654230363038462, 0.10439447242343958], [-0.5643926986297765, -0.16795506993233766], [-0.4765293092011756, 0.29788412192060765], [0.2648286672119736, 0.30848998642378656], [-0.406922957485234, 0.11285009085601622], [0.053343289945462447, 0.507342156107759], [-0.2186022423552217, -0.07376365751652575], [0.5391908102009267, 0.22296335470224415], [-0.15352866175433688, -0.40211081076278066], [-0.36699821810329336, -0.368163333190907], [0.03462754266546775, -0.13282166794946693], [0.5176126152316048, -0.14359649348842993], [0.3149044913990865, 0.10643156255395081], [0.21924716440818748, -0.0765395777962865], [0.07408600379247454, 0.21453625430543033], [-0.369808843309824, 0.4790500990457299], [-0.010857801807206857, -0.5399788043975846], [0.38445914419922067, -0.451601578445664], [-0.1698169660483494, 0.49475864283795745], [-0.5977071579363024, 0.02899526068023081]]",density,black,,,D002,visual,1,[],"['1', '2', '3', '4']",1,2023.2.3,harveyvisual,2.1,[],8,0.75,
0,pause,0.4,None,None,None,0,145,145,145,,,,,,,,,,,,,D002,visual,1,[],"['1', '2', '3', '4']",1,2023.2.3,harveyvisual,2.1,[],8,0.75,
20,dot,0.3,['dot'],['density'],black,0,146,146,146,,,53.500226974487305,53.21824407577515,53.518248081207275,dot,"[0.1, 0.06, 0.06, 0.06, 0.06, 0.1, 0.06, 0.08, 0.1, 0.08, 0.08, 0.08, 0.06, 0.08, 0.08, 0.06, 0.08, 0.1, 0.08, 0.1]","[[0.5876358040891677, 0.020335432428223582], [-0.41549547640747764, 0.016090134434331826], [0.35371203562777853, 0.45344984919998926], [-0.577923054544518, 0.12462972988231391], [-0.3552642464921389, 0.19907265752046516], [-0.009265545840214884, -0.4853600322783798], [0.3107636485818158, -0.38837766609482605], [0.4969951703419776, 0.22787904986876562], [0.19632692482679903, -0.019814328829038996], [-0.23338171695894527, -0.11663543081421684], [0.43371461090417485, -0.212419209288488], [-0.12197447143939705, 0.42934386031110905], [-0.4914402479482326, -0.31829890684892764], [-0.1647155520429423, 0.21883748058644992], [-0.46221327553469826, 0.3782867366956269], [-0.36981227495245295, -0.4725158173942183], [-0.594323739526725, -0.11389545590407031], [0.17243431050791935, 0.5397626148392237], [0.22612033067803938, -0.21329558018826866], [0.025759020044388348, -0.11538818308594756]]",density,black,,,D002,visual,1,[],"['1', '2', '3', '4']",1,2023.2.3,harveyvisual,2.1,[],8,0.75,
0,pause,0.4,None,None,None,0,147,147,147,,,,,,,,,,,,,D002,visual,1,[],"['1', '2', '3', '4']",1,2023.2.3,harveyvisual,2.1,[],8,0.75,
20,dot,0.3,['dot'],['density'],white,0,148,148,148,,,54.20022916793823,53.9182550907135,54.21823215484619,dot,"[0.1, 0.08, 0.1, 0.08, 0.08, 0.06, 0.08, 0.06, 0.08, 0.06, 0.1, 0.1, 0.06, 0.06, 0.08, 0.08, 0.1, 0.1, 0.06, 0.1]","[[-0.48980545812649606, 0.31537072157705176], [0.4115432248232568, -0.375594144463416], [-0.5102324843461667, 0.02073223621147574], [0.05512691822788185, -0.04066528598785768], [0.20440166819038819, 0.19952690695694997], [-0.2687078903463028, -0.2027562377906802], [-0.06453724667028882, -0.36787724673515515], [-0.02905079740982941, 0.15483556960207334], [0.6016383192015496, 0.0017009393431961367], [-0.018872678517876773, 0.5345155101941405], [-0.19492532804692542, 0.2668929104010179], [0.2748982430550092, -0.1613554615722237], [-0.5243724279000137, -0.2933268699630844], [0.36148033051100037, 0.399686342761334], [-0.26002134673367566, 0.07345654829319037], [-0.3313666448198564, -0.5051134356141614], [0.4508186846235739, 0.15391196296960868], [-0.35348613337670465, 0.4762251101392402], [0.19340738337934016, -0.5214022504769399], [0.12089005540312203, -0.28725305850967003]]",density,white,,,D002,visual,1,[],"['1', '2', '3', '4']",1,2023.2.3,harveyvisual,2.1,[],8,0.75,
0,pause,0.4,None,None,None,0,149,149,149,,,,,,,,,,,1,54.384782791137695,D002,visual,1,[],"['1', '2', '3', '4']",1,2023.2.3,harveyvisual,2.1,[],8,0.75,
20,dot,0.3,['dot'],['density'],black,0,150,150,150,,,54.90022897720337,54.61819100379944,54.918233156204224,dot,"[0.08, 0.1, 0.1, 0.08, 0.06, 0.08, 0.1, 0.1, 0.1, 0.08, 0.06, 0.06, 0.08, 0.08, 0.1, 0.08, 0.06, 0.06, 0.08, 0.08]","[[0.04623123442994592, -0.14013630819672712], [0.36391205715084407, 0.4754332676352076], [0.27979412767738554, 0.006640895103467992], [-0.035090680063721846, 0.5200265399548315], [-0.391764507714668, -0.3933204973199515], [-0.4876005293748351, 0.07955503842713313], [-0.31463595768334834, 0.3908748007253139], [-0.10462869831565547, -0.39470695336440187], [-0.06292065345854825, -0.5900802512453925], [-0.3668378171283554, -0.14405667902069186], [0.5341967200685981, -0.1930566386629194], [0.10457774069896464, -0.36857400618369807], [0.17887689051519484, 0.27979722236834803], [-0.5773636093933395, -0.13236757899442436], [0.17338773324968892, 0.47245272858124454], [0.08432008919940992, 0.08552343239142779], [0.539058341135615, 0.017775722507355984], [0.49726957448357856, 0.24673547845001004], [-0.14554276550143713, 0.033998196549994586], [0.45725630298086084, -0.3721275951600035]]",density,black,,,D002,visual,1,[],"['1', '2', '3', '4']",1,2023.2.3,harveyvisual,2.1,[],8,0.75,
0,pause,0.4,None,None,None,0,151,151,151,,,,,,,,,,,,,D002,visual,1,[],"['1', '2', '3', '4']",1,2023.2.3,harveyvisual,2.1,[],8,0.75,
20,dot,0.3,['dot'],['density'],black,0,152,152,152,,,55.600229024887085,55.31823396682739,55.61817002296448,dot,"[0.1, 0.06, 0.06, 0.06, 0.1, 0.06, 0.08, 0.1, 0.08, 0.1, 0.06, 0.1, 0.08, 0.1, 0.06, 0.1, 0.08, 0.08, 0.1, 0.08]","[[-0.5698891792513465, 0.05690093567902679], [0.010448781537515384, 0.5936035758116521], [-0.02958505179901738, -0.06457204403588412], [-0.5224858194070486, 0.303570175607059], [-0.18181484472392467, 0.5719748349934717], [0.1684866159503221, -0.0914562925233261], [-0.1443431918865386, 0.37192580514393625], [0.12979581707076915, -0.5482277187767097], [-0.19419653260249764, 0.12224309654394849], [-0.2802719549009592, -0.27778765157486807], [0.4678299650541494, 0.2050190388300402], [0.39090885638062156, 0.4542192217423973], [-0.37090394866695275, -0.04976958708650653], [0.19652772743250335, -0.3640027303213831], [0.4780257630216259, -0.32240278106892833], [0.09887229455820257, 0.12260213867584868], [0.2521777691940461, 0.30597023184893823], [0.5962684584534396, -0.08115728537985484], [-0.5492851404534087, -0.24826272164585259], [0.3295150417116879, -0.20321906426825026]]",density,black,,,D002,visual,1,[],"['1', '2', '3', '4']",1,2023.2.3,harveyvisual,2.1,[],8,0.75,
0,pause,0.4,None,None,None,0,153,153,153,,,,,,,,,,,,,D002,visual,1,[],"['1', '2', '3', '4']",1,2023.2.3,harveyvisual,2.1,[],8,0.75,
20,dot,0.3,['dot'],['density'],black,0,154,154,154,,,56.3002290725708,56.018277168273926,56.31814408302307,dot,"[0.1, 0.08, 0.08, 0.1, 0.1, 0.1, 0.08, 0.08, 0.08, 0.1, 0.08, 0.1, 0.08, 0.1, 0.08, 0.08, 0.1, 0.1, 0.08, 0.08]","[[-0.08779373768728371, -0.5446409548612826], [0.2591600081915907, 0.2425532352552795], [0.31072273562481334, -0.457642481863355], [-0.02287066695277895, -0.33124231301884666], [-0.40608234181175984, 0.3319812687063832], [0.2876630086946693, -0.218535194471211], [-0.155617131220527, 0.016879916740275336], [-0.04687573612546092, 0.6013656007593071], [0.3041780975037408, 0.4869826309791524], [0.5695173673281121, 0.17035788501497867], [0.09802465431116225, 0.05801940095655289], [-0.13348575647349992, 0.3834185931211478], [-0.5593410084427438, -0.11454216865046236], [-0.2378218907182751, -0.37187741096595445], [-0.43311975438610406, 0.035733636159967], [-0.47007732229221344, -0.35802492918008694], [0.5828771673468235, -0.1375256164100223], [0.09586538491857466, 0.4496865417502858], [-0.3059673012983603, -0.144863006609179], [0.3342418585178285, -0.010552077745407173]]",density,black,,,D002,visual,1,[],"['1', '2', '3', '4']",1,2023.2.3,harveyvisual,2.1,[],8,0.75,
0,pause,0.4,None,None,None,0,155,155,155,,,,,,,,,,,,,D002,visual,1,[],"['1', '2', '3', '4']",1,2023.2.3,harveyvisual,2.1,[],8,0.75,
9,dot,0.3,['dot'],['density'],white,0,156,156,156,,,57.00023818016052,56.71814012527466,57.01813316345215,dot,"[0.06, 0.06, 0.06, 0.1, 0.06, 0.08, 0.06, 0.06, 0.1]","[[0.30047334598257713, -0.32583448447642216], [0.4997394081452916, 0.05175273655880906], [0.13646797290608587, 0.02221883094322858], [0.11448241016544139, -0.2117191838414046], [0.417500260412479, 0.2413963184479076], [0.19152536325099656, 0.23172406522327998], [0.5046802385722475, -0.28323005758562664], [-0.037891296982194685, 0.14714919272112825], [0.3292067348064443, -0.0657181274468392]]",density,white,,,D002,visual,1,[],"['1', '2', '3', '4']",1,2023.2.3,harveyvisual,2.1,[],8,0.75,
0,pause,0.4,None,None,None,0,157,157,157,,,,,,,,,,,1,57.14697480201721,D002,visual,1,[],"['1', '2', '3', '4']",1,2023.2.3,harveyvisual,2.1,[],8,0.75,
9,dot,0.3,['dot'],['density'],black,0,158,158,158,,,57.70022916793823,57.41813111305237,57.71811008453369,dot,"[0.06, 0.1, 0.06, 0.08, 0.08, 0.08, 0.1, 0.1, 0.08]","[[0.02295687172906439, -0.4555612238154966], [0.343534432465795, -0.2595759245515751], [-0.16187815285083418, -0.09052449078383604], [0.11251247888811697, -0.27313237114007116], [0.30947849701411384, 0.04064216277921932], [0.06991680920562879, 0.010838090335221196], [-0.17538857600721916, -0.30040513178321704], [-0.11470383471809205, 0.10558329706542706], [-0.35883798189287325, -0.15372405551062507]]",density,black,,,D002,visual,1,[],"['1', '2', '3', '4']",1,2023.2.3,harveyvisual,2.1,[],8,0.75,
0,pause,0.4,None,None,None,0,159,159,159,,,,,,,,,,,,,D002,visual,1,[],"['1', '2', '3', '4']",1,2023.2.3,harveyvisual,2.1,[],8,0.75,
9,dot,0.3,['dot'],['density'],black,0,160,160,160,,,58.40024209022522,58.11810803413391,58.41812300682068,dot,"[0.08, 0.06, 0.08, 0.1, 0.1, 0.08, 0.1, 0.06, 0.06]","[[-0.03413633707233166, 0.539775862693792], [0.03045342777742709, 0.14881397110038386], [0.3968101769942594, 0.3516381959676015], [-0.12464897846505978, 0.27513009849494485], [0.24828272947848068, 0.13372878599656182], [0.1825630446668698, 0.5466865974155928], [-0.40057775338259505, 0.3148646888607764], [0.06988801613907401, -0.06658504348068199], [0.07277149512897427, 0.3699912437376705]]",density,black,,,D002,visual,1,[],"['1', '2', '3', '4']",1,2023.2.3,harveyvisual,2.1,[],8,0.75,
0,pause,0.4,None,None,None,0,161,161,161,,,,,,,,,,,,,D002,visual,1,[],"['1', '2', '3', '4']",1,2023.2.3,harveyvisual,2.1,[],8,0.75,
9,dot,0.3,['dot'],['density'],black,0,162,162,162,,,59.10023307800293,58.818122148513794,59.118136167526245,dot,"[0.06, 0.06, 0.08, 0.08, 0.1, 0.1, 0.1, 0.06, 0.06]","[[-0.1410632352740557, -0.317905811010377], [-0.01624442214728049, 0.1794094022286925], [0.09468404279643694, -0.24727132108451297], [-0.2758455249254349, -0.14491344886434532], [-0.07397021974914944, -0.09933967896750957], [-0.3580751224104431, 0.12641846535160695], [0.3672464474339042, -0.09947208873420914], [0.14679994141956812, -0.049441009882571184], [0.20049431506903384, 0.1443691092520585]]",density,black,,,D002,visual,1,[],"['1', '2', '3', '4']",1,2023.2.3,harveyvisual,2.1,[],8,0.75,
0,pause,0.4,None,None,None,0,163,163,163,,,,,,,,,,,,,D002,visual,1,[],"['1', '2', '3', '4']",1,2023.2.3,harveyvisual,2.1,[],8,0.75,
9,dot,0.3,['dot'],['density'],black,0,164,164,164,,,59.80021810531616,59.518105030059814,59.8182430267334,dot,"[0.08, 0.08, 0.06, 0.06, 0.08, 0.06, 0.1, 0.1, 0.08]","[[-0.08858128315591524, -0.3480052213079807], [0.37291707470974605, -0.0809562497479422], [-0.04311872097798103, 0.23152249840731254], [0.1734412630875083, -0.16491363602164627], [-0.024044713080900382, -0.04824256513196188], [0.126438571592319, 0.09122014985587756], [-0.2168202887682383, 0.11190421567656858], [-0.23215605484234547, -0.20356583507002532], [0.291417597339289, 0.24351333182926893]]",density,black,,,D002,visual,1,[],"['1', '2', '3', '4']",1,2023.2.3,harveyvisual,2.1,[],8,0.75,
0,pause,0.4,None,None,None,0,165,165,165,,,,,,,,,,,,,D002,visual,1,[],"['1', '2', '3', '4']",1,2023.2.3,harveyvisual,2.1,[],8,0.75,
9,dot,0.3,['dot'],['density'],black,0,166,166,166,,,60.50022315979004,60.218088150024414,60.518195152282715,dot,"[0.06, 0.06, 0.08, 0.1, 0.1, 0.1, 0.08, 0.06, 0.1]","[[0.5176022259896301, 0.07013652950073157], [0.29073914382076843, 0.49095716113391286], [0.25755010907869064, 0.10321661572421419], [0.11549350267606502, 0.37871636325142816], [-0.040248060121338324, 0.07603447111469516], [0.35733910828644905, -0.07238149579930037], [0.09184169877402729, -0.10424630849328012], [-0.10934901156313583, -0.14911132891814113], [0.4158094160330474, 0.26019999263529187]]",density,black,,,D002,visual,1,[],"['1', '2', '3', '4']",1,2023.2.3,harveyvisual,2.1,[],8,0.75,
0,pause,0.4,None,None,None,0,167,167,167,,,,,,,,,,,,,D002,visual,1,[],"['1', '2', '3', '4']",1,2023.2.3,harveyvisual,2.1,[],8,0.75,
8,dot,0.3,['dot'],['density'],black,0,168,168,168,,,61.200231075286865,60.91819715499878,61.2182080745697,dot,"[0.06, 0.08, 0.08, 0.06, 0.1, 0.06, 0.06, 0.08]","[[-0.19427332908310624, 0.44975086906229733], [-0.40583056883657587, 0.41268852933836647], [-0.1064323235824443, 0.09134240931295125], [0.037438273390647224, 0.2873761216870531], [-0.27580465694358225, 0.2567900319995576], [0.047234249799456944, 0.4983172858691376], [0.15563182967593078, 0.1192504703698398], [-0.32834908909536226, -0.014402300111889832]]",density,black,,,D002,visual,1,[],"['1', '2', '3', '4']",1,2023.2.3,harveyvisual,2.1,[],8,0.75,
0,pause,0.4,None,None,None,0,169,169,169,,,,,,,,,,,,,D002,visual,1,[],"['1', '2', '3', '4']",1,2023.2.3,harveyvisual,2.1,[],8,0.75,
8,dot,0.3,['dot'],['density'],black,0,170,170,170,,,61.900238037109375,61.61804819107056,61.918009996414185,dot,"[0.06, 0.06, 0.06, 0.1, 0.1, 0.08, 0.08, 0.08]","[[-0.503192831713878, 0.2818759502405315], [-0.1851508851951268, 0.5121570681976513], [-0.3428391331654375, 0.06336275884690255], [-0.2620893383019587, 0.2653373399092269], [-0.09201493982796581, 0.138249408295409], [-0.14188251758679749, -0.08598668861617832], [-0.5391716430792404, 0.01870596234549803], [-0.2779852747659758, -0.23950462846526258]]",density,black,,,D002,visual,1,[],"['1', '2', '3', '4']",1,2023.2.3,harveyvisual,2.1,[],8,0.75,
0,pause,0.4,None,None,None,0,171,171,171,,,,,,,,,,,,,D002,visual,1,[],"['1', '2', '3', '4']",1,2023.2.3,harveyvisual,2.1,[],8,0.75,
8,dot,0.3,['dot'],['density'],black,0,172,172,172,,,62.600229024887085,62.318026065826416,62.61802411079407,dot,"[0.1, 0.1, 0.06, 0.06, 0.1, 0.06, 0.1, 0.08]","[[0.48529715144174124, -0.2697678579736521], [0.37309741842769656, 0.0699077870123373], [0.051182379473491794, 0.02141531407813483], [0.5234917469593858, 0.26578075419350655], [0.558201411832675, -0.037120345964853765], [0.22738215197141995, 0.24608732841731215], [0.3038957292845804, -0.12934366054116395], [0.024689158081869923, 0.25216756052328354]]",density,black,,,D002,visual,1,[],"['1', '2', '3', '4']",1,2023.2.3,harveyvisual,2.1,[],8,0.75,
0,pause,0.4,None,None,None,0,173,173,173,,,,,,,,,,,,,D002,visual,1,[],"['1', '2', '3', '4']",1,2023.2.3,harveyvisual,2.1,[],8,0.75,
8,dot,0.3,['dot'],['density'],black,0,174,174,174,,,63.300235986709595,63.018009185791016,63.318000078201294,dot,"[0.06, 0.06, 0.1, 0.06, 0.06, 0.06, 0.06, 0.08]","[[0.4578461037593053, -0.0425280984807614], [0.3105081462658962, -0.253400778181943], [0.5107466611240274, 0.18303335057259504], [0.05013881804369301, 0.21472050036076742], [0.11913774150617627, -0.046477809882714556], [0.3069987493408211, 0.11186211070896974], [0.10261508471656716, -0.25482825738733483], [-0.08881417545548334, 0.035709595317019026]]",density,black,,,D002,visual,1,[],"['1', '2', '3', '4']",1,2023.2.3,harveyvisual,2.1,[],8,0.75,
0,pause,0.4,None,None,None,0,175,175,175,,,,,,,,,,,,,D002,visual,1,[],"['1', '2', '3', '4']",1,2023.2.3,harveyvisual,2.1,[],8,0.75,
8,dot,0.3,['dot'],['density'],black,0,176,176,176,,,64.00022411346436,63.717992067337036,64.01797318458557,dot,"[0.08, 0.06, 0.06, 0.08, 0.08, 0.06, 0.06, 0.06]","[[0.08034727882022866, 0.21485544138691295], [0.4485208087802622, -0.24912681836757106], [0.26129939989417056, 0.09257513963058502], [0.557413308755299, 0.1511846349250138], [0.2634990941728302, -0.1333032593777782], [0.3632073825345479, 0.269269938976799], [-0.13869722159995554, 0.017464377414806956], [0.4339652718412117, -0.009910074233595774]]",density,black,,,D002,visual,1,[],"['1', '2', '3', '4']",1,2023.2.3,harveyvisual,2.1,[],8,0.75,
0,pause,0.4,None,None,None,0,177,177,177,,,,,,,,,,,,,D002,visual,1,[],"['1', '2', '3', '4']",1,2023.2.3,harveyvisual,2.1,[],8,0.75,
8,dot,0.3,['dot'],['density'],black,0,178,178,178,,,64.70022296905518,64.41798305511475,64.71796011924744,dot,"[0.08, 0.1, 0.06, 0.06, 0.06, 0.06, 0.06, 0.08]","[[-0.43120034012996816, -0.3965796075128045], [0.1478983624034229, -0.46770986256388064], [-0.23058307999139557, -0.3238539366063682], [-0.07988642296593639, -0.13993938361429092], [-0.08664795903044427, -0.5418074813242995], [0.11879255589163208, -0.1637425359681226], [-0.09873641234556067, 0.08705286872936738], [-0.025120016651009644, -0.34045580780112095]]",density,black,,,D002,visual,1,[],"['1', '2', '3', '4']",1,2023.2.3,harveyvisual,2.1,[],8,0.75,
0,pause,0.4,None,None,None,0,179,179,179,,,,,,,,,,,,,D002,visual,1,[],"['1', '2', '3', '4']",1,2023.2.3,harveyvisual,2.1,[],8,0.75,
7,dot,0.3,['dot'],['density'],black,0,180,180,180,,,65.40023803710938,65.11800599098206,65.41799807548523,dot,"[0.1, 0.1, 0.1, 0.08, 0.1, 0.06, 0.06]","[[0.13823229125104186, -0.11287424625882309], [-0.082914425993103, 0.43156227464827385], [0.30107400633957315, 0.2583336012722512], [-0.1103107855725706, 0.20298726112520996], [0.37862923877470095, 0.05664428164281185], [0.10057609128089995, 0.3089177590539603], [0.1009283971288976, 0.1061295027106774]]",density,black,,,D002,visual,1,[],"['1', '2', '3', '4']",1,2023.2.3,harveyvisual,2.1,[],8,0.75,
0,pause,0.4,None,None,None,0,181,181,181,,,,,,,,,,,,,D002,visual,1,[],"['1', '2', '3', '4']",1,2023.2.3,harveyvisual,2.1,[],8,0.75,
7,dot,0.3,['dot'],['density'],black,0,182,182,182,,,66.10022306442261,65.81797409057617,66.11795496940613,dot,"[0.1, 0.06, 0.06, 0.06, 0.06, 0.08, 0.08]","[[0.2966712274604575, -0.2131825579980761], [-0.1186836204372937, -0.4965034514665913], [-0.01440301872015537, -0.0403072600505146], [0.1950017499803942, -0.04023412759326238], [0.279011892689379, -0.46996203863525404], [-0.05628257964606558, -0.24364929332980273], [0.11956786588335709, -0.3438640467385331]]",density,black,,,D002,visual,1,[],"['1', '2', '3', '4']",1,2023.2.3,harveyvisual,2.1,[],8,0.75,
0,pause,0.4,None,None,None,0,183,183,183,,,,,,,,,,,,,D002,visual,1,[],"['1', '2', '3', '4']",1,2023.2.3,harveyvisual,2.1,[],8,0.75,
7,dot,0.3,['dot'],['density'],black,0,184,184,184,,,66.8002290725708,66.51788902282715,66.81787610054016,dot,"[0.06, 0.06, 0.06, 0.06, 0.08, 0.1, 0.1]","[[-0.3025445156539714, -0.42280529123536587], [0.12162933753582021, -0.2851722644810181], [-0.2753205641105948, -0.038672864930592576], [-0.4202189534315163, -0.18742991959605093], [-0.15636117447925973, -0.27217203193286355], [-0.09967880665522989, -0.47242523529006747], [-0.06261398545311019, -0.08879309989794046]]",density,black,,,D002,visual,1,[],"['1', '2', '3', '4']",1,2023.2.3,harveyvisual,2.1,[],8,0.75,
0,pause,0.4,None,None,None,0,185,185,185,,,,,,,,,,,,,D002,visual,1,[],"['1', '2', '3', '4']",1,2023.2.3,harveyvisual,2.1,[],8,0.75,
7,dot,0.3,['dot'],['density'],black,0,186,186,186,,,67.50023102760315,67.21791505813599,67.51787519454956,dot,"[0.1, 0.06, 0.08, 0.1, 0.06, 0.08, 0.1]","[[0.43636558899465056, -0.019888822856555858], [0.3422654810486562, -0.28596623187093184], [0.19265053263460555, -0.4439876245838232], [0.13726272111749335, -0.2453614523272762], [0.002381890354708078, -0.04768315945896726], [0.5336827108411983, -0.21507725682246784], [0.22437755209563529, -0.002563521851875305]]",density,black,,,D002,visual,1,[],"['1', '2', '3', '4']",1,2023.2.3,harveyvisual,2.1,[],8,0.75,
0,pause,0.4,None,None,None,0,187,187,187,,,,,,,,,,,,,D002,visual,1,[],"['1', '2', '3', '4']",1,2023.2.3,harveyvisual,2.1,[],8,0.75,
7,dot,0.3,['dot'],['density'],black,0,188,188,188,,,68.20023608207703,67.91789603233337,68.21789598464966,dot,"[0.1, 0.1, 0.1, 0.1, 0.1, 0.1, 0.06]","[[-0.39883248072855915, 0.30823732592088265], [-0.041341486549100435, 0.2390478988097413], [-0.013495537319202725, 0.5211111720540192], [-0.2415889716500472, 0.10795059447242317], [-0.023803066389735523, 0.02076064871433158], [0.14387498046506175, 0.3548008600093999], [-0.24331877599120405, 0.46521846842164205]]",density,black,,,D002,visual,1,[],"['1', '2', '3', '4']",1,2023.2.3,harveyvisual,2.1,[],8,0.75,
0,pause,0.4,None,None,None,0,189,189,189,,,,,,,,,,,,,D002,visual,1,[],"['1', '2', '3', '4']",1,2023.2.3,harveyvisual,2.1,[],8,0.75,
7,dot,0.3,['dot'],['density'],black,0,190,190,190,,,68.9002411365509,68.6178469657898,68.91781997680664,dot,"[0.1, 0.06, 0.08, 0.1, 0.06, 0.06, 0.08]","[[0.1318978468379982, 0.48780960721302624], [-0.15530952210580917, 0.2429536962773128], [0.21675324185561073, 0.09111206147250148], [0.13033099328542835, 0.28547066376201063], [0.3859901392997328, 0.20497483482614012], [0.014590257841440182, 0.0970646397970693], [0.1730960121663288, -0.1180805096677859]]",density,black,,,D002,visual,1,[],"['1', '2', '3', '4']",1,2023.2.3,harveyvisual,2.1,[],8,0.75,
0,pause,0.4,None,None,None,0,191,191,191,,,,,,,,,,,,,D002,visual,1,[],"['1', '2', '3', '4']",1,2023.2.3,harveyvisual,2.1,[],8,0.75,
6,dot,0.3,['dot'],['density'],black,0,192,192,192,,,69.6002311706543,69.3178060054779,69.61779308319092,dot,"[0.06, 0.06, 0.06, 0.1, 0.1, 0.08]","[[-0.31609589870198396, -0.31007670116123803], [-0.4478311917512715, 0.10082722748193511], [-0.2864981571692688, -0.05140390439239721], [-0.09675803094031296, -0.12021517342888931], [-0.4941273593136662, -0.13098935533792763], [-0.1300426850498692, 0.1160403058404222]]",density,black,,,D002,visual,1,[],"['1', '2', '3', '4']",1,2023.2.3,harveyvisual,2.1,[],8,0.75,
0,pause,0.4,None,None,None,0,193,193,193,,,,,,,,,,,,,D002,visual,1,[],"['1', '2', '3', '4']",1,2023.2.3,harveyvisual,2.1,[],8,0.75,
6,dot,0.3,['dot'],['density'],black,0,194,194,194,,,70.30022406578064,70.01779508590698,70.31777906417847,dot,"[0.08, 0.06, 0.1, 0.1, 0.1, 0.08]","[[0.4838288853419304, 0.012393783640839304], [0.3357737587390128, 0.3939464288632381], [0.48781910936274964, 0.21484656822060386], [0.038497076365425514, 0.2266532147795764], [0.13074852606734502, 0.009493629341700475], [0.2855531954453259, 0.1811044151544938]]",density,black,,,D002,visual,1,[],"['1', '2', '3', '4']",1,2023.2.3,harveyvisual,2.1,[],8,0.75,
0,pause,0.4,None,None,None,0,195,195,195,,,,,,,,,,,,,D002,visual,1,[],"['1', '2', '3', '4']",1,2023.2.3,harveyvisual,2.1,[],8,0.75,
6,dot,0.3,['dot'],['density'],white,0,196,196,196,,,71.000244140625,70.71776914596558,71.01775217056274,dot,"[0.06, 0.06, 0.06, 0.1, 0.08, 0.06]","[[-0.4718675517483807, -0.080313523620691], [-0.31247550484642445, -0.23218356379105512], [-0.2575593735283343, 0.24158811959194182], [-0.2948669609652105, 0.017652028830845004], [-0.0883702388727292, 0.027494606567874856], [-0.45154527444290743, 0.17691331155056722]]",density,white,,,D002,visual,1,[],"['1', '2', '3', '4']",1,2023.2.3,harveyvisual,2.1,[],8,0.75,
0,pause,0.4,None,None,None,0,197,197,197,,,,,,,,,,,1,71.23872590065002,D002,visual,1,[],"['1', '2', '3', '4']",1,2023.2.3,harveyvisual,2.1,[],8,0.75,
6,dot,0.3,['dot'],['density'],black,0,198,198,198,,,71.70022106170654,71.41776418685913,71.71775507926941,dot,"[0.08, 0.1, 0.08, 0.06, 0.08, 0.08]","[[0.21259181929123794, -0.28356491423097735], [0.48303195854319764, 0.06048455888335473], [0.22913681079270962, 0.07473613686017411], [0.4939377514137012, -0.2837040300549214], [0.055643620130747785, -0.14290468481535015], [0.3711413815128542, -0.10952979375652658]]",density,black,,,D002,visual,1,[],"['1', '2', '3', '4']",1,2023.2.3,harveyvisual,2.1,[],8,0.75,
0,pause,0.4,None,None,None,0,199,199,199,,,,,,,,,,,,,D002,visual,1,[],"['1', '2', '3', '4']",1,2023.2.3,harveyvisual,2.1,[],8,0.75,
6,dot,0.3,['dot'],['density'],black,0,200,200,200,,,72.40024304389954,72.11775016784668,72.41774606704712,dot,"[0.06, 0.08, 0.06, 0.08, 0.1, 0.08]","[[-0.560843418842529, -0.11752527585456686], [-0.31277608783648175, 0.04003545118838376], [-0.18207900664359264, -0.3652956678781814], [-0.41442909117718774, -0.4038021739217259], [-0.14446849917993246, -0.07035639226176245], [-0.3420415871796019, -0.1631057353810994]]",density,black,,,D002,visual,1,[],"['1', '2', '3', '4']",1,2023.2.3,harveyvisual,2.1,[],8,0.75,
0,pause,0.4,None,None,None,0,201,201,201,,,,,,,,,,,,,D002,visual,1,[],"['1', '2', '3', '4']",1,2023.2.3,harveyvisual,2.1,[],8,0.75,
6,dot,0.3,['dot'],['density'],black,0,202,202,202,,,73.10022211074829,72.81776213645935,73.11774206161499,dot,"[0.08, 0.06, 0.1, 0.06, 0.08, 0.08]","[[0.3299424372810393, 0.4114780133894161], [0.051944887288218326, -0.03233758374135307], [0.4337222981537534, -0.07578498258626121], [0.10477943773033714, 0.1703675017914044], [0.3400878522727408, 0.20016066552806494], [0.2510029109880425, 0.01747244452819591]]",density,black,,,D002,visual,1,[],"['1', '2', '3', '4']",1,2023.2.3,harveyvisual,2.1,[],8,0.75,
0,pause,0.4,None,None,None,0,203,203,203,,,,,,,,,,,,,D002,visual,1,[],"['1', '2', '3', '4']",1,2023.2.3,harveyvisual,2.1,[],8,0.75,
5,dot,0.3,['dot'],['density'],black,0,204,204,204,,,73.80023503303528,73.51771807670593,73.81769609451294,dot,"[0.06, 0.08, 0.1, 0.08, 0.1]","[[-0.17224806752104949, 0.21128771658676965], [-0.35983128753182364, -0.1328600505582573], [-0.33716814897054914, 0.09708697582185674], [-0.044562237693599294, -0.03778919281981133], [-0.17109626387405982, -0.21732524013947077]]",density,black,,,D002,visual,1,[],"['1', '2', '3', '4']",1,2023.2.3,harveyvisual,2.1,[],8,0.75,
0,pause,0.4,None,None,None,0,205,205,205,,,,,,,,,,,,,D002,visual,1,[],"['1', '2', '3', '4']",1,2023.2.3,harveyvisual,2.1,[],8,0.75,
5,dot,0.3,['dot'],['density'],black,0,206,206,206,,,74.50022602081299,74.21768617630005,74.51773810386658,dot,"[0.1, 0.06, 0.06, 0.06, 0.08]","[[0.2947939438731228, -0.23060267152592065], [-0.16069394766121817, -0.3416383267983795], [0.17571447256805817, -0.04795497140357211], [-0.06398416024856234, -0.043165972544212804], [0.046845399773749824, -0.2436216536023896]]",density,black,,,D002,visual,1,[],"['1', '2', '3', '4']",1,2023.2.3,harveyvisual,2.1,[],8,0.75,
0,pause,0.4,None,None,None,0,207,207,207,,,,,,,,,,,,,D002,visual,1,[],"['1', '2', '3', '4']",1,2023.2.3,harveyvisual,2.1,[],8,0.75,
5,dot,0.3,['dot'],['density'],black,0,208,208,208,,,75.20024299621582,74.91769218444824,75.21772718429565,dot,"[0.06, 0.1, 0.08, 0.1, 0.08]","[[-0.053215572458232586, 0.27221330895143253], [0.10089702531331296, 0.1334794413224796], [0.12897289155288158, 0.4002796015157326], [0.3022660506716914, 0.02685289149411272], [0.2804295634962893, 0.24950018434757285]]",density,black,,,D002,visual,1,[],"['1', '2', '3', '4']",1,2023.2.3,harveyvisual,2.1,[],8,0.75,
0,pause,0.4,None,None,None,0,209,209,209,,,,,,,,,,,,,D002,visual,1,[],"['1', '2', '3', '4']",1,2023.2.3,harveyvisual,2.1,[],8,0.75,
5,dot,0.3,['dot'],['density'],black,0,210,210,210,,,75.90021705627441,75.61766004562378,75.91765117645264,dot,"[0.08, 0.06, 0.06, 0.1, 0.06]","[[0.07471778162596296, -0.10525453490666745], [0.30258431325283514, -0.18125951612401361], [-0.10797831538154114, 0.025200229490558432], [0.07898181201564736, 0.11749757771993925], [0.31731369449760916, 0.032388289652815004]]",density,black,,,D002,visual,1,[],"['1', '2', '3', '4']",1,2023.2.3,harveyvisual,2.1,[],8,0.75,
0,pause,0.4,None,None,None,0,211,211,211,,,,,,,,,,,,,D002,visual,1,[],"['1', '2', '3', '4']",1,2023.2.3,harveyvisual,2.1,[],8,0.75,
5,dot,0.3,['dot'],['density'],black,0,212,212,212,,,76.60023307800293,76.317636013031,76.61761808395386,dot,"[0.1, 0.1, 0.1, 0.06, 0.06]","[[0.33660852042816714, -0.448935078303268], [0.16237328695183198, -0.028906365321866932], [0.003149504206933677, -0.1844463225559013], [0.4065340125681681, -0.22407981263326276], [0.20027486954239768, -0.2346061295568129]]",density,black,,,D002,visual,1,[],"['1', '2', '3', '4']",1,2023.2.3,harveyvisual,2.1,[],8,0.75,
0,pause,0.4,None,None,None,0,213,213,213,,,,,,,,,,,,,D002,visual,1,[],"['1', '2', '3', '4']",1,2023.2.3,harveyvisual,2.1,[],8,0.75,
5,dot,0.3,['dot'],['density'],black,0,214,214,214,,,77.30021715164185,77.01760411262512,77.31758904457092,dot,"[0.08, 0.08, 0.06, 0.08, 0.1]","[[-0.20882687658313398, 0.05979685123170853], [0.07709165915785691, 0.33819008637117026], [0.02323578322535992, 0.12175330968231063], [0.02522363087913582, -0.08718927316059993], [-0.12152044988768049, 0.28453648995279207]]",density,black,,,D002,visual,1,[],"['1', '2', '3', '4']",1,2023.2.3,harveyvisual,2.1,[],8,0.75,
0,pause,0.4,None,None,None,0,215,215,215,,,,,,,,,,,,,D002,visual,1,[],"['1', '2', '3', '4']",1,2023.2.3,harveyvisual,2.1,[],8,0.75,
4,dot,0.3,['dot'],['density'],black,0,216,216,216,,,78.00023698806763,77.71760416030884,78.01758217811584,dot,"[0.1, 0.08, 0.1, 0.06]","[[0.15462156444594843, 0.0379601134824338], [-0.046642739949193296, 0.06510400621286498], [0.12320708371464141, 0.2499967514902957], [-0.13279798436850673, 0.2624558601457805]]",density,black,,,D002,visual,1,[],"['1', '2', '3', '4']",1,2023.2.3,harveyvisual,2.1,[],8,0.75,
0,pause,0.4,None,None,None,0,217,217,217,,,,,,,,,,,,,D002,visual,1,[],"['1', '2', '3', '4']",1,2023.2.3,harveyvisual,2.1,[],8,0.75,
4,dot,0.3,['dot'],['density'],white,0,218,218,218,,,78.7002260684967,78.41756510734558,78.71754908561707,dot,"[0.08, 0.06, 0.06, 0.06]","[[0.1665887267295909, 0.08389582001604734], [0.4584359263982055, 0.26405512465689546], [0.4157764543415929, 0.03513878013061779], [0.2392225064082761, 0.29777239984320175]]",density,white,,,D002,visual,1,[],"['1', '2', '3', '4']",1,2023.2.3,harveyvisual,2.1,[],8,0.75,
0,pause,0.4,None,None,None,0,219,219,219,,,,,,,,,,,1,78.82757878303528,D002,visual,1,[],"['1', '2', '3', '4']",1,2023.2.3,harveyvisual,2.1,[],8,0.75,
4,dot,0.3,['dot'],['density'],black,0,220,220,220,,,79.40024209022522,79.11754512786865,79.41752219200134,dot,"[0.08, 0.1, 0.08, 0.06]","[[0.5195678262777355, 0.06634869171649047], [0.11508779247300271, 0.04459464887784077], [0.27862218446352316, 0.18290230777407274], [0.28701832247091064, -0.08209332131291468]]",density,black,,,D002,visual,1,[],"['1', '2', '3', '4']",1,2023.2.3,harveyvisual,2.1,[],8,0.75,
0,pause,0.4,None,None,None,0,221,221,221,,,,,,,,,,,,,D002,visual,1,[],"['1', '2', '3', '4']",1,2023.2.3,harveyvisual,2.1,[],8,0.75,
4,dot,0.3,['dot'],['density'],black,0,222,222,222,,,80.10023498535156,79.8175311088562,80.11751008033752,dot,"[0.06, 0.1, 0.1, 0.08]","[[0.107131415583101, 0.03171316484874249], [0.3330877778846877, 0.14211400081541528], [0.23058747141838212, -0.24340322486593785], [0.3173726134345681, -0.05921806988573682]]",density,black,,,D002,visual,1,[],"['1', '2', '3', '4']",1,2023.2.3,harveyvisual,2.1,[],8,0.75,
0,pause,0.4,None,None,None,0,223,223,223,,,,,,,,,,,,,D002,visual,1,[],"['1', '2', '3', '4']",1,2023.2.3,harveyvisual,2.1,[],8,0.75,
4,dot,0.3,['dot'],['density'],black,0,224,224,224,,,80.80022406578064,80.51750802993774,80.81749415397644,dot,"[0.06, 0.1, 0.1, 0.1]","[[-0.22375678750486633, 0.16938766720995918], [-0.03438308412182927, 0.2632029670309489], [0.15312837370161694, 0.1265605786946886], [-0.035433382102469414, 0.014828983441921377]]",density,black,,,D002,visual,1,[],"['1', '2', '3', '4']",1,2023.2.3,harveyvisual,2.1,[],8,0.75,
0,pause,0.4,None,None,None,0,225,225,225,,,,,,,,,,,,,D002,visual,1,[],"['1', '2', '3', '4']",1,2023.2.3,harveyvisual,2.1,[],8,0.75,
4,dot,0.3,['dot'],['density'],white,0,226,226,226,,,81.50023102760315,81.21749305725098,81.51746797561646,dot,"[0.1, 0.06, 0.1, 0.1]","[[0.5195678262777355, 0.06634869171649047], [0.11508779247300271, 0.04459464887784077], [0.27862218446352316, 0.18290230777407274], [0.28701832247091064, -0.08209332131291468]]",density,white,,,D002,visual,1,[],"['1', '2', '3', '4']",1,2023.2.3,harveyvisual,2.1,[],8,0.75,
0,pause,0.4,None,None,None,0,227,227,227,,,,,,,,,,,1,81.65893197059631,D002,visual,1,[],"['1', '2', '3', '4']",1,2023.2.3,harveyvisual,2.1,[],8,0.75,
3,dot,0.3,['dot'],['density'],black,0,228,228,228,,,82.20022916793823,81.91750001907349,82.21748614311218,dot,"[0.1, 0.08, 0.08]","[[-0.36641147837046456, 0.28339849123565264], [-0.19108570342652328, 0.4628134959899303], [-0.16564092668537764, 0.24926372681875647]]",density,black,,,D002,visual,1,[],"['1', '2', '3', '4']",1,2023.2.3,harveyvisual,2.1,[],8,0.75,
0,pause,0.4,None,None,None,0,229,229,229,,,,,,,,,,,,,D002,visual,1,[],"['1', '2', '3', '4']",1,2023.2.3,harveyvisual,2.1,[],8,0.75,
3,dot,0.3,['dot'],['density'],black,0,230,230,230,,,82.90023612976074,82.61749196052551,82.91742300987244,dot,"[0.06, 0.1, 0.1]","[[0.348550694073714, -0.26372109460002424], [0.5073713069625243, -0.14206826334288786], [0.3419709386041379, 0.005891602819957491]]",density,black,,,D002,visual,1,[],"['1', '2', '3', '4']",1,2023.2.3,harveyvisual,2.1,[],8,0.75,
0,pause,0.4,None,None,None,0,231,231,231,,,,,,,,,,,,,D002,visual,1,[],"['1', '2', '3', '4']",1,2023.2.3,harveyvisual,2.1,[],8,0.75,
3,dot,0.3,['dot'],['density'],black,0,232,232,232,,,83.60024404525757,83.31743717193604,83.61742997169495,dot,"[0.06, 0.1, 0.1]","[[-0.3082868261871679, -0.3137599619928766], [-0.14816041357862977, -0.19371393562593295], [-0.35304767783039576, -0.10610354059871957]]",density,black,,,D002,visual,1,[],"['1', '2', '3', '4']",1,2023.2.3,harveyvisual,2.1,[],8,0.75,
0,pause,0.4,None,None,None,0,233,233,233,,,,,,,,,,,,,D002,visual,1,[],"['1', '2', '3', '4']",1,2023.2.3,harveyvisual,2.1,[],8,0.75,
3,dot,0.3,['dot'],['density'],white,0,234,234,234,,,84.30022311210632,84.01741600036621,84.31739211082458,dot,"[0.1, 0.08, 0.08]","[[-0.5081709494874314, 0.1572673197774781], [-0.37009835501087307, 0.006965763417246156], [-0.5707172634768017, -0.07177594851347295]]",density,white,,,D002,visual,1,[],"['1', '2', '3', '4']",1,2023.2.3,harveyvisual,2.1,[],8,0.75,
0,pause,0.4,None,None,None,0,235,235,235,,,,,,,,,,,1,84.47435092926025,D002,visual,1,[],"['1', '2', '3', '4']",1,2023.2.3,harveyvisual,2.1,[],8,0.75,
3,dot,0.3,['dot'],['density'],black,0,236,236,236,,,85.00023818016052,84.71752405166626,85.01743412017822,dot,"[0.08, 0.06, 0.1]","[[-0.42255820389626353, 0.35871945956833473], [-0.19896656331745483, 0.3032224324013186], [-0.25553590712368324, 0.5056038804507684]]",density,black,,,D002,visual,1,[],"['1', '2', '3', '4']",1,2023.2.3,harveyvisual,2.1,[],8,0.75,
0,pause,0.4,None,None,None,0,237,237,237,,,,,,,,,,,,,D002,visual,1,[],"['1', '2', '3', '4']",1,2023.2.3,harveyvisual,2.1,[],8,0.75,
3,dot,0.3,['dot'],['density'],black,0,238,238,238,,,85.70022416114807,85.41739511489868,85.7173810005188,dot,"[0.06, 0.08, 0.08]","[[0.06695044750400271, -0.4036822973150869], [0.2898428615912539, -0.43752325319744867], [0.2484486434572057, -0.2241911098289173]]",density,black,,,D002,visual,1,[],"['1', '2', '3', '4']",1,2023.2.3,harveyvisual,2.1,[],8,0.75,
0,pause,0.4,None,None,None,0,239,239,239,,,,,,,,,,,,,D002,visual,1,[],"['1', '2', '3', '4']",1,2023.2.3,harveyvisual,2.1,[],8,0.75,
2,dot,0.3,['dot'],['density'],black,0,240,240,240,,,86.40023708343506,86.11737012863159,86.41735315322876,dot,"[0.1, 0.06]","[[-0.22226122312079244, -0.00806926593831646], [-0.023245446524914906, -0.037240983575548024]]",density,black,,,D002,visual,1,[],"['1', '2', '3', '4']",1,2023.2.3,harveyvisual,2.1,[],8,0.75,
0,pause,0.4,None,None,None,0,241,241,241,,,,,,,,,,,,,D002,visual,1,[],"['1', '2', '3', '4']",1,2023.2.3,harveyvisual,2.1,[],8,0.75,
2,dot,0.3,['dot'],['density'],black,0,242,242,242,,,87.10022807121277,86.81735706329346,87.11736702919006,dot,"[0.08, 0.06]","[[0.1734117655345296, 0.46860731914486053], [-0.01847566562869785, 0.52581935004857]]",density,black,,,D002,visual,1,[],"['1', '2', '3', '4']",1,2023.2.3,harveyvisual,2.1,[],8,0.75,
0,pause,0.4,None,None,None,0,243,243,243,,,,,,,,,,,,,D002,visual,1,[],"['1', '2', '3', '4']",1,2023.2.3,harveyvisual,2.1,[],8,0.75,
2,dot,0.3,['dot'],['density'],black,0,244,244,244,,,87.80022501945496,87.51736617088318,87.81734704971313,dot,"[0.08, 0.1]","[[0.4298854344354601, 0.24556028782034023], [0.23727674624932948, 0.18886586315459258]]",density,black,,,D002,visual,1,[],"['1', '2', '3', '4']",1,2023.2.3,harveyvisual,2.1,[],8,0.75,
0,pause,0.4,None,None,None,0,245,245,245,,,,,,,,,,,,,D002,visual,1,[],"['1', '2', '3', '4']",1,2023.2.3,harveyvisual,2.1,[],8,0.75,
2,dot,0.3,['dot'],['density'],black,0,246,246,246,,,88.50024008750916,88.21733617782593,88.51729798316956,dot,"[0.08, 0.08]","[[-0.03288134563171543, -0.4238564918242606], [-0.10611641736664675, -0.2370354775439666]]",density,black,,,D002,visual,1,[],"['1', '2', '3', '4']",1,2023.2.3,harveyvisual,2.1,[],8,0.75,
0,pause,0.4,None,None,None,0,247,247,247,,,,,,,,,,,,,D002,visual,1,[],"['1', '2', '3', '4']",1,2023.2.3,harveyvisual,2.1,[],8,0.75,
2,dot,0.3,['dot'],['density'],black,0,248,248,248,,,89.20021915435791,88.91730117797852,89.21735000610352,dot,"[0.08, 0.1]","[[0.06661886780735636, -0.3109770134588511], [-0.03502229105109153, -0.4833380692870097]]",density,black,,,D002,visual,1,[],"['1', '2', '3', '4']",1,2023.2.3,harveyvisual,2.1,[],8,0.75,
0,pause,0.4,None,None,None,0,249,249,249,,,,,,,,,,,,,D002,visual,1,[],"['1', '2', '3', '4']",1,2023.2.3,harveyvisual,2.1,[],8,0.75,
2,dot,0.3,['dot'],['density'],black,0,250,250,250,,,89.90023899078369,89.61735916137695,89.91737008094788,dot,"[0.08, 0.08]","[[0.5590929928249944, 0.05901985638302875], [0.5065513741473344, -0.13409141480534237]]",density,black,,,D002,visual,1,[],"['1', '2', '3', '4']",1,2023.2.3,harveyvisual,2.1,[],8,0.75,
0,pause,0.4,None,None,None,0,251,251,251,,,,,,,,,,,,,D002,visual,1,[],"['1', '2', '3', '4']",1,2023.2.3,harveyvisual,2.1,[],8,0.75,
1,dot,0.3,['dot'],['density'],black,0,252,252,252,,,90.60022306442261,90.31735515594482,90.61727714538574,dot,[0.1],"[0.21839164384074103, 0.06179923858190914]",density,black,,,D002,visual,1,[],"['1', '2', '3', '4']",1,2023.2.3,harveyvisual,2.1,[],8,0.75,
0,pause,0.4,None,None,None,0,253,253,253,,,,,,,,,,,,,D002,visual,1,[],"['1', '2', '3', '4']",1,2023.2.3,harveyvisual,2.1,[],8,0.75,
1,dot,0.3,['dot'],['density'],white,0,254,254,254,,,91.30023002624512,91.01726603507996,91.31724405288696,dot,[0.1],"[-0.3631366314731191, 0.1590646049745197]",density,white,,,D002,visual,1,[],"['1', '2', '3', '4']",1,2023.2.3,harveyvisual,2.1,[],8,0.75,
0,pause,0.4,None,None,None,0,255,255,255,,,,,,,,,,,1,91.47115588188171,D002,visual,1,[],"['1', '2', '3', '4']",1,2023.2.3,harveyvisual,2.1,[],8,0.75,
1,dot,0.3,['dot'],['density'],black,0,256,256,256,,,92.00023603439331,91.71720814704895,92.01719903945923,dot,[0.06],"[-0.045934412585722416, -0.12236734128406912]",density,black,,,D002,visual,1,[],"['1', '2', '3', '4']",1,2023.2.3,harveyvisual,2.1,[],8,0.75,
0,pause,0.4,None,None,None,0,257,257,257,,,,,,,,,,,,,D002,visual,1,[],"['1', '2', '3', '4']",1,2023.2.3,harveyvisual,2.1,[],8,0.75,
1,dot,0.3,['dot'],['density'],black,0,258,258,258,,,92.70024299621582,92.41719198226929,92.71718001365662,dot,[0.08],"[0.5163804524385218, 0.172353611070521]",density,black,,,D002,visual,1,[],"['1', '2', '3', '4']",1,2023.2.3,harveyvisual,2.1,[],8,0.75,
0,pause,0.4,None,None,None,0,259,259,259,,,,,,,,,,,,,D002,visual,1,[],"['1', '2', '3', '4']",1,2023.2.3,harveyvisual,2.1,[],8,0.75,
1,dot,0.3,['dot'],['density'],black,0,260,260,260,,,93.40024709701538,93.11717319488525,93.41716814041138,dot,[0.08],"[-0.045934412585722416, -0.12236734128406912]",density,black,,,D002,visual,1,[],"['1', '2', '3', '4']",1,2023.2.3,harveyvisual,2.1,[],8,0.75,
0,pause,0.4,None,None,None,0,261,261,261,,,,,,,,,,,,,D002,visual,1,[],"['1', '2', '3', '4']",1,2023.2.3,harveyvisual,2.1,[],8,0.75,
1,dot,0.3,['dot'],['density'],black,0,262,262,262,,,94.1002299785614,93.81716203689575,94.11722707748413,dot,[0.1],"[0.30758596680771827, -0.21275106234766314]",density,black,,,D002,visual,1,[],"['1', '2', '3', '4']",1,2023.2.3,harveyvisual,2.1,[],8,0.75,
0,pause,0.4,None,None,None,0,263,263,263,,,,,,,,,,,,,D002,visual,1,[],"['1', '2', '3', '4']",1,2023.2.3,harveyvisual,2.1,[],8,0.75,
20,dot,0.3,['dot'],['density'],black,0,264,264,264,,,94.80023503303528,94.51714015007019,94.81713700294495,dot,"[0.1, 0.08, 0.08, 0.08, 0.1, 0.1, 0.1, 0.06, 0.08, 0.08, 0.1, 0.06, 0.06, 0.08, 0.06, 0.06, 0.1, 0.1, 0.06, 0.08]","[[-0.2820074248371118, -0.035888880844318405], [0.46303726164697745, -0.28174892676091257], [0.4087676303824489, 0.26930809338981426], [-0.33460188236697175, -0.25184403330595595], [0.5205325885712736, 0.03819290829164296], [-0.6042879875240351, 0.020765108026239147], [0.2939440408290275, 0.08814929563549423], [-0.00792691472475926, -0.010563597916291356], [0.05660722459446721, -0.26215833693775614], [-0.2211296442926448, 0.23563186634223243], [-0.5473542193077076, 0.2474600340355424], [0.23869506247595995, -0.3999769779278425], [-0.5684678800328183, -0.18341304577504938], [-0.06531155994898541, 0.5962788780434353], [0.16846013677132365, 0.4297231242455315], [-0.09305371057679768, -0.5286680220395672], [0.2344908993521797, -0.10279621128266614], [-0.40122285850066075, 0.3831139856690381], [0.048721972886322185, 0.19269895156895056], [-0.13948741137502807, -0.22285596279374603]]",density,black,,,D002,visual,1,[],"['1', '2', '3', '4']",1,2023.2.3,harveyvisual,2.1,[],8,0.75,
0,pause,0.4,None,None,None,0,265,265,265,,,,,,,,,,,,,D002,visual,1,[],"['1', '2', '3', '4']",1,2023.2.3,harveyvisual,2.1,[],8,0.75,
20,dot,0.3,['dot'],['density'],black,0,266,266,266,,,95.50023198127747,95.21719002723694,95.51712012290955,dot,"[0.1, 0.08, 0.08, 0.08, 0.1, 0.08, 0.1, 0.06, 0.06, 0.1, 0.08, 0.08, 0.06, 0.08, 0.06, 0.06, 0.08, 0.06, 0.06, 0.08]","[[0.03188458727695376, 0.3201331004612191], [0.3337710413639038, -0.4635622316825628], [-0.5344563484710647, -0.0231374766921974], [0.47113900244793394, 0.27316021349010133], [-0.22071820583758744, -0.3005772939931251], [-0.1391587530512155, 0.5735299799106083], [-0.3258319978241635, 0.5025227651585958], [0.22174803589783942, -0.019296376935340476], [0.2521029735141954, 0.25987764025467086], [0.013432379075124734, -0.49242183453986643], [0.4836750366724244, -0.31540448428692014], [-0.18581929747345793, 0.0809855629212648], [-0.4054128406548149, -0.3913722595759822], [0.2944501808345845, -0.20805957017215204], [-0.2551435339199517, 0.26191101646221193], [0.5955705390518192, 0.06861868309098809], [0.1400621694218025, 0.494070519620726], [-0.3451120278406967, -0.039001154902212454], [-0.054065527456562124, -0.0601047776519531], [0.5270973492821848, -0.11488770249125907]]",density,black,,,D002,visual,1,[],"['1', '2', '3', '4']",1,2023.2.3,harveyvisual,2.1,[],8,0.75,
0,pause,0.4,None,None,None,0,267,267,267,,,,,,,,,,,,,D002,visual,1,[],"['1', '2', '3', '4']",1,2023.2.3,harveyvisual,2.1,[],8,0.75,
