num,mod,duration,shape,ll_cond,colors,.thisRepN,.thisTrialN,.thisN,.thisIndex,thisRow.t,notes,raw_global_time,t_start,t_stop,shapes,size,pos,cond,color,button,RT,participant,session,starting_run,left button (match/odd),right button (non-match/even),samples_per_block,psychopy version,expName,offset,audio,number_runs,radius,
1,dot,0.3,['dot'],['density'],black,0,0,0,0,,,2.400214910507202,2.108643054962158,2.4085700511932373,dot,[0.06],"[0.15956500649880873, 0.2640393008039057]",density,black,,,D002,visual,1,[],"['1', '2', '3', '4']",1,2023.2.3,harveyvisual,2.1,[],8,0.75,
0,pause,0.4,None,None,None,0,1,1,1,,,,,,,,,,,,,D002,visual,1,[],"['1', '2', '3', '4']",1,2023.2.3,harveyvisual,2.1,[],8,0.75,
1,dot,0.3,['dot'],['density'],black,0,2,2,2,,,3.100231885910034,2.8085858821868896,3.1091270446777344,dot,[0.06],"[0.4123293050259286, 0.03564095151647579]",density,black,,,D002,visual,1,[],"['1', '2', '3', '4']",1,2023.2.3,harveyvisual,2.1,[],8,0.75,
0,pause,0.4,None,None,None,0,3,3,3,,,,,,,,,,,,,D002,visual,1,[],"['1', '2', '3', '4']",1,2023.2.3,harveyvisual,2.1,[],8,0.75,
1,dot,0.3,['dot'],['density'],white,0,4,4,4,,,3.8002309799194336,3.5092060565948486,3.8091189861297607,dot,[0.06],"[-0.13294789447644317, -0.0050084293737640015]",density,white,,,D002,visual,1,[],"['1', '2', '3', '4']",1,2023.2.3,harveyvisual,2.1,[],8,0.75,
0,pause,0.4,None,None,None,0,5,5,5,,,,,,,,,,,1,3.9373531341552734,D002,visual,1,[],"['1', '2', '3', '4']",1,2023.2.3,harveyvisual,2.1,[],8,0.75,
1,dot,0.3,['dot'],['density'],black,0,6,6,6,,,4.500225067138672,4.209122896194458,4.5090460777282715,dot,[0.08],"[0.19623115665255414, 0.1676894875529279]",density,black,,,D002,visual,1,[],"['1', '2', '3', '4']",1,2023.2.3,harveyvisual,2.1,[],8,0.75,
0,pause,0.4,None,None,None,0,7,7,7,,,,,,,,,,,,,D002,visual,1,[],"['1', '2', '3', '4']",1,2023.2.3,harveyvisual,2.1,[],8,0.75,
1,dot,0.3,['dot'],['density'],black,0,8,8,8,,,5.20021390914917,4.909020900726318,5.20912504196167,dot,[0.08],"[-0.1989246115662565, -0.15069844343359862]",density,black,,,D002,visual,1,[],"['1', '2', '3', '4']",1,2023.2.3,harveyvisual,2.1,[],8,0.75,
0,pause,0.4,None,None,None,0,9,9,9,,,,,,,,,,,,,D002,visual,1,[],"['1', '2', '3', '4']",1,2023.2.3,harveyvisual,2.1,[],8,0.75,
1,dot,0.3,['dot'],['density'],black,0,10,10,10,,,5.900222063064575,5.610926866531372,5.910923004150391,dot,[0.08],"[0.00661777001411412, 0.39634766145863237]",density,black,,,D002,visual,1,[],"['1', '2', '3', '4']",1,2023.2.3,harveyvisual,2.1,[],8,0.75,
0,pause,0.4,None,None,None,0,11,11,11,,,,,,,,,,,,,D002,visual,1,[],"['1', '2', '3', '4']",1,2023.2.3,harveyvisual,2.1,[],8,0.75,
2,dot,0.3,['dot'],['density'],black,0,12,12,12,,,6.6002280712127686,6.310873031616211,6.610883951187134,dot,"[0.08, 0.1]","[[0.5159928458027473, 0.13749655768121952], [0.38343727829172375, 0.28833164788761484]]",density,black,,,D002,visual,1,[],"['1', '2', '3', '4']",1,2023.2.3,harveyvisual,2.1,[],8,0.75,
0,pause,0.4,None,None,None,0,13,13,13,,,,,,,,,,,,,D002,visual,1,[],"['1', '2', '3', '4']",1,2023.2.3,harveyvisual,2.1,[],8,0.75,
2,dot,0.3,['dot'],['density'],black,0,14,14,14,,,7.300227880477905,7.010868072509766,7.310870885848999,dot,"[0.06, 0.06]","[[0.500151128333041, 0.1656925720118866], [0.3771979967144504, 0.3235340638115745]]",density,black,,,D002,visual,1,[],"['1', '2', '3', '4']",1,2023.2.3,harveyvisual,2.1,[],8,0.75,
0,pause,0.4,None,None,None,0,15,15,15,,,,,,,,,,,,,D002,visual,1,[],"['1', '2', '3', '4']",1,2023.2.3,harveyvisual,2.1,[],8,0.75,
2,dot,0.3,['dot'],['density'],black,0,16,16,16,,,8.000236988067627,7.710850954055786,8.010864973068237,dot,"[0.08, 0.08]","[[0.19540278997321237, -0.319457995891214], [0.34462774624387493, -0.4544903302695001]]",density,black,,,D002,visual,1,[],"['1', '2', '3', '4']",1,2023.2.3,harveyvisual,2.1,[],8,0.75,
0,pause,0.4,None,None,None,0,17,17,17,,,,,,,,,,,,,D002,visual,1,[],"['1', '2', '3', '4']",1,2023.2.3,harveyvisual,2.1,[],8,0.75,
2,dot,0.3,['dot'],['density'],black,0,18,18,18,,,8.700228929519653,8.412700891494751,8.710973024368286,dot,"[0.06, 0.1]","[[-0.1809096912417549, 0.4542701565657042], [0.018526046348631375, 0.4698330185089162]]",density,black,,,D002,visual,1,[],"['1', '2', '3', '4']",1,2023.2.3,harveyvisual,2.1,[],8,0.75,
0,pause,0.4,None,None,None,0,19,19,19,,,,,,,,,,,,,D002,visual,1,[],"['1', '2', '3', '4']",1,2023.2.3,harveyvisual,2.1,[],8,0.75,
2,dot,0.3,['dot'],['density'],black,0,20,20,20,,,9.40021800994873,9.110957860946655,9.410845041275024,dot,"[0.08, 0.08]","[[-0.4579128382498026, -0.013317831223324628], [-0.28624676016543393, -0.11681778735554697]]",density,black,,,D002,visual,1,[],"['1', '2', '3', '4']",1,2023.2.3,harveyvisual,2.1,[],8,0.75,
0,pause,0.4,None,None,None,0,21,21,21,,,,,,,,,,,,,D002,visual,1,[],"['1', '2', '3', '4']",1,2023.2.3,harveyvisual,2.1,[],8,0.75,
2,dot,0.3,['dot'],['density'],black,0,22,22,22,,,10.100223064422607,9.810942888259888,10.110921859741211,dot,"[0.06, 0.08]","[[0.500151128333041, 0.1656925720118866], [0.3771979967144504, 0.3235340638115745]]",density,black,,,D002,visual,1,[],"['1', '2', '3', '4']",1,2023.2.3,harveyvisual,2.1,[],8,0.75,
0,pause,0.4,None,None,None,0,23,23,23,,,,,,,,,,,,,D002,visual,1,[],"['1', '2', '3', '4']",1,2023.2.3,harveyvisual,2.1,[],8,0.75,
3,dot,0.3,['dot'],['density'],black,0,24,24,24,,,10.800220012664795,10.510930061340332,10.810755968093872,dot,"[0.06, 0.06, 0.1]","[[-0.1827482077423914, 0.13189758396693702], [0.006935645283384683, 0.04732296079382947], [-0.049709858873230685, 0.28599666368451326]]",density,black,,,D002,visual,1,[],"['1', '2', '3', '4']",1,2023.2.3,harveyvisual,2.1,[],8,0.75,
0,pause,0.4,None,None,None,0,25,25,25,,,,,,,,,,,,,D002,visual,1,[],"['1', '2', '3', '4']",1,2023.2.3,harveyvisual,2.1,[],8,0.75,
3,dot,0.3,['dot'],['density'],black,0,26,26,26,,,11.500233888626099,11.210828065872192,11.510730981826782,dot,"[0.1, 0.06, 0.08]","[[0.3835821938049364, -0.20766469641190155], [0.321707527308891, -0.4175939354614905], [0.1897943789354585, -0.2642367600490923]]",density,black,,,D002,visual,1,[],"['1', '2', '3', '4']",1,2023.2.3,harveyvisual,2.1,[],8,0.75,
0,pause,0.4,None,None,None,0,27,27,27,,,,,,,,,,,,,D002,visual,1,[],"['1', '2', '3', '4']",1,2023.2.3,harveyvisual,2.1,[],8,0.75,
3,dot,0.3,['dot'],['density'],white,0,28,28,28,,,12.20021104812622,11.910706996917725,12.210702896118164,dot,"[0.08, 0.08, 0.1]","[[0.5267872668145167, -0.16137547842759675], [0.3420119191573968, -0.036920749927643534], [0.3185462880061428, -0.2399114968218526]]",density,white,,,D002,visual,1,[],"['1', '2', '3', '4']",1,2023.2.3,harveyvisual,2.1,[],8,0.75,
0,pause,0.4,None,None,None,0,29,29,29,,,,,,,,,,,1,12.345194101333618,D002,visual,1,[],"['1', '2', '3', '4']",1,2023.2.3,harveyvisual,2.1,[],8,0.75,
3,dot,0.3,['dot'],['density'],white,0,30,30,30,,,12.90022897720337,12.610705852508545,12.91070008277893,dot,"[0.06, 0.06, 0.06]","[[0.35100391059830643, -0.4491085892346253], [0.13011513135189492, -0.5590284990295896], [0.16905753934955023, -0.35714526366544236]]",density,white,,,D002,visual,1,[],"['1', '2', '3', '4']",1,2023.2.3,harveyvisual,2.1,[],8,0.75,
0,pause,0.4,None,None,None,0,31,31,31,,,,,,,,,,,1,13.261283159255981,D002,visual,1,[],"['1', '2', '3', '4']",1,2023.2.3,harveyvisual,2.1,[],8,0.75,
3,dot,0.3,['dot'],['density'],black,0,32,32,32,,,13.600229978561401,13.310679912567139,13.610665082931519,dot,"[0.1, 0.1, 0.06]","[[-0.04083818552357515, -0.522177599776496], [0.2241586230204485, -0.5188142294055383], [0.09506152973916207, -0.364648334381489]]",density,black,,,D002,visual,1,[],"['1', '2', '3', '4']",1,2023.2.3,harveyvisual,2.1,[],8,0.75,
0,pause,0.4,None,None,None,0,33,33,33,,,,,,,,,,,,,D002,visual,1,[],"['1', '2', '3', '4']",1,2023.2.3,harveyvisual,2.1,[],8,0.75,
3,dot,0.3,['dot'],['density'],black,0,34,34,34,,,14.30023193359375,14.01072096824646,14.310683012008667,dot,"[0.06, 0.08, 0.06]","[[0.16698284004709638, 0.14340522813657522], [0.014382160343152013, -0.0120418799203457], [0.17626274868444566, -0.13037823744598942]]",density,black,,,D002,visual,1,[],"['1', '2', '3', '4']",1,2023.2.3,harveyvisual,2.1,[],8,0.75,
0,pause,0.4,None,None,None,0,35,35,35,,,,,,,,,,,,,D002,visual,1,[],"['1', '2', '3', '4']",1,2023.2.3,harveyvisual,2.1,[],8,0.75,
4,dot,0.3,['dot'],['density'],white,0,36,36,36,,,15.000211954116821,14.710644960403442,15.01062798500061,dot,"[0.08, 0.06, 0.06, 0.06]","[[0.06241226843583792, -0.3147100539198924], [0.2553405417111816, -0.24584579293690137], [0.0027514156828475403, -0.09786489187307437], [0.1660279615748852, 0.026007470517245626]]",density,white,,,D002,visual,1,[],"['1', '2', '3', '4']",1,2023.2.3,harveyvisual,2.1,[],8,0.75,
0,pause,0.4,None,None,None,0,37,37,37,,,,,,,,,,,1,15.086533069610596,D002,visual,1,[],"['1', '2', '3', '4']",1,2023.2.3,harveyvisual,2.1,[],8,0.75,
4,dot,0.3,['dot'],['density'],black,0,38,38,38,,,15.700212955474854,15.410649061203003,15.710645914077759,dot,"[0.06, 0.1, 0.06, 0.08]","[[0.010836700166572746, 0.3385055392368038], [-0.21755291078517647, 0.23172276430217797], [0.04881011250022837, 0.13413393103699342], [-0.16894730197854985, 0.4434327172909165]]",density,black,,,D002,visual,1,[],"['1', '2', '3', '4']",1,2023.2.3,harveyvisual,2.1,[],8,0.75,
0,pause,0.4,None,None,None,0,39,39,39,,,,,,,,,,,,,D002,visual,1,[],"['1', '2', '3', '4']",1,2023.2.3,harveyvisual,2.1,[],8,0.75,
4,dot,0.3,['dot'],['density'],black,0,40,40,40,,,16.400218963623047,16.110630989074707,16.41076397895813,dot,"[0.08, 0.1, 0.1, 0.08]","[[0.041567121943163726, -0.05225384285034155], [-0.0805660347394345, -0.3501797602382367], [-0.1695568067340664, -0.0700859275369407], [0.1361950610904954, -0.2628340353233457]]",density,black,,,D002,visual,1,[],"['1', '2', '3', '4']",1,2023.2.3,harveyvisual,2.1,[],8,0.75,
0,pause,0.4,None,None,None,0,41,41,41,,,,,,,,,,,,,D002,visual,1,[],"['1', '2', '3', '4']",1,2023.2.3,harveyvisual,2.1,[],8,0.75,
4,dot,0.3,['dot'],['density'],black,0,42,42,42,,,17.100223064422607,16.810751914978027,17.110729932785034,dot,"[0.1, 0.08, 0.06, 0.1]","[[0.08172100217045614, 0.5402562525463245], [-0.024891988969352973, 0.31595276793208527], [-0.14685316472848742, 0.5184788481920529], [-0.2646655063210597, 0.3159281349431851]]",density,black,,,D002,visual,1,[],"['1', '2', '3', '4']",1,2023.2.3,harveyvisual,2.1,[],8,0.75,
0,pause,0.4,None,None,None,0,43,43,43,,,,,,,,,,,,,D002,visual,1,[],"['1', '2', '3', '4']",1,2023.2.3,harveyvisual,2.1,[],8,0.75,
4,dot,0.3,['dot'],['density'],black,0,44,44,44,,,17.800216913223267,17.51055598258972,17.810713052749634,dot,"[0.06, 0.08, 0.08, 0.08]","[[0.3428963381299033, -0.004396565162037705], [0.42558881424794154, 0.18301493672810298], [0.5687630200397232, 0.01721079717795714], [0.4301208405972816, -0.23499851958356296]]",density,black,,,D002,visual,1,[],"['1', '2', '3', '4']",1,2023.2.3,harveyvisual,2.1,[],8,0.75,
0,pause,0.4,None,None,None,0,45,45,45,,,,,,,,,,,,,D002,visual,1,[],"['1', '2', '3', '4']",1,2023.2.3,harveyvisual,2.1,[],8,0.75,
4,dot,0.3,['dot'],['density'],black,0,46,46,46,,,18.50021195411682,18.210716009140015,18.510700941085815,dot,"[0.1, 0.08, 0.1, 0.06]","[[-0.4918595852306691, 0.19162898845839058], [-0.30188041745692074, 0.10218906117132437], [-0.3018224646415858, -0.14357118929282034], [-0.4853871342809682, -0.061736688026617866]]",density,black,,,D002,visual,1,[],"['1', '2', '3', '4']",1,2023.2.3,harveyvisual,2.1,[],8,0.75,
0,pause,0.4,None,None,None,0,47,47,47,,,,,,,,,,,,,D002,visual,1,[],"['1', '2', '3', '4']",1,2023.2.3,harveyvisual,2.1,[],8,0.75,
5,dot,0.3,['dot'],['density'],black,0,48,48,48,,,19.200231075286865,18.910701036453247,19.210680961608887,dot,"[0.06, 0.1, 0.1, 0.06, 0.1]","[[-0.416197921377668, -0.28619329865683824], [-0.20866628843358032, -0.3460647126262422], [-0.5570429559765239, -0.05989317214741584], [-0.28028983240144106, -0.12146425093182346], [-0.3531870384577651, 0.07845006904085886]]",density,black,,,D002,visual,1,[],"['1', '2', '3', '4']",1,2023.2.3,harveyvisual,2.1,[],8,0.75,
0,pause,0.4,None,None,None,0,49,49,49,,,,,,,,,,,,,D002,visual,1,[],"['1', '2', '3', '4']",1,2023.2.3,harveyvisual,2.1,[],8,0.75,
5,dot,0.3,['dot'],['density'],black,0,50,50,50,,,19.90021800994873,19.61065697669983,19.910664081573486,dot,"[0.06, 0.1, 0.1, 0.08, 0.08]","[[0.2947939438731228, -0.23060267152592065], [-0.16069394766121817, -0.3416383267983795], [0.17571447256805817, -0.04795497140357211], [-0.06398416024856234, -0.043165972544212804], [0.046845399773749824, -0.2436216536023896]]",density,black,,,D002,visual,1,[],"['1', '2', '3', '4']",1,2023.2.3,harveyvisual,2.1,[],8,0.75,
0,pause,0.4,None,None,None,0,51,51,51,,,,,,,,,,,,,D002,visual,1,[],"['1', '2', '3', '4']",1,2023.2.3,harveyvisual,2.1,[],8,0.75,
5,dot,0.3,['dot'],['density'],black,0,52,52,52,,,20.600229024887085,20.31055498123169,20.61056399345398,dot,"[0.06, 0.08, 0.1, 0.1, 0.06]","[[0.11182935554897071, 0.3084500478813638], [0.20284409002608467, 0.5199666233992849], [0.31882748915707354, 0.1252782162051447], [0.39083404861423326, 0.3494221689807338], [0.1196046891632849, 0.10173499350566408]]",density,black,,,D002,visual,1,[],"['1', '2', '3', '4']",1,2023.2.3,harveyvisual,2.1,[],8,0.75,
0,pause,0.4,None,None,None,0,53,53,53,,,,,,,,,,,,,D002,visual,1,[],"['1', '2', '3', '4']",1,2023.2.3,harveyvisual,2.1,[],8,0.75,
5,dot,0.3,['dot'],['density'],black,0,54,54,54,,,21.300234079360962,21.01050901412964,21.310527086257935,dot,"[0.1, 0.06, 0.08, 0.08, 0.08]","[[-0.16893136043895146, -0.20127892763881453], [-0.5727216740452047, -0.07682091551650742], [-0.343702592036276, -0.060533526953518955], [-0.5038383983260774, 0.15268268748871192], [-0.379488354443274, -0.2704310218069364]]",density,black,,,D002,visual,1,[],"['1', '2', '3', '4']",1,2023.2.3,harveyvisual,2.1,[],8,0.75,
0,pause,0.4,None,None,None,0,55,55,55,,,,,,,,,,,,,D002,visual,1,[],"['1', '2', '3', '4']",1,2023.2.3,harveyvisual,2.1,[],8,0.75,
5,dot,0.3,['dot'],['density'],black,0,56,56,56,,,22.00022792816162,21.710469961166382,22.010506868362427,dot,"[0.06, 0.1, 0.06, 0.08, 0.08]","[[-0.2338402938730933, 0.15846616122991625], [-0.3229678957369872, -0.0901175890533356], [-0.5034912146055804, 0.021834460539281654], [-0.23914892391179104, -0.28496604153387733], [-0.10132718886958789, -0.1172648190903725]]",density,black,,,D002,visual,1,[],"['1', '2', '3', '4']",1,2023.2.3,harveyvisual,2.1,[],8,0.75,
0,pause,0.4,None,None,None,0,57,57,57,,,,,,,,,,,,,D002,visual,1,[],"['1', '2', '3', '4']",1,2023.2.3,harveyvisual,2.1,[],8,0.75,
5,dot,0.3,['dot'],['density'],black,0,58,58,58,,,22.700217962265015,22.410456895828247,22.711940050125122,dot,"[0.08, 0.08, 0.1, 0.06, 0.08]","[[-0.10197385386246118, 0.24760023034087644], [-0.014646448823952617, 0.47519555304773536], [-0.21360058910662874, 0.441350445979826], [-0.3878570731713836, 0.20534708698022924], [-0.24187982362067023, 0.06730525069120082]]",density,black,,,D002,visual,1,[],"['1', '2', '3', '4']",1,2023.2.3,harveyvisual,2.1,[],8,0.75,
0,pause,0.4,None,None,None,0,59,59,59,,,,,,,,,,,,,D002,visual,1,[],"['1', '2', '3', '4']",1,2023.2.3,harveyvisual,2.1,[],8,0.75,
6,dot,0.3,['dot'],['density'],black,0,60,60,60,,,23.400232076644897,23.110658884048462,23.41041088104248,dot,"[0.06, 0.08, 0.06, 0.1, 0.1, 0.1]","[[-0.560843418842529, -0.11752527585456686], [-0.31277608783648175, 0.04003545118838376], [-0.18207900664359264, -0.3652956678781814], [-0.41442909117718774, -0.4038021739217259], [-0.14446849917993246, -0.07035639226176245], [-0.3420415871796019, -0.1631057353810994]]",density,black,,,D002,visual,1,[],"['1', '2', '3', '4']",1,2023.2.3,harveyvisual,2.1,[],8,0.75,
0,pause,0.4,None,None,None,0,61,61,61,,,,,,,,,,,,,D002,visual,1,[],"['1', '2', '3', '4']",1,2023.2.3,harveyvisual,2.1,[],8,0.75,
6,dot,0.3,['dot'],['density'],black,0,62,62,62,,,24.100218057632446,23.81042194366455,24.110384941101074,dot,"[0.06, 0.1, 0.06, 0.08, 0.08, 0.06]","[[-0.362545063880459, -0.421860962952156], [-0.24010638466002518, -0.0327569241266412], [-0.22622339336134992, -0.23590116153186103], [-0.41823503972227205, -0.14060420183103206], [-0.028992295722001654, -0.1293578273409096], [-0.1459617666416116, -0.4591052827033254]]",density,black,,,D002,visual,1,[],"['1', '2', '3', '4']",1,2023.2.3,harveyvisual,2.1,[],8,0.75,
0,pause,0.4,None,None,None,0,63,63,63,,,,,,,,,,,,,D002,visual,1,[],"['1', '2', '3', '4']",1,2023.2.3,harveyvisual,2.1,[],8,0.75,
6,dot,0.3,['dot'],['density'],black,0,64,64,64,,,24.800225019454956,24.510644912719727,24.810636043548584,dot,"[0.1, 0.06, 0.1, 0.08, 0.06, 0.08]","[[-0.21871154593458392, 0.523205648483303], [-0.10311842393244862, 0.3355489225101837], [0.008055670172287269, 0.5366903261171385], [0.1303263863168633, 0.3782575370349718], [0.03185769749340688, 0.17145177849191712], [-0.2810167974491763, 0.15418865533644557]]",density,black,,,D002,visual,1,[],"['1', '2', '3', '4']",1,2023.2.3,harveyvisual,2.1,[],8,0.75,
0,pause,0.4,None,None,None,0,65,65,65,,,,,,,,,,,,,D002,visual,1,[],"['1', '2', '3', '4']",1,2023.2.3,harveyvisual,2.1,[],8,0.75,
6,dot,0.3,['dot'],['density'],black,0,66,66,66,,,25.500235080718994,25.210442066192627,25.510382890701294,dot,"[0.1, 0.1, 0.06, 0.1, 0.06, 0.08]","[[0.20407874700173578, -0.003607462636592132], [0.19900023894327637, 0.3924983297162132], [0.3038969651674081, 0.19297037853131338], [-0.03476334221878716, -0.0007504963676470482], [-0.04769005191199877, 0.33834827157296915], [0.0832402191747092, 0.1716866405281877]]",density,black,,,D002,visual,1,[],"['1', '2', '3', '4']",1,2023.2.3,harveyvisual,2.1,[],8,0.75,
0,pause,0.4,None,None,None,0,67,67,67,,,,,,,,,,,,,D002,visual,1,[],"['1', '2', '3', '4']",1,2023.2.3,harveyvisual,2.1,[],8,0.75,
6,dot,0.3,['dot'],['density'],black,0,68,68,68,,,26.20023488998413,25.910513877868652,26.21051287651062,dot,"[0.1, 0.06, 0.1, 0.1, 0.08, 0.1]","[[0.23625405956766557, 0.3892633732772463], [0.11760889656980711, -0.0038201085241890706], [0.42882153754783053, 0.07157264481568941], [0.22360409458703237, 0.16865996735680294], [-0.08582952339030024, 0.051003002567710905], [-0.0010028139275050567, 0.23222523166366787]]",density,black,,,D002,visual,1,[],"['1', '2', '3', '4']",1,2023.2.3,harveyvisual,2.1,[],8,0.75,
0,pause,0.4,None,None,None,0,69,69,69,,,,,,,,,,,,,D002,visual,1,[],"['1', '2', '3', '4']",1,2023.2.3,harveyvisual,2.1,[],8,0.75,
6,dot,0.3,['dot'],['density'],black,0,70,70,70,,,26.900232076644897,26.61035394668579,26.910341024398804,dot,"[0.06, 0.06, 0.1, 0.06, 0.08, 0.1]","[[0.01776890784276672, 0.3448500499300058], [-0.18238616215991446, 0.4840889924469993], [-0.2129582374372363, 0.07157874559070018], [-0.41549008775918617, 0.14353268657608398], [0.019487844458329944, 0.1389587799501653], [-0.21004805074000235, 0.2837936954907191]]",density,black,,,D002,visual,1,[],"['1', '2', '3', '4']",1,2023.2.3,harveyvisual,2.1,[],8,0.75,
0,pause,0.4,None,None,None,0,71,71,71,,,,,,,,,,,,,D002,visual,1,[],"['1', '2', '3', '4']",1,2023.2.3,harveyvisual,2.1,[],8,0.75,
7,dot,0.3,['dot'],['density'],white,0,72,72,72,,,27.600214958190918,27.310330867767334,27.610291957855225,dot,"[0.06, 0.08, 0.08, 0.08, 0.1, 0.1, 0.08]","[[0.3302081014073935, 0.19448071361351732], [-0.22286629369238187, 0.3450023392305547], [-0.11533339293480348, 0.13926201039730488], [0.12023407780451623, 0.21240672508650668], [0.2659789407074307, 0.3894086603790018], [0.026604934602130894, 0.39133200849180605], [0.212400253920387, 0.027377351413115796]]",density,white,,,D002,visual,1,[],"['1', '2', '3', '4']",1,2023.2.3,harveyvisual,2.1,[],8,0.75,
0,pause,0.4,None,None,None,0,73,73,73,,,,,,,,,,,1,27.698060035705566,D002,visual,1,[],"['1', '2', '3', '4']",1,2023.2.3,harveyvisual,2.1,[],8,0.75,
7,dot,0.3,['dot'],['density'],black,0,74,74,74,,,28.300215005874634,28.01028800010681,28.31032395362854,dot,"[0.1, 0.1, 0.06, 0.1, 0.1, 0.1, 0.08]","[[-0.39883248072855915, 0.30823732592088265], [-0.041341486549100435, 0.2390478988097413], [-0.013495537319202725, 0.5211111720540192], [-0.2415889716500472, 0.10795059447242317], [-0.023803066389735523, 0.02076064871433158], [0.14387498046506175, 0.3548008600093999], [-0.24331877599120405, 0.46521846842164205]]",density,black,,,D002,visual,1,[],"['1', '2', '3', '4']",1,2023.2.3,harveyvisual,2.1,[],8,0.75,
0,pause,0.4,None,None,None,0,75,75,75,,,,,,,,,,,,,D002,visual,1,[],"['1', '2', '3', '4']",1,2023.2.3,harveyvisual,2.1,[],8,0.75,
7,dot,0.3,['dot'],['density'],black,0,76,76,76,,,29.00023102760315,28.710278034210205,29.010249853134155,dot,"[0.1, 0.1, 0.08, 0.08, 0.08, 0.06, 0.06]","[[0.23608374802607182, -0.42864299173344095], [-0.09209027036414452, -0.12416238309953632], [0.2788105912293623, 0.0033410667889120396], [0.04539289310230788, 0.08875296613859053], [0.036272769320452085, -0.32980830156280494], [-0.23317126701056543, -0.2895908304292693], [0.15392952834370008, -0.16140965755482034]]",density,black,,,D002,visual,1,[],"['1', '2', '3', '4']",1,2023.2.3,harveyvisual,2.1,[],8,0.75,
0,pause,0.4,None,None,None,0,77,77,77,,,,,,,,,,,,,D002,visual,1,[],"['1', '2', '3', '4']",1,2023.2.3,harveyvisual,2.1,[],8,0.75,
7,dot,0.3,['dot'],['density'],black,0,78,78,78,,,29.700232982635498,29.410248041152954,29.710250854492188,dot,"[0.08, 0.08, 0.08, 0.08, 0.06, 0.1, 0.08]","[[-0.23895008888738212, 0.05027357720500052], [0.04847041368780161, 0.3376116924566045], [0.007425979130163878, -0.07582657330311053], [-0.16109724709992976, 0.33554312732420544], [-0.17199436159673825, -0.1887904434853683], [0.1858169564317131, 0.14031933770952934], [-0.038655615351801086, 0.15226176997737048]]",density,black,,,D002,visual,1,[],"['1', '2', '3', '4']",1,2023.2.3,harveyvisual,2.1,[],8,0.75,
0,pause,0.4,None,None,None,0,79,79,79,,,,,,,,,,,,,D002,visual,1,[],"['1', '2', '3', '4']",1,2023.2.3,harveyvisual,2.1,[],8,0.75,
7,dot,0.3,['dot'],['density'],black,0,80,80,80,,,30.40023708343506,30.110252857208252,30.410367965698242,dot,"[0.06, 0.1, 0.1, 0.06, 0.06, 0.06, 0.06]","[[-0.23895008888738212, 0.05027357720500052], [0.04847041368780161, 0.3376116924566045], [0.007425979130163878, -0.07582657330311053], [-0.16109724709992976, 0.33554312732420544], [-0.17199436159673825, -0.1887904434853683], [0.1858169564317131, 0.14031933770952934], [-0.038655615351801086, 0.15226176997737048]]",density,black,,,D002,visual,1,[],"['1', '2', '3', '4']",1,2023.2.3,harveyvisual,2.1,[],8,0.75,
0,pause,0.4,None,None,None,0,81,81,81,,,,,,,,,,,,,D002,visual,1,[],"['1', '2', '3', '4']",1,2023.2.3,harveyvisual,2.1,[],8,0.75,
7,dot,0.3,['dot'],['density'],black,0,82,82,82,,,31.100215911865234,30.810370922088623,31.110223054885864,dot,"[0.06, 0.1, 0.1, 0.06, 0.08, 0.08, 0.08]","[[-0.08751196138777266, -0.40239331021683095], [-0.1389983634140625, -0.1821537091642013], [-0.5212097088452917, -0.15879536445288125], [-0.24197016774290594, 0.025691971861017886], [-0.324083892787021, -0.3083678109532634], [0.06465625853811506, -0.19815494036826437], [-0.2569867334647868, -0.5155038850209747]]",density,black,,,D002,visual,1,[],"['1', '2', '3', '4']",1,2023.2.3,harveyvisual,2.1,[],8,0.75,
0,pause,0.4,None,None,None,0,83,83,83,,,,,,,,,,,,,D002,visual,1,[],"['1', '2', '3', '4']",1,2023.2.3,harveyvisual,2.1,[],8,0.75,
8,dot,0.3,['dot'],['density'],black,0,84,84,84,,,31.800222873687744,31.510365962982178,31.810216903686523,dot,"[0.1, 0.06, 0.06, 0.08, 0.1, 0.08, 0.06, 0.1]","[[-0.3306282708070712, -0.09459634407206743], [0.17708038186302957, -0.36794437316098305], [-0.34368294577136044, -0.39688855169369486], [-0.16397220561896333, 0.03033928826277653], [-0.08476975953586025, -0.41834960305423746], [-0.16765121495786453, -0.2265743681515788], [0.0449590487082352, -0.10546915507075137], [-0.5574709661459258, -0.15664368712912546]]",density,black,,,D002,visual,1,[],"['1', '2', '3', '4']",1,2023.2.3,harveyvisual,2.1,[],8,0.75,
0,pause,0.4,None,None,None,0,85,85,85,,,,,,,,,,,,,D002,visual,1,[],"['1', '2', '3', '4']",1,2023.2.3,harveyvisual,2.1,[],8,0.75,
8,dot,0.3,['dot'],['density'],black,0,86,86,86,,,32.5002338886261,32.210362911224365,32.510236978530884,dot,"[0.06, 0.1, 0.06, 0.08, 0.06, 0.08, 0.08, 0.06]","[[-0.3306282708070712, -0.09459634407206743], [0.17708038186302957, -0.36794437316098305], [-0.34368294577136044, -0.39688855169369486], [-0.16397220561896333, 0.03033928826277653], [-0.08476975953586025, -0.41834960305423746], [-0.16765121495786453, -0.2265743681515788], [0.0449590487082352, -0.10546915507075137], [-0.5574709661459258, -0.15664368712912546]]",density,black,,,D002,visual,1,[],"['1', '2', '3', '4']",1,2023.2.3,harveyvisual,2.1,[],8,0.75,
0,pause,0.4,None,None,None,0,87,87,87,,,,,,,,,,,,,D002,visual,1,[],"['1', '2', '3', '4']",1,2023.2.3,harveyvisual,2.1,[],8,0.75,
8,dot,0.3,['dot'],['density'],black,0,88,88,88,,,33.20021605491638,32.910176038742065,33.21034502983093,dot,"[0.1, 0.1, 0.08, 0.06, 0.08, 0.06, 0.1, 0.1]","[[0.4359105889063985, -0.17362457700912998], [-0.10421753759268779, -0.0599030042764737], [0.3870326705858601, 0.24174009796940588], [0.2566713073165989, 0.014561377540278508], [0.2306797840234149, -0.3263374489921181], [0.47690301692068965, 0.04601699051563034], [0.08674944532705724, -0.15383855565976665], [0.03609124925759635, 0.09790267139194009]]",density,black,,,D002,visual,1,[],"['1', '2', '3', '4']",1,2023.2.3,harveyvisual,2.1,[],8,0.75,
0,pause,0.4,None,None,None,0,89,89,89,,,,,,,,,,,,,D002,visual,1,[],"['1', '2', '3', '4']",1,2023.2.3,harveyvisual,2.1,[],8,0.75,
8,dot,0.3,['dot'],['density'],black,0,90,90,90,,,33.90022897720337,33.610296964645386,33.91017293930054,dot,"[0.06, 0.06, 0.06, 0.1, 0.08, 0.1, 0.08, 0.08]","[[-0.19427332908310624, 0.44975086906229733], [-0.40583056883657587, 0.41268852933836647], [-0.1064323235824443, 0.09134240931295125], [0.037438273390647224, 0.2873761216870531], [-0.27580465694358225, 0.2567900319995576], [0.047234249799456944, 0.4983172858691376], [0.15563182967593078, 0.1192504703698398], [-0.32834908909536226, -0.014402300111889832]]",density,black,,,D002,visual,1,[],"['1', '2', '3', '4']",1,2023.2.3,harveyvisual,2.1,[],8,0.75,
0,pause,0.4,None,None,None,0,91,91,91,,,,,,,,,,,,,D002,visual,1,[],"['1', '2', '3', '4']",1,2023.2.3,harveyvisual,2.1,[],8,0.75,
8,dot,0.3,['dot'],['density'],white,0,92,92,92,,,34.60022687911987,34.31017708778381,34.610162019729614,dot,"[0.06, 0.1, 0.1, 0.06, 0.06, 0.1, 0.06, 0.06]","[[-0.43120034012996816, -0.3965796075128045], [0.1478983624034229, -0.46770986256388064], [-0.23058307999139557, -0.3238539366063682], [-0.07988642296593639, -0.13993938361429092], [-0.08664795903044427, -0.5418074813242995], [0.11879255589163208, -0.1637425359681226], [-0.09873641234556067, 0.08705286872936738], [-0.025120016651009644, -0.34045580780112095]]",density,white,,,D002,visual,1,[],"['1', '2', '3', '4']",1,2023.2.3,harveyvisual,2.1,[],8,0.75,
0,pause,0.4,None,None,None,0,93,93,93,,,,,,,,,,,1,34.69796919822693,D002,visual,1,[],"['1', '2', '3', '4']",1,2023.2.3,harveyvisual,2.1,[],8,0.75,
8,dot,0.3,['dot'],['density'],black,0,94,94,94,,,35.300222873687744,35.01015090942383,35.31013488769531,dot,"[0.06, 0.08, 0.08, 0.1, 0.08, 0.1, 0.08, 0.08]","[[-0.0012777187897950197, 0.3966007492927722], [-0.28447363834021117, 0.3159852715582059], [0.19942587273623266, 0.5530929527666414], [0.21318140018031628, 0.35154814550636243], [0.2022184519229619, 0.1402347591191321], [-0.03399167273692697, 0.18426518172063944], [0.09045107803968953, -0.0428478536761596], [-0.13826990130262626, -0.021750669296841257]]",density,black,,,D002,visual,1,[],"['1', '2', '3', '4']",1,2023.2.3,harveyvisual,2.1,[],8,0.75,
0,pause,0.4,None,None,None,0,95,95,95,,,,,,,,,,,,,D002,visual,1,[],"['1', '2', '3', '4']",1,2023.2.3,harveyvisual,2.1,[],8,0.75,
9,dot,0.3,['dot'],['density'],black,0,96,96,96,,,36.000226974487305,35.71010994911194,36.010091066360474,dot,"[0.06, 0.08, 0.1, 0.06, 0.08, 0.06, 0.1, 0.08, 0.06]","[[-0.3974741157875733, -0.3691322615124248], [0.01813275331019438, -0.041305186939584786], [-0.297817964195003, 0.1404435238036691], [-0.24996212712231053, -0.10674501212047392], [-0.45607543705465475, -0.10954340680539053], [-0.5097726394514722, 0.08872958744943038], [-0.16376728557074105, -0.3354799619734228], [-0.07115584905184995, 0.17737469530672276], [-0.4529869372404742, 0.29851616761646654]]",density,black,,,D002,visual,1,[],"['1', '2', '3', '4']",1,2023.2.3,harveyvisual,2.1,[],8,0.75,
0,pause,0.4,None,None,None,0,97,97,97,,,,,,,,,,,,,D002,visual,1,[],"['1', '2', '3', '4']",1,2023.2.3,harveyvisual,2.1,[],8,0.75,
9,dot,0.3,['dot'],['density'],black,0,98,98,98,,,36.70023703575134,36.41010093688965,36.710082054138184,dot,"[0.08, 0.1, 0.1, 0.06, 0.06, 0.08, 0.08, 0.1, 0.06]","[[0.26246064217380705, -0.20881461689055444], [-0.05738061480455322, -0.2104867327221427], [-0.15279665209492657, -0.4570696492981838], [-0.25848085101471047, 0.03539482855188907], [0.05438928923437074, -0.041842351158073866], [-0.266438460152573, -0.22510974363943476], [-0.08630847597628627, 0.16925380219028288], [0.1378984379274782, 0.16880467564350782], [0.14927440204233722, -0.41110624343475755]]",density,black,,,D002,visual,1,[],"['1', '2', '3', '4']",1,2023.2.3,harveyvisual,2.1,[],8,0.75,
0,pause,0.4,None,None,None,0,99,99,99,,,,,,,,,,,,,D002,visual,1,[],"['1', '2', '3', '4']",1,2023.2.3,harveyvisual,2.1,[],8,0.75,
9,dot,0.3,['dot'],['density'],black,0,100,100,100,,,37.40021991729736,37.11007308959961,37.41004991531372,dot,"[0.06, 0.1, 0.08, 0.08, 0.08, 0.06, 0.1, 0.06, 0.1]","[[0.21556792455118703, 0.37642033042102185], [0.14366510572844648, -0.18651452926789283], [0.49642287684820396, -0.0794158383055628], [-0.04770628609247857, -0.12519201939426747], [0.20310136493979325, 0.154094551714378], [-0.004065485174475974, 0.09100382633055243], [-0.018053901421587658, 0.34918523294118026], [0.29624623666919286, -0.053344657000752645], [-0.2018857737562037, 0.01971770186205045]]",density,black,,,D002,visual,1,[],"['1', '2', '3', '4']",1,2023.2.3,harveyvisual,2.1,[],8,0.75,
0,pause,0.4,None,None,None,0,101,101,101,,,,,,,,,,,,,D002,visual,1,[],"['1', '2', '3', '4']",1,2023.2.3,harveyvisual,2.1,[],8,0.75,
9,dot,0.3,['dot'],['density'],black,0,102,102,102,,,38.100215911865234,37.81005096435547,38.11005187034607,dot,"[0.06, 0.08, 0.06, 0.06, 0.1, 0.1, 0.06, 0.08, 0.1]","[[0.050129075631511706, -0.29659829200500587], [0.1522424042566208, -0.02012498145544232], [-0.31773020450764894, 0.09756431981266957], [-0.25388767024787284, -0.20865833148222632], [-0.06549152868915667, -0.10253084504872755], [-0.047012852932693645, 0.11741599898337682], [0.26526013051082903, -0.18996189821299347], [0.2442588296558726, 0.17404051307925203], [0.053323608967773835, 0.34462047536600726]]",density,black,,,D002,visual,1,[],"['1', '2', '3', '4']",1,2023.2.3,harveyvisual,2.1,[],8,0.75,
0,pause,0.4,None,None,None,0,103,103,103,,,,,,,,,,,,,D002,visual,1,[],"['1', '2', '3', '4']",1,2023.2.3,harveyvisual,2.1,[],8,0.75,
9,dot,0.3,['dot'],['density'],black,0,104,104,104,,,38.80021786689758,38.510175943374634,38.81002187728882,dot,"[0.08, 0.1, 0.06, 0.08, 0.1, 0.06, 0.06, 0.08, 0.06]","[[-0.39546702852536103, 0.05887767166707298], [0.0019437857506851024, 0.07006750722115952], [0.08809400946991845, -0.15083790972035777], [-0.35358057288562594, -0.14123029179452673], [-0.18893042820243505, -0.004761820558363635], [-0.16054322822148615, -0.2701644482013472], [-0.3593088451216199, 0.2649120528395154], [-0.09346394646241396, -0.4621051997984888], [-0.5526246027455071, -0.11781718335669726]]",density,black,,,D002,visual,1,[],"['1', '2', '3', '4']",1,2023.2.3,harveyvisual,2.1,[],8,0.75,
0,pause,0.4,None,None,None,0,105,105,105,,,,,,,,,,,,,D002,visual,1,[],"['1', '2', '3', '4']",1,2023.2.3,harveyvisual,2.1,[],8,0.75,
9,dot,0.3,['dot'],['density'],black,0,106,106,106,,,39.500223875045776,39.21017909049988,39.51013493537903,dot,"[0.08, 0.1, 0.06, 0.06, 0.06, 0.08, 0.08, 0.08, 0.1]","[[-0.011980588702785358, -0.14271344386551676], [-0.15345504415890063, -0.3599837049237609], [0.2909474261289129, -0.3591516282942406], [0.16239073734315843, -0.5386624114967425], [0.2227638828830022, -0.11271380419745088], [0.06426208015886789, 0.04859175461581491], [-0.3648571389210414, -0.3413683676300365], [0.3831858227582706, 0.019718563726728144], [0.06479696894599615, -0.3534524636945761]]",density,black,,,D002,visual,1,[],"['1', '2', '3', '4']",1,2023.2.3,harveyvisual,2.1,[],8,0.75,
0,pause,0.4,None,None,None,0,107,107,107,,,,,,,,,,,,,D002,visual,1,[],"['1', '2', '3', '4']",1,2023.2.3,harveyvisual,2.1,[],8,0.75,
20,dot,0.3,['dot'],['density'],black,0,108,108,108,,,40.20024108886719,39.909899950027466,40.209996938705444,dot,"[0.1, 0.1, 0.06, 0.06, 0.06, 0.1, 0.08, 0.1, 0.08, 0.06, 0.08, 0.08, 0.1, 0.06, 0.1, 0.1, 0.06, 0.08, 0.08, 0.06]","[[-0.5813925558448279, 0.115239819392878], [-0.3048055533998971, 0.38061833971242454], [0.4831273112543154, 0.02334691058517785], [-0.15495087373429772, -0.09529666585423785], [-0.1428717817029881, -0.35217467971128313], [0.5133614740261875, -0.265798125958695], [0.21760605072884265, -0.018605114901505626], [0.22818571478542793, 0.244013481179311], [0.2795992550789368, -0.41949979071266263], [0.5079958305544688, 0.26935840855377935], [-0.46712004055650436, -0.04412105884461848], [-0.3535169933417797, -0.4855914715004126], [0.302276512436383, 0.5133619989981072], [-0.39246309350543873, -0.2929492898466234], [0.06861924818703158, -0.4823051426883974], [-0.09401096394464614, 0.30905482185857225], [0.1639303973503632, -0.26253738101909796], [-0.1426282816546674, -0.5549123959989464], [-0.061457140280719025, 0.572161416282181], [-0.2963623904328313, 0.0865451793923161]]",density,black,,,D002,visual,1,[],"['1', '2', '3', '4']",1,2023.2.3,harveyvisual,2.1,[],8,0.75,
0,pause,0.4,None,None,None,0,109,109,109,,,,,,,,,,,,,D002,visual,1,[],"['1', '2', '3', '4']",1,2023.2.3,harveyvisual,2.1,[],8,0.75,
20,dot,0.3,['dot'],['density'],black,0,110,110,110,,,40.90021991729736,40.61001706123352,40.90993094444275,dot,"[0.06, 0.06, 0.06, 0.1, 0.08, 0.08, 0.06, 0.06, 0.1, 0.08, 0.08, 0.08, 0.1, 0.1, 0.06, 0.06, 0.06, 0.1, 0.06, 0.06]","[[0.0886919116005298, 0.5418140427227374], [0.552982793600007, -0.20119652046712844], [-0.3021389286937019, 0.14339943813846845], [-0.5296166277088458, -0.11190283287327857], [0.22591270426996835, -0.04369081271806996], [0.5510114748854839, 0.1343052162524777], [-0.16952183990111008, 0.5009842645039526], [-0.17614697944742008, -0.23961387502842207], [0.20631613502932433, -0.5392136276489313], [-0.23527454045392016, -0.0495778346994602], [-0.29048914644855495, -0.43084955421384824], [0.43418986194941167, 0.29538638501454506], [-0.5098748937789671, 0.1117852761032746], [-0.016696014247187252, -0.03307129998601366], [0.03883871443895126, -0.3878248444499943], [0.3722304045720757, -0.25994467939219135], [-0.11198659769468833, 0.27199584422895295], [0.2413148258102199, 0.2323528959325769], [-0.37488111023284043, 0.3372762865069235], [-0.0867758961971401, -0.5941349306839446]]",density,black,,,D002,visual,1,[],"['1', '2', '3', '4']",1,2023.2.3,harveyvisual,2.1,[],8,0.75,
0,pause,0.4,None,None,None,0,111,111,111,,,,,,,,,,,,,D002,visual,1,[],"['1', '2', '3', '4']",1,2023.2.3,harveyvisual,2.1,[],8,0.75,
20,dot,0.3,['dot'],['density'],black,0,112,112,112,,,41.600224018096924,41.309983015060425,41.61000204086304,dot,"[0.06, 0.08, 0.1, 0.06, 0.06, 0.08, 0.08, 0.08, 0.06, 0.08, 0.08, 0.1, 0.06, 0.08, 0.06, 0.06, 0.06, 0.06, 0.08, 0.1]","[[-0.4848677860076518, 0.14172130373880254], [0.07322949962853809, -0.14052491185888671], [-0.21717408378028502, -0.44740536332042335], [-0.03180977320513845, 0.4113881530040734], [0.36300956537656803, -0.2860790794353163], [0.13977814281017964, -0.42316306365856055], [0.28487757096808475, 0.4168277885022019], [0.543503612790391, -0.08606268656690963], [-0.4635726650988438, -0.12357473083739778], [-0.21961203027355253, -0.12785900601226158], [0.47898669092982094, 0.11053422667127355], [-0.20911311549111378, 0.3196453037585787], [-0.4267086387442992, 0.3981785279274413], [-0.05735877208630924, -0.3012915494664226], [0.08485033929214103, 0.18178434141066435], [0.29879076546628724, 0.03505373631881392], [0.1258875263340392, 0.5232218419776757], [0.4592358939999307, 0.33073763179549814], [-0.22461520573694704, 0.5395756801422265], [-0.17134636235798778, 0.10793685275726528]]",density,black,,,D002,visual,1,[],"['1', '2', '3', '4']",1,2023.2.3,harveyvisual,2.1,[],8,0.75,
0,pause,0.4,None,None,None,0,113,113,113,,,,,,,,,,,,,D002,visual,1,[],"['1', '2', '3', '4']",1,2023.2.3,harveyvisual,2.1,[],8,0.75,
20,dot,0.3,['dot'],['density'],white,0,114,114,114,,,42.300240993499756,42.00984597206116,42.309906005859375,dot,"[0.06, 0.08, 0.1, 0.1, 0.06, 0.1, 0.08, 0.08, 0.1, 0.08, 0.08, 0.08, 0.1, 0.06, 0.08, 0.1, 0.08, 0.1, 0.1, 0.08]","[[-0.09463555737626994, -0.004213846997828119], [0.09149433795930029, 0.05718520407685146], [0.11438099674420588, 0.5028926678007939], [-0.4793409235016073, 0.2795728569975962], [-0.191063123817015, 0.1883692339936266], [0.5204726230544979, 0.033122157831321886], [0.3365432038937374, 0.1641862174489055], [-0.585387032335993, -0.07518564107862315], [0.14891248980395833, 0.2390688805431489], [-0.12298538040337598, 0.4967255691741129], [-0.3254592861631246, -0.3738890583494978], [-0.11040947072503382, -0.42180382014052187], [-0.2683489993708441, -0.1294876835456099], [0.229469658732678, -0.3025103253851292], [0.3965326655920066, 0.4068718398768404], [0.29601265953133327, -0.11556273873884709], [0.4829648884713046, -0.2577681747663914], [0.2705464507872587, -0.5386821342012351], [0.05837564635285031, -0.59413400745503], [-0.26865067176339824, 0.3635505508372502]]",density,white,,,D002,visual,1,[],"['1', '2', '3', '4']",1,2023.2.3,harveyvisual,2.1,[],8,0.75,
0,pause,0.4,None,None,None,0,115,115,115,,,,,,,,,,,1,42.398885011672974,D002,visual,1,[],"['1', '2', '3', '4']",1,2023.2.3,harveyvisual,2.1,[],8,0.75,
20,dot,0.3,['dot'],['density'],black,0,116,116,116,,,43.00023794174194,42.70982789993286,43.00990104675293,dot,"[0.06, 0.08, 0.08, 0.08, 0.06, 0.06, 0.08, 0.1, 0.08, 0.08, 0.06, 0.08, 0.06, 0.08, 0.08, 0.1, 0.08, 0.1, 0.08, 0.1]","[[-0.1622901308236297, 0.3690601407527786], [-0.5126640666390154, 0.2752973913676708], [0.024380299615107015, 0.12528483416158154], [0.2848880728991069, -0.3397750770143121], [0.5053329345976073, -0.3148207186854056], [-0.15950057161475933, -0.5315316723524791], [0.35062806494343335, -0.1308882661211303], [0.5933141106436185, 0.02165957959802975], [-0.17629850660064478, 0.1341183766330022], [-0.008328841558320588, -0.3977965495086241], [0.41941260498975497, 0.33086416091358517], [-0.20646205136247753, -0.3149446343014251], [0.37057504254144247, 0.14365203101947394], [-0.011932330600938235, 0.5773059808260573], [-0.43816672312895777, -0.3270352510450858], [-0.45389177539309034, 0.07941431146356986], [0.2186603553776305, 0.5273579474714984], [0.10553000211239072, -0.14291765493737718], [-0.41842205086724454, -0.1352270603968722], [0.23352580862332928, -0.5327196757065523]]",density,black,,,D002,visual,1,[],"['1', '2', '3', '4']",1,2023.2.3,harveyvisual,2.1,[],8,0.75,
0,pause,0.4,None,None,None,0,117,117,117,,,,,,,,,,,,,D002,visual,1,[],"['1', '2', '3', '4']",1,2023.2.3,harveyvisual,2.1,[],8,0.75,
20,dot,0.3,['dot'],['density'],black,0,118,118,118,,,43.70023989677429,43.40995192527771,43.709940910339355,dot,"[0.1, 0.06, 0.08, 0.06, 0.06, 0.08, 0.08, 0.06, 0.1, 0.08, 0.08, 0.1, 0.1, 0.08, 0.06, 0.1, 0.06, 0.1, 0.1, 0.1]","[[-0.14970496795289123, -0.43761133632684224], [0.3905013166494272, -0.16205480931292648], [0.143384327983185, -0.08831013729991594], [0.5003386685595758, -0.3337955018394485], [-0.4943630319596197, -0.007953734125743517], [0.16088336586779672, -0.3536584210647641], [-0.3133473205186392, 0.5058179708477581], [0.44300870409532955, 0.04560815478409114], [0.3126487217112123, 0.453812376023102], [0.4841459174276669, 0.27258075327046427], [-0.5570131985125589, -0.22356583381617778], [-0.19157328792226486, -0.13658580944226895], [0.17032747234474377, 0.3008131965849793], [0.5825071440543098, -0.11950127111113326], [-0.5423083429941656, 0.22549191404168717], [-0.2309894619041888, 0.07745906927156987], [-0.05350726110068271, 0.3671358055016102], [0.12962252466161128, 0.5578902706794402], [0.04856582258653419, -0.5386910159990926], [-0.3531054808210262, -0.41399011840973055]]",density,black,,,D002,visual,1,[],"['1', '2', '3', '4']",1,2023.2.3,harveyvisual,2.1,[],8,0.75,
0,pause,0.4,None,None,None,0,119,119,119,,,,,,,,,,,,,D002,visual,1,[],"['1', '2', '3', '4']",1,2023.2.3,harveyvisual,2.1,[],8,0.75,
20,dot,0.3,['dot'],['density'],black,0,120,120,120,,,44.400230884552,44.109858989715576,44.40989804267883,dot,"[0.08, 0.06, 0.1, 0.1, 0.06, 0.08, 0.06, 0.08, 0.08, 0.1, 0.08, 0.1, 0.06, 0.08, 0.1, 0.06, 0.1, 0.06, 0.1, 0.06]","[[0.5868734055478649, 0.04097991100284443], [-0.19838779117879934, 0.2551893225393992], [0.20115044732247445, 0.4667524246027095], [0.12145898248616027, -0.44366422636684183], [-0.44817081703175643, 0.2142448898070382], [0.47321331007548306, -0.35960833112719714], [0.10075564111982593, -0.24794406339115505], [-0.45925958807538814, -0.0431377681352999], [-0.14965523012834314, -0.24295398211350372], [0.3973568915827387, 0.12997677754719233], [0.39656595458509114, -0.1644834619852245], [0.025710663079418716, 0.17522856629438277], [-0.012488662052155264, 0.45351564800051225], [-0.15255746653417468, -0.5295983902295401], [-0.21409253685541246, 0.024909477182272544], [0.02485731658259871, -0.052626955937072895], [-0.2777721361049552, -0.3873965619962708], [0.33655867482625923, 0.31643877639518003], [-0.2932721156687267, 0.45313164716131615], [-0.448220978299649, -0.25860101745512537]]",density,black,,,D002,visual,1,[],"['1', '2', '3', '4']",1,2023.2.3,harveyvisual,2.1,[],8,0.75,
0,pause,0.4,None,None,None,0,121,121,121,,,,,,,,,,,,,D002,visual,1,[],"['1', '2', '3', '4']",1,2023.2.3,harveyvisual,2.1,[],8,0.75,
20,dot,0.3,['dot'],['density'],black,0,122,122,122,,,45.100220918655396,44.80987095832825,45.1099009513855,dot,"[0.06, 0.06, 0.08, 0.08, 0.06, 0.08, 0.1, 0.06, 0.08, 0.06, 0.1, 0.08, 0.1, 0.1, 0.06, 0.06, 0.1, 0.1, 0.08, 0.1]","[[-0.549225063144962, 0.0711759897245613], [0.19187385220560216, 0.4615547804943282], [0.3643100412773642, -0.4452227631654371], [0.39060729086908563, 0.11286714692673572], [0.5401809187208232, -0.16762269150448467], [-0.1263286383292926, 0.5132638645177241], [0.3119560290938529, -0.15169643776177527], [-0.4268596428120075, -0.35607779939259193], [-0.4381661244976117, 0.3200981567875078], [0.11862976434967187, -0.060575995125531246], [0.3647288901463487, 0.37221921052508306], [0.1315407644331278, -0.35506445702778144], [-0.41936207901142036, -0.11279832556746006], [-0.17135837529940273, 0.13184284283993797], [-0.18794214347935306, -0.26286508179902524], [0.17781267976971948, -0.5760032881542408], [-0.20439452246605844, -0.4516923509565647], [0.1611960138930889, 0.2116554507299655], [-0.054958527520963085, 0.33490798357295404], [-0.2452576063265809, 0.3220769772240696]]",density,black,,,D002,visual,1,[],"['1', '2', '3', '4']",1,2023.2.3,harveyvisual,2.1,[],8,0.75,
0,pause,0.4,None,None,None,0,123,123,123,,,,,,,,,,,,,D002,visual,1,[],"['1', '2', '3', '4']",1,2023.2.3,harveyvisual,2.1,[],8,0.75,
20,dot,0.3,['dot'],['density'],black,0,124,124,124,,,45.80023789405823,45.50974798202515,45.80982708930969,dot,"[0.1, 0.06, 0.06, 0.1, 0.06, 0.08, 0.1, 0.06, 0.1, 0.1, 0.1, 0.1, 0.08, 0.1, 0.08, 0.06, 0.06, 0.08, 0.06, 0.1]","[[0.3075532718837447, -0.02368923028063641], [0.10057718733954657, 0.08766192137072237], [0.5868936775494084, -0.13171111209154923], [0.1658620299881608, 0.3462431944063922], [-0.41724046536786796, -0.34599087322432726], [-0.49451216633182854, -0.06589184016504157], [-0.22367323445278947, -0.41585600491919694], [0.242895325128067, -0.23187936204280202], [0.35549700107121396, -0.4790825908004302], [-0.5178166889000859, 0.2975936365556902], [0.5545781503660662, 0.0805712887794447], [0.006295897312426524, 0.5511044973599166], [-0.06523112596862457, 0.35406930708173134], [-0.21259638037852258, 0.07550551936549099], [0.4562768769968636, -0.2836172599142315], [0.35441807765009714, 0.4679896519659986], [-0.14032961592234178, -0.21345015135641343], [0.07110642828973701, -0.5558269413029691], [0.050399221200182254, -0.15368744271071305], [0.508103937928314, 0.324418377012378]]",density,black,,,D002,visual,1,[],"['1', '2', '3', '4']",1,2023.2.3,harveyvisual,2.1,[],8,0.75,
0,pause,0.4,None,None,None,0,125,125,125,,,,,,,,,,,,,D002,visual,1,[],"['1', '2', '3', '4']",1,2023.2.3,harveyvisual,2.1,[],8,0.75,
20,dot,0.3,['dot'],['density'],black,0,126,126,126,,,46.50023102760315,46.22645401954651,46.50983691215515,dot,"[0.06, 0.08, 0.08, 0.06, 0.06, 0.08, 0.1, 0.1, 0.08, 0.08, 0.1, 0.08, 0.08, 0.06, 0.08, 0.1, 0.08, 0.1, 0.1, 0.1]","[[0.48666707667704967, 0.31294699655202834], [0.19804967747716262, -0.16420029310434675], [0.30373443804865863, 0.1923344349287598], [-0.01813431970350321, 0.5900576473954104], [0.03862009107712849, -0.5236056196336161], [0.24250556638021648, -0.4277623800516521], [-0.057196453287435944, 0.14762387552041079], [-0.29549855805049524, -0.21200310275424744], [0.5023263092929656, -0.10395761724955946], [-0.17631973977743143, -0.5472707110568401], [-0.5618173159782255, -0.07974301637537415], [-0.057980178093444135, -0.20798441771290566], [-0.2340735543922553, 0.38533617180022317], [-0.17905891478581193, -0.007670876827353235], [-0.47096080424390885, 0.19723832813567632], [0.47264412827490554, -0.3722688353522869], [-0.38754454984576486, -0.3896643321878146], [0.17413615229523638, 0.460884878144342], [0.5040894566255435, 0.10926384400993344], [0.15770996015084238, 0.03628982189214691]]",density,black,,,D002,visual,1,[],"['1', '2', '3', '4']",1,2023.2.3,harveyvisual,2.1,[],8,0.75,
0,pause,0.4,None,None,None,0,127,127,127,,,,,,,,,,,,,D002,visual,1,[],"['1', '2', '3', '4']",1,2023.2.3,harveyvisual,2.1,[],8,0.75,
20,dot,0.3,['dot'],['density'],white,0,128,128,128,,,47.20022106170654,46.90993905067444,47.20992088317871,dot,"[0.06, 0.1, 0.06, 0.06, 0.06, 0.06, 0.06, 0.08, 0.08, 0.1, 0.06, 0.06, 0.08, 0.08, 0.1, 0.08, 0.08, 0.1, 0.1, 0.08]","[[-0.22667535423023633, 0.31955712328654684], [0.08201472019544198, 0.35125334046956613], [-0.3704403997923567, -0.07604623862135107], [-0.5600633643200608, 0.01359976449565689], [0.05633976905745164, -0.08738662358286176], [0.42273613744468463, 0.0346768278836736], [-0.09695913944064316, -0.26572947088392496], [0.4032657972986716, 0.42593560938822134], [-0.5658616321920096, 0.20996613878873058], [0.3480791940730874, -0.4044525883793615], [-0.04498492162049683, 0.19080483710177965], [-0.3679402689877984, -0.45205835798264166], [0.3588915382179998, -0.19705919450834897], [-0.5309813292431441, -0.2531159100608008], [0.04407524774452676, -0.4108734441719036], [-0.17748360575253985, 0.029365596543812433], [0.13521813641914326, 0.5699716451487032], [-0.13375924177094356, 0.5436062330435499], [0.18603765511414094, 0.13119857449348515], [-0.14522188232133842, -0.48731520574203396]]",density,white,,,D002,visual,1,[],"['1', '2', '3', '4']",1,2023.2.3,harveyvisual,2.1,[],8,0.75,
0,pause,0.4,None,None,None,0,129,129,129,,,,,,,,,,,1,47.387710094451904,D002,visual,1,[],"['1', '2', '3', '4']",1,2023.2.3,harveyvisual,2.1,[],8,0.75,
20,dot,0.3,['dot'],['density'],black,0,130,130,130,,,47.90022397041321,47.60985088348389,47.909910917282104,dot,"[0.08, 0.08, 0.08, 0.06, 0.06, 0.1, 0.1, 0.06, 0.08, 0.1, 0.06, 0.06, 0.1, 0.08, 0.06, 0.06, 0.06, 0.08, 0.06, 0.1]","[[0.45385823435711103, 0.19070286832942046], [-0.0010594375300825298, 0.46952698294211503], [-0.3738221466634234, 0.31614393592254314], [0.22010844087032133, 0.05706544196051144], [-0.10956489791164703, -0.4071531461396317], [0.168998630942508, 0.36020615197903805], [-0.2636480111865363, -0.19431070408203877], [0.2943368371491276, -0.32739920269221207], [-0.4630414252374698, -0.2967735850610376], [-0.26042884366845065, 0.10527723309757442], [-0.5584822736897389, 0.1218258671081254], [0.5065404194475221, -0.053333614778841354], [0.044083306132168265, -0.5711549639680199], [0.029582139474943148, -0.1686658691932329], [-0.015132034802417649, 0.12511219485994973], [-0.5563301043879243, -0.12810433151441297], [0.34344753730765176, 0.47462001328734194], [0.4957306875933035, -0.2784808132677781], [0.2818043534630338, -0.5180683972207552], [-0.31833320531513937, -0.4239173322889747]]",density,black,,,D002,visual,1,[],"['1', '2', '3', '4']",1,2023.2.3,harveyvisual,2.1,[],8,0.75,
0,pause,0.4,None,None,None,0,131,131,131,,,,,,,,,,,,,D002,visual,1,[],"['1', '2', '3', '4']",1,2023.2.3,harveyvisual,2.1,[],8,0.75,
20,dot,0.3,['dot'],['density'],black,0,132,132,132,,,48.600224018096924,48.30985403060913,48.60989999771118,dot,"[0.1, 0.06, 0.08, 0.06, 0.06, 0.06, 0.1, 0.1, 0.08, 0.08, 0.08, 0.08, 0.06, 0.08, 0.08, 0.08, 0.08, 0.08, 0.06, 0.06]","[[0.24737576202704903, 0.26677429873391356], [0.023933736650084247, 0.021484544321425214], [-0.1677495287942608, -0.14520648846011347], [-0.5587166083981139, -0.009479782231662875], [0.5215781644845973, 0.07835465195780178], [-0.15975989721993733, 0.1531169188702467], [-0.10105001227815125, -0.5427140391079766], [-0.28145449946399675, 0.4954949530807954], [0.10514284440920618, -0.48758339425482283], [0.3445793982079861, -0.20535550867719743], [0.47378781654507607, 0.34144457015955665], [-0.008812673227779011, -0.2951807666068022], [0.18475752695003878, -0.08706261404394022], [-0.5179695402941619, 0.29599797596261235], [0.18876576421467828, 0.47512633922738734], [0.5619437389729068, -0.210682157521981], [0.3169904351647108, -0.49770480672579326], [0.009387727675421065, 0.26855315675829516], [-0.45008925268153605, -0.38185589104720863], [-0.35267065177838847, 0.10711659882774904]]",density,black,,,D002,visual,1,[],"['1', '2', '3', '4']",1,2023.2.3,harveyvisual,2.1,[],8,0.75,
0,pause,0.4,None,None,None,0,133,133,133,,,,,,,,,,,,,D002,visual,1,[],"['1', '2', '3', '4']",1,2023.2.3,harveyvisual,2.1,[],8,0.75,
20,dot,0.3,['dot'],['density'],black,0,134,134,134,,,49.30023789405823,49.00970196723938,49.30976700782776,dot,"[0.06, 0.06, 0.1, 0.06, 0.06, 0.1, 0.06, 0.06, 0.08, 0.06, 0.08, 0.08, 0.1, 0.08, 0.06, 0.08, 0.1, 0.06, 0.06, 0.1]","[[-0.49655735820369873, -0.3100056104587989], [0.1093270164200153, 0.4311109088147591], [0.18838266028950956, -0.47335746315895727], [-0.026127510579572855, 0.09643680575245217], [0.3721884350288981, -0.04415339190992029], [0.29213127929289173, 0.2528942176807695], [-0.4342189350379295, -0.02684925913110303], [0.297302902355311, 0.47665576910708407], [0.19671245898556944, -0.21546277421671367], [-0.07617605405302641, 0.3813810521883496], [-0.2381999361836104, 0.5194806381234205], [0.5557597326634792, 0.08533285257852222], [0.4700300232712037, 0.338944459325274], [0.37881495206605886, -0.4302109001525268], [-0.4786342878672726, 0.1954494032724331], [-0.29507698040953134, -0.4628259194506815], [-0.02550328524560297, -0.24400136908583597], [-0.23379889598214915, -0.09988711227567204], [0.16068322594277473, 0.033711541050261196], [0.5075974986087183, -0.20291548539130738]]",density,black,,,D002,visual,1,[],"['1', '2', '3', '4']",1,2023.2.3,harveyvisual,2.1,[],8,0.75,
0,pause,0.4,None,None,None,0,135,135,135,,,,,,,,,,,,,D002,visual,1,[],"['1', '2', '3', '4']",1,2023.2.3,harveyvisual,2.1,[],8,0.75,
20,dot,0.3,['dot'],['density'],white,0,136,136,136,,,50.000242948532104,49.70993995666504,50.00985789299011,dot,"[0.1, 0.06, 0.08, 0.08, 0.1, 0.1, 0.1, 0.06, 0.06, 0.08, 0.1, 0.08, 0.06, 0.06, 0.06, 0.06, 0.08, 0.06, 0.08, 0.1]","[[-0.5265862356807048, 0.20998665762507557], [-0.33954934603274556, 0.49149605309305666], [-0.37652737033515804, -0.3086902711850174], [-0.06625045381841699, 0.15053796104065542], [0.4036817791958659, 0.2954664476166056], [0.27274936456467747, -0.2848643107579018], [0.4960495167923672, -0.22332761685700697], [0.29362395568190536, 0.46094122150501604], [0.32874188642144153, 0.10934867631133327], [0.5315561011674917, 0.13121893638917037], [-0.30439761849746294, -0.04985397954825771], [0.016838778323680303, -0.6049269087426193], [-0.5750262533515881, -0.058589241847509466], [-0.0561669713072257, -0.13155988759661463], [0.07227491369032968, 0.45268766394260107], [0.3343202174385277, -0.472603216467073], [-0.16383771926793916, -0.42363558211600294], [-0.11528393224808775, 0.37648556253716936], [0.14044287306891357, -0.10205076836664878], [0.06816035349058192, -0.2978975246628365]]",density,white,,,D002,visual,1,[],"['1', '2', '3', '4']",1,2023.2.3,harveyvisual,2.1,[],8,0.75,
0,pause,0.4,None,None,None,0,137,137,137,,,,,,,,,,,1,50.12803602218628,D002,visual,1,[],"['1', '2', '3', '4']",1,2023.2.3,harveyvisual,2.1,[],8,0.75,
20,dot,0.3,['dot'],['density'],black,0,138,138,138,,,50.700231075286865,50.426382064819336,50.70972800254822,dot,"[0.08, 0.1, 0.06, 0.1, 0.06, 0.1, 0.06, 0.06, 0.1, 0.1, 0.06, 0.08, 0.1, 0.08, 0.1, 0.1, 0.08, 0.08, 0.08, 0.1]","[[0.2171778340294428, 0.5444003761778756], [0.3372258776003152, -0.4975194300005483], [0.03741976135063374, -0.5513914027610456], [-0.2812848275815155, -0.1698361084173189], [0.3216252485729193, 0.31491837037942894], [0.2727286037417751, 0.017748571933941637], [-0.24039762815238652, 0.35567051962269114], [-0.2574445059125901, 0.545409351754691], [-0.4754889871543908, 0.18483468855861207], [0.45071925752854447, -0.2449718092834143], [0.5420332336681727, 0.06297198706379409], [-0.47769768998628165, -0.251178368466655], [-0.5983306564669444, -0.022632490656068954], [-0.08444952832170527, -0.20817841539967186], [0.11735133862280911, 0.3291494799577649], [-0.018881644204177372, -0.026167231870648733], [-0.21626279582269226, -0.4882007805538265], [0.15633836360704922, -0.27123168266062075], [-0.38601504560485617, 0.016807643888988477], [-0.1271481965298118, 0.13859172943258202]]",density,black,,,D002,visual,1,[],"['1', '2', '3', '4']",1,2023.2.3,harveyvisual,2.1,[],8,0.75,
0,pause,0.4,None,None,None,0,139,139,139,,,,,,,,,,,,,D002,visual,1,[],"['1', '2', '3', '4']",1,2023.2.3,harveyvisual,2.1,[],8,0.75,
20,dot,0.3,['dot'],['density'],black,0,140,140,140,,,51.400222063064575,51.12640690803528,51.40970492362976,dot,"[0.08, 0.08, 0.08, 0.06, 0.08, 0.06, 0.1, 0.08, 0.1, 0.08, 0.06, 0.08, 0.1, 0.1, 0.06, 0.06, 0.1, 0.06, 0.08, 0.08]","[[0.03550795287495412, 0.01333190030488618], [0.26706832461323515, -0.21217605499298953], [0.47988183219640523, 0.3049859967055749], [-0.4451933661276938, -0.020518155072359157], [-0.18601900776395164, 0.28187468989378817], [-0.3828660323192354, -0.26738519714671927], [-0.27421301480695615, -0.5037393472874028], [-0.39289460084558325, 0.36004033172988065], [0.32461061244236145, 0.4473839938357156], [0.4543000328065284, -0.0001123611833360183], [0.48235528891838986, -0.21385616592017148], [-0.4962650371820998, 0.19220483151649564], [-0.19866146342510427, 0.5034094690409509], [-0.03986691896146399, -0.343203078738659], [0.20159100236891392, -0.4430422154564892], [-0.22051732147548875, -0.13790595857880988], [0.03206340505532834, 0.5354916714163575], [0.02645342896945846, -0.5765581936797487], [-0.3133966702701077, 0.12808528502187044], [0.1535781283252402, 0.18957084913880096]]",density,black,,,D002,visual,1,[],"['1', '2', '3', '4']",1,2023.2.3,harveyvisual,2.1,[],8,0.75,
0,pause,0.4,None,None,None,0,141,141,141,,,,,,,,,,,,,D002,visual,1,[],"['1', '2', '3', '4']",1,2023.2.3,harveyvisual,2.1,[],8,0.75,
20,dot,0.3,['dot'],['density'],black,0,142,142,142,,,52.10024285316467,51.82634997367859,52.10968494415283,dot,"[0.08, 0.1, 0.06, 0.06, 0.08, 0.1, 0.06, 0.08, 0.06, 0.06, 0.08, 0.06, 0.1, 0.1, 0.08, 0.06, 0.06, 0.1, 0.1, 0.06]","[[-0.3121106843096669, 0.4844885272581503], [0.09459035478906064, 0.4031924820262768], [0.44367148073135076, 0.09623475075678911], [-0.600102326127523, -0.0673892408044924], [-0.397566480981401, -0.25607139477087515], [-0.37600659251086055, 0.1569484432564605], [0.06474577270074544, -0.19319257983242105], [0.4244753041776156, -0.3805701724974748], [0.10010475966473031, -0.5411531320006955], [0.2582223319123115, -0.1831034222775021], [0.11137023501133914, 0.103562415294143], [0.6006677493690621, -0.05976455824338385], [-0.3336421258683329, -0.4363804706464183], [-0.21155660781385394, -0.0716975428465329], [-0.1286786165574439, 0.5446090547106148], [-0.1149480340283025, -0.345456061473137], [0.4277408218173834, 0.28556205074585156], [-0.08184171788086392, 0.14978133576540997], [-0.14007572110670524, -0.5551593592585568], [0.30797625522208416, 0.45761502891617745]]",density,black,,,D002,visual,1,[],"['1', '2', '3', '4']",1,2023.2.3,harveyvisual,2.1,[],8,0.75,
0,pause,0.4,None,None,None,0,143,143,143,,,,,,,,,,,,,D002,visual,1,[],"['1', '2', '3', '4']",1,2023.2.3,harveyvisual,2.1,[],8,0.75,
20,dot,0.3,['dot'],['density'],black,0,144,144,144,,,52.80024290084839,52.526334047317505,52.80964493751526,dot,"[0.06, 0.06, 0.08, 0.08, 0.1, 0.1, 0.06, 0.06, 0.1, 0.06, 0.06, 0.06, 0.06, 0.1, 0.06, 0.1, 0.1, 0.06, 0.08, 0.1]","[[0.22188158675546277, -0.31978541402345795], [-0.5477384744028452, 0.12193988755383006], [0.48475816323330545, 0.010565053563176108], [-0.33625524786704075, -0.02088093529494467], [0.19093414795482067, 0.10206550462074426], [-0.08982333700875345, 0.15814287407085825], [-0.21184435231637533, 0.49350554133142754], [0.3285463545662214, -0.13774638380963555], [0.04778651236007525, 0.5119674387666575], [-0.34509441903552723, -0.3501233743348743], [0.48895274852954007, 0.3208609581750632], [-0.4224483629978062, 0.3835676513124486], [-0.46517903012111994, -0.18649613481722074], [0.2876929536931905, 0.40662089303321924], [-0.14331903752061775, -0.441776509450842], [0.0492321881123019, -0.60270864635386], [0.26221361769619866, -0.5312232582294586], [-0.02787185011271287, -0.0482158546006215], [-0.29858295527466955, 0.20206352728262456], [0.07691263134365045, 0.25587517039207575]]",density,black,,,D002,visual,1,[],"['1', '2', '3', '4']",1,2023.2.3,harveyvisual,2.1,[],8,0.75,
0,pause,0.4,None,None,None,0,145,145,145,,,,,,,,,,,,,D002,visual,1,[],"['1', '2', '3', '4']",1,2023.2.3,harveyvisual,2.1,[],8,0.75,
20,dot,0.3,['dot'],['density'],black,0,146,146,146,,,53.5002179145813,53.22633504867554,53.509657859802246,dot,"[0.1, 0.1, 0.08, 0.06, 0.08, 0.1, 0.06, 0.08, 0.08, 0.1, 0.06, 0.06, 0.06, 0.1, 0.08, 0.1, 0.1, 0.1, 0.06, 0.08]","[[0.45385823435711103, 0.19070286832942046], [-0.0010594375300825298, 0.46952698294211503], [-0.3738221466634234, 0.31614393592254314], [0.22010844087032133, 0.05706544196051144], [-0.10956489791164703, -0.4071531461396317], [0.168998630942508, 0.36020615197903805], [-0.2636480111865363, -0.19431070408203877], [0.2943368371491276, -0.32739920269221207], [-0.4630414252374698, -0.2967735850610376], [-0.26042884366845065, 0.10527723309757442], [-0.5584822736897389, 0.1218258671081254], [0.5065404194475221, -0.053333614778841354], [0.044083306132168265, -0.5711549639680199], [0.029582139474943148, -0.1686658691932329], [-0.015132034802417649, 0.12511219485994973], [-0.5563301043879243, -0.12810433151441297], [0.34344753730765176, 0.47462001328734194], [0.4957306875933035, -0.2784808132677781], [0.2818043534630338, -0.5180683972207552], [-0.31833320531513937, -0.4239173322889747]]",density,black,,,D002,visual,1,[],"['1', '2', '3', '4']",1,2023.2.3,harveyvisual,2.1,[],8,0.75,
0,pause,0.4,None,None,None,0,147,147,147,,,,,,,,,,,,,D002,visual,1,[],"['1', '2', '3', '4']",1,2023.2.3,harveyvisual,2.1,[],8,0.75,
20,dot,0.3,['dot'],['density'],black,0,148,148,148,,,54.200222969055176,53.92632603645325,54.20963406562805,dot,"[0.08, 0.1, 0.08, 0.08, 0.08, 0.06, 0.08, 0.08, 0.06, 0.1, 0.1, 0.06, 0.1, 0.08, 0.06, 0.06, 0.1, 0.06, 0.06, 0.08]","[[-0.300956349204004, -0.13755810736758878], [-0.4623160444350001, -0.3660029307471297], [-0.04128143074163704, 0.42099275134823566], [0.526370393712159, 0.10091038578466854], [0.5323826590492177, -0.17754361608713937], [-0.2890960341507956, 0.10290587491856307], [0.3625754101848925, 0.4399931560241854], [-0.05922718925176973, 0.16219520666258702], [-0.45174360162659866, 0.28449830415369637], [-0.5060382612145845, -0.05797632229691513], [-0.06644284880195606, -0.0859633369606122], [0.298003535736176, 0.1300299357309087], [0.2723978482691277, -0.23518879947092475], [0.14962258861804922, 0.5681082077693304], [-0.2981064027709323, -0.5028929036224787], [0.35577933065816447, -0.4605756392184189], [-0.2340253926815798, 0.32481606663513374], [-0.057754143588277684, -0.3941620457180103], [0.4955041761018629, 0.3014757295291165], [0.02167104448035906, -0.5712626234302108]]",density,black,,,D002,visual,1,[],"['1', '2', '3', '4']",1,2023.2.3,harveyvisual,2.1,[],8,0.75,
0,pause,0.4,None,None,None,0,149,149,149,,,,,,,,,,,,,D002,visual,1,[],"['1', '2', '3', '4']",1,2023.2.3,harveyvisual,2.1,[],8,0.75,
20,dot,0.3,['dot'],['density'],white,0,150,150,150,,,54.90022397041321,54.62628102302551,54.90959191322327,dot,"[0.1, 0.08, 0.08, 0.08, 0.08, 0.08, 0.06, 0.08, 0.08, 0.1, 0.08, 0.1, 0.1, 0.08, 0.08, 0.08, 0.1, 0.08, 0.1, 0.08]","[[0.5326035685649232, -0.09325240880710081], [-0.24194914319730865, -0.06085536964999988], [0.49170116374493544, 0.163889102695499], [0.3508111338759734, 0.30811267894479266], [-0.23069925089708654, 0.35331018853813023], [-0.30111405475280967, -0.41255247194261874], [0.2820510220051464, -0.180140450254356], [-0.4405452802759675, 0.24755133588992573], [-0.4473223520920887, -0.1763837473926822], [0.23853888526423062, 0.05997515691402999], [0.026020767672821465, -0.46892220234965837], [-0.11980017969163848, 0.18014798108501473], [0.4117464993611669, -0.38623191811490226], [0.21145192011098624, 0.47552421780694176], [0.0010748442523265123, 0.3792223411443636], [-0.014445151472018414, -0.07490010396608504], [-0.158377721303746, -0.28635980659708643], [-0.5997932374445776, 0.0775464203154911], [0.2179661773825844, -0.5398412608594994], [-0.07288906807652684, 0.5656964772242878]]",density,white,,,D002,visual,1,[],"['1', '2', '3', '4']",1,2023.2.3,harveyvisual,2.1,[],8,0.75,
0,pause,0.4,None,None,None,0,151,151,151,,,,,,,,,,,1,55.0284481048584,D002,visual,1,[],"['1', '2', '3', '4']",1,2023.2.3,harveyvisual,2.1,[],8,0.75,
20,dot,0.3,['dot'],['density'],black,0,152,152,152,,,55.60021901130676,55.32642388343811,55.6097469329834,dot,"[0.1, 0.08, 0.08, 0.1, 0.08, 0.06, 0.08, 0.06, 0.08, 0.1, 0.1, 0.06, 0.08, 0.06, 0.1, 0.06, 0.1, 0.08, 0.08, 0.06]","[[0.3087455055726239, 0.20922392952596436], [0.5971331609904665, -0.039212107515497016], [-0.3644979572816402, -0.06707535942590814], [-0.44265968226501373, -0.3593831758089602], [-0.04731168472943703, 0.49716826670247494], [0.31511464236937115, -0.20124655838665806], [0.11021848349369778, 0.12207307519573252], [0.07431901639487071, -0.5966262403369734], [-0.27924491989506445, 0.17177112880166578], [0.13150469378995278, -0.4063505813882802], [0.0431360299291379, -0.1049541618969827], [-0.6014269094297612, -0.024147634229810096], [-0.20585833481070476, 0.389626238894362], [0.4999389205387058, 0.1606561514541595], [0.2124368375085227, 0.4010504241430366], [0.5035010203052602, -0.2890341743944924], [-0.17861268516607764, -0.356655065951078], [-0.47841991151060903, 0.19173047031573165], [-0.14728037350000628, 0.01531626160986499], [-0.40844262555806776, 0.43206319475437943]]",density,black,,,D002,visual,1,[],"['1', '2', '3', '4']",1,2023.2.3,harveyvisual,2.1,[],8,0.75,
0,pause,0.4,None,None,None,0,153,153,153,,,,,,,,,,,,,D002,visual,1,[],"['1', '2', '3', '4']",1,2023.2.3,harveyvisual,2.1,[],8,0.75,
20,dot,0.3,['dot'],['density'],white,0,154,154,154,,,56.30024003982544,56.00966286659241,56.30972099304199,dot,"[0.06, 0.1, 0.1, 0.08, 0.1, 0.1, 0.1, 0.1, 0.1, 0.08, 0.08, 0.06, 0.06, 0.1, 0.1, 0.08, 0.08, 0.08, 0.06, 0.1]","[[-0.5870419528625236, -0.0666569289476034], [0.12399379391623555, -0.2539313476418084], [0.41172872217293166, 0.302309341253146], [0.5869457985126009, 0.0744378860486907], [0.022524117898625295, -0.5836210295787579], [0.24088702097215153, 0.05524308947308554], [-0.40647985472648923, 0.2878526814141528], [-0.3898138439430986, -0.055726101753538426], [0.3417506910289754, -0.40355819103300594], [-0.3509439577152418, -0.2929556626618063], [-0.15628653362771422, 0.20553197299695347], [0.5062089194747385, -0.16245792253784244], [-0.20084597975840518, -0.5004180989027655], [-0.18176325476849114, 0.4042690951865838], [0.04032029035757945, 0.36898462440068913], [-0.0640664660260376, 0.027644997343525213], [0.1433361118301908, 0.5768964861757786], [-0.5635866428741411, 0.1293883652613506], [0.3018528411866145, -0.14972903776217533], [-0.19910826457596142, -0.13645235542707979]]",density,white,,,D002,visual,1,[],"['1', '2', '3', '4']",1,2023.2.3,harveyvisual,2.1,[],8,0.75,
0,pause,0.4,None,None,None,0,155,155,155,,,,,,,,,,,1,56.4766800403595,D002,visual,1,[],"['1', '2', '3', '4']",1,2023.2.3,harveyvisual,2.1,[],8,0.75,
9,dot,0.3,['dot'],['density'],black,0,156,156,156,,,57.00023603439331,56.70974397659302,57.00953197479248,dot,"[0.1, 0.06, 0.08, 0.1, 0.06, 0.08, 0.06, 0.08, 0.1]","[[0.12352761201622256, -0.5468572532837559], [0.3269537579821693, -0.14821727133703638], [-0.17374906020363926, -0.07190913605219341], [-0.07646026346349713, -0.5341566642345157], [0.06446752128858728, 0.011530587655488696], [0.17734850627899523, -0.32847254707869106], [-0.01015131191695844, -0.24065236825376074], [-0.3732824370369478, -0.21519922319826376], [-0.23017550258214428, -0.35747389881463476]]",density,black,,,D002,visual,1,[],"['1', '2', '3', '4']",1,2023.2.3,harveyvisual,2.1,[],8,0.75,
0,pause,0.4,None,None,None,0,157,157,157,,,,,,,,,,,,,D002,visual,1,[],"['1', '2', '3', '4']",1,2023.2.3,harveyvisual,2.1,[],8,0.75,
9,dot,0.3,['dot'],['density'],black,0,158,158,158,,,57.70023798942566,57.409615993499756,57.70954608917236,dot,"[0.06, 0.06, 0.06, 0.1, 0.1, 0.08, 0.06, 0.06, 0.06]","[[0.050129075631511706, -0.29659829200500587], [0.1522424042566208, -0.02012498145544232], [-0.31773020450764894, 0.09756431981266957], [-0.25388767024787284, -0.20865833148222632], [-0.06549152868915667, -0.10253084504872755], [-0.047012852932693645, 0.11741599898337682], [0.26526013051082903, -0.18996189821299347], [0.2442588296558726, 0.17404051307925203], [0.053323608967773835, 0.34462047536600726]]",density,black,,,D002,visual,1,[],"['1', '2', '3', '4']",1,2023.2.3,harveyvisual,2.1,[],8,0.75,
0,pause,0.4,None,None,None,0,159,159,159,,,,,,,,,,,,,D002,visual,1,[],"['1', '2', '3', '4']",1,2023.2.3,harveyvisual,2.1,[],8,0.75,
9,dot,0.3,['dot'],['density'],black,0,160,160,160,,,58.40022897720337,58.10963988304138,58.40962600708008,dot,"[0.06, 0.08, 0.06, 0.06, 0.1, 0.1, 0.06, 0.08, 0.1]","[[0.31750259908069645, 0.09103062301409195], [-0.10814993995151222, -0.14883262012051235], [0.2615101699546999, -0.13245952524223892], [0.014531427323725789, 0.3887544696515085], [-0.1117096847062306, 0.09593752649312724], [0.07810272484559946, -0.019955638642360052], [-0.26173373106631487, 0.2840804484106463], [0.4370020372247476, 0.2669512546191977], [0.11115841416421544, 0.18722161068425575]]",density,black,,,D002,visual,1,[],"['1', '2', '3', '4']",1,2023.2.3,harveyvisual,2.1,[],8,0.75,
0,pause,0.4,None,None,None,0,161,161,161,,,,,,,,,,,,,D002,visual,1,[],"['1', '2', '3', '4']",1,2023.2.3,harveyvisual,2.1,[],8,0.75,
9,dot,0.3,['dot'],['density'],black,0,162,162,162,,,59.10022687911987,58.80946087837219,59.109454870224,dot,"[0.06, 0.08, 0.06, 0.06, 0.08, 0.1, 0.06, 0.06, 0.08]","[[0.02295687172906439, -0.4555612238154966], [0.343534432465795, -0.2595759245515751], [-0.16187815285083418, -0.09052449078383604], [0.11251247888811697, -0.27313237114007116], [0.30947849701411384, 0.04064216277921932], [0.06991680920562879, 0.010838090335221196], [-0.17538857600721916, -0.30040513178321704], [-0.11470383471809205, 0.10558329706542706], [-0.35883798189287325, -0.15372405551062507]]",density,black,,,D002,visual,1,[],"['1', '2', '3', '4']",1,2023.2.3,harveyvisual,2.1,[],8,0.75,
0,pause,0.4,None,None,None,0,163,163,163,,,,,,,,,,,,,D002,visual,1,[],"['1', '2', '3', '4']",1,2023.2.3,harveyvisual,2.1,[],8,0.75,
9,dot,0.3,['dot'],['density'],black,0,164,164,164,,,59.80021905899048,59.50960397720337,59.80943489074707,dot,"[0.08, 0.06, 0.06, 0.1, 0.06, 0.08, 0.06, 0.08, 0.1]","[[0.005765111513037631, -0.143111035787845], [-0.396275933094447, -0.3321437400526764], [0.037546025436095476, -0.5612590109297682], [-0.23561619682408028, -0.19372599185683617], [-0.24582953746203298, -0.47553838121684505], [-0.07047609790874906, -0.3562711323606942], [-0.09403038697424164, 0.06164574472317626], [0.13577280496850042, -0.3868547356250126], [0.15608206217807025, 0.06264253907795621]]",density,black,,,D002,visual,1,[],"['1', '2', '3', '4']",1,2023.2.3,harveyvisual,2.1,[],8,0.75,
0,pause,0.4,None,None,None,0,165,165,165,,,,,,,,,,,,,D002,visual,1,[],"['1', '2', '3', '4']",1,2023.2.3,harveyvisual,2.1,[],8,0.75,
9,dot,0.3,['dot'],['density'],white,0,166,166,166,,,60.50022506713867,60.20948505401611,60.509434938430786,dot,"[0.06, 0.08, 0.08, 0.08, 0.06, 0.1, 0.1, 0.06, 0.1]","[[0.08305850914464513, -0.5442468290176591], [0.035628337695759515, -0.10623885656661826], [-0.40455734034313895, -0.4103448572564978], [-0.27695520492017833, -0.22921059622728732], [-0.0679181879583315, -0.31282249044743377], [0.15394835823740735, -0.27999833282003045], [0.36545074601266236, -0.2024769979494575], [-0.18616414474285772, -0.004612976462616847], [-0.15152437179077458, -0.5570863580044498]]",density,white,,,D002,visual,1,[],"['1', '2', '3', '4']",1,2023.2.3,harveyvisual,2.1,[],8,0.75,
0,pause,0.4,None,None,None,0,167,167,167,,,,,,,,,,,1,60.60012722015381,D002,visual,1,[],"['1', '2', '3', '4']",1,2023.2.3,harveyvisual,2.1,[],8,0.75,
8,dot,0.3,['dot'],['density'],black,0,168,168,168,,,61.20024585723877,60.90941500663757,61.2093939781189,dot,"[0.08, 0.06, 0.08, 0.08, 0.1, 0.06, 0.1, 0.06]","[[0.2695774744445919, -0.006239189610034271], [0.562582848369008, 0.10338967896652898], [0.24075709842543627, 0.2415297589697605], [0.16944247952526825, 0.43473569867318385], [0.009973801462114143, 0.2622623098226203], [0.4378981685404615, 0.30984992123658367], [0.345623627049791, -0.19390063473497438], [0.01218861403819752, 6.35764658527089e-05]]",density,black,,,D002,visual,1,[],"['1', '2', '3', '4']",1,2023.2.3,harveyvisual,2.1,[],8,0.75,
0,pause,0.4,None,None,None,0,169,169,169,,,,,,,,,,,,,D002,visual,1,[],"['1', '2', '3', '4']",1,2023.2.3,harveyvisual,2.1,[],8,0.75,
8,dot,0.3,['dot'],['density'],black,0,170,170,170,,,61.900224924087524,61.60943388938904,61.90943193435669,dot,"[0.06, 0.08, 0.08, 0.1, 0.06, 0.06, 0.08, 0.08]","[[0.48529715144174124, -0.2697678579736521], [0.37309741842769656, 0.0699077870123373], [0.051182379473491794, 0.02141531407813483], [0.5234917469593858, 0.26578075419350655], [0.558201411832675, -0.037120345964853765], [0.22738215197141995, 0.24608732841731215], [0.3038957292845804, -0.12934366054116395], [0.024689158081869923, 0.25216756052328354]]",density,black,,,D002,visual,1,[],"['1', '2', '3', '4']",1,2023.2.3,harveyvisual,2.1,[],8,0.75,
0,pause,0.4,None,None,None,0,171,171,171,,,,,,,,,,,,,D002,visual,1,[],"['1', '2', '3', '4']",1,2023.2.3,harveyvisual,2.1,[],8,0.75,
8,dot,0.3,['dot'],['density'],black,0,172,172,172,,,62.600231885910034,62.30943298339844,62.62703490257263,dot,"[0.08, 0.06, 0.08, 0.08, 0.1, 0.06, 0.08, 0.1]","[[-0.3167478768396544, -0.2124469325344782], [0.11150510454677101, -0.25361932254341324], [0.17657050060311263, -0.496926349220185], [0.20833757931744315, -0.0002320808252021913], [-0.0015234955214533466, 0.034722119540356526], [-0.10690598217119997, -0.19846612199298916], [0.32498422138424443, -0.23444872628509345], [-0.054741640541526956, -0.4230750989992696]]",density,black,,,D002,visual,1,[],"['1', '2', '3', '4']",1,2023.2.3,harveyvisual,2.1,[],8,0.75,
0,pause,0.4,None,None,None,0,173,173,173,,,,,,,,,,,,,D002,visual,1,[],"['1', '2', '3', '4']",1,2023.2.3,harveyvisual,2.1,[],8,0.75,
8,dot,0.3,['dot'],['density'],black,0,174,174,174,,,63.30022406578064,63.0095329284668,63.309489011764526,dot,"[0.08, 0.06, 0.1, 0.08, 0.1, 0.1, 0.08, 0.06]","[[-0.19469543066458847, -0.326291241472255], [0.30343637985980976, -0.10925869102227477], [-0.1969922581528186, -0.11664339975312436], [0.2570255161168456, -0.3247060146943647], [0.10684135558856425, -0.18174565546534566], [0.03482742583321104, -0.4893606045609451], [-0.015658395544436696, -0.0001692298399926468], [0.11980560642279467, 0.15585563517441894]]",density,black,,,D002,visual,1,[],"['1', '2', '3', '4']",1,2023.2.3,harveyvisual,2.1,[],8,0.75,
0,pause,0.4,None,None,None,0,175,175,175,,,,,,,,,,,,,D002,visual,1,[],"['1', '2', '3', '4']",1,2023.2.3,harveyvisual,2.1,[],8,0.75,
8,dot,0.3,['dot'],['density'],white,0,176,176,176,,,64.00023889541626,63.709497928619385,64.00947904586792,dot,"[0.1, 0.06, 0.08, 0.1, 0.1, 0.1, 0.08, 0.1]","[[-0.17382250058115215, 0.008030820220576582], [-0.5561520679887834, 0.09064024109159684], [-0.2322770524578434, -0.18818443710846813], [-0.41357291590276396, -0.2905316508268561], [-0.37423053416790164, -0.04064357687765813], [-0.014699175284411378, 0.15059198662288528], [-0.015485985535575739, -0.1348843831724925], [-0.36639977644872057, 0.228205681233079]]",density,white,,,D002,visual,1,[],"['1', '2', '3', '4']",1,2023.2.3,harveyvisual,2.1,[],8,0.75,
0,pause,0.4,None,None,None,0,177,177,177,,,,,,,,,,,1,64.09361720085144,D002,visual,1,[],"['1', '2', '3', '4']",1,2023.2.3,harveyvisual,2.1,[],8,0.75,
8,dot,0.3,['dot'],['density'],black,0,178,178,178,,,64.70023703575134,64.40947103500366,64.70946002006531,dot,"[0.06, 0.08, 0.06, 0.08, 0.08, 0.1, 0.08, 0.1]","[[0.2564657333297123, -0.5164120873644681], [0.16207736998829034, -0.17430025554579232], [0.3801370228700199, -0.12440354324600712], [0.3861419762144276, -0.3474957963553726], [0.023072413076989942, -0.006703975881976366], [-0.07114697953604181, -0.35683211304459495], [0.45447188669532573, 0.06927659529933487], [0.23571610799738704, 0.02784742549372824]]",density,black,,,D002,visual,1,[],"['1', '2', '3', '4']",1,2023.2.3,harveyvisual,2.1,[],8,0.75,
0,pause,0.4,None,None,None,0,179,179,179,,,,,,,,,,,,,D002,visual,1,[],"['1', '2', '3', '4']",1,2023.2.3,harveyvisual,2.1,[],8,0.75,
7,dot,0.3,['dot'],['density'],black,0,180,180,180,,,65.400230884552,65.10946893692017,65.40936088562012,dot,"[0.06, 0.06, 0.08, 0.06, 0.08, 0.1, 0.1]","[[-0.23867826801906328, -0.4967507610264224], [-0.008572732368673055, -0.07934474412745643], [-0.2066881937132076, -0.2790710878612567], [0.21709551483580575, -0.47507177834902015], [0.2058411173229685, -0.17553172422760346], [-0.015438952742397984, -0.3568653319460787], [-0.011603255668745115, -0.5749057065343526]]",density,black,,,D002,visual,1,[],"['1', '2', '3', '4']",1,2023.2.3,harveyvisual,2.1,[],8,0.75,
0,pause,0.4,None,None,None,0,181,181,181,,,,,,,,,,,,,D002,visual,1,[],"['1', '2', '3', '4']",1,2023.2.3,harveyvisual,2.1,[],8,0.75,
7,dot,0.3,['dot'],['density'],black,0,182,182,182,,,66.10022187232971,65.80947494506836,66.1094319820404,dot,"[0.08, 0.08, 0.06, 0.1, 0.08, 0.06, 0.08]","[[0.36124702795982905, 0.02861074637729004], [0.035495459613383976, -0.03736980990239832], [0.4545067059830119, -0.22475560039862832], [0.21831658066582188, 0.20471036725638603], [0.23621436127430617, -0.13960795011418334], [0.5606656921354746, -0.047865395727918474], [0.5468561378002438, 0.2161657569851178]]",density,black,,,D002,visual,1,[],"['1', '2', '3', '4']",1,2023.2.3,harveyvisual,2.1,[],8,0.75,
0,pause,0.4,None,None,None,0,183,183,183,,,,,,,,,,,,,D002,visual,1,[],"['1', '2', '3', '4']",1,2023.2.3,harveyvisual,2.1,[],8,0.75,
7,dot,0.3,['dot'],['density'],black,0,184,184,184,,,66.80023193359375,66.50945687294006,66.80930685997009,dot,"[0.1, 0.1, 0.08, 0.08, 0.08, 0.1, 0.1]","[[0.3302081014073935, 0.19448071361351732], [-0.22286629369238187, 0.3450023392305547], [-0.11533339293480348, 0.13926201039730488], [0.12023407780451623, 0.21240672508650668], [0.2659789407074307, 0.3894086603790018], [0.026604934602130894, 0.39133200849180605], [0.212400253920387, 0.027377351413115796]]",density,black,,,D002,visual,1,[],"['1', '2', '3', '4']",1,2023.2.3,harveyvisual,2.1,[],8,0.75,
0,pause,0.4,None,None,None,0,185,185,185,,,,,,,,,,,,,D002,visual,1,[],"['1', '2', '3', '4']",1,2023.2.3,harveyvisual,2.1,[],8,0.75,
7,dot,0.3,['dot'],['density'],black,0,186,186,186,,,67.50024700164795,67.20934700965881,67.50932192802429,dot,"[0.1, 0.1, 0.08, 0.06, 0.06, 0.06, 0.1]","[[-0.03978284138183809, -0.43963729991580147], [0.2770736023028816, -0.4460091285183096], [0.4264240077257641, -0.26124456405115876], [0.04351789842027954, -0.004572294527936195], [0.08491707485555088, -0.26540219852266356], [0.2274622265833728, -0.10044916879814345], [0.4232844185721205, -0.050742783717769746]]",density,black,,,D002,visual,1,[],"['1', '2', '3', '4']",1,2023.2.3,harveyvisual,2.1,[],8,0.75,
0,pause,0.4,None,None,None,0,187,187,187,,,,,,,,,,,,,D002,visual,1,[],"['1', '2', '3', '4']",1,2023.2.3,harveyvisual,2.1,[],8,0.75,
7,dot,0.3,['dot'],['density'],black,0,188,188,188,,,68.20022702217102,67.90926194190979,68.2092719078064,dot,"[0.1, 0.08, 0.08, 0.06, 0.1, 0.06, 0.08]","[[0.1318978468379982, 0.48780960721302624], [-0.15530952210580917, 0.2429536962773128], [0.21675324185561073, 0.09111206147250148], [0.13033099328542835, 0.28547066376201063], [0.3859901392997328, 0.20497483482614012], [0.014590257841440182, 0.0970646397970693], [0.1730960121663288, -0.1180805096677859]]",density,black,,,D002,visual,1,[],"['1', '2', '3', '4']",1,2023.2.3,harveyvisual,2.1,[],8,0.75,
0,pause,0.4,None,None,None,0,189,189,189,,,,,,,,,,,,,D002,visual,1,[],"['1', '2', '3', '4']",1,2023.2.3,harveyvisual,2.1,[],8,0.75,
7,dot,0.3,['dot'],['density'],black,0,190,190,190,,,68.90024399757385,68.6092209815979,68.90922594070435,dot,"[0.1, 0.1, 0.06, 0.06, 0.1, 0.08, 0.1]","[[-0.23675386446936744, -0.019099737415117023], [-0.3793299299598963, 0.3840296974489508], [0.16444052853698826, 0.25964081185693966], [-0.17441972694422359, 0.2376971805458075], [0.025313303261310992, 0.0859287266400301], [-0.3760941870171968, 0.1722047307528389], [-0.012854506600276856, 0.3778399739802858]]",density,black,,,D002,visual,1,[],"['1', '2', '3', '4']",1,2023.2.3,harveyvisual,2.1,[],8,0.75,
0,pause,0.4,None,None,None,0,191,191,191,,,,,,,,,,,,,D002,visual,1,[],"['1', '2', '3', '4']",1,2023.2.3,harveyvisual,2.1,[],8,0.75,
6,dot,0.3,['dot'],['density'],black,0,192,192,192,,,69.60023093223572,69.30918598175049,69.60925889015198,dot,"[0.08, 0.06, 0.06, 0.1, 0.1, 0.08]","[[0.4536033237290603, -0.10703390074252807], [0.4090862681261178, 0.14156446515860444], [0.3446070222150913, -0.333203595144996], [0.1541486512624917, 0.13839280063469406], [0.16833114318264894, -0.23068973514796048], [0.2520001164899556, -0.04323865486760776]]",density,black,,,D002,visual,1,[],"['1', '2', '3', '4']",1,2023.2.3,harveyvisual,2.1,[],8,0.75,
0,pause,0.4,None,None,None,0,193,193,193,,,,,,,,,,,,,D002,visual,1,[],"['1', '2', '3', '4']",1,2023.2.3,harveyvisual,2.1,[],8,0.75,
6,dot,0.3,['dot'],['density'],white,0,194,194,194,,,70.30022406578064,70.00926399230957,70.30924987792969,dot,"[0.08, 0.06, 0.1, 0.06, 0.1, 0.08]","[[-0.36904347190091025, 0.2789229011504548], [-0.01038079434194998, 0.053649704929766846], [-0.08735338951653393, 0.578282782753283], [5.153534382930422e-05, 0.38446941554394387], [-0.22753401468201206, 0.43210907521897474], [-0.14647282530567177, 0.24517240432070728]]",density,white,,,D002,visual,1,[],"['1', '2', '3', '4']",1,2023.2.3,harveyvisual,2.1,[],8,0.75,
0,pause,0.4,None,None,None,0,195,195,195,,,,,,,,,,,1,70.43734312057495,D002,visual,1,[],"['1', '2', '3', '4']",1,2023.2.3,harveyvisual,2.1,[],8,0.75,
6,dot,0.3,['dot'],['density'],black,0,196,196,196,,,71.00023698806763,70.70915389060974,71.00915598869324,dot,"[0.08, 0.06, 0.06, 0.06, 0.08, 0.08]","[[0.20407874700173578, -0.003607462636592132], [0.19900023894327637, 0.3924983297162132], [0.3038969651674081, 0.19297037853131338], [-0.03476334221878716, -0.0007504963676470482], [-0.04769005191199877, 0.33834827157296915], [0.0832402191747092, 0.1716866405281877]]",density,black,,,D002,visual,1,[],"['1', '2', '3', '4']",1,2023.2.3,harveyvisual,2.1,[],8,0.75,
0,pause,0.4,None,None,None,0,197,197,197,,,,,,,,,,,,,D002,visual,1,[],"['1', '2', '3', '4']",1,2023.2.3,harveyvisual,2.1,[],8,0.75,
6,dot,0.3,['dot'],['density'],black,0,198,198,198,,,71.70023798942566,71.40912294387817,71.70910096168518,dot,"[0.06, 0.08, 0.06, 0.06, 0.08, 0.08]","[[0.404576257273406, 0.0700140295133255], [0.16236872381874318, -0.0021128728600973284], [0.5529541989122894, -0.15659614737169442], [0.13702497511457395, -0.2589057080071786], [0.36740063964394665, -0.3636528069500345], [0.3132750905084481, -0.159771579268986]]",density,black,,,D002,visual,1,[],"['1', '2', '3', '4']",1,2023.2.3,harveyvisual,2.1,[],8,0.75,
0,pause,0.4,None,None,None,0,199,199,199,,,,,,,,,,,,,D002,visual,1,[],"['1', '2', '3', '4']",1,2023.2.3,harveyvisual,2.1,[],8,0.75,
6,dot,0.3,['dot'],['density'],black,0,200,200,200,,,72.40023398399353,72.10911202430725,72.40909504890442,dot,"[0.06, 0.08, 0.08, 0.08, 0.08, 0.1]","[[0.1643264729387965, -0.2471077239796436], [-0.22534804549937193, -0.4918728234310363], [-0.026166131246113146, -0.09278119687647148], [-0.24451989516519138, -0.21339523607155425], [0.11868454116144263, -0.4574197693624388], [-0.058907778787058426, -0.30919141315076737]]",density,black,,,D002,visual,1,[],"['1', '2', '3', '4']",1,2023.2.3,harveyvisual,2.1,[],8,0.75,
0,pause,0.4,None,None,None,0,201,201,201,,,,,,,,,,,,,D002,visual,1,[],"['1', '2', '3', '4']",1,2023.2.3,harveyvisual,2.1,[],8,0.75,
6,dot,0.3,['dot'],['density'],black,0,202,202,202,,,73.10023498535156,72.80909585952759,73.10906887054443,dot,"[0.1, 0.1, 0.08, 0.08, 0.1, 0.1]","[[-0.2094991805307552, 0.08302354111181451], [0.09557258300728075, 0.3458622669714129], [0.22056408800171526, -0.017094369341425636], [0.026601936584830878, 0.1297564650757722], [-0.11681768564656844, 0.2726391152528644], [-0.03570146891163527, -0.09222923444939024]]",density,black,,,D002,visual,1,[],"['1', '2', '3', '4']",1,2023.2.3,harveyvisual,2.1,[],8,0.75,
0,pause,0.4,None,None,None,0,203,203,203,,,,,,,,,,,,,D002,visual,1,[],"['1', '2', '3', '4']",1,2023.2.3,harveyvisual,2.1,[],8,0.75,
5,dot,0.3,['dot'],['density'],black,0,204,204,204,,,73.80025100708008,73.5090708732605,73.80908703804016,dot,"[0.06, 0.06, 0.08, 0.08, 0.08]","[[-0.08906257038347729, 0.3326351968500321], [0.2173987091792188, 0.026220721131276364], [0.07996259445097068, 0.4821024141609844], [0.14345365083950706, 0.2501481494916038], [-0.03323208063638199, 0.08804517681276208]]",density,black,,,D002,visual,1,[],"['1', '2', '3', '4']",1,2023.2.3,harveyvisual,2.1,[],8,0.75,
0,pause,0.4,None,None,None,0,205,205,205,,,,,,,,,,,,,D002,visual,1,[],"['1', '2', '3', '4']",1,2023.2.3,harveyvisual,2.1,[],8,0.75,
5,dot,0.3,['dot'],['density'],black,0,206,206,206,,,74.50024604797363,74.2092170715332,74.50919008255005,dot,"[0.08, 0.08, 0.08, 0.06, 0.06]","[[-0.0036269740154891753, 0.5431219823242713], [-0.2646325594942043, 0.5073179604697073], [-0.41902475937036154, 0.37311436690984484], [-0.007163214206743488, 0.2887893175302695], [-0.2156098228659233, 0.2684642371109035]]",density,black,,,D002,visual,1,[],"['1', '2', '3', '4']",1,2023.2.3,harveyvisual,2.1,[],8,0.75,
0,pause,0.4,None,None,None,0,207,207,207,,,,,,,,,,,,,D002,visual,1,[],"['1', '2', '3', '4']",1,2023.2.3,harveyvisual,2.1,[],8,0.75,
5,dot,0.3,['dot'],['density'],black,0,208,208,208,,,75.20024704933167,74.90922498703003,75.20903587341309,dot,"[0.08, 0.08, 0.06, 0.1, 0.08]","[[-0.13667773294397823, -0.4810836359727921], [0.22435054442879343, -0.38211739689247126], [0.18745946747878278, -0.17039478388844306], [0.024239655080151325, -0.29759851870815907], [0.08919077751561523, -0.5300131723353856]]",density,black,,,D002,visual,1,[],"['1', '2', '3', '4']",1,2023.2.3,harveyvisual,2.1,[],8,0.75,
0,pause,0.4,None,None,None,0,209,209,209,,,,,,,,,,,,,D002,visual,1,[],"['1', '2', '3', '4']",1,2023.2.3,harveyvisual,2.1,[],8,0.75,
5,dot,0.3,['dot'],['density'],black,0,210,210,210,,,75.90022897720337,75.6090259552002,75.90901708602905,dot,"[0.06, 0.08, 0.06, 0.06, 0.08]","[[-0.18510638544872327, 0.41559840932892733], [-0.057175862535637494, 0.18304904272057057], [0.24003340414173915, 0.43371676657957026], [0.006490958465160464, 0.4770521622163581], [0.13658455045585424, 0.2476502540597336]]",density,black,,,D002,visual,1,[],"['1', '2', '3', '4']",1,2023.2.3,harveyvisual,2.1,[],8,0.75,
0,pause,0.4,None,None,None,0,211,211,211,,,,,,,,,,,,,D002,visual,1,[],"['1', '2', '3', '4']",1,2023.2.3,harveyvisual,2.1,[],8,0.75,
5,dot,0.3,['dot'],['density'],black,0,212,212,212,,,76.60025095939636,76.30901503562927,76.6089940071106,dot,"[0.08, 0.1, 0.1, 0.08, 0.08]","[[-0.5348211864270219, -0.08335004612931018], [-0.428892633085643, 0.14758700623805307], [-0.3277098387322906, -0.27887202276080253], [-0.29687101947458117, -0.03792463078145938], [-0.23363771935579355, 0.21194794904782605]]",density,black,,,D002,visual,1,[],"['1', '2', '3', '4']",1,2023.2.3,harveyvisual,2.1,[],8,0.75,
0,pause,0.4,None,None,None,0,213,213,213,,,,,,,,,,,,,D002,visual,1,[],"['1', '2', '3', '4']",1,2023.2.3,harveyvisual,2.1,[],8,0.75,
5,dot,0.3,['dot'],['density'],black,0,214,214,214,,,77.30023097991943,77.00899195671082,77.30896997451782,dot,"[0.1, 0.1, 0.1, 0.06, 0.06]","[[0.05896558140131438, -0.5342250951568444], [0.41924064092593105, -0.38742881471212404], [0.0789485457987589, -0.15857793529431863], [0.19859038409043042, -0.3300393182504279], [-0.04229804568701367, -0.31959008629620334]]",density,black,,,D002,visual,1,[],"['1', '2', '3', '4']",1,2023.2.3,harveyvisual,2.1,[],8,0.75,
0,pause,0.4,None,None,None,0,215,215,215,,,,,,,,,,,,,D002,visual,1,[],"['1', '2', '3', '4']",1,2023.2.3,harveyvisual,2.1,[],8,0.75,
4,dot,0.3,['dot'],['density'],black,0,216,216,216,,,78.0002498626709,77.70897388458252,78.00895094871521,dot,"[0.08, 0.1, 0.08, 0.08]","[[-0.3884818304242726, 0.11421243679268873], [-0.11472928134965246, -0.13141119473891247], [-0.1657593024508462, 0.13368900033666462], [-0.36655717599886073, -0.10387254737714131]]",density,black,,,D002,visual,1,[],"['1', '2', '3', '4']",1,2023.2.3,harveyvisual,2.1,[],8,0.75,
0,pause,0.4,None,None,None,0,217,217,217,,,,,,,,,,,,,D002,visual,1,[],"['1', '2', '3', '4']",1,2023.2.3,harveyvisual,2.1,[],8,0.75,
4,dot,0.3,['dot'],['density'],black,0,218,218,218,,,78.70024490356445,78.40893197059631,78.70895385742188,dot,"[0.08, 0.06, 0.08, 0.1]","[[0.08172100217045614, 0.5402562525463245], [-0.024891988969352973, 0.31595276793208527], [-0.14685316472848742, 0.5184788481920529], [-0.2646655063210597, 0.3159281349431851]]",density,black,,,D002,visual,1,[],"['1', '2', '3', '4']",1,2023.2.3,harveyvisual,2.1,[],8,0.75,
0,pause,0.4,None,None,None,0,219,219,219,,,,,,,,,,,,,D002,visual,1,[],"['1', '2', '3', '4']",1,2023.2.3,harveyvisual,2.1,[],8,0.75,
4,dot,0.3,['dot'],['density'],black,0,220,220,220,,,79.40023708343506,79.10892987251282,79.40895104408264,dot,"[0.1, 0.06, 0.08, 0.1]","[[0.06019618102804278, 0.17823994931545822], [-0.1876584465411705, -0.07971170835358893], [0.026807447441335588, -0.04038633305360204], [-0.17818728785032123, 0.12753763641901858]]",density,black,,,D002,visual,1,[],"['1', '2', '3', '4']",1,2023.2.3,harveyvisual,2.1,[],8,0.75,
0,pause,0.4,None,None,None,0,221,221,221,,,,,,,,,,,,,D002,visual,1,[],"['1', '2', '3', '4']",1,2023.2.3,harveyvisual,2.1,[],8,0.75,
4,dot,0.3,['dot'],['density'],black,0,222,222,222,,,80.10023593902588,79.80890798568726,80.10946297645569,dot,"[0.1, 0.1, 0.1, 0.08]","[[-0.1807894278345534, -0.050693892368996955], [-0.03778933673514029, -0.29773510453537966], [0.0747201162679791, -0.1287424711559737], [-0.02241484737224569, 0.07404475448468936]]",density,black,,,D002,visual,1,[],"['1', '2', '3', '4']",1,2023.2.3,harveyvisual,2.1,[],8,0.75,
0,pause,0.4,None,None,None,0,223,223,223,,,,,,,,,,,,,D002,visual,1,[],"['1', '2', '3', '4']",1,2023.2.3,harveyvisual,2.1,[],8,0.75,
4,dot,0.3,['dot'],['density'],black,0,224,224,224,,,80.80024886131287,80.50896406173706,80.80889797210693,dot,"[0.06, 0.1, 0.06, 0.1]","[[-0.43942495523079517, -0.22401056498097033], [-0.009260832099230759, -0.1633376679159051], [-0.21598309108097546, -0.10172603009605206], [-0.2278206133413005, -0.33154874685782076]]",density,black,,,D002,visual,1,[],"['1', '2', '3', '4']",1,2023.2.3,harveyvisual,2.1,[],8,0.75,
0,pause,0.4,None,None,None,0,225,225,225,,,,,,,,,,,,,D002,visual,1,[],"['1', '2', '3', '4']",1,2023.2.3,harveyvisual,2.1,[],8,0.75,
4,dot,0.3,['dot'],['density'],black,0,226,226,226,,,81.50023102760315,81.20889592170715,81.50886702537537,dot,"[0.06, 0.06, 0.1, 0.1]","[[-0.5133923796685119, -0.13567638448558317], [-0.3102378593599109, -0.17790160316510653], [-0.5338837235738882, 0.07316730980410076], [-0.255286731521037, 0.022123457211080083]]",density,black,,,D002,visual,1,[],"['1', '2', '3', '4']",1,2023.2.3,harveyvisual,2.1,[],8,0.75,
0,pause,0.4,None,None,None,0,227,227,227,,,,,,,,,,,,,D002,visual,1,[],"['1', '2', '3', '4']",1,2023.2.3,harveyvisual,2.1,[],8,0.75,
3,dot,0.3,['dot'],['density'],white,0,228,228,228,,,82.20023107528687,81.90885400772095,82.20893788337708,dot,"[0.08, 0.06, 0.08]","[[0.2768253388883432, 0.03346297355107007], [0.11287187477499526, -0.09417797505773098], [0.09003622344097514, 0.12370024427926096]]",density,white,,,D002,visual,1,[],"['1', '2', '3', '4']",1,2023.2.3,harveyvisual,2.1,[],8,0.75,
0,pause,0.4,None,None,None,0,229,229,229,,,,,,,,,,,1,82.34078812599182,D002,visual,1,[],"['1', '2', '3', '4']",1,2023.2.3,harveyvisual,2.1,[],8,0.75,
3,dot,0.3,['dot'],['density'],black,0,230,230,230,,,82.90024089813232,82.60886907577515,82.90899085998535,dot,"[0.1, 0.06, 0.08]","[[-0.021384933427115945, -0.26055744462645497], [0.16478637362895734, -0.404980755917603], [-0.025077849445719256, -0.48190209473619267]]",density,black,,,D002,visual,1,[],"['1', '2', '3', '4']",1,2023.2.3,harveyvisual,2.1,[],8,0.75,
0,pause,0.4,None,None,None,0,231,231,231,,,,,,,,,,,,,D002,visual,1,[],"['1', '2', '3', '4']",1,2023.2.3,harveyvisual,2.1,[],8,0.75,
3,dot,0.3,['dot'],['density'],black,0,232,232,232,,,83.60025000572205,83.30901002883911,83.6088240146637,dot,"[0.06, 0.08, 0.1]","[[0.3935061822875672, 0.2255916562549388], [0.5507663609445765, 0.05974239467682067], [0.33737455125106675, -0.013318187219183488]]",density,black,,,D002,visual,1,[],"['1', '2', '3', '4']",1,2023.2.3,harveyvisual,2.1,[],8,0.75,
0,pause,0.4,None,None,None,0,233,233,233,,,,,,,,,,,,,D002,visual,1,[],"['1', '2', '3', '4']",1,2023.2.3,harveyvisual,2.1,[],8,0.75,
3,dot,0.3,['dot'],['density'],black,0,234,234,234,,,84.30022597312927,84.00880694389343,84.30879807472229,dot,"[0.1, 0.06, 0.1]","[[-0.17720328293608806, -0.4514300161601115], [0.022754438065530718, -0.42143894503716073], [-0.10940085810899225, -0.24791511077847575]]",density,black,,,D002,visual,1,[],"['1', '2', '3', '4']",1,2023.2.3,harveyvisual,2.1,[],8,0.75,
0,pause,0.4,None,None,None,0,235,235,235,,,,,,,,,,,,,D002,visual,1,[],"['1', '2', '3', '4']",1,2023.2.3,harveyvisual,2.1,[],8,0.75,
3,dot,0.3,['dot'],['density'],white,0,236,236,236,,,85.00025200843811,84.70876407623291,85.00877094268799,dot,"[0.1, 0.1, 0.06]","[[0.026071599024748527, -0.32860913997604846], [-0.11834724389398482, -0.18584523127985947], [0.10068982493997472, -0.12518245043845455]]",density,white,,,D002,visual,1,[],"['1', '2', '3', '4']",1,2023.2.3,harveyvisual,2.1,[],8,0.75,
0,pause,0.4,None,None,None,0,237,237,237,,,,,,,,,,,1,85.13910913467407,D002,visual,1,[],"['1', '2', '3', '4']",1,2023.2.3,harveyvisual,2.1,[],8,0.75,
3,dot,0.3,['dot'],['density'],black,0,238,238,238,,,85.7002420425415,85.40874004364014,85.70873999595642,dot,"[0.1, 0.08, 0.06]","[[0.026071599024748527, -0.32860913997604846], [-0.11834724389398482, -0.18584523127985947], [0.10068982493997472, -0.12518245043845455]]",density,black,,,D002,visual,1,[],"['1', '2', '3', '4']",1,2023.2.3,harveyvisual,2.1,[],8,0.75,
0,pause,0.4,None,None,None,0,239,239,239,,,,,,,,,,,,,D002,visual,1,[],"['1', '2', '3', '4']",1,2023.2.3,harveyvisual,2.1,[],8,0.75,
2,dot,0.3,['dot'],['density'],black,0,240,240,240,,,86.40022802352905,86.10872387886047,86.40872406959534,dot,"[0.08, 0.1]","[[-0.4579128382498026, -0.013317831223324628], [-0.28624676016543393, -0.11681778735554697]]",density,black,,,D002,visual,1,[],"['1', '2', '3', '4']",1,2023.2.3,harveyvisual,2.1,[],8,0.75,
0,pause,0.4,None,None,None,0,241,241,241,,,,,,,,,,,,,D002,visual,1,[],"['1', '2', '3', '4']",1,2023.2.3,harveyvisual,2.1,[],8,0.75,
2,dot,0.3,['dot'],['density'],black,0,242,242,242,,,87.10022807121277,86.80872392654419,87.1087110042572,dot,"[0.08, 0.08]","[[0.07059805578258149, -0.2458188734665979], [0.058763118304238846, -0.4455693812784497]]",density,black,,,D002,visual,1,[],"['1', '2', '3', '4']",1,2023.2.3,harveyvisual,2.1,[],8,0.75,
0,pause,0.4,None,None,None,0,243,243,243,,,,,,,,,,,,,D002,visual,1,[],"['1', '2', '3', '4']",1,2023.2.3,harveyvisual,2.1,[],8,0.75,
2,dot,0.3,['dot'],['density'],black,0,244,244,244,,,87.80025291442871,87.50869393348694,87.80869197845459,dot,"[0.06, 0.1]","[[0.45098141687762733, -0.20237638590572143], [0.5433504117931098, -0.02475258047346216]]",density,black,,,D002,visual,1,[],"['1', '2', '3', '4']",1,2023.2.3,harveyvisual,2.1,[],8,0.75,
0,pause,0.4,None,None,None,0,245,245,245,,,,,,,,,,,,,D002,visual,1,[],"['1', '2', '3', '4']",1,2023.2.3,harveyvisual,2.1,[],8,0.75,
2,dot,0.3,['dot'],['density'],black,0,246,246,246,,,88.50023603439331,88.20877289772034,88.50882601737976,dot,"[0.08, 0.1]","[[0.4162662019019998, 0.09129510669171749], [0.33420900269466314, 0.27427456354974017]]",density,black,,,D002,visual,1,[],"['1', '2', '3', '4']",1,2023.2.3,harveyvisual,2.1,[],8,0.75,
0,pause,0.4,None,None,None,0,247,247,247,,,,,,,,,,,,,D002,visual,1,[],"['1', '2', '3', '4']",1,2023.2.3,harveyvisual,2.1,[],8,0.75,
2,dot,0.3,['dot'],['density'],black,0,248,248,248,,,89.2002420425415,88.90882086753845,89.20880007743835,dot,"[0.06, 0.1]","[[0.09481659993656301, 0.43631713998557026], [0.0662189159667295, 0.23745101446818795]]",density,black,,,D002,visual,1,[],"['1', '2', '3', '4']",1,2023.2.3,harveyvisual,2.1,[],8,0.75,
0,pause,0.4,None,None,None,0,249,249,249,,,,,,,,,,,,,D002,visual,1,[],"['1', '2', '3', '4']",1,2023.2.3,harveyvisual,2.1,[],8,0.75,
2,dot,0.3,['dot'],['density'],black,0,250,250,250,,,89.90025186538696,89.60880899429321,89.90865898132324,dot,"[0.08, 0.06]","[[0.06661886780735636, -0.3109770134588511], [-0.03502229105109153, -0.4833380692870097]]",density,black,,,D002,visual,1,[],"['1', '2', '3', '4']",1,2023.2.3,harveyvisual,2.1,[],8,0.75,
0,pause,0.4,None,None,None,0,251,251,251,,,,,,,,,,,,,D002,visual,1,[],"['1', '2', '3', '4']",1,2023.2.3,harveyvisual,2.1,[],8,0.75,
1,dot,0.3,['dot'],['density'],black,0,252,252,252,,,90.60025095939636,90.30866003036499,90.6086208820343,dot,[0.1],"[-0.30422713965878023, 0.0739284850406325]",density,black,,,D002,visual,1,[],"['1', '2', '3', '4']",1,2023.2.3,harveyvisual,2.1,[],8,0.75,
0,pause,0.4,None,None,None,0,253,253,253,,,,,,,,,,,,,D002,visual,1,[],"['1', '2', '3', '4']",1,2023.2.3,harveyvisual,2.1,[],8,0.75,
1,dot,0.3,['dot'],['density'],black,0,254,254,254,,,91.3002519607544,91.00865387916565,91.30874586105347,dot,[0.1],"[0.1771264825789444, 0.012298414170669998]",density,black,,,D002,visual,1,[],"['1', '2', '3', '4']",1,2023.2.3,harveyvisual,2.1,[],8,0.75,
0,pause,0.4,None,None,None,0,255,255,255,,,,,,,,,,,,,D002,visual,1,[],"['1', '2', '3', '4']",1,2023.2.3,harveyvisual,2.1,[],8,0.75,
1,dot,0.3,['dot'],['density'],black,0,256,256,256,,,92.00024890899658,91.7086250782013,92.00873398780823,dot,[0.06],"[-0.30422713965878023, 0.0739284850406325]",density,black,,,D002,visual,1,[],"['1', '2', '3', '4']",1,2023.2.3,harveyvisual,2.1,[],8,0.75,
0,pause,0.4,None,None,None,0,257,257,257,,,,,,,,,,,,,D002,visual,1,[],"['1', '2', '3', '4']",1,2023.2.3,harveyvisual,2.1,[],8,0.75,
1,dot,0.3,['dot'],['density'],black,0,258,258,258,,,92.7002489566803,92.40859794616699,92.70861196517944,dot,[0.06],"[-0.06064478149429028, 0.10204082006191012]",density,black,,,D002,visual,1,[],"['1', '2', '3', '4']",1,2023.2.3,harveyvisual,2.1,[],8,0.75,
0,pause,0.4,None,None,None,0,259,259,259,,,,,,,,,,,,,D002,visual,1,[],"['1', '2', '3', '4']",1,2023.2.3,harveyvisual,2.1,[],8,0.75,
1,dot,0.3,['dot'],['density'],black,0,260,260,260,,,93.4002468585968,93.10859394073486,93.40857291221619,dot,[0.1],"[-0.31757534052014, 0.30709612076893067]",density,black,,,D002,visual,1,[],"['1', '2', '3', '4']",1,2023.2.3,harveyvisual,2.1,[],8,0.75,
0,pause,0.4,None,None,None,0,261,261,261,,,,,,,,,,,,,D002,visual,1,[],"['1', '2', '3', '4']",1,2023.2.3,harveyvisual,2.1,[],8,0.75,
1,dot,0.3,['dot'],['density'],black,0,262,262,262,,,94.10023999214172,93.80854487419128,94.1085569858551,dot,[0.06],"[0.0038807231877187303, -0.2777732366953785]",density,black,,,D002,visual,1,[],"['1', '2', '3', '4']",1,2023.2.3,harveyvisual,2.1,[],8,0.75,
0,pause,0.4,None,None,None,0,263,263,263,,,,,,,,,,,,,D002,visual,1,[],"['1', '2', '3', '4']",1,2023.2.3,harveyvisual,2.1,[],8,0.75,
20,dot,0.3,['dot'],['density'],black,0,264,264,264,,,94.80025506019592,94.52520203590393,94.80850505828857,dot,"[0.08, 0.1, 0.06, 0.06, 0.06, 0.06, 0.1, 0.06, 0.08, 0.06, 0.1, 0.08, 0.1, 0.08, 0.06, 0.08, 0.1, 0.08, 0.1, 0.1]","[[-0.2839549777005922, 0.2770621922080211], [-0.59493247225167, -0.06370823466577859], [-0.4922756448130268, 0.21989159742448827], [0.1338384136475843, 0.1955779710036165], [0.3461403741672323, 0.4025898892591593], [-0.32136344064163924, -0.42977479338113017], [0.16954125750393234, -0.2931728148611692], [-0.24093421284026995, -0.23910621227633044], [0.35659198396355385, -0.11793258229403669], [0.5018914729161043, 0.03610011858275852], [-0.16728058859150174, 0.48324340807508204], [0.18429925457810492, -0.5277453255764815], [0.049047493635447026, -0.13119351538678986], [0.030958898484221398, 0.46636878233327117], [0.36814282064255766, -0.3385728055728841], [0.5755021547561449, -0.15126006083440824], [-0.058900651223859346, -0.435998012904631], [-0.45820175362021975, -0.28776535083553106], [-0.05760941086304805, 0.23884610115697902], [0.5236780674209992, 0.2562789016856612]]",density,black,,,D002,visual,1,[],"['1', '2', '3', '4']",1,2023.2.3,harveyvisual,2.1,[],8,0.75,
0,pause,0.4,None,None,None,0,265,265,265,,,,,,,,,,,,,D002,visual,1,[],"['1', '2', '3', '4']",1,2023.2.3,harveyvisual,2.1,[],8,0.75,
20,dot,0.3,['dot'],['density'],black,0,266,266,266,,,95.50025486946106,95.22518301010132,95.50848197937012,dot,"[0.06, 0.08, 0.06, 0.06, 0.06, 0.06, 0.08, 0.1, 0.06, 0.06, 0.08, 0.06, 0.08, 0.06, 0.06, 0.08, 0.06, 0.08, 0.1, 0.08]","[[0.4074717982956476, 0.23071866241846511], [0.307546757105696, 0.035991554505435674], [-0.060477149299045685, 0.5774058680315631], [-0.5279166028253988, -0.12839426600453277], [-0.13089742583656166, -0.41409662363722377], [-0.27316361973452846, -0.07884237613402939], [0.5956388316577991, 0.06325761355592253], [0.09732277609694429, 0.4446080038803234], [0.3650301811432213, -0.3468225351867142], [0.36777086290856564, 0.4583872346156604], [-0.5315478123232912, 0.14214115952281664], [0.0898146631744936, -0.004424351157596984], [-0.43893531694655813, 0.33421297436881825], [0.00832933285444748, -0.19740408132885584], [-0.08563117979826107, 0.23149116825204274], [-0.24408395964397328, 0.5097868602962806], [-0.30181277743243196, -0.32092151638743843], [0.07255227056505165, -0.5183566547654392], [0.15859030498339977, -0.33622512600898047], [0.40099599623680626, -0.15658764986787843]]",density,black,,,D002,visual,1,[],"['1', '2', '3', '4']",1,2023.2.3,harveyvisual,2.1,[],8,0.75,
0,pause,0.4,None,None,None,0,267,267,267,,,,,,,,,,,,,D002,visual,1,[],"['1', '2', '3', '4']",1,2023.2.3,harveyvisual,2.1,[],8,0.75,
