num,mod,duration,shape,ll_cond,colors,.thisRepN,.thisTrialN,.thisN,.thisIndex,thisRow.t,notes,raw_global_time,t_start,t_stop,shapes,size,pos,cond,color,button,RT,participant,session,starting_run,left button (match/odd),right button (non-match/even),samples_per_block,psychopy version,expName,offset,audio,number_runs,radius,
1,dot,0.3,['dot'],['density'],black,0,0,0,0,,,2.400207996368408,2.104820966720581,2.4047441482543945,dot,[0.06],"[-0.22364231775977078, 0.4637426405669522]",density,black,,,D002,visual,1,[],"['1', '2', '3', '4']",1,2023.2.3,harveyvisual,2.1,[],8,0.75,
0,pause,0.4,None,None,None,0,1,1,1,,,,,,,,,,,,,D002,visual,1,[],"['1', '2', '3', '4']",1,2023.2.3,harveyvisual,2.1,[],8,0.75,
1,dot,0.3,['dot'],['density'],white,0,2,2,2,,,3.100198984146118,2.8047449588775635,3.104727029800415,dot,[0.08],"[0.0956549371127339, 0.09579573331985794]",density,white,,,D002,visual,1,[],"['1', '2', '3', '4']",1,2023.2.3,harveyvisual,2.1,[],8,0.75,
0,pause,0.4,None,None,None,0,3,3,3,,,,,,,,,,,,,D002,visual,1,[],"['1', '2', '3', '4']",1,2023.2.3,harveyvisual,2.1,[],8,0.75,
1,dot,0.3,['dot'],['density'],black,0,4,4,4,,,3.800200939178467,3.504723072052002,3.804708957672119,dot,[0.08],"[0.39967490259390637, -0.2576437183111264]",density,black,,,D002,visual,1,[],"['1', '2', '3', '4']",1,2023.2.3,harveyvisual,2.1,[],8,0.75,
0,pause,0.4,None,None,None,0,5,5,5,,,,,,,,,,,,,D002,visual,1,[],"['1', '2', '3', '4']",1,2023.2.3,harveyvisual,2.1,[],8,0.75,
1,dot,0.3,['dot'],['density'],black,0,6,6,6,,,4.500198125839233,4.204699993133545,4.50468897819519,dot,[0.08],"[0.14557363600905707, -0.03994760510263185]",density,black,,,D002,visual,1,[],"['1', '2', '3', '4']",1,2023.2.3,harveyvisual,2.1,[],8,0.75,
0,pause,0.4,None,None,None,0,7,7,7,,,,,,,,,,,,,D002,visual,1,[],"['1', '2', '3', '4']",1,2023.2.3,harveyvisual,2.1,[],8,0.75,
1,dot,0.3,['dot'],['density'],black,0,8,8,8,,,5.200191020965576,4.904677152633667,5.204662084579468,dot,[0.1],"[0.1049869166116724, 0.1335000464341748]",density,black,,,D002,visual,1,[],"['1', '2', '3', '4']",1,2023.2.3,harveyvisual,2.1,[],8,0.75,
0,pause,0.4,None,None,None,0,9,9,9,,,,,,,,,,,,,D002,visual,1,[],"['1', '2', '3', '4']",1,2023.2.3,harveyvisual,2.1,[],8,0.75,
1,dot,0.3,['dot'],['density'],black,0,10,10,10,,,5.900196075439453,5.604657173156738,5.904642105102539,dot,[0.1],"[0.46628601751002285, 0.12197617226191985]",density,black,,,D002,visual,1,[],"['1', '2', '3', '4']",1,2023.2.3,harveyvisual,2.1,[],8,0.75,
0,pause,0.4,None,None,None,0,11,11,11,,,,,,,,,,,,,D002,visual,1,[],"['1', '2', '3', '4']",1,2023.2.3,harveyvisual,2.1,[],8,0.75,
2,dot,0.3,['dot'],['density'],black,0,12,12,12,,,6.600183963775635,6.304634094238281,6.604624032974243,dot,"[0.08, 0.1]","[[0.19540278997321237, -0.319457995891214], [0.34462774624387493, -0.4544903302695001]]",density,black,,,D002,visual,1,[],"['1', '2', '3', '4']",1,2023.2.3,harveyvisual,2.1,[],8,0.75,
0,pause,0.4,None,None,None,0,13,13,13,,,,,,,,,,,,,D002,visual,1,[],"['1', '2', '3', '4']",1,2023.2.3,harveyvisual,2.1,[],8,0.75,
2,dot,0.3,['dot'],['density'],black,0,14,14,14,,,7.300184965133667,7.004625082015991,7.304607152938843,dot,"[0.06, 0.06]","[[0.002249876020969301, 0.20442088447143333], [-0.056293345030126195, 0.39599742374220376]]",density,black,,,D002,visual,1,[],"['1', '2', '3', '4']",1,2023.2.3,harveyvisual,2.1,[],8,0.75,
0,pause,0.4,None,None,None,0,15,15,15,,,,,,,,,,,,,D002,visual,1,[],"['1', '2', '3', '4']",1,2023.2.3,harveyvisual,2.1,[],8,0.75,
2,dot,0.3,['dot'],['density'],black,0,16,16,16,,,8.00019907951355,7.704606056213379,8.00458812713623,dot,"[0.1, 0.1]","[[0.2713647219188039, -0.029235290058335472], [0.46697437826705046, 0.014145112521712659]]",density,black,,,D002,visual,1,[],"['1', '2', '3', '4']",1,2023.2.3,harveyvisual,2.1,[],8,0.75,
0,pause,0.4,None,None,None,0,17,17,17,,,,,,,,,,,,,D002,visual,1,[],"['1', '2', '3', '4']",1,2023.2.3,harveyvisual,2.1,[],8,0.75,
2,dot,0.3,['dot'],['density'],black,0,18,18,18,,,8.700204133987427,8.404584169387817,8.704636096954346,dot,"[0.08, 0.1]","[[0.1652621768884792, -0.40183218801656556], [-0.03337249546828684, -0.4281924369736378]]",density,black,,,D002,visual,1,[],"['1', '2', '3', '4']",1,2023.2.3,harveyvisual,2.1,[],8,0.75,
0,pause,0.4,None,None,None,0,19,19,19,,,,,,,,,,,,,D002,visual,1,[],"['1', '2', '3', '4']",1,2023.2.3,harveyvisual,2.1,[],8,0.75,
2,dot,0.3,['dot'],['density'],black,0,20,20,20,,,9.400207996368408,9.107824087142944,9.405055046081543,dot,"[0.08, 0.1]","[[-0.2277318593301165, -0.35289300204507235], [-0.09400723608355734, -0.20388512549033708]]",density,black,,,D002,visual,1,[],"['1', '2', '3', '4']",1,2023.2.3,harveyvisual,2.1,[],8,0.75,
0,pause,0.4,None,None,None,0,21,21,21,,,,,,,,,,,,,D002,visual,1,[],"['1', '2', '3', '4']",1,2023.2.3,harveyvisual,2.1,[],8,0.75,
2,dot,0.3,['dot'],['density'],black,0,22,22,22,,,10.100196123123169,9.805047988891602,10.105041980743408,dot,"[0.06, 0.1]","[[-0.4579128382498026, -0.013317831223324628], [-0.28624676016543393, -0.11681778735554697]]",density,black,,,D002,visual,1,[],"['1', '2', '3', '4']",1,2023.2.3,harveyvisual,2.1,[],8,0.75,
0,pause,0.4,None,None,None,0,23,23,23,,,,,,,,,,,,,D002,visual,1,[],"['1', '2', '3', '4']",1,2023.2.3,harveyvisual,2.1,[],8,0.75,
3,dot,0.3,['dot'],['density'],black,0,24,24,24,,,10.800193071365356,10.505031108856201,10.80501914024353,dot,"[0.1, 0.08, 0.1]","[[0.315495050057846, 0.10724904305018564], [0.5180852452909619, 0.013799590611742229], [0.3819545826159732, -0.1334380777916547]]",density,black,,,D002,visual,1,[],"['1', '2', '3', '4']",1,2023.2.3,harveyvisual,2.1,[],8,0.75,
0,pause,0.4,None,None,None,0,25,25,25,,,,,,,,,,,,,D002,visual,1,[],"['1', '2', '3', '4']",1,2023.2.3,harveyvisual,2.1,[],8,0.75,
3,dot,0.3,['dot'],['density'],black,0,26,26,26,,,11.500205993652344,11.205013036727905,11.504995107650757,dot,"[0.06, 0.1, 0.06]","[[-0.42255820389626353, 0.35871945956833473], [-0.19896656331745483, 0.3032224324013186], [-0.25553590712368324, 0.5056038804507684]]",density,black,,,D002,visual,1,[],"['1', '2', '3', '4']",1,2023.2.3,harveyvisual,2.1,[],8,0.75,
0,pause,0.4,None,None,None,0,27,27,27,,,,,,,,,,,,,D002,visual,1,[],"['1', '2', '3', '4']",1,2023.2.3,harveyvisual,2.1,[],8,0.75,
3,dot,0.3,['dot'],['density'],black,0,28,28,28,,,12.200185060501099,11.906895160675049,12.223541021347046,dot,"[0.06, 0.1, 0.1]","[[0.3835821938049364, -0.20766469641190155], [0.321707527308891, -0.4175939354614905], [0.1897943789354585, -0.2642367600490923]]",density,black,,,D002,visual,1,[],"['1', '2', '3', '4']",1,2023.2.3,harveyvisual,2.1,[],8,0.75,
0,pause,0.4,None,None,None,0,29,29,29,,,,,,,,,,,,,D002,visual,1,[],"['1', '2', '3', '4']",1,2023.2.3,harveyvisual,2.1,[],8,0.75,
3,dot,0.3,['dot'],['density'],black,0,30,30,30,,,12.900205135345459,12.60686206817627,12.923503160476685,dot,"[0.06, 0.08, 0.1]","[[-0.17720328293608806, -0.4514300161601115], [0.022754438065530718, -0.42143894503716073], [-0.10940085810899225, -0.24791511077847575]]",density,black,,,D002,visual,1,[],"['1', '2', '3', '4']",1,2023.2.3,harveyvisual,2.1,[],8,0.75,
0,pause,0.4,None,None,None,0,31,31,31,,,,,,,,,,,,,D002,visual,1,[],"['1', '2', '3', '4']",1,2023.2.3,harveyvisual,2.1,[],8,0.75,
3,dot,0.3,['dot'],['density'],black,0,32,32,32,,,13.600202083587646,13.306848049163818,13.623501062393188,dot,"[0.08, 0.1, 0.08]","[[0.13507679288784277, 0.012189921546254917], [0.31506600046810584, 0.10578898906948993], [0.12756957777796288, 0.2513869495778075]]",density,black,,,D002,visual,1,[],"['1', '2', '3', '4']",1,2023.2.3,harveyvisual,2.1,[],8,0.75,
0,pause,0.4,None,None,None,0,33,33,33,,,,,,,,,,,,,D002,visual,1,[],"['1', '2', '3', '4']",1,2023.2.3,harveyvisual,2.1,[],8,0.75,
3,dot,0.3,['dot'],['density'],white,0,34,34,34,,,14.300198078155518,14.006839990615845,14.323478937149048,dot,"[0.08, 0.06, 0.06]","[[0.11213305146232053, -0.07893917948794166], [0.05639720131197772, -0.2966044022377523], [-0.1031859716129837, -0.13437008874356654]]",density,white,,,D002,visual,1,[],"['1', '2', '3', '4']",1,2023.2.3,harveyvisual,2.1,[],8,0.75,
0,pause,0.4,None,None,None,0,35,35,35,,,,,,,,,,,1,13.98741602897644,D002,visual,1,[],"['1', '2', '3', '4']",1,2023.2.3,harveyvisual,2.1,[],8,0.75,
4,dot,0.3,['dot'],['density'],black,0,36,36,36,,,15.000195026397705,14.706812143325806,15.023457050323486,dot,"[0.1, 0.1, 0.08, 0.06]","[[0.0015408600658227804, 0.35051751062746694], [-0.20674122870780898, 0.3211588031025307], [-0.08430622538187964, 0.13383917563087117], [0.1780252705082131, 0.19175915241248492]]",density,black,,,D002,visual,1,[],"['1', '2', '3', '4']",1,2023.2.3,harveyvisual,2.1,[],8,0.75,
0,pause,0.4,None,None,None,0,37,37,37,,,,,,,,,,,,,D002,visual,1,[],"['1', '2', '3', '4']",1,2023.2.3,harveyvisual,2.1,[],8,0.75,
4,dot,0.3,['dot'],['density'],black,0,38,38,38,,,15.700212955474854,15.406814098358154,15.723464012145996,dot,"[0.06, 0.06, 0.08, 0.1]","[[0.06081986304483943, 0.35358512719402324], [0.4232304195196481, 0.14579533924648716], [0.12419639750553536, 0.133833625718984], [0.26609561976711055, 0.2970795792082364]]",density,black,,,D002,visual,1,[],"['1', '2', '3', '4']",1,2023.2.3,harveyvisual,2.1,[],8,0.75,
0,pause,0.4,None,None,None,0,39,39,39,,,,,,,,,,,,,D002,visual,1,[],"['1', '2', '3', '4']",1,2023.2.3,harveyvisual,2.1,[],8,0.75,
4,dot,0.3,['dot'],['density'],black,0,40,40,40,,,16.40019917488098,16.10679316520691,16.4234299659729,dot,"[0.1, 0.08, 0.1, 0.08]","[[0.0015408600658227804, 0.35051751062746694], [-0.20674122870780898, 0.3211588031025307], [-0.08430622538187964, 0.13383917563087117], [0.1780252705082131, 0.19175915241248492]]",density,black,,,D002,visual,1,[],"['1', '2', '3', '4']",1,2023.2.3,harveyvisual,2.1,[],8,0.75,
0,pause,0.4,None,None,None,0,41,41,41,,,,,,,,,,,,,D002,visual,1,[],"['1', '2', '3', '4']",1,2023.2.3,harveyvisual,2.1,[],8,0.75,
4,dot,0.3,['dot'],['density'],black,0,42,42,42,,,17.10020112991333,16.80675506591797,17.123615026474,dot,"[0.06, 0.06, 0.1, 0.1]","[[-0.47693618450386616, -0.1525114564248906], [-0.12413069550496705, 0.03327587270375396], [-0.32964510574757994, -0.012304557788591533], [-0.22851041427491325, -0.22018408257550984]]",density,black,,,D002,visual,1,[],"['1', '2', '3', '4']",1,2023.2.3,harveyvisual,2.1,[],8,0.75,
0,pause,0.4,None,None,None,0,43,43,43,,,,,,,,,,,,,D002,visual,1,[],"['1', '2', '3', '4']",1,2023.2.3,harveyvisual,2.1,[],8,0.75,
4,dot,0.3,['dot'],['density'],black,0,44,44,44,,,17.800194025039673,17.506777048110962,17.824779987335205,dot,"[0.06, 0.08, 0.1, 0.1]","[[-0.46485289602757673, 0.3603628353310837], [-0.30733625211232357, 0.21626236973196436], [-0.38991578213366157, 0.024479253410336757], [-0.570234662048439, 0.14093512067028166]]",density,black,,,D002,visual,1,[],"['1', '2', '3', '4']",1,2023.2.3,harveyvisual,2.1,[],8,0.75,
0,pause,0.4,None,None,None,0,45,45,45,,,,,,,,,,,,,D002,visual,1,[],"['1', '2', '3', '4']",1,2023.2.3,harveyvisual,2.1,[],8,0.75,
4,dot,0.3,['dot'],['density'],black,0,46,46,46,,,18.500185012817383,18.20675301551819,18.523396015167236,dot,"[0.08, 0.06, 0.08, 0.1]","[[-0.045256114861740894, 0.2798656300268403], [-0.02131053084637037, 0.4849425601475732], [0.17666180860848907, 0.34430389164600056], [0.0747630441556118, 0.10387908342824508]]",density,black,,,D002,visual,1,[],"['1', '2', '3', '4']",1,2023.2.3,harveyvisual,2.1,[],8,0.75,
0,pause,0.4,None,None,None,0,47,47,47,,,,,,,,,,,,,D002,visual,1,[],"['1', '2', '3', '4']",1,2023.2.3,harveyvisual,2.1,[],8,0.75,
5,dot,0.3,['dot'],['density'],black,0,48,48,48,,,19.200209140777588,18.906872987747192,19.22338104248047,dot,"[0.06, 0.08, 0.1, 0.06, 0.1]","[[0.10176071415026891, -0.0029310292721688898], [0.32748853803000494, -0.2831003617774451], [0.10999898603900501, -0.23076615641811304], [0.2383494361888625, 0.16403485824849598], [0.3558293804179042, -0.08171974316418079]]",density,black,,,D002,visual,1,[],"['1', '2', '3', '4']",1,2023.2.3,harveyvisual,2.1,[],8,0.75,
0,pause,0.4,None,None,None,0,49,49,49,,,,,,,,,,,,,D002,visual,1,[],"['1', '2', '3', '4']",1,2023.2.3,harveyvisual,2.1,[],8,0.75,
5,dot,0.3,['dot'],['density'],white,0,50,50,50,,,19.90018916130066,19.60671901702881,19.923521041870117,dot,"[0.06, 0.1, 0.1, 0.1, 0.1]","[[-0.13250041589442924, 0.4634743177333449], [-0.03625216126902591, 0.28212032656479163], [0.10864293512180892, 0.5244886061775208], [-0.2806491611955352, 0.29160063440784684], [-0.17458602784440078, 0.11997474961663163]]",density,white,,,D002,visual,1,[],"['1', '2', '3', '4']",1,2023.2.3,harveyvisual,2.1,[],8,0.75,
0,pause,0.4,None,None,None,0,51,51,51,,,,,,,,,,,1,19.58399796485901,D002,visual,1,[],"['1', '2', '3', '4']",1,2023.2.3,harveyvisual,2.1,[],8,0.75,
5,dot,0.3,['dot'],['density'],black,0,52,52,52,,,20.600202083587646,20.30669116973877,20.6233651638031,dot,"[0.06, 0.08, 0.08, 0.08, 0.1]","[[0.029171133319913545, -0.11913068329317353], [-0.2981845944788078, -0.46624640290839614], [-0.1844599491613969, -0.04126455345730423], [-0.2900988597239497, -0.2493716418714862], [-0.0791391532727178, -0.3057260733699829]]",density,black,,,D002,visual,1,[],"['1', '2', '3', '4']",1,2023.2.3,harveyvisual,2.1,[],8,0.75,
0,pause,0.4,None,None,None,0,53,53,53,,,,,,,,,,,,,D002,visual,1,[],"['1', '2', '3', '4']",1,2023.2.3,harveyvisual,2.1,[],8,0.75,
5,dot,0.3,['dot'],['density'],black,0,54,54,54,,,21.30018901824951,21.006678104400635,21.323318004608154,dot,"[0.06, 0.1, 0.08, 0.08, 0.1]","[[0.07471778162596296, -0.10525453490666745], [0.30258431325283514, -0.18125951612401361], [-0.10797831538154114, 0.025200229490558432], [0.07898181201564736, 0.11749757771993925], [0.31731369449760916, 0.032388289652815004]]",density,black,,,D002,visual,1,[],"['1', '2', '3', '4']",1,2023.2.3,harveyvisual,2.1,[],8,0.75,
0,pause,0.4,None,None,None,0,55,55,55,,,,,,,,,,,,,D002,visual,1,[],"['1', '2', '3', '4']",1,2023.2.3,harveyvisual,2.1,[],8,0.75,
5,dot,0.3,['dot'],['density'],black,0,56,56,56,,,22.00020694732666,21.706685066223145,22.023273944854736,dot,"[0.06, 0.06, 0.08, 0.1, 0.08]","[[-0.082153098152829, -0.06894165798345762], [0.016766770742065788, -0.42680196676869325], [0.2961099764235258, -0.14925166127785872], [-0.1456021726000032, -0.26669195071034546], [0.10213220283607832, -0.23321095001989858]]",density,black,,,D002,visual,1,[],"['1', '2', '3', '4']",1,2023.2.3,harveyvisual,2.1,[],8,0.75,
0,pause,0.4,None,None,None,0,57,57,57,,,,,,,,,,,,,D002,visual,1,[],"['1', '2', '3', '4']",1,2023.2.3,harveyvisual,2.1,[],8,0.75,
5,dot,0.3,['dot'],['density'],black,0,58,58,58,,,22.700196027755737,22.40704607963562,22.723287105560303,dot,"[0.06, 0.08, 0.06, 0.1, 0.08]","[[-0.11834215492801986, 0.412508379109845], [0.31881799646300274, 0.30859303438359803], [-0.06368743078099719, 0.10105058071702504], [0.1133485112468387, 0.46262203184429457], [0.11957051434631445, 0.24197418837926052]]",density,black,,,D002,visual,1,[],"['1', '2', '3', '4']",1,2023.2.3,harveyvisual,2.1,[],8,0.75,
0,pause,0.4,None,None,None,0,59,59,59,,,,,,,,,,,,,D002,visual,1,[],"['1', '2', '3', '4']",1,2023.2.3,harveyvisual,2.1,[],8,0.75,
6,dot,0.3,['dot'],['density'],black,0,60,60,60,,,23.400190114974976,23.106584072113037,23.423269033432007,dot,"[0.1, 0.08, 0.08, 0.06, 0.06, 0.08]","[[-0.4836161913484198, -0.3187453071493452], [-0.26471688047626735, -0.2860523134109648], [-0.41762950244179403, 0.08668289631298715], [-0.3878484475239729, -0.1200129628316565], [-0.19654931186518254, -0.017200237521102193], [-0.07523945320955261, -0.19429752312200124]]",density,black,,,D002,visual,1,[],"['1', '2', '3', '4']",1,2023.2.3,harveyvisual,2.1,[],8,0.75,
0,pause,0.4,None,None,None,0,61,61,61,,,,,,,,,,,,,D002,visual,1,[],"['1', '2', '3', '4']",1,2023.2.3,harveyvisual,2.1,[],8,0.75,
6,dot,0.3,['dot'],['density'],black,0,62,62,62,,,24.100213050842285,23.806570053100586,24.123260021209717,dot,"[0.08, 0.06, 0.06, 0.08, 0.1, 0.1]","[[0.1344939073868, 0.11682503965153783], [0.2622842826516073, -0.1576809643807538], [0.491422654665352, 0.2653315688189552], [0.5669231994484553, 0.0667155191364867], [0.2299276458131091, 0.29835232047215776], [0.3356420801536577, 0.10517090915368521]]",density,black,,,D002,visual,1,[],"['1', '2', '3', '4']",1,2023.2.3,harveyvisual,2.1,[],8,0.75,
0,pause,0.4,None,None,None,0,63,63,63,,,,,,,,,,,,,D002,visual,1,[],"['1', '2', '3', '4']",1,2023.2.3,harveyvisual,2.1,[],8,0.75,
6,dot,0.3,['dot'],['density'],black,0,64,64,64,,,24.800214052200317,24.506591081619263,24.823536157608032,dot,"[0.1, 0.1, 0.08, 0.06, 0.08, 0.1]","[[0.23041567882598732, 0.45619944218456715], [0.5278859611842325, 0.18245830030246968], [0.08738225171760033, 0.1578384040678088], [0.20561463112105705, -0.03996865664556224], [0.3021721310554224, 0.21718230064421146], [0.4273755636869532, 0.38341374408431883]]",density,black,,,D002,visual,1,[],"['1', '2', '3', '4']",1,2023.2.3,harveyvisual,2.1,[],8,0.75,
0,pause,0.4,None,None,None,0,65,65,65,,,,,,,,,,,,,D002,visual,1,[],"['1', '2', '3', '4']",1,2023.2.3,harveyvisual,2.1,[],8,0.75,
6,dot,0.3,['dot'],['density'],black,0,66,66,66,,,25.500203132629395,25.206562042236328,25.523229122161865,dot,"[0.08, 0.1, 0.08, 0.06, 0.06, 0.1]","[[0.20407874700173578, -0.003607462636592132], [0.19900023894327637, 0.3924983297162132], [0.3038969651674081, 0.19297037853131338], [-0.03476334221878716, -0.0007504963676470482], [-0.04769005191199877, 0.33834827157296915], [0.0832402191747092, 0.1716866405281877]]",density,black,,,D002,visual,1,[],"['1', '2', '3', '4']",1,2023.2.3,harveyvisual,2.1,[],8,0.75,
0,pause,0.4,None,None,None,0,67,67,67,,,,,,,,,,,,,D002,visual,1,[],"['1', '2', '3', '4']",1,2023.2.3,harveyvisual,2.1,[],8,0.75,
6,dot,0.3,['dot'],['density'],black,0,68,68,68,,,26.200200080871582,25.906525135040283,26.223204135894775,dot,"[0.1, 0.08, 0.08, 0.08, 0.08, 0.06]","[[0.4249538099490167, -0.025354946498656116], [0.305005901383002, 0.397829445973664], [0.04954868862097969, 0.09819418046919175], [0.452299537631068, 0.2574679639516015], [0.21081936584905453, -0.08903757916275208], [0.27954488569289765, 0.14103100078867375]]",density,black,,,D002,visual,1,[],"['1', '2', '3', '4']",1,2023.2.3,harveyvisual,2.1,[],8,0.75,
0,pause,0.4,None,None,None,0,69,69,69,,,,,,,,,,,,,D002,visual,1,[],"['1', '2', '3', '4']",1,2023.2.3,harveyvisual,2.1,[],8,0.75,
6,dot,0.3,['dot'],['density'],black,0,70,70,70,,,26.900197982788086,26.60667109489441,26.923155069351196,dot,"[0.1, 0.08, 0.1, 0.06, 0.06, 0.06]","[[-0.4836161913484198, -0.3187453071493452], [-0.26471688047626735, -0.2860523134109648], [-0.41762950244179403, 0.08668289631298715], [-0.3878484475239729, -0.1200129628316565], [-0.19654931186518254, -0.017200237521102193], [-0.07523945320955261, -0.19429752312200124]]",density,black,,,D002,visual,1,[],"['1', '2', '3', '4']",1,2023.2.3,harveyvisual,2.1,[],8,0.75,
0,pause,0.4,None,None,None,0,71,71,71,,,,,,,,,,,,,D002,visual,1,[],"['1', '2', '3', '4']",1,2023.2.3,harveyvisual,2.1,[],8,0.75,
7,dot,0.3,['dot'],['density'],black,0,72,72,72,,,27.600202083587646,27.306514024734497,27.623157024383545,dot,"[0.1, 0.08, 0.06, 0.06, 0.1, 0.06, 0.1]","[[-0.026372969700101213, 0.05085620782211805], [-0.16304282038196347, -0.3616501386780019], [-0.013762327205412121, -0.14910430285435466], [0.14729449770710015, -0.3647544547161306], [-0.22494517313234175, -0.12035103032643314], [-0.36514670174418407, -0.33057163197754225], [0.21417125919861074, -0.06627923590771367]]",density,black,,,D002,visual,1,[],"['1', '2', '3', '4']",1,2023.2.3,harveyvisual,2.1,[],8,0.75,
0,pause,0.4,None,None,None,0,73,73,73,,,,,,,,,,,,,D002,visual,1,[],"['1', '2', '3', '4']",1,2023.2.3,harveyvisual,2.1,[],8,0.75,
7,dot,0.3,['dot'],['density'],black,0,74,74,74,,,28.300207138061523,28.00760817527771,28.323151111602783,dot,"[0.08, 0.1, 0.1, 0.08, 0.06, 0.1, 0.1]","[[-0.1635229753841098, 0.12186382262109141], [0.03437657187081179, 0.5178389267683822], [0.324184412335695, 0.17931743601205324], [0.08929018524031027, 0.11005745596178185], [-0.1318259817332877, 0.4026967659136047], [-0.053046683696667, -0.06058584598870606], [0.042745683665752716, 0.304616966822181]]",density,black,,,D002,visual,1,[],"['1', '2', '3', '4']",1,2023.2.3,harveyvisual,2.1,[],8,0.75,
0,pause,0.4,None,None,None,0,75,75,75,,,,,,,,,,,,,D002,visual,1,[],"['1', '2', '3', '4']",1,2023.2.3,harveyvisual,2.1,[],8,0.75,
7,dot,0.3,['dot'],['density'],white,0,76,76,76,,,29.000208139419556,28.706459045410156,29.023998975753784,dot,"[0.08, 0.1, 0.06, 0.08, 0.08, 0.1, 0.08]","[[-0.23895008888738212, 0.05027357720500052], [0.04847041368780161, 0.3376116924566045], [0.007425979130163878, -0.07582657330311053], [-0.16109724709992976, 0.33554312732420544], [-0.17199436159673825, -0.1887904434853683], [0.1858169564317131, 0.14031933770952934], [-0.038655615351801086, 0.15226176997737048]]",density,white,,,D002,visual,1,[],"['1', '2', '3', '4']",1,2023.2.3,harveyvisual,2.1,[],8,0.75,
0,pause,0.4,None,None,None,0,77,77,77,,,,,,,,,,,1,28.610018968582153,D002,visual,1,[],"['1', '2', '3', '4']",1,2023.2.3,harveyvisual,2.1,[],8,0.75,
7,dot,0.3,['dot'],['density'],black,0,78,78,78,,,29.700199127197266,29.406463146209717,29.72309708595276,dot,"[0.06, 0.1, 0.1, 0.1, 0.08, 0.08, 0.06]","[[0.3899189512010899, -0.40728696153528776], [0.20392863561369634, -0.3305625840210526], [0.31626985815109576, 0.13567824844623666], [0.5017338684339655, -0.028549680114735937], [0.11648855723187378, -0.1078833072829627], [0.07041138378868489, 0.08730219371944997], [0.32910598476010167, -0.13660711058181768]]",density,black,,,D002,visual,1,[],"['1', '2', '3', '4']",1,2023.2.3,harveyvisual,2.1,[],8,0.75,
0,pause,0.4,None,None,None,0,79,79,79,,,,,,,,,,,,,D002,visual,1,[],"['1', '2', '3', '4']",1,2023.2.3,harveyvisual,2.1,[],8,0.75,
7,dot,0.3,['dot'],['density'],black,0,80,80,80,,,30.40019917488098,30.106423139572144,30.423407077789307,dot,"[0.06, 0.06, 0.06, 0.08, 0.08, 0.1, 0.06]","[[-0.39883248072855915, 0.30823732592088265], [-0.041341486549100435, 0.2390478988097413], [-0.013495537319202725, 0.5211111720540192], [-0.2415889716500472, 0.10795059447242317], [-0.023803066389735523, 0.02076064871433158], [0.14387498046506175, 0.3548008600093999], [-0.24331877599120405, 0.46521846842164205]]",density,black,,,D002,visual,1,[],"['1', '2', '3', '4']",1,2023.2.3,harveyvisual,2.1,[],8,0.75,
0,pause,0.4,None,None,None,0,81,81,81,,,,,,,,,,,,,D002,visual,1,[],"['1', '2', '3', '4']",1,2023.2.3,harveyvisual,2.1,[],8,0.75,
7,dot,0.3,['dot'],['density'],black,0,82,82,82,,,31.100203037261963,30.824002027511597,31.123054027557373,dot,"[0.1, 0.06, 0.06, 0.1, 0.06, 0.1, 0.08]","[[0.020512593940644967, 0.06058225053891463], [-0.12457192929091994, 0.22210134043855223], [0.2267676360835929, 0.07227077176864677], [-0.19381219694833235, -0.14277017550647156], [0.096077147208419, -0.13886261858003718], [0.087393672000005, 0.26445259248386815], [-0.018663113410245565, 0.4344684582511623]]",density,black,,,D002,visual,1,[],"['1', '2', '3', '4']",1,2023.2.3,harveyvisual,2.1,[],8,0.75,
0,pause,0.4,None,None,None,0,83,83,83,,,,,,,,,,,,,D002,visual,1,[],"['1', '2', '3', '4']",1,2023.2.3,harveyvisual,2.1,[],8,0.75,
8,dot,0.3,['dot'],['density'],black,0,84,84,84,,,31.800212144851685,31.50640606880188,31.824119091033936,dot,"[0.06, 0.1, 0.08, 0.1, 0.1, 0.1, 0.08, 0.06]","[[-0.13214754069031825, -0.5402677255150703], [0.1288984478000013, -0.5519726475135984], [0.27401725229332, -0.34994268047279037], [-0.052680844420756816, 0.006786609240531098], [0.03557367748195712, -0.3699094958310016], [-0.23170140006741713, -0.18198058676873416], [-0.33504621301322857, -0.3611685350886627], [0.0760940577115827, -0.14857148175569432]]",density,black,,,D002,visual,1,[],"['1', '2', '3', '4']",1,2023.2.3,harveyvisual,2.1,[],8,0.75,
0,pause,0.4,None,None,None,0,85,85,85,,,,,,,,,,,,,D002,visual,1,[],"['1', '2', '3', '4']",1,2023.2.3,harveyvisual,2.1,[],8,0.75,
8,dot,0.3,['dot'],['density'],white,0,86,86,86,,,32.500200033187866,32.206390142440796,32.5230450630188,dot,"[0.06, 0.08, 0.1, 0.06, 0.1, 0.06, 0.06, 0.06]","[[0.34834348934164344, -0.28812382596974456], [-0.10329597477015798, -0.5243874580500916], [0.11080732975293575, -0.39067626210733153], [-0.006800183936578442, -0.10390350920236302], [0.17453264242573352, -0.004648084789036161], [-0.11839138898177409, -0.2765800857961495], [-0.2122949223397977, -0.08354151726817095], [0.0010823045536620208, 0.09995244087301837]]",density,white,,,D002,visual,1,[],"['1', '2', '3', '4']",1,2023.2.3,harveyvisual,2.1,[],8,0.75,
0,pause,0.4,None,None,None,0,87,87,87,,,,,,,,,,,1,32.15476393699646,D002,visual,1,[],"['1', '2', '3', '4']",1,2023.2.3,harveyvisual,2.1,[],8,0.75,
8,dot,0.3,['dot'],['density'],black,0,88,88,88,,,33.20019507408142,32.90634107589722,33.22308707237244,dot,"[0.08, 0.06, 0.06, 0.06, 0.08, 0.08, 0.08, 0.06]","[[-0.4639556696772753, 0.10472599959088454], [-0.22970357876872852, 0.24758381400794424], [-0.060094057158436125, -0.14613975383200573], [-0.022569829209962654, 0.2677975872319761], [-0.3077859326170116, -0.10488986274105515], [-0.16040535020917, 0.031608708128470005], [-0.5175577931920246, -0.20517812764611504], [0.1194024413118107, 0.007837779916585986]]",density,black,,,D002,visual,1,[],"['1', '2', '3', '4']",1,2023.2.3,harveyvisual,2.1,[],8,0.75,
0,pause,0.4,None,None,None,0,89,89,89,,,,,,,,,,,,,D002,visual,1,[],"['1', '2', '3', '4']",1,2023.2.3,harveyvisual,2.1,[],8,0.75,
8,dot,0.3,['dot'],['density'],black,0,90,90,90,,,33.90019202232361,33.60634803771973,33.92300295829773,dot,"[0.1, 0.08, 0.08, 0.06, 0.06, 0.1, 0.06, 0.1]","[[0.2715518471235014, -0.4245138665073026], [0.03602391524707561, -0.40638782213015096], [0.4828297141312073, -0.09119901312376678], [0.02835794216237903, 0.028275321652194735], [-0.0895445032969687, -0.19822740391127236], [0.3178997883629752, 0.08245100984997318], [0.21920060966397442, -0.22342839817001514], [0.46807969757011175, -0.32427319705723295]]",density,black,,,D002,visual,1,[],"['1', '2', '3', '4']",1,2023.2.3,harveyvisual,2.1,[],8,0.75,
0,pause,0.4,None,None,None,0,91,91,91,,,,,,,,,,,,,D002,visual,1,[],"['1', '2', '3', '4']",1,2023.2.3,harveyvisual,2.1,[],8,0.75,
8,dot,0.3,['dot'],['density'],black,0,92,92,92,,,34.60020899772644,34.306463956832886,34.622990131378174,dot,"[0.08, 0.08, 0.1, 0.08, 0.06, 0.06, 0.06, 0.08]","[[0.2695774744445919, -0.006239189610034271], [0.562582848369008, 0.10338967896652898], [0.24075709842543627, 0.2415297589697605], [0.16944247952526825, 0.43473569867318385], [0.009973801462114143, 0.2622623098226203], [0.4378981685404615, 0.30984992123658367], [0.345623627049791, -0.19390063473497438], [0.01218861403819752, 6.35764658527089e-05]]",density,black,,,D002,visual,1,[],"['1', '2', '3', '4']",1,2023.2.3,harveyvisual,2.1,[],8,0.75,
0,pause,0.4,None,None,None,0,93,93,93,,,,,,,,,,,,,D002,visual,1,[],"['1', '2', '3', '4']",1,2023.2.3,harveyvisual,2.1,[],8,0.75,
8,dot,0.3,['dot'],['density'],black,0,94,94,94,,,35.300217151641846,35.00628113746643,35.323843002319336,dot,"[0.06, 0.1, 0.1, 0.1, 0.06, 0.1, 0.08, 0.06]","[[0.43039348711459674, -0.2176132953198537], [0.11499515674856413, 0.2899266495440316], [0.12808102003139596, -0.009244067984354065], [-0.030386771168905473, -0.2551920291624523], [0.3118809155168881, 0.2081403981228026], [-0.06282563634610334, 0.11114412413027695], [0.22944900542930163, -0.23921835558115082], [0.33219925311336224, 0.0035410395788749187]]",density,black,,,D002,visual,1,[],"['1', '2', '3', '4']",1,2023.2.3,harveyvisual,2.1,[],8,0.75,
0,pause,0.4,None,None,None,0,95,95,95,,,,,,,,,,,,,D002,visual,1,[],"['1', '2', '3', '4']",1,2023.2.3,harveyvisual,2.1,[],8,0.75,
9,dot,0.3,['dot'],['density'],black,0,96,96,96,,,36.000211000442505,35.70858716964722,36.02292609214783,dot,"[0.1, 0.06, 0.08, 0.06, 0.06, 0.1, 0.1, 0.06, 0.08]","[[0.08305850914464513, -0.5442468290176591], [0.035628337695759515, -0.10623885656661826], [-0.40455734034313895, -0.4103448572564978], [-0.27695520492017833, -0.22921059622728732], [-0.0679181879583315, -0.31282249044743377], [0.15394835823740735, -0.27999833282003045], [0.36545074601266236, -0.2024769979494575], [-0.18616414474285772, -0.004612976462616847], [-0.15152437179077458, -0.5570863580044498]]",density,black,,,D002,visual,1,[],"['1', '2', '3', '4']",1,2023.2.3,harveyvisual,2.1,[],8,0.75,
0,pause,0.4,None,None,None,0,97,97,97,,,,,,,,,,,,,D002,visual,1,[],"['1', '2', '3', '4']",1,2023.2.3,harveyvisual,2.1,[],8,0.75,
9,dot,0.3,['dot'],['density'],black,0,98,98,98,,,36.70020604133606,36.40625214576721,36.72291111946106,dot,"[0.06, 0.06, 0.06, 0.06, 0.06, 0.08, 0.1, 0.08, 0.1]","[[0.21556792455118703, 0.37642033042102185], [0.14366510572844648, -0.18651452926789283], [0.49642287684820396, -0.0794158383055628], [-0.04770628609247857, -0.12519201939426747], [0.20310136493979325, 0.154094551714378], [-0.004065485174475974, 0.09100382633055243], [-0.018053901421587658, 0.34918523294118026], [0.29624623666919286, -0.053344657000752645], [-0.2018857737562037, 0.01971770186205045]]",density,black,,,D002,visual,1,[],"['1', '2', '3', '4']",1,2023.2.3,harveyvisual,2.1,[],8,0.75,
0,pause,0.4,None,None,None,0,99,99,99,,,,,,,,,,,,,D002,visual,1,[],"['1', '2', '3', '4']",1,2023.2.3,harveyvisual,2.1,[],8,0.75,
9,dot,0.3,['dot'],['density'],black,0,100,100,100,,,37.40019917488098,37.10623002052307,37.42289113998413,dot,"[0.1, 0.1, 0.08, 0.06, 0.06, 0.08, 0.06, 0.1, 0.1]","[[-0.39546702852536103, 0.05887767166707298], [0.0019437857506851024, 0.07006750722115952], [0.08809400946991845, -0.15083790972035777], [-0.35358057288562594, -0.14123029179452673], [-0.18893042820243505, -0.004761820558363635], [-0.16054322822148615, -0.2701644482013472], [-0.3593088451216199, 0.2649120528395154], [-0.09346394646241396, -0.4621051997984888], [-0.5526246027455071, -0.11781718335669726]]",density,black,,,D002,visual,1,[],"['1', '2', '3', '4']",1,2023.2.3,harveyvisual,2.1,[],8,0.75,
0,pause,0.4,None,None,None,0,101,101,101,,,,,,,,,,,,,D002,visual,1,[],"['1', '2', '3', '4']",1,2023.2.3,harveyvisual,2.1,[],8,0.75,
9,dot,0.3,['dot'],['density'],black,0,102,102,102,,,38.10020303726196,37.806132078170776,38.12292408943176,dot,"[0.1, 0.1, 0.06, 0.06, 0.08, 0.06, 0.06, 0.08, 0.06]","[[-0.03413633707233166, 0.539775862693792], [0.03045342777742709, 0.14881397110038386], [0.3968101769942594, 0.3516381959676015], [-0.12464897846505978, 0.27513009849494485], [0.24828272947848068, 0.13372878599656182], [0.1825630446668698, 0.5466865974155928], [-0.40057775338259505, 0.3148646888607764], [0.06988801613907401, -0.06658504348068199], [0.07277149512897427, 0.3699912437376705]]",density,black,,,D002,visual,1,[],"['1', '2', '3', '4']",1,2023.2.3,harveyvisual,2.1,[],8,0.75,
0,pause,0.4,None,None,None,0,103,103,103,,,,,,,,,,,,,D002,visual,1,[],"['1', '2', '3', '4']",1,2023.2.3,harveyvisual,2.1,[],8,0.75,
9,dot,0.3,['dot'],['density'],black,0,104,104,104,,,38.800215005874634,38.50624394416809,38.82288908958435,dot,"[0.1, 0.1, 0.06, 0.1, 0.06, 0.06, 0.1, 0.1, 0.06]","[[0.08964926938552661, 0.05394775442474662], [0.013667798857315082, 0.3651287039276397], [-0.3518235196438996, 0.4482863301015001], [0.0843039828244993, 0.5528122926054443], [-0.16049547673848438, 0.0730005648255046], [-0.2144141911430125, 0.27623828598157274], [0.3465547907671387, 0.0307758660088046], [-0.13596480001028877, 0.5242376261272882], [0.2304522598158348, 0.3521277948761275]]",density,black,,,D002,visual,1,[],"['1', '2', '3', '4']",1,2023.2.3,harveyvisual,2.1,[],8,0.75,
0,pause,0.4,None,None,None,0,105,105,105,,,,,,,,,,,,,D002,visual,1,[],"['1', '2', '3', '4']",1,2023.2.3,harveyvisual,2.1,[],8,0.75,
9,dot,0.3,['dot'],['density'],black,0,106,106,106,,,39.50021314620972,39.20622205734253,39.52287697792053,dot,"[0.08, 0.06, 0.1, 0.1, 0.08, 0.1, 0.08, 0.08, 0.1]","[[0.27429149071172837, 0.34251676390746333], [0.46797507249945486, 0.005491811463162166], [0.21235580877939833, 0.08757146436558581], [0.046223583492975936, 0.2932249054251131], [0.07051592556679111, -0.0704922843318231], [0.30438918969270623, -0.13028831600800136], [0.11534598117609637, 0.5236829685630697], [-0.06673610159464062, 0.12515255452502297], [-0.14439101605953233, -0.1332028051536465]]",density,black,,,D002,visual,1,[],"['1', '2', '3', '4']",1,2023.2.3,harveyvisual,2.1,[],8,0.75,
0,pause,0.4,None,None,None,0,107,107,107,,,,,,,,,,,,,D002,visual,1,[],"['1', '2', '3', '4']",1,2023.2.3,harveyvisual,2.1,[],8,0.75,
20,dot,0.3,['dot'],['density'],black,0,108,108,108,,,40.20020794868469,39.92285108566284,40.22299814224243,dot,"[0.08, 0.06, 0.06, 0.08, 0.1, 0.1, 0.08, 0.08, 0.08, 0.06, 0.1, 0.08, 0.1, 0.06, 0.1, 0.06, 0.06, 0.1, 0.1, 0.06]","[[0.3886593122329909, 0.3214051248485078], [0.4372476366952339, -0.35116019634471113], [0.243655977862281, 0.0715255417097348], [-0.3246747715305478, 0.4710640351467442], [0.21988835285908914, -0.32332624145609373], [-0.21794491192107673, -0.4533028307897817], [-0.41549457160774017, -0.024883398525102907], [-0.016390299651160123, -0.3355484032266374], [0.00686004045846067, 0.22453411354697395], [0.5162953884824945, 0.07874275605481618], [-0.0022171263485852855, 0.532829491190252], [-0.04861253111985109, -0.0498779772706226], [-0.45219148709218815, -0.37542908427073685], [-0.02126999497595372, -0.5668609722916662], [-0.5490988032398512, 0.1218430511086368], [0.4212989246677078, -0.11705732222496906], [-0.27160473545614744, 0.17446158685676127], [-0.27760750931834777, -0.21882201172647286], [0.22095601708133383, -0.11891697495698972], [0.17094556974169717, 0.3984964149682434]]",density,black,,,D002,visual,1,[],"['1', '2', '3', '4']",1,2023.2.3,harveyvisual,2.1,[],8,0.75,
0,pause,0.4,None,None,None,0,109,109,109,,,,,,,,,,,,,D002,visual,1,[],"['1', '2', '3', '4']",1,2023.2.3,harveyvisual,2.1,[],8,0.75,
20,dot,0.3,['dot'],['density'],black,0,110,110,110,,,40.90019106864929,40.62285304069519,40.92371606826782,dot,"[0.06, 0.08, 0.08, 0.08, 0.1, 0.08, 0.08, 0.08, 0.1, 0.06, 0.1, 0.1, 0.06, 0.06, 0.1, 0.08, 0.1, 0.06, 0.08, 0.06]","[[0.5751024960026728, 0.11389103530417136], [-0.29499462229534223, 0.11934712833756034], [-0.25929195566483687, -0.3569706241549765], [0.1044956478250777, 0.5106298354080907], [0.20243218049522338, 0.17508859822988732], [-0.20264224111991352, 0.31149782486940836], [0.2001671212870183, -0.10847624725000998], [0.39418825085467535, 0.35330232095236647], [-0.029178231490329387, -0.36532033092025884], [0.41132615585065324, -0.18214584251920274], [0.2526760177285745, -0.30158653983914874], [-0.46729952567908994, -0.3711291819268416], [0.36492583163651693, 0.05497223541742652], [-0.5271625485644739, -0.10964377654361765], [0.21250696395457236, -0.503674840588092], [-0.5277436315899644, 0.20561632534619784], [-0.34444391822291914, 0.4879161662838387], [-0.0014656762132888579, -0.5575185312536026], [-0.32930163895771214, -0.17739790519021348], [-0.1282229341030619, -0.043745724004356834]]",density,black,,,D002,visual,1,[],"['1', '2', '3', '4']",1,2023.2.3,harveyvisual,2.1,[],8,0.75,
0,pause,0.4,None,None,None,0,111,111,111,,,,,,,,,,,,,D002,visual,1,[],"['1', '2', '3', '4']",1,2023.2.3,harveyvisual,2.1,[],8,0.75,
20,dot,0.3,['dot'],['density'],black,0,112,112,112,,,41.60020899772644,41.32283115386963,41.62280511856079,dot,"[0.06, 0.1, 0.08, 0.08, 0.08, 0.08, 0.1, 0.06, 0.08, 0.08, 0.1, 0.1, 0.06, 0.08, 0.08, 0.06, 0.06, 0.08, 0.08, 0.1]","[[-0.5147827444508626, 0.2611914497139898], [-0.3098300055671735, -0.4304779456544383], [0.2538267244108465, -0.18267900272106807], [-0.09049299219202867, -0.5607531708155308], [0.37328990971558185, 0.2623043455436477], [-0.19520460376043725, -0.2720271673238503], [0.43236562559870106, -0.3300201021968654], [-0.03798681483719146, 0.20686034270509246], [0.1530620989241187, 0.5155166136105223], [0.026777643816810026, -0.1831925476093081], [0.18009415476040502, 0.28973744835876925], [0.1096021095915698, -0.5670842233122076], [-0.2282639365875888, 0.267207009512763], [-0.5568344224155698, -0.11726104513147628], [0.5926110373000805, -0.0576153730902251], [-0.24704150673098285, 0.007826383924783298], [-0.3769674265236344, 0.39901833677111587], [0.5534334572578478, 0.1917033210372526], [-0.05606325478055274, 0.5963195039841109], [-0.39773315385135155, -0.24734252523185057]]",density,black,,,D002,visual,1,[],"['1', '2', '3', '4']",1,2023.2.3,harveyvisual,2.1,[],8,0.75,
0,pause,0.4,None,None,None,0,113,113,113,,,,,,,,,,,,,D002,visual,1,[],"['1', '2', '3', '4']",1,2023.2.3,harveyvisual,2.1,[],8,0.75,
20,dot,0.3,['dot'],['density'],black,0,114,114,114,,,42.30020499229431,42.02281999588013,42.32281494140625,dot,"[0.08, 0.1, 0.1, 0.08, 0.08, 0.06, 0.06, 0.08, 0.1, 0.1, 0.08, 0.08, 0.06, 0.06, 0.08, 0.1, 0.1, 0.06, 0.1, 0.08]","[[0.17971159390386493, 0.14277852327419194], [0.5084974805705195, -0.13329698462897918], [-0.26883962390810195, -0.47856423440782714], [-0.60016271309345, 0.027023554168348105], [0.3999744016434569, 0.44583884446275446], [-0.039725892381398564, 0.07032172229417566], [0.36959227037161246, 0.1274099301719459], [-0.08126662293137488, 0.29629954282044235], [-0.02065211342138018, -0.46145245823007286], [0.21721452946999675, 0.33784970351808274], [-0.05550772368865631, -0.20800660714785885], [-0.07390292948901911, 0.5172825934298702], [0.15317720786709155, -0.25284985823497613], [-0.5310276983831035, -0.19632175481784592], [-0.4052545419543454, 0.3826143923684325], [0.3424912151704116, -0.48928338489987216], [-0.3426615739253052, -0.3004076372619673], [-0.49783400413539697, 0.1895612605538094], [0.5895407365284514, 0.08644059329692527], [-0.3451966522814832, -0.008577458314120934]]",density,black,,,D002,visual,1,[],"['1', '2', '3', '4']",1,2023.2.3,harveyvisual,2.1,[],8,0.75,
0,pause,0.4,None,None,None,0,115,115,115,,,,,,,,,,,,,D002,visual,1,[],"['1', '2', '3', '4']",1,2023.2.3,harveyvisual,2.1,[],8,0.75,
20,dot,0.3,['dot'],['density'],black,0,116,116,116,,,43.00021505355835,42.722819089889526,43.023833990097046,dot,"[0.06, 0.06, 0.06, 0.08, 0.1, 0.06, 0.08, 0.08, 0.08, 0.06, 0.08, 0.1, 0.06, 0.06, 0.1, 0.06, 0.1, 0.06, 0.06, 0.08]","[[0.4032471156974312, -0.23127790360223419], [-0.24641121469790822, -0.3923584403297147], [-0.0327860775573362, -0.4330083552498749], [0.3501930436367975, -0.4608373365381421], [-0.09116299853467846, 0.30817588674964325], [-0.5691043254445447, 0.13442857395974495], [0.5914533764260387, -0.09489264418199814], [-0.03378134480718775, -0.07617278584197529], [-0.3478955194283548, 0.0839622140772987], [0.0871667205337121, 0.4946501753412764], [-0.5628726921240002, -0.08346059707477996], [0.25855803701253877, 0.035646356450557914], [0.32420432175301606, 0.21752052937246213], [0.5381147234119797, 0.2724898161781158], [-0.3776352446638228, 0.29201388000662476], [-0.49468458480669886, -0.27631947325239176], [-0.3720351668724798, -0.11895884632196824], [0.0632970288043474, 0.18826310950753233], [0.27268370034718636, 0.42338150347324477], [0.14107501444904658, -0.26281917411322503]]",density,black,,,D002,visual,1,[],"['1', '2', '3', '4']",1,2023.2.3,harveyvisual,2.1,[],8,0.75,
0,pause,0.4,None,None,None,0,117,117,117,,,,,,,,,,,,,D002,visual,1,[],"['1', '2', '3', '4']",1,2023.2.3,harveyvisual,2.1,[],8,0.75,
20,dot,0.3,['dot'],['density'],black,0,118,118,118,,,43.70021605491638,43.42279410362244,43.72366213798523,dot,"[0.08, 0.06, 0.08, 0.06, 0.08, 0.06, 0.08, 0.1, 0.06, 0.08, 0.06, 0.06, 0.06, 0.1, 0.06, 0.08, 0.08, 0.06, 0.1, 0.08]","[[-0.19611822312213273, -0.517816995356724], [0.4823822089854207, 0.29507116153762925], [0.18747615705443343, -0.1768121579535895], [-0.43751634359992075, -0.20058810264059312], [0.2683215673725948, 0.025603682216281287], [0.3531045812234175, -0.39390280757030394], [0.518623305596538, -0.2737371558335135], [0.06278131978078794, 0.448753316314926], [-0.2703501362473574, 0.4514464490656508], [0.5977854208444725, 0.016208339703173466], [-0.5321287754906686, 0.27745655469616437], [-0.46242196649952216, 0.020725459906052623], [0.4029095976096845, -0.11495456752346167], [-0.40262381091945343, -0.40621076059044076], [-0.0817595232221826, 0.25437231884934575], [-0.30670502638443253, 0.21671757821491722], [0.21927373752041346, 0.2786484484557773], [-0.10729453464133049, 0.04208674176214788], [-0.1061015969419255, -0.15529527296732204], [0.1031133966638933, -0.5306240767569195]]",density,black,,,D002,visual,1,[],"['1', '2', '3', '4']",1,2023.2.3,harveyvisual,2.1,[],8,0.75,
0,pause,0.4,None,None,None,0,119,119,119,,,,,,,,,,,,,D002,visual,1,[],"['1', '2', '3', '4']",1,2023.2.3,harveyvisual,2.1,[],8,0.75,
20,dot,0.3,['dot'],['density'],black,0,120,120,120,,,44.400208950042725,44.122761964797974,44.422723054885864,dot,"[0.1, 0.1, 0.1, 0.08, 0.06, 0.06, 0.1, 0.08, 0.06, 0.1, 0.1, 0.08, 0.08, 0.1, 0.1, 0.08, 0.1, 0.06, 0.06, 0.1]","[[0.40337993326262545, 0.05304782577725664], [-0.22991148510876214, 0.49714462576381324], [-0.5034506193921078, -0.053449692456698505], [-0.285973141061416, -0.1789011817217867], [-0.4291897586086495, 0.23024869480096616], [-0.07656350972899739, 0.09333437509218045], [0.3374151429516967, -0.14188919997713806], [-0.06623616121665798, -0.2838731055369479], [0.163215455254348, 0.029583680136497037], [-0.17274605495142015, -0.5692993270685113], [0.36915512863632893, -0.40154965446379665], [0.014775161794405745, 0.5162362597973266], [0.5145803552690734, 0.2937962105746397], [-0.026367604814432566, 0.330354701424881], [-0.526220701552276, -0.26902439737351763], [0.5370765351584067, -0.16431825184546378], [0.17301968417192748, 0.21916403277498497], [0.12710924855351813, -0.5091852130500801], [0.1175775623818297, -0.23017145328503968], [-0.374000064886779, -0.4491326564362829]]",density,black,,,D002,visual,1,[],"['1', '2', '3', '4']",1,2023.2.3,harveyvisual,2.1,[],8,0.75,
0,pause,0.4,None,None,None,0,121,121,121,,,,,,,,,,,,,D002,visual,1,[],"['1', '2', '3', '4']",1,2023.2.3,harveyvisual,2.1,[],8,0.75,
20,dot,0.3,['dot'],['density'],black,0,122,122,122,,,45.10020112991333,44.823639154434204,45.12303709983826,dot,"[0.1, 0.1, 0.08, 0.06, 0.08, 0.1, 0.08, 0.1, 0.06, 0.1, 0.08, 0.1, 0.1, 0.08, 0.1, 0.1, 0.1, 0.08, 0.1, 0.08]","[[0.40403858063562603, 0.09312383616372649], [0.0073047530013308215, 0.07161211342188734], [-0.32851750216309306, 0.25928240771863353], [0.1744638374386075, -0.3048737129409121], [-0.24860899052586893, 0.049319571349317304], [-0.02646796695379272, -0.44171470419211584], [-0.5648834437182761, 0.12900509121065226], [0.15051356042137087, -0.5444351210888938], [-0.445132283111492, -0.30520297543980757], [-0.10107688866980225, 0.4011041731899736], [0.10915051108973173, 0.3983991997737556], [0.5502787382114785, -0.12885386956635903], [0.5011673109763138, 0.25997310736136797], [0.255848862927067, -0.028697241665637474], [0.41236907598640593, -0.349852892702502], [-0.3331852206276257, 0.46845392419954957], [-0.4974453647006638, -0.0964044814652556], [-0.19661666047419735, -0.2746239996311279], [-0.32973026941702505, -0.47687540567105696], [0.3178393754529758, 0.32948031249603105]]",density,black,,,D002,visual,1,[],"['1', '2', '3', '4']",1,2023.2.3,harveyvisual,2.1,[],8,0.75,
0,pause,0.4,None,None,None,0,123,123,123,,,,,,,,,,,,,D002,visual,1,[],"['1', '2', '3', '4']",1,2023.2.3,harveyvisual,2.1,[],8,0.75,
20,dot,0.3,['dot'],['density'],black,0,124,124,124,,,45.80021405220032,45.52269911766052,45.82268714904785,dot,"[0.06, 0.1, 0.06, 0.06, 0.08, 0.06, 0.08, 0.06, 0.08, 0.08, 0.1, 0.06, 0.1, 0.06, 0.06, 0.08, 0.08, 0.08, 0.06, 0.08]","[[0.14036256801214864, -0.5782243527016148], [-0.07129343212592176, 0.5304736815193346], [0.44862759236813143, -0.016853220484267073], [-0.1275786603764642, -0.39764412904261237], [0.2532963912514774, -0.22553632679406976], [-0.5747668167462032, -0.12887696198348036], [0.1699950107085002, 0.2564152255685578], [-0.3847783985464758, 0.09382086932687345], [0.11557434839746294, -0.07817453397940155], [-0.09101892712687487, 0.21621005382498615], [0.5576623806895545, 0.15657870452293107], [-0.16747241404823665, -0.04645953815788284], [-0.3751528255638486, 0.4144067989541254], [0.43313545945707566, 0.3938517895283667], [0.45534701103315844, -0.28101038702102793], [-0.502561705292508, 0.25600033690908564], [0.13720390966370644, 0.5422810133397676], [-0.3596390477372841, -0.09566272299258838], [-0.3928784740691513, -0.4055724155095689], [0.3633311783306169, 0.16527696448233165]]",density,black,,,D002,visual,1,[],"['1', '2', '3', '4']",1,2023.2.3,harveyvisual,2.1,[],8,0.75,
0,pause,0.4,None,None,None,0,125,125,125,,,,,,,,,,,,,D002,visual,1,[],"['1', '2', '3', '4']",1,2023.2.3,harveyvisual,2.1,[],8,0.75,
20,dot,0.3,['dot'],['density'],black,0,126,126,126,,,46.500203132629395,46.22270703315735,46.522725105285645,dot,"[0.06, 0.06, 0.08, 0.06, 0.08, 0.06, 0.1, 0.1, 0.1, 0.08, 0.1, 0.06, 0.06, 0.08, 0.06, 0.1, 0.1, 0.08, 0.1, 0.06]","[[0.1460909518576301, 0.21105075560064002], [0.09796741044486901, -0.25729100063554217], [0.416053043488262, -0.20783196266658613], [-0.5942164154176688, -0.05930763170140019], [-0.08111699238816994, -0.3254471163115737], [0.5851688570778003, 0.10588379984947952], [-0.08089625518500021, 0.5656784320686488], [-0.39726994148509054, 0.31907829155700074], [0.31078118175967007, -0.5069562846028411], [-0.46836808856504997, 0.1009776770988533], [-0.3167669968036811, -0.24185951130168937], [-0.1402627963015567, 0.009862142566389953], [0.31508949172325207, 0.032923013509621124], [0.06019944529852217, -0.5438138775480096], [0.2517832681304234, 0.5001099047596907], [-0.07022777813930547, 0.24675261112503866], [-0.2939953014347216, 0.5090603531004094], [0.10581709104881676, -0.010831146980321393], [-0.5037928191831015, -0.31864485660696795], [0.3487277423058962, 0.2877444523272665]]",density,black,,,D002,visual,1,[],"['1', '2', '3', '4']",1,2023.2.3,harveyvisual,2.1,[],8,0.75,
0,pause,0.4,None,None,None,0,127,127,127,,,,,,,,,,,,,D002,visual,1,[],"['1', '2', '3', '4']",1,2023.2.3,harveyvisual,2.1,[],8,0.75,
20,dot,0.3,['dot'],['density'],black,0,128,128,128,,,47.200215101242065,46.92267394065857,47.222919940948486,dot,"[0.08, 0.1, 0.1, 0.08, 0.08, 0.1, 0.1, 0.1, 0.1, 0.06, 0.1, 0.06, 0.1, 0.1, 0.06, 0.06, 0.1, 0.1, 0.1, 0.08]","[[-0.05765382982341005, -0.45306644675198526], [-0.2195543400419071, 0.09521978846857837], [-0.21478904738293236, -0.2155282339158724], [0.286448309227023, -0.4754678305332839], [0.5760312144926648, -0.1626929650149649], [-0.44602037473837175, -0.24022537190256546], [-0.42345142415541437, 0.027591514064436218], [-0.08141797877202217, 0.5159375508312236], [0.5896762153420033, 0.1114606892500585], [-0.25349885173411035, 0.36612742031929457], [0.17519426920273162, 0.5633684576013946], [0.24463923826961753, 0.15765475862376466], [-0.5261589341009765, 0.22468962611300752], [0.07167038724910801, -0.03280014562409672], [0.28340976571564713, -0.1505190566542043], [-0.26149666072197314, -0.4516158874313984], [0.38963939439605333, 0.4518530715917281], [0.43876698881141574, 0.23882833345270954], [0.01538256519620751, 0.305304827226507], [0.09846465279592487, -0.2779094701456674]]",density,black,,,D002,visual,1,[],"['1', '2', '3', '4']",1,2023.2.3,harveyvisual,2.1,[],8,0.75,
0,pause,0.4,None,None,None,0,129,129,129,,,,,,,,,,,,,D002,visual,1,[],"['1', '2', '3', '4']",1,2023.2.3,harveyvisual,2.1,[],8,0.75,
20,dot,0.3,['dot'],['density'],black,0,130,130,130,,,47.90020394325256,47.622655153274536,47.92263197898865,dot,"[0.06, 0.08, 0.08, 0.1, 0.1, 0.08, 0.1, 0.08, 0.1, 0.08, 0.08, 0.06, 0.06, 0.06, 0.1, 0.1, 0.1, 0.06, 0.06, 0.06]","[[0.21163486105378104, -0.4494276793156144], [0.008079597354690438, 0.340339075453325], [-0.09690961682973731, 0.5100348828820754], [-0.03588003024958775, -0.21521773096345037], [-0.36797527694432075, -0.31328685405456047], [-0.34261618647081793, 0.3332836219678125], [0.2594648360997862, 0.45479389160809636], [0.6018581299937736, -0.056060870510937916], [-0.4803449475103245, 0.1250833293105194], [0.11713648400418519, 0.5840090608795295], [-0.3283460544750339, -0.04489393713792067], [-0.08321286519830029, -0.4534639337996339], [0.1673718217563923, -0.03251275394237141], [-0.09412099230530091, 0.008337185720964202], [0.3703901898907823, -0.08096909722653906], [0.415791889465, -0.2936440161716407], [0.1694511948770404, 0.16817721356048732], [0.42729744600086017, 0.16419662695472398], [-0.5773638244596905, -0.042864052587740925], [-0.21042058289329912, 0.18372498190088493]]",density,black,,,D002,visual,1,[],"['1', '2', '3', '4']",1,2023.2.3,harveyvisual,2.1,[],8,0.75,
0,pause,0.4,None,None,None,0,131,131,131,,,,,,,,,,,,,D002,visual,1,[],"['1', '2', '3', '4']",1,2023.2.3,harveyvisual,2.1,[],8,0.75,
20,dot,0.3,['dot'],['density'],black,0,132,132,132,,,48.60020208358765,48.32264804840088,48.62265610694885,dot,"[0.06, 0.08, 0.08, 0.08, 0.1, 0.1, 0.06, 0.06, 0.08, 0.08, 0.06, 0.1, 0.06, 0.08, 0.1, 0.08, 0.1, 0.06, 0.08, 0.06]","[[0.2967632921140734, -0.2550550004551282], [-0.5664775811487153, -0.08789189102443581], [0.41101446804533237, -0.02736341342815246], [-0.03733150175667432, 0.16464802340462248], [0.5913926857911717, -0.12601470324718947], [-0.05519573067990402, -0.38051872266030184], [-0.255849534758955, -0.2985809692361032], [0.5205511978609748, 0.21385284550597805], [-0.48312242726777505, 0.312401871371846], [-0.22346827938852526, 0.28002790898400365], [-0.2140397041750941, -0.00816250057825485], [0.4201173554023062, 0.4318735635184505], [-0.11048342213034579, 0.577171375890237], [0.1543017137103906, 0.2140534032649043], [0.051803376960325, 0.4337492550832467], [0.11476482668565913, 0.02186498349890853], [-0.4830358647730862, -0.26466244444815235], [-0.055098639267148086, -0.580733799421087], [0.10311849637742854, -0.2316388016124093], [0.2762004833567605, -0.4866151351327896]]",density,black,,,D002,visual,1,[],"['1', '2', '3', '4']",1,2023.2.3,harveyvisual,2.1,[],8,0.75,
0,pause,0.4,None,None,None,0,133,133,133,,,,,,,,,,,,,D002,visual,1,[],"['1', '2', '3', '4']",1,2023.2.3,harveyvisual,2.1,[],8,0.75,
20,dot,0.3,['dot'],['density'],black,0,134,134,134,,,49.30020999908447,49.022650957107544,49.32263112068176,dot,"[0.06, 0.08, 0.1, 0.1, 0.06, 0.06, 0.06, 0.1, 0.1, 0.08, 0.1, 0.1, 0.1, 0.08, 0.06, 0.08, 0.06, 0.08, 0.1, 0.06]","[[-0.4022828449214102, -0.04029486419782796], [-0.5055226556584049, 0.24867384960227945], [-0.34280994176791807, 0.3496927855755887], [0.5467163951283763, 0.20206130168857334], [-0.226567307023129, -0.2576311345179653], [0.07961253194636608, -0.010237168344372272], [-0.5172503107041024, -0.2756763496495709], [-0.22439096748738152, 0.5278013382233101], [0.5433499823732127, -0.11765271355255871], [0.2959152304851117, 0.014482065109360565], [-0.14470743341081038, -0.07885816585991512], [0.16199072124388403, 0.27299805598515403], [0.13929597138493055, -0.4985562373518114], [0.19008173864288502, -0.2582284888209718], [-0.0554029206026464, -0.5245761489279254], [-0.03896321548200099, 0.43235725146287995], [0.2576644017814126, 0.5450179931242343], [-0.19588619849350564, 0.17977176603669875], [-0.2698987689630504, -0.44208777507535296], [0.3355416096455358, -0.44676027152650793]]",density,black,,,D002,visual,1,[],"['1', '2', '3', '4']",1,2023.2.3,harveyvisual,2.1,[],8,0.75,
0,pause,0.4,None,None,None,0,135,135,135,,,,,,,,,,,,,D002,visual,1,[],"['1', '2', '3', '4']",1,2023.2.3,harveyvisual,2.1,[],8,0.75,
20,dot,0.3,['dot'],['density'],black,0,136,136,136,,,50.000208139419556,49.72261095046997,50.02262616157532,dot,"[0.06, 0.06, 0.1, 0.1, 0.06, 0.08, 0.08, 0.08, 0.1, 0.08, 0.1, 0.06, 0.1, 0.06, 0.1, 0.08, 0.06, 0.1, 0.1, 0.1]","[[0.11846725247692302, 0.1702114133919217], [0.4215629536059712, 0.3762307612478272], [-0.29870876750717046, -0.05051504360357906], [-0.4066742499323247, 0.3350773206667973], [0.0616361795533259, -0.0449139244177581], [-0.42522492613868346, 0.1353590668769294], [0.16947167183943823, -0.528892335838951], [-0.1271657923186325, -0.49015414854593525], [-0.3711840316737949, -0.38161860697876265], [-0.0764394612176621, 0.47310045417314994], [0.1412550563195546, 0.44162375880869287], [0.5892518111672992, -0.05098105248937694], [-0.1544372343364288, 0.15827318608787322], [0.25165856913082174, -0.2306426941621651], [0.46698266277700984, -0.3735070089865366], [-0.5958665539564396, -0.10330287035532791], [-0.10625928968187776, -0.21805294948925352], [0.43558857480654456, 0.16626464588134754], [0.32236322859506394, -0.0008790663302008506], [0.4380688488947403, -0.17444118237645212]]",density,black,,,D002,visual,1,[],"['1', '2', '3', '4']",1,2023.2.3,harveyvisual,2.1,[],8,0.75,
0,pause,0.4,None,None,None,0,137,137,137,,,,,,,,,,,,,D002,visual,1,[],"['1', '2', '3', '4']",1,2023.2.3,harveyvisual,2.1,[],8,0.75,
20,dot,0.3,['dot'],['density'],black,0,138,138,138,,,50.700215101242065,50.42255210876465,50.72254300117493,dot,"[0.08, 0.08, 0.1, 0.06, 0.06, 0.1, 0.06, 0.1, 0.1, 0.08, 0.1, 0.06, 0.1, 0.08, 0.1, 0.1, 0.1, 0.06, 0.08, 0.1]","[[-0.43684767958552634, -0.010593057559286467], [0.40605666943956964, 0.29222911752110337], [-0.1489184634928986, -0.4384975899850262], [-0.062159560025103144, 0.34246633294342665], [0.137866423493762, -0.09917823882891941], [0.29593577739966903, 0.07972037600014115], [-0.42752812738021895, -0.36427358811405186], [-0.12461331379853069, -0.22165812110896027], [-0.2351843709330807, 0.13823734550915268], [0.6014781841745026, 0.029701873560507366], [-0.5795954002220731, -0.1734841706866538], [0.15309744149255122, -0.4019502672852614], [-0.248020621597974, 0.41280407770912375], [0.5249556870764444, -0.19308109694083314], [-0.005195359620699724, 0.0889347372449828], [0.14851600231858453, 0.2503212622469987], [-0.4899769438528623, 0.3217082500100068], [0.39406036174724324, -0.4028681424700944], [-0.10178579948394895, 0.5546276555524102], [0.30632152213998365, 0.48065550433223037]]",density,black,,,D002,visual,1,[],"['1', '2', '3', '4']",1,2023.2.3,harveyvisual,2.1,[],8,0.75,
0,pause,0.4,None,None,None,0,139,139,139,,,,,,,,,,,,,D002,visual,1,[],"['1', '2', '3', '4']",1,2023.2.3,harveyvisual,2.1,[],8,0.75,
20,dot,0.3,['dot'],['density'],black,0,140,140,140,,,51.400208950042725,51.12257409095764,51.42254614830017,dot,"[0.06, 0.1, 0.08, 0.08, 0.1, 0.06, 0.06, 0.06, 0.1, 0.06, 0.08, 0.1, 0.08, 0.06, 0.06, 0.06, 0.1, 0.08, 0.06, 0.08]","[[0.07738891311836071, -0.14825615644745355], [0.37971872441233845, 0.02265887334583061], [0.012528894037960203, -0.5714641297606204], [0.17853718693440812, 0.24530931132020128], [0.33730635467864434, -0.30831902384772514], [-0.13443946466988188, -0.22452719575817875], [-0.4002991199554472, -0.00794453359173769], [0.5102076810577364, 0.3175318761274204], [0.0898489015020354, 0.5688894326359155], [-0.07140258987390624, 0.02974083134663752], [-0.28935574046832874, 0.20792408909696625], [-0.5517743409636271, -0.19763540726021256], [-0.5314292178399271, 0.15931035194282622], [-0.23860372436506, -0.4614322582931138], [0.27222215407711603, -0.49846315047039386], [0.54231060622431, -0.21018459905148973], [-0.03168120000675645, 0.31252753238275066], [-0.2231432082851184, 0.40146831597664745], [0.5951299360928975, 0.052080376732336814], [-0.3702379016307496, -0.30744385855096246]]",density,black,,,D002,visual,1,[],"['1', '2', '3', '4']",1,2023.2.3,harveyvisual,2.1,[],8,0.75,
0,pause,0.4,None,None,None,0,141,141,141,,,,,,,,,,,,,D002,visual,1,[],"['1', '2', '3', '4']",1,2023.2.3,harveyvisual,2.1,[],8,0.75,
20,dot,0.3,['dot'],['density'],black,0,142,142,142,,,52.10021495819092,51.82252502441406,52.123603105545044,dot,"[0.06, 0.1, 0.08, 0.06, 0.08, 0.1, 0.08, 0.08, 0.1, 0.1, 0.08, 0.1, 0.08, 0.06, 0.1, 0.06, 0.06, 0.08, 0.1, 0.06]","[[0.4209979203387738, -0.012627169475843358], [-0.2568197842705334, -0.06826207303078557], [0.487381187130255, -0.2761743823541001], [0.003792908661217176, 0.33685412759281197], [-0.159159342988424, -0.3265523165032418], [-0.4354431127888764, -0.41813729628489726], [-0.2974309208978738, 0.42744324067883643], [-0.059686923455547825, -0.05243641617663142], [-0.5548207691253183, -0.021610877778650256], [-0.4586974351779807, 0.310394144390328], [0.2897928287058884, -0.3157170897545889], [0.3455274501367104, 0.2121964202364982], [0.10249571983474326, 0.5566614481986639], [0.5811955699771644, 0.0943645853893004], [0.000695625306718628, -0.5271224521667635], [0.22388313137784055, -0.031056292230732696], [-0.26562398863154324, 0.18686943821568625], [0.419901051152087, 0.41295118697854355], [0.24101845622617157, -0.5471250415979455], [-0.26807405884706276, -0.5390496390178762]]",density,black,,,D002,visual,1,[],"['1', '2', '3', '4']",1,2023.2.3,harveyvisual,2.1,[],8,0.75,
0,pause,0.4,None,None,None,0,143,143,143,,,,,,,,,,,,,D002,visual,1,[],"['1', '2', '3', '4']",1,2023.2.3,harveyvisual,2.1,[],8,0.75,
20,dot,0.3,['dot'],['density'],black,0,144,144,144,,,52.80021405220032,52.52252006530762,52.82341504096985,dot,"[0.08, 0.06, 0.08, 0.1, 0.06, 0.1, 0.1, 0.06, 0.1, 0.06, 0.1, 0.06, 0.1, 0.08, 0.08, 0.08, 0.1, 0.08, 0.08, 0.06]","[[0.4748495297205041, -0.30756013063291177], [0.5446461059459059, 0.22297611738992146], [0.26389545936413594, 0.046300902701795654], [-0.21168378493827705, -0.28218223673968723], [0.22612159956882982, -0.2809347463345712], [-0.30029061012003666, 0.030025928144626235], [-0.5170558214335766, -0.10059256275921954], [-0.04895585816112902, 0.2789861371466291], [-0.34894177271811494, -0.4726368068076091], [-0.3828035847651772, 0.36100382027182], [0.18452415062413585, 0.5630724445839614], [0.14284318611528712, 0.30874957020816995], [-0.0404559067686896, 0.04080883187834816], [0.520081561416838, -0.04840500501037437], [-0.03728494780821712, -0.36154794174632643], [0.04573340598326747, -0.5775170090298133], [-0.2034991452983279, 0.4429707926942207], [0.4076254520923962, 0.4184530377362805], [0.0023876871924426446, 0.4743614932846756], [-0.00205638513878581, -0.15104234865930055]]",density,black,,,D002,visual,1,[],"['1', '2', '3', '4']",1,2023.2.3,harveyvisual,2.1,[],8,0.75,
0,pause,0.4,None,None,None,0,145,145,145,,,,,,,,,,,,,D002,visual,1,[],"['1', '2', '3', '4']",1,2023.2.3,harveyvisual,2.1,[],8,0.75,
20,dot,0.3,['dot'],['density'],black,0,146,146,146,,,53.50021195411682,53.22253894805908,53.52249002456665,dot,"[0.08, 0.1, 0.08, 0.1, 0.06, 0.08, 0.08, 0.06, 0.06, 0.08, 0.06, 0.08, 0.08, 0.08, 0.06, 0.1, 0.1, 0.06, 0.1, 0.06]","[[0.2956770143898745, 0.11473317930211469], [0.5446663690007599, 0.22400076753267262], [-0.13087593952869825, -0.05130164210924526], [-0.38150688271129674, 0.05590912489978639], [-0.5050274429449128, -0.25041227737250243], [0.49071758330215476, -0.12145959907909609], [0.1651217015012525, -0.2710322172316852], [-0.12883365282184506, -0.3755656088117353], [-0.03420550250592902, 0.3594589864623221], [-0.26212277035026393, 0.4837383094703478], [-0.48607860708769607, 0.3142417798609982], [0.13215633438606011, 0.5269452083959345], [0.6017953069181782, 0.03306903861400079], [0.37411892509518696, 0.4045367687128269], [-0.593143733545589, 0.04158913520335575], [-0.22164750833949365, -0.5449739821057195], [-0.3013220269302238, 0.2697813258524564], [0.3418701067765323, -0.45101020571671835], [-0.08325836859728608, 0.5617498525924682], [0.1126649292397719, -0.5357393762924675]]",density,black,,,D002,visual,1,[],"['1', '2', '3', '4']",1,2023.2.3,harveyvisual,2.1,[],8,0.75,
0,pause,0.4,None,None,None,0,147,147,147,,,,,,,,,,,,,D002,visual,1,[],"['1', '2', '3', '4']",1,2023.2.3,harveyvisual,2.1,[],8,0.75,
20,dot,0.3,['dot'],['density'],black,0,148,148,148,,,54.20019817352295,53.92249011993408,54.222469091415405,dot,"[0.1, 0.08, 0.1, 0.08, 0.08, 0.06, 0.06, 0.08, 0.08, 0.06, 0.06, 0.1, 0.08, 0.1, 0.1, 0.06, 0.08, 0.08, 0.06, 0.1]","[[0.07063463918255286, 0.2670957529297241], [-0.1663990478150545, 0.5624424010376781], [0.490815137217253, 0.2684293036166943], [0.011598255988046757, -0.2772551777465489], [0.0321861298568038, -0.48128360356813227], [0.2663802488099065, 0.0672355450015556], [-0.32604847110652757, 0.23937346586508235], [-0.14721468116091224, -0.5668898609842049], [-0.31079744582251956, 0.049665979768668156], [0.0709578941827933, 0.008783939366510118], [-0.5507890489190164, -0.1540149624634532], [0.20922112325923803, 0.5543182303326103], [-0.3550044104296823, -0.449043426391422], [0.4418949305400427, -0.14684104993399089], [-0.1318269508810898, 0.1865450259358179], [-0.29682513404573535, -0.23994786402588236], [0.23185459144180653, -0.15430070132598744], [0.6028286449203543, -0.03845047227300635], [-0.4985685295490456, 0.11668977847044115], [-0.14082692262535706, -0.0865050818180152]]",density,black,,,D002,visual,1,[],"['1', '2', '3', '4']",1,2023.2.3,harveyvisual,2.1,[],8,0.75,
0,pause,0.4,None,None,None,0,149,149,149,,,,,,,,,,,,,D002,visual,1,[],"['1', '2', '3', '4']",1,2023.2.3,harveyvisual,2.1,[],8,0.75,
20,dot,0.3,['dot'],['density'],black,0,150,150,150,,,54.900217056274414,54.62246799468994,54.92244815826416,dot,"[0.1, 0.1, 0.1, 0.1, 0.1, 0.08, 0.08, 0.1, 0.1, 0.1, 0.08, 0.1, 0.08, 0.1, 0.06, 0.06, 0.08, 0.08, 0.06, 0.08]","[[-0.3965473940850282, 0.1400019172276108], [0.41754566789443903, 0.12268361218916907], [0.3917635396556891, 0.4471193067515537], [-0.16937627727419202, -0.5398119574689617], [0.0745750161664388, 0.4971400361245054], [-0.4290978553764822, -0.06640950020879532], [-0.11507385417671906, 0.22351345182129512], [-0.08449129467292449, -0.026124509681085595], [0.18516133493435916, -0.002052172912890615], [0.572754086681328, -0.08452415865549957], [-0.06305565100764765, -0.24880037601654187], [0.18371379658413445, 0.21214873117749522], [0.2826784113163343, -0.5286397641836883], [0.43966774604343806, -0.3538306720699492], [-0.563492228350349, -0.21886920309997912], [-0.3879377074053241, -0.4186984839943237], [0.265485370835303, -0.24751071255400886], [0.04076617568505603, -0.4295363156588484], [-0.2850938675812022, -0.20549660363551747], [-0.498787157479443, 0.33920527392792826]]",density,black,,,D002,visual,1,[],"['1', '2', '3', '4']",1,2023.2.3,harveyvisual,2.1,[],8,0.75,
0,pause,0.4,None,None,None,0,151,151,151,,,,,,,,,,,,,D002,visual,1,[],"['1', '2', '3', '4']",1,2023.2.3,harveyvisual,2.1,[],8,0.75,
20,dot,0.3,['dot'],['density'],black,0,152,152,152,,,55.60020613670349,55.32243800163269,55.622437953948975,dot,"[0.1, 0.08, 0.1, 0.08, 0.1, 0.06, 0.1, 0.1, 0.08, 0.1, 0.1, 0.1, 0.1, 0.08, 0.08, 0.06, 0.06, 0.1, 0.1, 0.1]","[[0.576157671845151, 0.15987614582421192], [-0.12138424204087278, 0.43595698813195993], [0.4140833929925821, -0.42627299803469854], [-0.13280339058319524, -0.23233760807013926], [0.15051610511554625, 0.5797699418144612], [0.12617106528351785, -0.1558257423482859], [0.36697970444428285, 0.13477344197050634], [-0.3009603819898795, -0.36628197026945564], [-0.3219384207292979, 0.365072763604676], [-0.4764332772397789, -0.04377681704446451], [-0.4923619042102833, 0.26929805585032063], [0.48953002989799, -0.03346817151515752], [-0.00584076684979129, -0.526513266196423], [0.16122656966637605, 0.35693317062123797], [-0.022577415014540136, 0.11261030222179547], [-0.22561767077351302, -0.06146718462525558], [-0.5101305309599098, -0.2555229573962021], [-0.262810787086031, 0.153254994761295], [0.34708091834759003, -0.22153942260677278], [0.20591295291034717, -0.5541023804266467]]",density,black,,,D002,visual,1,[],"['1', '2', '3', '4']",1,2023.2.3,harveyvisual,2.1,[],8,0.75,
0,pause,0.4,None,None,None,0,153,153,153,,,,,,,,,,,,,D002,visual,1,[],"['1', '2', '3', '4']",1,2023.2.3,harveyvisual,2.1,[],8,0.75,
20,dot,0.3,['dot'],['density'],white,0,154,154,154,,,56.30020809173584,56.02243614196777,56.32240295410156,dot,"[0.08, 0.1, 0.08, 0.1, 0.06, 0.1, 0.08, 0.08, 0.06, 0.08, 0.06, 0.1, 0.08, 0.08, 0.06, 0.06, 0.1, 0.1, 0.06, 0.1]","[[-0.28932334920107516, 0.026848448958101567], [0.12593315958669438, -0.19744581248725213], [-0.021191051226931767, 0.19994948714224103], [0.29751123035917504, 0.08868372429776683], [0.5573494508704965, 0.23147765486892294], [0.28395624202731273, 0.36654638635077097], [-0.6041368986412238, -0.02214772071047305], [-0.10536714993901714, -0.45704155672038216], [0.10415782351642489, 0.47718785706968536], [-0.46712716138815097, 0.2811677175098431], [-0.26807532591557554, 0.4016053784215936], [0.4553109339986966, -0.0806315876818709], [-0.3627405975900427, -0.19064532236428988], [0.38942982075830246, -0.3083128912617753], [-0.0785125918038887, -0.24467942099999407], [0.21753978769302984, -0.4715593639270429], [0.021211291241880925, -0.008003317596379733], [-0.3586468927228012, -0.38879055176500277], [-0.10785144157357807, 0.5612471455179624], [-0.5392069546595896, -0.2704954460723871]]",density,white,,,D002,visual,1,[],"['1', '2', '3', '4']",1,2023.2.3,harveyvisual,2.1,[],8,0.75,
0,pause,0.4,None,None,None,0,155,155,155,,,,,,,,,,,1,55.98937010765076,D002,visual,1,[],"['1', '2', '3', '4']",1,2023.2.3,harveyvisual,2.1,[],8,0.75,
9,dot,0.3,['dot'],['density'],black,0,156,156,156,,,57.00020098686218,56.722394943237305,57.02271294593811,dot,"[0.1, 0.08, 0.1, 0.08, 0.06, 0.06, 0.06, 0.06, 0.08]","[[0.30047334598257713, -0.32583448447642216], [0.4997394081452916, 0.05175273655880906], [0.13646797290608587, 0.02221883094322858], [0.11448241016544139, -0.2117191838414046], [0.417500260412479, 0.2413963184479076], [0.19152536325099656, 0.23172406522327998], [0.5046802385722475, -0.28323005758562664], [-0.037891296982194685, 0.14714919272112825], [0.3292067348064443, -0.0657181274468392]]",density,black,,,D002,visual,1,[],"['1', '2', '3', '4']",1,2023.2.3,harveyvisual,2.1,[],8,0.75,
0,pause,0.4,None,None,None,0,157,157,157,,,,,,,,,,,,,D002,visual,1,[],"['1', '2', '3', '4']",1,2023.2.3,harveyvisual,2.1,[],8,0.75,
9,dot,0.3,['dot'],['density'],white,0,158,158,158,,,57.70020413398743,57.42238211631775,57.72350215911865,dot,"[0.1, 0.08, 0.06, 0.08, 0.08, 0.1, 0.06, 0.1, 0.06]","[[-0.5242180236495622, 0.2097960018926228], [-0.2671382220306689, 0.3003190330968159], [-0.06183693718886379, 0.22592490829479475], [-0.2001015593906042, -0.14641750634996328], [-0.09246193223873551, 0.43765994221656135], [-0.29330373087767303, 0.05285487614136386], [0.007094383220706952, 0.008748553761596398], [0.1465325421295601, 0.294910430799518], [0.04425292235957525, -0.2230758375085622]]",density,white,,,D002,visual,1,[],"['1', '2', '3', '4']",1,2023.2.3,harveyvisual,2.1,[],8,0.75,
0,pause,0.4,None,None,None,0,159,159,159,,,,,,,,,,,1,57.44654393196106,D002,visual,1,[],"['1', '2', '3', '4']",1,2023.2.3,harveyvisual,2.1,[],8,0.75,
9,dot,0.3,['dot'],['density'],black,0,160,160,160,,,58.40021204948425,58.12269401550293,58.42235016822815,dot,"[0.1, 0.08, 0.08, 0.06, 0.08, 0.08, 0.08, 0.08, 0.06]","[[-0.2844843713072754, 0.22325415166673976], [-0.1819235275981482, -0.2724209396165719], [-0.4663757242286994, 0.0951888680112534], [-0.002662519752874684, 0.12526046944360225], [-0.2804516333182533, -0.07461618094684651], [-0.06266188203573825, -0.10246171469469513], [0.05562179911838863, -0.3774952117829348], [-0.29777175193284133, -0.43797360937606633], [-0.44596842075831894, -0.24145786298940805]]",density,black,,,D002,visual,1,[],"['1', '2', '3', '4']",1,2023.2.3,harveyvisual,2.1,[],8,0.75,
0,pause,0.4,None,None,None,0,161,161,161,,,,,,,,,,,,,D002,visual,1,[],"['1', '2', '3', '4']",1,2023.2.3,harveyvisual,2.1,[],8,0.75,
9,dot,0.3,['dot'],['density'],black,0,162,162,162,,,59.10021901130676,58.82234215736389,59.12233901023865,dot,"[0.1, 0.06, 0.08, 0.08, 0.08, 0.08, 0.08, 0.06, 0.1]","[[-0.05049485011715354, 0.3013521193238899], [0.15354596755057998, 0.36785015051376163], [0.22995749783639982, 0.07309138415424772], [0.13460311710395165, -0.18603378415368982], [0.33097739113381164, -0.13822260855557728], [-0.16464148731134703, 0.07190493829483618], [0.521154897315396, -0.007803673430992942], [0.02684304494395013, 0.0018704401699241912], [-0.15545279255173522, -0.15329938800760382]]",density,black,,,D002,visual,1,[],"['1', '2', '3', '4']",1,2023.2.3,harveyvisual,2.1,[],8,0.75,
0,pause,0.4,None,None,None,0,163,163,163,,,,,,,,,,,,,D002,visual,1,[],"['1', '2', '3', '4']",1,2023.2.3,harveyvisual,2.1,[],8,0.75,
9,dot,0.3,['dot'],['density'],black,0,164,164,164,,,59.80021810531616,59.52232503890991,59.82232213020325,dot,"[0.1, 0.1, 0.06, 0.06, 0.08, 0.06, 0.08, 0.08, 0.1]","[[0.12352761201622256, -0.5468572532837559], [0.3269537579821693, -0.14821727133703638], [-0.17374906020363926, -0.07190913605219341], [-0.07646026346349713, -0.5341566642345157], [0.06446752128858728, 0.011530587655488696], [0.17734850627899523, -0.32847254707869106], [-0.01015131191695844, -0.24065236825376074], [-0.3732824370369478, -0.21519922319826376], [-0.23017550258214428, -0.35747389881463476]]",density,black,,,D002,visual,1,[],"['1', '2', '3', '4']",1,2023.2.3,harveyvisual,2.1,[],8,0.75,
0,pause,0.4,None,None,None,0,165,165,165,,,,,,,,,,,,,D002,visual,1,[],"['1', '2', '3', '4']",1,2023.2.3,harveyvisual,2.1,[],8,0.75,
9,dot,0.3,['dot'],['density'],black,0,166,166,166,,,60.50021004676819,60.22230100631714,60.52323508262634,dot,"[0.1, 0.08, 0.08, 0.1, 0.06, 0.1, 0.08, 0.08, 0.08]","[[0.5176022259896301, 0.07013652950073157], [0.29073914382076843, 0.49095716113391286], [0.25755010907869064, 0.10321661572421419], [0.11549350267606502, 0.37871636325142816], [-0.040248060121338324, 0.07603447111469516], [0.35733910828644905, -0.07238149579930037], [0.09184169877402729, -0.10424630849328012], [-0.10934901156313583, -0.14911132891814113], [0.4158094160330474, 0.26019999263529187]]",density,black,,,D002,visual,1,[],"['1', '2', '3', '4']",1,2023.2.3,harveyvisual,2.1,[],8,0.75,
0,pause,0.4,None,None,None,0,167,167,167,,,,,,,,,,,,,D002,visual,1,[],"['1', '2', '3', '4']",1,2023.2.3,harveyvisual,2.1,[],8,0.75,
8,dot,0.3,['dot'],['density'],black,0,168,168,168,,,61.2002010345459,60.906713008880615,61.2222900390625,dot,"[0.1, 0.06, 0.1, 0.08, 0.08, 0.06, 0.1, 0.1]","[[0.1740819983727909, -0.16863019829442621], [0.14644114519141543, -0.4524198896657212], [0.0024885361438939093, 0.023531574910491997], [-0.23717340943857948, -0.31112918658627675], [-0.11311749148073028, -0.46867866316561874], [-0.17928248077090506, -0.060241557052319365], [-0.03957999532622772, -0.24759906754331504], [-0.4644327601918011, -0.3627803331480915]]",density,black,,,D002,visual,1,[],"['1', '2', '3', '4']",1,2023.2.3,harveyvisual,2.1,[],8,0.75,
0,pause,0.4,None,None,None,0,169,169,169,,,,,,,,,,,,,D002,visual,1,[],"['1', '2', '3', '4']",1,2023.2.3,harveyvisual,2.1,[],8,0.75,
8,dot,0.3,['dot'],['density'],black,0,170,170,170,,,61.90020799636841,61.60553002357483,61.922264099121094,dot,"[0.08, 0.08, 0.08, 0.08, 0.08, 0.08, 0.06, 0.08]","[[0.016639406518403475, -0.10031965053970064], [-0.49734137941811546, 0.023312718056099104], [0.03171158295547566, 0.2028207856397581], [-0.3777108616291506, 0.18827317115199685], [-0.2734124440264558, -0.20525012861841768], [-0.1742574757978524, 0.04093824739900491], [-0.17815403785603903, 0.26205888083036905], [-0.2502819750276768, 0.4804358206127844]]",density,black,,,D002,visual,1,[],"['1', '2', '3', '4']",1,2023.2.3,harveyvisual,2.1,[],8,0.75,
0,pause,0.4,None,None,None,0,171,171,171,,,,,,,,,,,,,D002,visual,1,[],"['1', '2', '3', '4']",1,2023.2.3,harveyvisual,2.1,[],8,0.75,
8,dot,0.3,['dot'],['density'],black,0,172,172,172,,,62.60019516944885,62.32224917411804,62.6222710609436,dot,"[0.08, 0.06, 0.08, 0.1, 0.08, 0.06, 0.1, 0.1]","[[0.32983457944800887, -0.09988122376634187], [0.002544499336209532, 0.05447162498302279], [0.49322357980250997, 0.04173156098678792], [0.3398992085464782, -0.3241559212022164], [0.12656458423521935, -0.36323236959635974], [0.5072737450674915, -0.19500703868861743], [0.06482113683766944, -0.1422911224505784], [0.25865538318477954, 0.20042726536108785]]",density,black,,,D002,visual,1,[],"['1', '2', '3', '4']",1,2023.2.3,harveyvisual,2.1,[],8,0.75,
0,pause,0.4,None,None,None,0,173,173,173,,,,,,,,,,,,,D002,visual,1,[],"['1', '2', '3', '4']",1,2023.2.3,harveyvisual,2.1,[],8,0.75,
8,dot,0.3,['dot'],['density'],black,0,174,174,174,,,63.30020594596863,63.02224802970886,63.32222008705139,dot,"[0.1, 0.06, 0.08, 0.1, 0.08, 0.08, 0.1, 0.1]","[[0.2715518471235014, -0.4245138665073026], [0.03602391524707561, -0.40638782213015096], [0.4828297141312073, -0.09119901312376678], [0.02835794216237903, 0.028275321652194735], [-0.0895445032969687, -0.19822740391127236], [0.3178997883629752, 0.08245100984997318], [0.21920060966397442, -0.22342839817001514], [0.46807969757011175, -0.32427319705723295]]",density,black,,,D002,visual,1,[],"['1', '2', '3', '4']",1,2023.2.3,harveyvisual,2.1,[],8,0.75,
0,pause,0.4,None,None,None,0,175,175,175,,,,,,,,,,,,,D002,visual,1,[],"['1', '2', '3', '4']",1,2023.2.3,harveyvisual,2.1,[],8,0.75,
8,dot,0.3,['dot'],['density'],black,0,176,176,176,,,64.00019717216492,63.72226905822754,64.02224516868591,dot,"[0.08, 0.08, 0.06, 0.08, 0.1, 0.1, 0.08, 0.08]","[[-0.258715538922871, 0.3828151050353194], [-0.4384035523576633, -0.18689856672911037], [-0.5586779833045601, 0.15056420889708766], [-0.1699372658897842, -0.04883432605429875], [-0.36053016753151684, 0.02858569738219561], [-0.199221799186684, 0.1876786431210615], [0.004458053620249285, 0.1240038339062716], [0.019420137312414813, -0.16023679021787893]]",density,black,,,D002,visual,1,[],"['1', '2', '3', '4']",1,2023.2.3,harveyvisual,2.1,[],8,0.75,
0,pause,0.4,None,None,None,0,177,177,177,,,,,,,,,,,,,D002,visual,1,[],"['1', '2', '3', '4']",1,2023.2.3,harveyvisual,2.1,[],8,0.75,
8,dot,0.3,['dot'],['density'],black,0,178,178,178,,,64.70020508766174,64.40548801422119,64.72219705581665,dot,"[0.08, 0.1, 0.1, 0.08, 0.1, 0.1, 0.06, 0.06]","[[-0.2875956673588428, -0.37608972473646446], [0.1738442798715151, -0.5418380206356169], [-0.005791994605287101, -0.36400925298789194], [0.15381919852689818, -0.2106776783026027], [-0.02243369038452208, -0.11017027562433494], [-0.1375601387891928, -0.5383184991665005], [0.3481619806761259, -0.4256719133417836], [-0.2437856683810358, -0.16373273019932677]]",density,black,,,D002,visual,1,[],"['1', '2', '3', '4']",1,2023.2.3,harveyvisual,2.1,[],8,0.75,
0,pause,0.4,None,None,None,0,179,179,179,,,,,,,,,,,,,D002,visual,1,[],"['1', '2', '3', '4']",1,2023.2.3,harveyvisual,2.1,[],8,0.75,
7,dot,0.3,['dot'],['density'],black,0,180,180,180,,,65.40021204948425,65.10555100440979,65.42218708992004,dot,"[0.06, 0.06, 0.08, 0.1, 0.1, 0.1, 0.08]","[[0.2966712274604575, -0.2131825579980761], [-0.1186836204372937, -0.4965034514665913], [-0.01440301872015537, -0.0403072600505146], [0.1950017499803942, -0.04023412759326238], [0.279011892689379, -0.46996203863525404], [-0.05628257964606558, -0.24364929332980273], [0.11956786588335709, -0.3438640467385331]]",density,black,,,D002,visual,1,[],"['1', '2', '3', '4']",1,2023.2.3,harveyvisual,2.1,[],8,0.75,
0,pause,0.4,None,None,None,0,181,181,181,,,,,,,,,,,,,D002,visual,1,[],"['1', '2', '3', '4']",1,2023.2.3,harveyvisual,2.1,[],8,0.75,
7,dot,0.3,['dot'],['density'],black,0,182,182,182,,,66.10022211074829,65.80553102493286,66.12219309806824,dot,"[0.06, 0.08, 0.1, 0.1, 0.1, 0.06, 0.1]","[[0.13823229125104186, -0.11287424625882309], [-0.082914425993103, 0.43156227464827385], [0.30107400633957315, 0.2583336012722512], [-0.1103107855725706, 0.20298726112520996], [0.37862923877470095, 0.05664428164281185], [0.10057609128089995, 0.3089177590539603], [0.1009283971288976, 0.1061295027106774]]",density,black,,,D002,visual,1,[],"['1', '2', '3', '4']",1,2023.2.3,harveyvisual,2.1,[],8,0.75,
0,pause,0.4,None,None,None,0,183,183,183,,,,,,,,,,,,,D002,visual,1,[],"['1', '2', '3', '4']",1,2023.2.3,harveyvisual,2.1,[],8,0.75,
7,dot,0.3,['dot'],['density'],black,0,184,184,184,,,66.80020999908447,66.5055480003357,66.82307314872742,dot,"[0.06, 0.08, 0.06, 0.1, 0.06, 0.08, 0.06]","[[0.19245168201499255, -0.1876960705048169], [-0.3381443552002159, -0.23329338142126996], [-0.10497405195571721, -0.20200038512761503], [-0.19215049966389516, -0.01485034356210763], [-0.14804808022624072, 0.20187381879058183], [0.049390412829639754, -0.0077734514623590935], [0.08212821656350888, 0.19234027401595055]]",density,black,,,D002,visual,1,[],"['1', '2', '3', '4']",1,2023.2.3,harveyvisual,2.1,[],8,0.75,
0,pause,0.4,None,None,None,0,185,185,185,,,,,,,,,,,,,D002,visual,1,[],"['1', '2', '3', '4']",1,2023.2.3,harveyvisual,2.1,[],8,0.75,
7,dot,0.3,['dot'],['density'],black,0,186,186,186,,,67.50021409988403,67.22321701049805,67.52212715148926,dot,"[0.08, 0.08, 0.06, 0.06, 0.06, 0.1, 0.08]","[[0.3899189512010899, -0.40728696153528776], [0.20392863561369634, -0.3305625840210526], [0.31626985815109576, 0.13567824844623666], [0.5017338684339655, -0.028549680114735937], [0.11648855723187378, -0.1078833072829627], [0.07041138378868489, 0.08730219371944997], [0.32910598476010167, -0.13660711058181768]]",density,black,,,D002,visual,1,[],"['1', '2', '3', '4']",1,2023.2.3,harveyvisual,2.1,[],8,0.75,
0,pause,0.4,None,None,None,0,187,187,187,,,,,,,,,,,,,D002,visual,1,[],"['1', '2', '3', '4']",1,2023.2.3,harveyvisual,2.1,[],8,0.75,
7,dot,0.3,['dot'],['density'],black,0,188,188,188,,,68.20022106170654,67.9055061340332,68.22216010093689,dot,"[0.08, 0.1, 0.08, 0.06, 0.06, 0.08, 0.06]","[[-0.2314520007693297, 0.33838000150240727], [-0.18132207761103206, 0.5552670473927488], [0.017458222085991553, 0.32213086183097556], [0.10538257653630445, 0.5364165263315271], [-0.32661765694444117, 0.13553859080651098], [0.2001110614088519, 0.2352342526365964], [-0.07707990285528175, 0.1388757586163816]]",density,black,,,D002,visual,1,[],"['1', '2', '3', '4']",1,2023.2.3,harveyvisual,2.1,[],8,0.75,
0,pause,0.4,None,None,None,0,189,189,189,,,,,,,,,,,,,D002,visual,1,[],"['1', '2', '3', '4']",1,2023.2.3,harveyvisual,2.1,[],8,0.75,
7,dot,0.3,['dot'],['density'],black,0,190,190,190,,,68.90021014213562,68.60548901557922,68.92306900024414,dot,"[0.06, 0.06, 0.06, 0.06, 0.08, 0.1, 0.08]","[[0.3350011905151264, 0.09255159473130091], [-0.07424962927914175, -0.2643067362759337], [-0.0068732696698998825, 0.04948606721470151], [0.12855319879406235, -0.3381192636220083], [0.11551090787938859, 0.24000211478775196], [0.3415900712266813, -0.1269386107563701], [0.14228147320501944, -0.08533637750285226]]",density,black,,,D002,visual,1,[],"['1', '2', '3', '4']",1,2023.2.3,harveyvisual,2.1,[],8,0.75,
0,pause,0.4,None,None,None,0,191,191,191,,,,,,,,,,,,,D002,visual,1,[],"['1', '2', '3', '4']",1,2023.2.3,harveyvisual,2.1,[],8,0.75,
6,dot,0.3,['dot'],['density'],black,0,192,192,192,,,69.60019993782043,69.30543613433838,69.62207698822021,dot,"[0.08, 0.1, 0.1, 0.08, 0.08, 0.1]","[[0.404576257273406, 0.0700140295133255], [0.16236872381874318, -0.0021128728600973284], [0.5529541989122894, -0.15659614737169442], [0.13702497511457395, -0.2589057080071786], [0.36740063964394665, -0.3636528069500345], [0.3132750905084481, -0.159771579268986]]",density,black,,,D002,visual,1,[],"['1', '2', '3', '4']",1,2023.2.3,harveyvisual,2.1,[],8,0.75,
0,pause,0.4,None,None,None,0,193,193,193,,,,,,,,,,,,,D002,visual,1,[],"['1', '2', '3', '4']",1,2023.2.3,harveyvisual,2.1,[],8,0.75,
6,dot,0.3,['dot'],['density'],black,0,194,194,194,,,70.30021715164185,70.0053870677948,70.32209897041321,dot,"[0.08, 0.06, 0.1, 0.06, 0.06, 0.06]","[[0.5108460974500976, 0.10904555526594768], [0.5033362887342737, -0.29902707163897635], [0.3062164979741722, 0.05793810054487639], [0.22849736264613016, -0.28041776899433873], [0.12909977445373055, -0.06500178518750158], [0.41889526300287094, -0.11616960582105396]]",density,black,,,D002,visual,1,[],"['1', '2', '3', '4']",1,2023.2.3,harveyvisual,2.1,[],8,0.75,
0,pause,0.4,None,None,None,0,195,195,195,,,,,,,,,,,,,D002,visual,1,[],"['1', '2', '3', '4']",1,2023.2.3,harveyvisual,2.1,[],8,0.75,
6,dot,0.3,['dot'],['density'],black,0,196,196,196,,,71.00022411346436,70.70541214942932,71.02206206321716,dot,"[0.08, 0.08, 0.1, 0.1, 0.08, 0.08]","[[0.1982846419110591, -0.5292804859653952], [-0.09533153174900855, -0.5647367288422243], [-0.1659446600366624, -0.36958438178462333], [0.23572970018209544, -0.2476946313124468], [-0.023160452264027947, -0.17140847685647978], [0.035419311136148636, -0.3737635646361638]]",density,black,,,D002,visual,1,[],"['1', '2', '3', '4']",1,2023.2.3,harveyvisual,2.1,[],8,0.75,
0,pause,0.4,None,None,None,0,197,197,197,,,,,,,,,,,,,D002,visual,1,[],"['1', '2', '3', '4']",1,2023.2.3,harveyvisual,2.1,[],8,0.75,
6,dot,0.3,['dot'],['density'],white,0,198,198,198,,,71.70021200180054,71.406494140625,71.72206807136536,dot,"[0.06, 0.1, 0.1, 0.1, 0.1, 0.08]","[[-0.2094991805307552, 0.08302354111181451], [0.09557258300728075, 0.3458622669714129], [0.22056408800171526, -0.017094369341425636], [0.026601936584830878, 0.1297564650757722], [-0.11681768564656844, 0.2726391152528644], [-0.03570146891163527, -0.09222923444939024]]",density,white,,,D002,visual,1,[],"['1', '2', '3', '4']",1,2023.2.3,harveyvisual,2.1,[],8,0.75,
0,pause,0.4,None,None,None,0,199,199,199,,,,,,,,,,,1,71.4852659702301,D002,visual,1,[],"['1', '2', '3', '4']",1,2023.2.3,harveyvisual,2.1,[],8,0.75,
6,dot,0.3,['dot'],['density'],black,0,200,200,200,,,72.40021014213562,72.10536313056946,72.42206311225891,dot,"[0.1, 0.08, 0.1, 0.06, 0.1, 0.06]","[[-0.08086177951302478, 0.2470577028799217], [0.17809040740055945, 0.25721690350386706], [0.248993691455746, -0.144418230259854], [0.04260816027356476, -0.17251108440570345], [0.26201279645255604, 0.07253913185781388], [-0.0017619790798508912, 0.027830886297901026]]",density,black,,,D002,visual,1,[],"['1', '2', '3', '4']",1,2023.2.3,harveyvisual,2.1,[],8,0.75,
0,pause,0.4,None,None,None,0,201,201,201,,,,,,,,,,,,,D002,visual,1,[],"['1', '2', '3', '4']",1,2023.2.3,harveyvisual,2.1,[],8,0.75,
6,dot,0.3,['dot'],['density'],black,0,202,202,202,,,73.10021305084229,72.80534601211548,73.1220109462738,dot,"[0.1, 0.1, 0.08, 0.1, 0.08, 0.08]","[[-0.060066269329224556, -0.3459973645598818], [-0.2267112282887438, -0.46433083725857055], [-0.03368736353914721, -0.0592740518520544], [0.1129416353875032, -0.20466059509733167], [0.13908697530976044, -0.42386339769443276], [-0.2931789080149146, -0.2669036372638095]]",density,black,,,D002,visual,1,[],"['1', '2', '3', '4']",1,2023.2.3,harveyvisual,2.1,[],8,0.75,
0,pause,0.4,None,None,None,0,203,203,203,,,,,,,,,,,,,D002,visual,1,[],"['1', '2', '3', '4']",1,2023.2.3,harveyvisual,2.1,[],8,0.75,
5,dot,0.3,['dot'],['density'],black,0,204,204,204,,,73.8001971244812,73.5053391456604,73.82199001312256,dot,"[0.08, 0.08, 0.1, 0.08, 0.08]","[[0.36014554898799966, 0.387810422325294], [0.055757472799778995, 0.16941293674392635], [0.2210739480460382, 0.008175952352481365], [0.48495712857242873, 0.07425785546611247], [0.25975240449222103, 0.2092734881649904]]",density,black,,,D002,visual,1,[],"['1', '2', '3', '4']",1,2023.2.3,harveyvisual,2.1,[],8,0.75,
0,pause,0.4,None,None,None,0,205,205,205,,,,,,,,,,,,,D002,visual,1,[],"['1', '2', '3', '4']",1,2023.2.3,harveyvisual,2.1,[],8,0.75,
5,dot,0.3,['dot'],['density'],black,0,206,206,206,,,74.50022006034851,74.20532894134521,74.52197098731995,dot,"[0.1, 0.08, 0.06, 0.1, 0.06]","[[0.36014554898799966, 0.387810422325294], [0.055757472799778995, 0.16941293674392635], [0.2210739480460382, 0.008175952352481365], [0.48495712857242873, 0.07425785546611247], [0.25975240449222103, 0.2092734881649904]]",density,black,,,D002,visual,1,[],"['1', '2', '3', '4']",1,2023.2.3,harveyvisual,2.1,[],8,0.75,
0,pause,0.4,None,None,None,0,207,207,207,,,,,,,,,,,,,D002,visual,1,[],"['1', '2', '3', '4']",1,2023.2.3,harveyvisual,2.1,[],8,0.75,
5,dot,0.3,['dot'],['density'],black,0,208,208,208,,,75.20019817352295,74.90532803535461,75.22198414802551,dot,"[0.1, 0.1, 0.08, 0.08, 0.08]","[[-0.16893136043895146, -0.20127892763881453], [-0.5727216740452047, -0.07682091551650742], [-0.343702592036276, -0.060533526953518955], [-0.5038383983260774, 0.15268268748871192], [-0.379488354443274, -0.2704310218069364]]",density,black,,,D002,visual,1,[],"['1', '2', '3', '4']",1,2023.2.3,harveyvisual,2.1,[],8,0.75,
0,pause,0.4,None,None,None,0,209,209,209,,,,,,,,,,,,,D002,visual,1,[],"['1', '2', '3', '4']",1,2023.2.3,harveyvisual,2.1,[],8,0.75,
5,dot,0.3,['dot'],['density'],black,0,210,210,210,,,75.90022015571594,75.60528516769409,75.92193913459778,dot,"[0.1, 0.08, 0.08, 0.08, 0.06]","[[-0.416197921377668, -0.28619329865683824], [-0.20866628843358032, -0.3460647126262422], [-0.5570429559765239, -0.05989317214741584], [-0.28028983240144106, -0.12146425093182346], [-0.3531870384577651, 0.07845006904085886]]",density,black,,,D002,visual,1,[],"['1', '2', '3', '4']",1,2023.2.3,harveyvisual,2.1,[],8,0.75,
0,pause,0.4,None,None,None,0,211,211,211,,,,,,,,,,,,,D002,visual,1,[],"['1', '2', '3', '4']",1,2023.2.3,harveyvisual,2.1,[],8,0.75,
5,dot,0.3,['dot'],['density'],black,0,212,212,212,,,76.60021209716797,76.32283210754395,76.62193512916565,dot,"[0.06, 0.08, 0.08, 0.1, 0.06]","[[-0.006164932418690097, -0.4528126201229341], [-0.1681524682570009, -0.11721653268637569], [-0.1959903964051736, -0.3710708837277218], [0.03544926667602863, -0.1302589477940128], [0.16830580561999814, -0.32298356607012285]]",density,black,,,D002,visual,1,[],"['1', '2', '3', '4']",1,2023.2.3,harveyvisual,2.1,[],8,0.75,
0,pause,0.4,None,None,None,0,213,213,213,,,,,,,,,,,,,D002,visual,1,[],"['1', '2', '3', '4']",1,2023.2.3,harveyvisual,2.1,[],8,0.75,
5,dot,0.3,['dot'],['density'],black,0,214,214,214,,,77.30019998550415,77.00526905059814,77.32283902168274,dot,"[0.08, 0.06, 0.1, 0.1, 0.1]","[[-0.26965218803342234, -0.06061691990321757], [-0.44412238708790114, -0.1605793459593267], [-0.2738608688716076, -0.33598391440877745], [-0.06160694910013377, -0.19463283807086704], [-0.16469008497891707, 0.13324638745272324]]",density,black,,,D002,visual,1,[],"['1', '2', '3', '4']",1,2023.2.3,harveyvisual,2.1,[],8,0.75,
0,pause,0.4,None,None,None,0,215,215,215,,,,,,,,,,,,,D002,visual,1,[],"['1', '2', '3', '4']",1,2023.2.3,harveyvisual,2.1,[],8,0.75,
4,dot,0.3,['dot'],['density'],black,0,216,216,216,,,78.00021696090698,77.70522093772888,78.02187204360962,dot,"[0.1, 0.06, 0.06, 0.08]","[[-0.24855901342904946, 0.4326179111294549], [-0.33066739519925503, 0.24314919490711104], [-0.015728317870896572, 0.5189617074191414], [-0.09686463175319387, 0.28200212383687606]]",density,black,,,D002,visual,1,[],"['1', '2', '3', '4']",1,2023.2.3,harveyvisual,2.1,[],8,0.75,
0,pause,0.4,None,None,None,0,217,217,217,,,,,,,,,,,,,D002,visual,1,[],"['1', '2', '3', '4']",1,2023.2.3,harveyvisual,2.1,[],8,0.75,
4,dot,0.3,['dot'],['density'],black,0,218,218,218,,,78.7002170085907,78.40606713294983,78.7218611240387,dot,"[0.1, 0.1, 0.06, 0.08]","[[0.06326389353998313, -0.3457479010937814], [-0.07512051392095552, -0.02196355495157639], [0.09410934090401228, -0.14113260442523076], [-0.13717358852421138, -0.29916566844175635]]",density,black,,,D002,visual,1,[],"['1', '2', '3', '4']",1,2023.2.3,harveyvisual,2.1,[],8,0.75,
0,pause,0.4,None,None,None,0,219,219,219,,,,,,,,,,,,,D002,visual,1,[],"['1', '2', '3', '4']",1,2023.2.3,harveyvisual,2.1,[],8,0.75,
4,dot,0.3,['dot'],['density'],black,0,220,220,220,,,79.40022611618042,79.10521912574768,79.42187213897705,dot,"[0.1, 0.1, 0.06, 0.08]","[[-0.041173875632770134, -0.46498671258652186], [-0.2993670243960792, -0.1306311282158324], [-0.23343206187288035, -0.39905635110522214], [-0.1242366033797093, -0.2299834244258363]]",density,black,,,D002,visual,1,[],"['1', '2', '3', '4']",1,2023.2.3,harveyvisual,2.1,[],8,0.75,
0,pause,0.4,None,None,None,0,221,221,221,,,,,,,,,,,,,D002,visual,1,[],"['1', '2', '3', '4']",1,2023.2.3,harveyvisual,2.1,[],8,0.75,
4,dot,0.3,['dot'],['density'],black,0,222,222,222,,,80.10021805763245,79.80517506599426,80.1218330860138,dot,"[0.06, 0.1, 0.06, 0.1]","[[-0.1807894278345534, -0.050693892368996955], [-0.03778933673514029, -0.29773510453537966], [0.0747201162679791, -0.1287424711559737], [-0.02241484737224569, 0.07404475448468936]]",density,black,,,D002,visual,1,[],"['1', '2', '3', '4']",1,2023.2.3,harveyvisual,2.1,[],8,0.75,
0,pause,0.4,None,None,None,0,223,223,223,,,,,,,,,,,,,D002,visual,1,[],"['1', '2', '3', '4']",1,2023.2.3,harveyvisual,2.1,[],8,0.75,
4,dot,0.3,['dot'],['density'],black,0,224,224,224,,,80.80020093917847,80.50516104698181,80.82181596755981,dot,"[0.06, 0.1, 0.1, 0.08]","[[-0.46485289602757673, 0.3603628353310837], [-0.30733625211232357, 0.21626236973196436], [-0.38991578213366157, 0.024479253410336757], [-0.570234662048439, 0.14093512067028166]]",density,black,,,D002,visual,1,[],"['1', '2', '3', '4']",1,2023.2.3,harveyvisual,2.1,[],8,0.75,
0,pause,0.4,None,None,None,0,225,225,225,,,,,,,,,,,,,D002,visual,1,[],"['1', '2', '3', '4']",1,2023.2.3,harveyvisual,2.1,[],8,0.75,
4,dot,0.3,['dot'],['density'],black,0,226,226,226,,,81.50021505355835,81.20517206192017,81.52178812026978,dot,"[0.08, 0.08, 0.08, 0.1]","[[-0.46485289602757673, 0.3603628353310837], [-0.30733625211232357, 0.21626236973196436], [-0.38991578213366157, 0.024479253410336757], [-0.570234662048439, 0.14093512067028166]]",density,black,,,D002,visual,1,[],"['1', '2', '3', '4']",1,2023.2.3,harveyvisual,2.1,[],8,0.75,
0,pause,0.4,None,None,None,0,227,227,227,,,,,,,,,,,,,D002,visual,1,[],"['1', '2', '3', '4']",1,2023.2.3,harveyvisual,2.1,[],8,0.75,
3,dot,0.3,['dot'],['density'],black,0,228,228,228,,,82.20020508766174,81.90510296821594,82.22177195549011,dot,"[0.06, 0.06, 0.06]","[[0.13507679288784277, 0.012189921546254917], [0.31506600046810584, 0.10578898906948993], [0.12756957777796288, 0.2513869495778075]]",density,black,,,D002,visual,1,[],"['1', '2', '3', '4']",1,2023.2.3,harveyvisual,2.1,[],8,0.75,
0,pause,0.4,None,None,None,0,229,229,229,,,,,,,,,,,,,D002,visual,1,[],"['1', '2', '3', '4']",1,2023.2.3,harveyvisual,2.1,[],8,0.75,
3,dot,0.3,['dot'],['density'],black,0,230,230,230,,,82.90020203590393,82.6051070690155,82.92176294326782,dot,"[0.1, 0.08, 0.06]","[[-0.36641147837046456, 0.28339849123565264], [-0.19108570342652328, 0.4628134959899303], [-0.16564092668537764, 0.24926372681875647]]",density,black,,,D002,visual,1,[],"['1', '2', '3', '4']",1,2023.2.3,harveyvisual,2.1,[],8,0.75,
0,pause,0.4,None,None,None,0,231,231,231,,,,,,,,,,,,,D002,visual,1,[],"['1', '2', '3', '4']",1,2023.2.3,harveyvisual,2.1,[],8,0.75,
3,dot,0.3,['dot'],['density'],black,0,232,232,232,,,83.60022115707397,83.30510807037354,83.62176513671875,dot,"[0.06, 0.06, 0.1]","[[-0.32624451712468355, -0.43854848545497693], [-0.39409142490376414, -0.22516425170789148], [-0.152352104904091, -0.33204091051628687]]",density,black,,,D002,visual,1,[],"['1', '2', '3', '4']",1,2023.2.3,harveyvisual,2.1,[],8,0.75,
0,pause,0.4,None,None,None,0,233,233,233,,,,,,,,,,,,,D002,visual,1,[],"['1', '2', '3', '4']",1,2023.2.3,harveyvisual,2.1,[],8,0.75,
3,dot,0.3,['dot'],['density'],black,0,234,234,234,,,84.30021810531616,84.0061731338501,84.32172012329102,dot,"[0.06, 0.08, 0.06]","[[-0.17720328293608806, -0.4514300161601115], [0.022754438065530718, -0.42143894503716073], [-0.10940085810899225, -0.24791511077847575]]",density,black,,,D002,visual,1,[],"['1', '2', '3', '4']",1,2023.2.3,harveyvisual,2.1,[],8,0.75,
0,pause,0.4,None,None,None,0,235,235,235,,,,,,,,,,,,,D002,visual,1,[],"['1', '2', '3', '4']",1,2023.2.3,harveyvisual,2.1,[],8,0.75,
3,dot,0.3,['dot'],['density'],black,0,236,236,236,,,85.0002110004425,84.705069065094,85.02172303199768,dot,"[0.06, 0.08, 0.1]","[[-0.27441186418729774, -0.31428620701652393], [-0.10438281902574013, -0.2032379983598837], [-0.31523395761825285, -0.08768035506307631]]",density,black,,,D002,visual,1,[],"['1', '2', '3', '4']",1,2023.2.3,harveyvisual,2.1,[],8,0.75,
0,pause,0.4,None,None,None,0,237,237,237,,,,,,,,,,,,,D002,visual,1,[],"['1', '2', '3', '4']",1,2023.2.3,harveyvisual,2.1,[],8,0.75,
3,dot,0.3,['dot'],['density'],black,0,238,238,238,,,85.70021414756775,85.40505003929138,85.72262215614319,dot,"[0.08, 0.08, 0.06]","[[-0.17720328293608806, -0.4514300161601115], [0.022754438065530718, -0.42143894503716073], [-0.10940085810899225, -0.24791511077847575]]",density,black,,,D002,visual,1,[],"['1', '2', '3', '4']",1,2023.2.3,harveyvisual,2.1,[],8,0.75,
0,pause,0.4,None,None,None,0,239,239,239,,,,,,,,,,,,,D002,visual,1,[],"['1', '2', '3', '4']",1,2023.2.3,harveyvisual,2.1,[],8,0.75,
2,dot,0.3,['dot'],['density'],black,0,240,240,240,,,86.40021514892578,86.10500907897949,86.42166805267334,dot,"[0.1, 0.08]","[[0.5590929928249944, 0.05901985638302875], [0.5065513741473344, -0.13409141480534237]]",density,black,,,D002,visual,1,[],"['1', '2', '3', '4']",1,2023.2.3,harveyvisual,2.1,[],8,0.75,
0,pause,0.4,None,None,None,0,241,241,241,,,,,,,,,,,,,D002,visual,1,[],"['1', '2', '3', '4']",1,2023.2.3,harveyvisual,2.1,[],8,0.75,
2,dot,0.3,['dot'],['density'],black,0,242,242,242,,,87.10020613670349,86.80609798431396,87.12167596817017,dot,"[0.08, 0.1]","[[-0.19266755722762574, -0.036106715323925336], [-0.096675332858716, 0.13967695308521302]]",density,black,,,D002,visual,1,[],"['1', '2', '3', '4']",1,2023.2.3,harveyvisual,2.1,[],8,0.75,
0,pause,0.4,None,None,None,0,243,243,243,,,,,,,,,,,,,D002,visual,1,[],"['1', '2', '3', '4']",1,2023.2.3,harveyvisual,2.1,[],8,0.75,
2,dot,0.3,['dot'],['density'],black,0,244,244,244,,,87.8002290725708,87.50500106811523,87.82165002822876,dot,"[0.06, 0.1]","[[0.1851205616289071, -0.3624876981064337], [0.3405923022038234, -0.23608025195482504]]",density,black,,,D002,visual,1,[],"['1', '2', '3', '4']",1,2023.2.3,harveyvisual,2.1,[],8,0.75,
0,pause,0.4,None,None,None,0,245,245,245,,,,,,,,,,,,,D002,visual,1,[],"['1', '2', '3', '4']",1,2023.2.3,harveyvisual,2.1,[],8,0.75,
2,dot,0.3,['dot'],['density'],black,0,246,246,246,,,88.5002269744873,88.20497012138367,88.52160906791687,dot,"[0.08, 0.08]","[[0.17083311991776792, -0.05558111512160733], [0.1461049568064877, -0.25438559320493304]]",density,black,,,D002,visual,1,[],"['1', '2', '3', '4']",1,2023.2.3,harveyvisual,2.1,[],8,0.75,
0,pause,0.4,None,None,None,0,247,247,247,,,,,,,,,,,,,D002,visual,1,[],"['1', '2', '3', '4']",1,2023.2.3,harveyvisual,2.1,[],8,0.75,
2,dot,0.3,['dot'],['density'],black,0,248,248,248,,,89.20020914077759,88.90496611595154,89.22160696983337,dot,"[0.08, 0.08]","[[-0.20887660672828282, 0.3399455197969581], [-0.34272369919491674, 0.19089688818271272]]",density,black,,,D002,visual,1,[],"['1', '2', '3', '4']",1,2023.2.3,harveyvisual,2.1,[],8,0.75,
0,pause,0.4,None,None,None,0,249,249,249,,,,,,,,,,,,,D002,visual,1,[],"['1', '2', '3', '4']",1,2023.2.3,harveyvisual,2.1,[],8,0.75,
2,dot,0.3,['dot'],['density'],black,0,250,250,250,,,89.90021204948425,89.62248611450195,89.92160511016846,dot,"[0.1, 0.08]","[[-0.15489633838679245, 0.20775043904852977], [-0.02477214636975436, 0.05468251249351026]]",density,black,,,D002,visual,1,[],"['1', '2', '3', '4']",1,2023.2.3,harveyvisual,2.1,[],8,0.75,
0,pause,0.4,None,None,None,0,251,251,251,,,,,,,,,,,,,D002,visual,1,[],"['1', '2', '3', '4']",1,2023.2.3,harveyvisual,2.1,[],8,0.75,
1,dot,0.3,['dot'],['density'],black,0,252,252,252,,,90.60022902488708,90.30491209030151,90.62155294418335,dot,[0.06],"[0.075024325262877, 0.28946834799837856]",density,black,,,D002,visual,1,[],"['1', '2', '3', '4']",1,2023.2.3,harveyvisual,2.1,[],8,0.75,
0,pause,0.4,None,None,None,0,253,253,253,,,,,,,,,,,,,D002,visual,1,[],"['1', '2', '3', '4']",1,2023.2.3,harveyvisual,2.1,[],8,0.75,
1,dot,0.3,['dot'],['density'],black,0,254,254,254,,,91.30020904541016,91.00486898422241,91.32154202461243,dot,[0.08],"[-0.4519365434524677, 0.22287683068434597]",density,black,,,D002,visual,1,[],"['1', '2', '3', '4']",1,2023.2.3,harveyvisual,2.1,[],8,0.75,
0,pause,0.4,None,None,None,0,255,255,255,,,,,,,,,,,,,D002,visual,1,[],"['1', '2', '3', '4']",1,2023.2.3,harveyvisual,2.1,[],8,0.75,
1,dot,0.3,['dot'],['density'],black,0,256,256,256,,,92.0002031326294,91.70526099205017,92.02151799201965,dot,[0.06],"[-0.3631366314731191, 0.1590646049745197]",density,black,,,D002,visual,1,[],"['1', '2', '3', '4']",1,2023.2.3,harveyvisual,2.1,[],8,0.75,
0,pause,0.4,None,None,None,0,257,257,257,,,,,,,,,,,,,D002,visual,1,[],"['1', '2', '3', '4']",1,2023.2.3,harveyvisual,2.1,[],8,0.75,
1,dot,0.3,['dot'],['density'],black,0,258,258,258,,,92.70022201538086,92.40483808517456,92.72149801254272,dot,[0.08],"[0.03111034986587176, -0.1137363894063533]",density,black,,,D002,visual,1,[],"['1', '2', '3', '4']",1,2023.2.3,harveyvisual,2.1,[],8,0.75,
0,pause,0.4,None,None,None,0,259,259,259,,,,,,,,,,,,,D002,visual,1,[],"['1', '2', '3', '4']",1,2023.2.3,harveyvisual,2.1,[],8,0.75,
1,dot,0.3,['dot'],['density'],black,0,260,260,260,,,93.40021204948425,93.1059341430664,93.42147397994995,dot,[0.08],"[-0.2532192430475575, -0.5275431624831907]",density,black,,,D002,visual,1,[],"['1', '2', '3', '4']",1,2023.2.3,harveyvisual,2.1,[],8,0.75,
0,pause,0.4,None,None,None,0,261,261,261,,,,,,,,,,,,,D002,visual,1,[],"['1', '2', '3', '4']",1,2023.2.3,harveyvisual,2.1,[],8,0.75,
1,dot,0.3,['dot'],['density'],white,0,262,262,262,,,94.10022211074829,93.80480909347534,94.12146806716919,dot,[0.1],"[-0.00037526000000685745, -0.027921386894572527]",density,white,,,D002,visual,1,[],"['1', '2', '3', '4']",1,2023.2.3,harveyvisual,2.1,[],8,0.75,
0,pause,0.4,None,None,None,0,263,263,263,,,,,,,,,,,1,93.73705005645752,D002,visual,1,[],"['1', '2', '3', '4']",1,2023.2.3,harveyvisual,2.1,[],8,0.75,
20,dot,0.3,['dot'],['density'],black,0,264,264,264,,,94.80020999908447,94.52146005630493,94.82143712043762,dot,"[0.1, 0.06, 0.08, 0.1, 0.08, 0.08, 0.08, 0.06, 0.08, 0.06, 0.08, 0.1, 0.08, 0.06, 0.06, 0.08, 0.06, 0.1, 0.08, 0.08]","[[-0.1447459779765219, -0.46418079387680977], [0.25496475094614934, 0.24518412538266465], [-0.4138121861951882, -0.05565592281597098], [-0.5643685554430059, 0.14992896352743382], [0.3134785686378919, -0.13752572303182575], [0.06119537095891736, -0.4690040597470073], [0.5145821888888912, 0.25596586248388464], [-0.32028589309927763, 0.11740808421335358], [-0.3488682454558893, -0.36498083699821665], [-0.09260986634781476, 0.57372962286362], [-0.10326145011035048, -0.010959498534945933], [0.58672314576924, 0.0430549166618836], [-0.28486044763807444, 0.47081114095521126], [0.1423065310364715, 0.4628162953228303], [0.023278160580081697, -0.22646951632700824], [0.2689382976623198, 0.04755205573864052], [0.4796243825529879, -0.253054762294307], [-0.52847290962338, -0.2485567084906975], [-0.03183476090407622, 0.21790205937915763], [0.35218796773755534, -0.44106672625271137]]",density,black,,,D002,visual,1,[],"['1', '2', '3', '4']",1,2023.2.3,harveyvisual,2.1,[],8,0.75,
0,pause,0.4,None,None,None,0,265,265,265,,,,,,,,,,,,,D002,visual,1,[],"['1', '2', '3', '4']",1,2023.2.3,harveyvisual,2.1,[],8,0.75,
20,dot,0.3,['dot'],['density'],black,0,266,266,266,,,95.5002019405365,95.22143697738647,95.5223159790039,dot,"[0.1, 0.08, 0.1, 0.1, 0.1, 0.1, 0.08, 0.1, 0.08, 0.1, 0.08, 0.08, 0.06, 0.1, 0.06, 0.1, 0.06, 0.1, 0.08, 0.1]","[[0.40573374706180354, 0.29403545082356775], [-0.14081225330084762, -0.4652129428096731], [0.06991739799130703, -0.38501711879687883], [-0.00743883442136839, 0.498577006616713], [0.3439977432331556, 0.4823365392081217], [-0.22475549965223912, -0.17946154618684407], [0.32752281710951225, -0.016914554529359804], [-0.6004109728238686, 0.031939706642464524], [0.5981108374297258, -0.010512758931637181], [0.08667526314808205, -0.12047558562352406], [-0.4392080557532917, -0.16905915140862132], [-0.2547928686479921, 0.2695789714616965], [0.009709056215017164, 0.24093355461075872], [-0.14132239785882122, 0.02431286179636627], [-0.3886528358128559, -0.39682648821987976], [0.4712629917600283, -0.27711147998459734], [-0.4322675884742605, 0.17104597979987546], [0.37323029672017394, -0.45847082330822686], [0.2689563938271825, -0.29915000482542775], [-0.25928674977457655, 0.5428089442459347]]",density,black,,,D002,visual,1,[],"['1', '2', '3', '4']",1,2023.2.3,harveyvisual,2.1,[],8,0.75,
0,pause,0.4,None,None,None,0,267,267,267,,,,,,,,,,,,,D002,visual,1,[],"['1', '2', '3', '4']",1,2023.2.3,harveyvisual,2.1,[],8,0.75,
