num,mod,duration,shape,ll_cond,colors,.thisRepN,.thisTrialN,.thisN,.thisIndex,thisRow.t,notes,raw_global_time,t_start,t_stop,shapes,size,pos,cond,color,button,RT,participant,session,starting_run,left button (match/odd),right button (non-match/even),samples_per_block,psychopy version,expName,offset,audio,number_runs,radius,
1,dot,0.3,['dot'],['density'],black,0,0,0,0,,,2.400209903717041,2.1051628589630127,2.404930830001831,dot,[0.06],"[0.2287398259034258, -0.3932960849464651]",density,black,,,1301830,visual,1,[],"['1', '2', '3', '4']",1,2023.2.3,harveyvisual,2.1,[],8,0.75,
0,pause,0.4,None,None,None,0,1,1,1,,,,,,,,,,,,,1301830,visual,1,[],"['1', '2', '3', '4']",1,2023.2.3,harveyvisual,2.1,[],8,0.75,
1,dot,0.3,['dot'],['density'],black,0,2,2,2,,,3.1001977920532227,2.8050568103790283,3.1049089431762695,dot,[0.06],"[-0.4309303250570785, -0.37878052449928096]",density,black,,,1301830,visual,1,[],"['1', '2', '3', '4']",1,2023.2.3,harveyvisual,2.1,[],8,0.75,
0,pause,0.4,None,None,None,0,3,3,3,,,,,,,,,,,,,1301830,visual,1,[],"['1', '2', '3', '4']",1,2023.2.3,harveyvisual,2.1,[],8,0.75,
1,dot,0.3,['dot'],['density'],black,0,4,4,4,,,3.8002169132232666,3.5050418376922607,3.8050270080566406,dot,[0.1],"[0.4765699730395091, 0.34560502551113614]",density,black,,,1301830,visual,1,[],"['1', '2', '3', '4']",1,2023.2.3,harveyvisual,2.1,[],8,0.75,
0,pause,0.4,None,None,None,0,5,5,5,,,,,,,,,,,,,1301830,visual,1,[],"['1', '2', '3', '4']",1,2023.2.3,harveyvisual,2.1,[],8,0.75,
1,dot,0.3,['dot'],['density'],black,0,6,6,6,,,4.500217914581299,4.204887866973877,4.505005836486816,dot,[0.06],"[-0.13294789447644317, -0.0050084293737640015]",density,black,,,1301830,visual,1,[],"['1', '2', '3', '4']",1,2023.2.3,harveyvisual,2.1,[],8,0.75,
0,pause,0.4,None,None,None,0,7,7,7,,,,,,,,,,,,,1301830,visual,1,[],"['1', '2', '3', '4']",1,2023.2.3,harveyvisual,2.1,[],8,0.75,
1,dot,0.3,['dot'],['density'],black,0,8,8,8,,,5.200206995010376,4.904870986938477,5.20485782623291,dot,[0.08],"[0.1600937909388646, -0.5041032805904762]",density,black,,,1301830,visual,1,[],"['1', '2', '3', '4']",1,2023.2.3,harveyvisual,2.1,[],8,0.75,
0,pause,0.4,None,None,None,0,9,9,9,,,,,,,,,,,,,1301830,visual,1,[],"['1', '2', '3', '4']",1,2023.2.3,harveyvisual,2.1,[],8,0.75,
1,dot,0.3,['dot'],['density'],black,0,10,10,10,,,5.900216817855835,5.604896783828735,5.904833793640137,dot,[0.08],"[-0.30422713965878023, 0.0739284850406325]",density,black,,,1301830,visual,1,[],"['1', '2', '3', '4']",1,2023.2.3,harveyvisual,2.1,[],8,0.75,
0,pause,0.4,None,None,None,0,11,11,11,,,,,,,,,,,,,1301830,visual,1,[],"['1', '2', '3', '4']",1,2023.2.3,harveyvisual,2.1,[],8,0.75,
2,dot,0.3,['dot'],['density'],black,0,12,12,12,,,6.600203990936279,6.304881811141968,6.604846000671387,dot,"[0.06, 0.08]","[[0.1734117655345296, 0.46860731914486053], [-0.01847566562869785, 0.52581935004857]]",density,black,,,1301830,visual,1,[],"['1', '2', '3', '4']",1,2023.2.3,harveyvisual,2.1,[],8,0.75,
0,pause,0.4,None,None,None,0,13,13,13,,,,,,,,,,,,,1301830,visual,1,[],"['1', '2', '3', '4']",1,2023.2.3,harveyvisual,2.1,[],8,0.75,
2,dot,0.3,['dot'],['density'],black,0,14,14,14,,,7.300215005874634,7.004809856414795,7.304802894592285,dot,"[0.06, 0.1]","[[-0.4149324818804315, 0.28007444048998836], [-0.5260390884397633, 0.11347960973083408]]",density,black,,,1301830,visual,1,[],"['1', '2', '3', '4']",1,2023.2.3,harveyvisual,2.1,[],8,0.75,
0,pause,0.4,None,None,None,0,15,15,15,,,,,,,,,,,,,1301830,visual,1,[],"['1', '2', '3', '4']",1,2023.2.3,harveyvisual,2.1,[],8,0.75,
2,dot,0.3,['dot'],['density'],black,0,16,16,16,,,8.000207901000977,7.704977989196777,8.004776954650879,dot,"[0.08, 0.08]","[[0.24818458179829028, -0.5230613829255512], [0.05315527151035717, -0.47711981276458415]]",density,black,,,1301830,visual,1,[],"['1', '2', '3', '4']",1,2023.2.3,harveyvisual,2.1,[],8,0.75,
0,pause,0.4,None,None,None,0,17,17,17,,,,,,,,,,,,,1301830,visual,1,[],"['1', '2', '3', '4']",1,2023.2.3,harveyvisual,2.1,[],8,0.75,
2,dot,0.3,['dot'],['density'],black,0,18,18,18,,,8.700215816497803,8.40477180480957,8.704724788665771,dot,"[0.1, 0.1]","[[-0.5356907773971091, -0.01454049690556478], [-0.3936553319468624, 0.1263392020735458]]",density,black,,,1301830,visual,1,[],"['1', '2', '3', '4']",1,2023.2.3,harveyvisual,2.1,[],8,0.75,
0,pause,0.4,None,None,None,0,19,19,19,,,,,,,,,,,,,1301830,visual,1,[],"['1', '2', '3', '4']",1,2023.2.3,harveyvisual,2.1,[],8,0.75,
2,dot,0.3,['dot'],['density'],black,0,20,20,20,,,9.400218963623047,9.104750871658325,9.404738903045654,dot,"[0.06, 0.1]","[[0.038501021189721846, -0.3380528513692932], [0.2360793696083702, -0.306423538752856]]",density,black,,,1301830,visual,1,[],"['1', '2', '3', '4']",1,2023.2.3,harveyvisual,2.1,[],8,0.75,
0,pause,0.4,None,None,None,0,21,21,21,,,,,,,,,,,,,1301830,visual,1,[],"['1', '2', '3', '4']",1,2023.2.3,harveyvisual,2.1,[],8,0.75,
2,dot,0.3,['dot'],['density'],black,0,22,22,22,,,10.100217819213867,9.805621862411499,10.105247974395752,dot,"[0.1, 0.06]","[[0.1851205616289071, -0.3624876981064337], [0.3405923022038234, -0.23608025195482504]]",density,black,,,1301830,visual,1,[],"['1', '2', '3', '4']",1,2023.2.3,harveyvisual,2.1,[],8,0.75,
0,pause,0.4,None,None,None,0,23,23,23,,,,,,,,,,,,,1301830,visual,1,[],"['1', '2', '3', '4']",1,2023.2.3,harveyvisual,2.1,[],8,0.75,
3,dot,0.3,['dot'],['density'],black,0,24,24,24,,,10.800222873687744,10.505265951156616,10.8055899143219,dot,"[0.06, 0.08, 0.1]","[[0.5383732683216915, 0.24050044654635605], [0.337973319445641, 0.36292363064724675], [0.3422154310588786, 0.14570949010333048]]",density,black,,,1301830,visual,1,[],"['1', '2', '3', '4']",1,2023.2.3,harveyvisual,2.1,[],8,0.75,
0,pause,0.4,None,None,None,0,25,25,25,,,,,,,,,,,,,1301830,visual,1,[],"['1', '2', '3', '4']",1,2023.2.3,harveyvisual,2.1,[],8,0.75,
3,dot,0.3,['dot'],['density'],black,0,26,26,26,,,11.500223875045776,11.205227851867676,11.505220890045166,dot,"[0.1, 0.08, 0.08]","[[0.06695044750400271, -0.4036822973150869], [0.2898428615912539, -0.43752325319744867], [0.2484486434572057, -0.2241911098289173]]",density,black,,,1301830,visual,1,[],"['1', '2', '3', '4']",1,2023.2.3,harveyvisual,2.1,[],8,0.75,
0,pause,0.4,None,None,None,0,27,27,27,,,,,,,,,,,,,1301830,visual,1,[],"['1', '2', '3', '4']",1,2023.2.3,harveyvisual,2.1,[],8,0.75,
3,dot,0.3,['dot'],['density'],black,0,28,28,28,,,12.200215816497803,11.905149936676025,12.205200910568237,dot,"[0.08, 0.1, 0.08]","[[-0.09236249555143743, 0.14437879021360575], [0.06053771141254397, 0.008702735453236923], [-0.17336599953316903, -0.04113967592870183]]",density,black,,,1301830,visual,1,[],"['1', '2', '3', '4']",1,2023.2.3,harveyvisual,2.1,[],8,0.75,
0,pause,0.4,None,None,None,0,29,29,29,,,,,,,,,,,,,1301830,visual,1,[],"['1', '2', '3', '4']",1,2023.2.3,harveyvisual,2.1,[],8,0.75,
3,dot,0.3,['dot'],['density'],white,0,30,30,30,,,12.900216817855835,12.62505292892456,12.924304008483887,dot,"[0.06, 0.08, 0.1]","[[0.48628142840140876, 0.1515230430224543], [0.28796188866220057, 0.19625725416133796], [0.3371406364253883, -0.002661880310138811]]",density,white,,,1301830,visual,1,[],"['1', '2', '3', '4']",1,2023.2.3,harveyvisual,2.1,[],8,0.75,
0,pause,0.4,None,None,None,0,31,31,31,,,,,,,,,,,1,12.626890897750854,1301830,visual,1,[],"['1', '2', '3', '4']",1,2023.2.3,harveyvisual,2.1,[],8,0.75,
3,dot,0.3,['dot'],['density'],black,0,32,32,32,,,13.600219011306763,13.307477951049805,13.62417197227478,dot,"[0.1, 0.08, 0.08]","[[0.315495050057846, 0.10724904305018564], [0.5180852452909619, 0.013799590611742229], [0.3819545826159732, -0.1334380777916547]]",density,black,,,1301830,visual,1,[],"['1', '2', '3', '4']",1,2023.2.3,harveyvisual,2.1,[],8,0.75,
0,pause,0.4,None,None,None,0,33,33,33,,,,,,,,,,,,,1301830,visual,1,[],"['1', '2', '3', '4']",1,2023.2.3,harveyvisual,2.1,[],8,0.75,
3,dot,0.3,['dot'],['density'],black,0,34,34,34,,,14.300215005874634,14.007460832595825,14.324304819107056,dot,"[0.1, 0.1, 0.06]","[[-0.42255820389626353, 0.35871945956833473], [-0.19896656331745483, 0.3032224324013186], [-0.25553590712368324, 0.5056038804507684]]",density,black,,,1301830,visual,1,[],"['1', '2', '3', '4']",1,2023.2.3,harveyvisual,2.1,[],8,0.75,
0,pause,0.4,None,None,None,0,35,35,35,,,,,,,,,,,,,1301830,visual,1,[],"['1', '2', '3', '4']",1,2023.2.3,harveyvisual,2.1,[],8,0.75,
4,dot,0.3,['dot'],['density'],black,0,36,36,36,,,15.000221967697144,14.725015878677368,15.02410101890564,dot,"[0.1, 0.06, 0.06, 0.06]","[[-0.3130108772186628, 0.4658633188731559], [0.06875292536802097, 0.3619778545149697], [-0.12928423743784842, 0.28835211797578114], [-0.08764786508193922, 0.5151731075523892]]",density,black,,,1301830,visual,1,[],"['1', '2', '3', '4']",1,2023.2.3,harveyvisual,2.1,[],8,0.75,
0,pause,0.4,None,None,None,0,37,37,37,,,,,,,,,,,,,1301830,visual,1,[],"['1', '2', '3', '4']",1,2023.2.3,harveyvisual,2.1,[],8,0.75,
4,dot,0.3,['dot'],['density'],black,0,38,38,38,,,15.700202941894531,15.407420873641968,15.724381923675537,dot,"[0.1, 0.08, 0.08, 0.06]","[[-0.1807894278345534, -0.050693892368996955], [-0.03778933673514029, -0.29773510453537966], [0.0747201162679791, -0.1287424711559737], [-0.02241484737224569, 0.07404475448468936]]",density,black,,,1301830,visual,1,[],"['1', '2', '3', '4']",1,2023.2.3,harveyvisual,2.1,[],8,0.75,
0,pause,0.4,None,None,None,0,39,39,39,,,,,,,,,,,,,1301830,visual,1,[],"['1', '2', '3', '4']",1,2023.2.3,harveyvisual,2.1,[],8,0.75,
4,dot,0.3,['dot'],['density'],black,0,40,40,40,,,16.40021586418152,16.107407808303833,16.424081802368164,dot,"[0.1, 0.06, 0.06, 0.1]","[[-0.1266132934267609, -0.4419116806690939], [0.09906976576587005, -0.33923851916676484], [0.1053941350115203, -0.5768907290059295], [0.29145715672269834, -0.49787884973145785]]",density,black,,,1301830,visual,1,[],"['1', '2', '3', '4']",1,2023.2.3,harveyvisual,2.1,[],8,0.75,
0,pause,0.4,None,None,None,0,41,41,41,,,,,,,,,,,,,1301830,visual,1,[],"['1', '2', '3', '4']",1,2023.2.3,harveyvisual,2.1,[],8,0.75,
4,dot,0.3,['dot'],['density'],black,0,42,42,42,,,17.100204944610596,16.807361841201782,17.12404179573059,dot,"[0.06, 0.1, 0.1, 0.1]","[[0.28769160010247724, 0.4706884012140322], [0.03735362687931127, 0.4645781312677133], [0.33102019499247487, 0.1847810932959147], [0.1685132699603264, 0.30497059043407926]]",density,black,,,1301830,visual,1,[],"['1', '2', '3', '4']",1,2023.2.3,harveyvisual,2.1,[],8,0.75,
0,pause,0.4,None,None,None,0,43,43,43,,,,,,,,,,,,,1301830,visual,1,[],"['1', '2', '3', '4']",1,2023.2.3,harveyvisual,2.1,[],8,0.75,
4,dot,0.3,['dot'],['density'],black,0,44,44,44,,,17.800220012664795,17.507372856140137,17.823989868164062,dot,"[0.06, 0.06, 0.1, 0.06]","[[-0.24231220575667195, -0.22966258239168486], [-0.5136420973432148, -0.13696856920477488], [-0.4300726721285167, 0.13088957628356482], [-0.3148289313469241, -0.03851715211982174]]",density,black,,,1301830,visual,1,[],"['1', '2', '3', '4']",1,2023.2.3,harveyvisual,2.1,[],8,0.75,
0,pause,0.4,None,None,None,0,45,45,45,,,,,,,,,,,,,1301830,visual,1,[],"['1', '2', '3', '4']",1,2023.2.3,harveyvisual,2.1,[],8,0.75,
4,dot,0.3,['dot'],['density'],black,0,46,46,46,,,18.500200986862183,18.20735478401184,18.52399492263794,dot,"[0.1, 0.08, 0.1, 0.08]","[[-0.5372831058023291, 0.07679305146548565], [-0.47746952625478134, -0.11455356156484316], [-0.2888199447118168, 0.02804534169422597], [-0.3317661241759115, -0.2533775510137967]]",density,black,,,1301830,visual,1,[],"['1', '2', '3', '4']",1,2023.2.3,harveyvisual,2.1,[],8,0.75,
0,pause,0.4,None,None,None,0,47,47,47,,,,,,,,,,,,,1301830,visual,1,[],"['1', '2', '3', '4']",1,2023.2.3,harveyvisual,2.1,[],8,0.75,
5,dot,0.3,['dot'],['density'],black,0,48,48,48,,,19.200220823287964,18.907298803329468,19.223984956741333,dot,"[0.1, 0.06, 0.1, 0.1, 0.08]","[[-0.24811222937808852, -0.0926462173418487], [-0.0684102839715827, 0.053707960252323945], [-0.4199359189551936, 0.028595247832400618], [-0.4311232183625476, -0.17348815390478414], [-0.08153496032007611, -0.23043043025001772]]",density,black,,,1301830,visual,1,[],"['1', '2', '3', '4']",1,2023.2.3,harveyvisual,2.1,[],8,0.75,
0,pause,0.4,None,None,None,0,49,49,49,,,,,,,,,,,,,1301830,visual,1,[],"['1', '2', '3', '4']",1,2023.2.3,harveyvisual,2.1,[],8,0.75,
5,dot,0.3,['dot'],['density'],black,0,50,50,50,,,19.90022301673889,19.607311964035034,19.92396593093872,dot,"[0.1, 0.1, 0.1, 0.08, 0.1]","[[-0.17224806752104949, 0.21128771658676965], [-0.35983128753182364, -0.1328600505582573], [-0.33716814897054914, 0.09708697582185674], [-0.044562237693599294, -0.03778919281981133], [-0.17109626387405982, -0.21732524013947077]]",density,black,,,1301830,visual,1,[],"['1', '2', '3', '4']",1,2023.2.3,harveyvisual,2.1,[],8,0.75,
0,pause,0.4,None,None,None,0,51,51,51,,,,,,,,,,,,,1301830,visual,1,[],"['1', '2', '3', '4']",1,2023.2.3,harveyvisual,2.1,[],8,0.75,
5,dot,0.3,['dot'],['density'],black,0,52,52,52,,,20.60021185874939,20.307292938232422,20.623929977416992,dot,"[0.08, 0.06, 0.08, 0.06, 0.06]","[[-0.416197921377668, -0.28619329865683824], [-0.20866628843358032, -0.3460647126262422], [-0.5570429559765239, -0.05989317214741584], [-0.28028983240144106, -0.12146425093182346], [-0.3531870384577651, 0.07845006904085886]]",density,black,,,1301830,visual,1,[],"['1', '2', '3', '4']",1,2023.2.3,harveyvisual,2.1,[],8,0.75,
0,pause,0.4,None,None,None,0,53,53,53,,,,,,,,,,,,,1301830,visual,1,[],"['1', '2', '3', '4']",1,2023.2.3,harveyvisual,2.1,[],8,0.75,
5,dot,0.3,['dot'],['density'],black,0,54,54,54,,,21.300217866897583,21.007661819458008,21.323925018310547,dot,"[0.1, 0.1, 0.1, 0.08, 0.08]","[[-0.08538919239777085, -0.3767281323802813], [0.14382612128503536, -0.4947333592336123], [0.2503732289573559, -0.06783159190520484], [0.07777572498152553, -0.21879460077906046], [0.26544561712664855, -0.2975172507008621]]",density,black,,,1301830,visual,1,[],"['1', '2', '3', '4']",1,2023.2.3,harveyvisual,2.1,[],8,0.75,
0,pause,0.4,None,None,None,0,55,55,55,,,,,,,,,,,,,1301830,visual,1,[],"['1', '2', '3', '4']",1,2023.2.3,harveyvisual,2.1,[],8,0.75,
5,dot,0.3,['dot'],['density'],black,0,56,56,56,,,22.000203847885132,21.70722794532776,22.024032831192017,dot,"[0.1, 0.1, 0.06, 0.06, 0.1]","[[-0.07969108163070573, 0.258241044050758], [-0.3301768112222262, 0.22562982972330062], [-0.16453040906828167, -0.1622271318141552], [-0.21753854086321037, 0.04365873274764029], [0.030347216865940038, 0.07834852794011457]]",density,black,,,1301830,visual,1,[],"['1', '2', '3', '4']",1,2023.2.3,harveyvisual,2.1,[],8,0.75,
0,pause,0.4,None,None,None,0,57,57,57,,,,,,,,,,,,,1301830,visual,1,[],"['1', '2', '3', '4']",1,2023.2.3,harveyvisual,2.1,[],8,0.75,
5,dot,0.3,['dot'],['density'],black,0,58,58,58,,,22.700209856033325,22.407238006591797,22.723867893218994,dot,"[0.1, 0.1, 0.06, 0.1, 0.08]","[[-0.08538919239777085, -0.3767281323802813], [0.14382612128503536, -0.4947333592336123], [0.2503732289573559, -0.06783159190520484], [0.07777572498152553, -0.21879460077906046], [0.26544561712664855, -0.2975172507008621]]",density,black,,,1301830,visual,1,[],"['1', '2', '3', '4']",1,2023.2.3,harveyvisual,2.1,[],8,0.75,
0,pause,0.4,None,None,None,0,59,59,59,,,,,,,,,,,,,1301830,visual,1,[],"['1', '2', '3', '4']",1,2023.2.3,harveyvisual,2.1,[],8,0.75,
6,dot,0.3,['dot'],['density'],black,0,60,60,60,,,23.40022587776184,23.107220888137817,23.423882961273193,dot,"[0.06, 0.08, 0.06, 0.06, 0.06, 0.06]","[[0.5108460974500976, 0.10904555526594768], [0.5033362887342737, -0.29902707163897635], [0.3062164979741722, 0.05793810054487639], [0.22849736264613016, -0.28041776899433873], [0.12909977445373055, -0.06500178518750158], [0.41889526300287094, -0.11616960582105396]]",density,black,,,1301830,visual,1,[],"['1', '2', '3', '4']",1,2023.2.3,harveyvisual,2.1,[],8,0.75,
0,pause,0.4,None,None,None,0,61,61,61,,,,,,,,,,,,,1301830,visual,1,[],"['1', '2', '3', '4']",1,2023.2.3,harveyvisual,2.1,[],8,0.75,
6,dot,0.3,['dot'],['density'],black,0,62,62,62,,,24.100214958190918,23.80718684196472,24.12386989593506,dot,"[0.1, 0.1, 0.1, 0.08, 0.08, 0.08]","[[0.285926512064941, -0.24481785515673876], [0.418595730147314, -0.41068201076939437], [0.08023911914447063, -0.2907744195836184], [0.5255309086764915, -0.21900298349449057], [0.21619509519697316, -0.004828458463526469], [0.21043770887025895, -0.4594541383061854]]",density,black,,,1301830,visual,1,[],"['1', '2', '3', '4']",1,2023.2.3,harveyvisual,2.1,[],8,0.75,
0,pause,0.4,None,None,None,0,63,63,63,,,,,,,,,,,,,1301830,visual,1,[],"['1', '2', '3', '4']",1,2023.2.3,harveyvisual,2.1,[],8,0.75,
6,dot,0.3,['dot'],['density'],black,0,64,64,64,,,24.8002028465271,24.507184982299805,24.82380199432373,dot,"[0.06, 0.1, 0.1, 0.06, 0.1, 0.06]","[[-0.36874454135919904, -0.07559312273534534], [-0.010504004432700158, -0.20559114413973084], [-0.17044584652251332, 0.17221059634863578], [-0.26251446752681207, -0.3074850979938877], [0.06633568674208327, -0.020893677029436595], [-0.1538914639536258, -0.02772778393149798]]",density,black,,,1301830,visual,1,[],"['1', '2', '3', '4']",1,2023.2.3,harveyvisual,2.1,[],8,0.75,
0,pause,0.4,None,None,None,0,65,65,65,,,,,,,,,,,,,1301830,visual,1,[],"['1', '2', '3', '4']",1,2023.2.3,harveyvisual,2.1,[],8,0.75,
6,dot,0.3,['dot'],['density'],black,0,66,66,66,,,25.50019884109497,25.207162857055664,25.523818969726562,dot,"[0.08, 0.08, 0.06, 0.08, 0.06, 0.1]","[[0.21259181929123794, -0.28356491423097735], [0.48303195854319764, 0.06048455888335473], [0.22913681079270962, 0.07473613686017411], [0.4939377514137012, -0.2837040300549214], [0.055643620130747785, -0.14290468481535015], [0.3711413815128542, -0.10952979375652658]]",density,black,,,1301830,visual,1,[],"['1', '2', '3', '4']",1,2023.2.3,harveyvisual,2.1,[],8,0.75,
0,pause,0.4,None,None,None,0,67,67,67,,,,,,,,,,,,,1301830,visual,1,[],"['1', '2', '3', '4']",1,2023.2.3,harveyvisual,2.1,[],8,0.75,
6,dot,0.3,['dot'],['density'],black,0,68,68,68,,,26.20022678375244,25.90710687637329,26.223811864852905,dot,"[0.1, 0.06, 0.06, 0.1, 0.06, 0.1]","[[-0.5042184434856596, 0.24959378884587158], [-0.14877643798118484, -0.059020126001740114], [-0.46546181494132466, -0.1471818588402077], [-0.26957518187208745, -0.22263810459524838], [-0.2342448443914648, 0.21754944417529726], [-0.37109182385784195, 0.03297203532481631]]",density,black,,,1301830,visual,1,[],"['1', '2', '3', '4']",1,2023.2.3,harveyvisual,2.1,[],8,0.75,
0,pause,0.4,None,None,None,0,69,69,69,,,,,,,,,,,,,1301830,visual,1,[],"['1', '2', '3', '4']",1,2023.2.3,harveyvisual,2.1,[],8,0.75,
6,dot,0.3,['dot'],['density'],black,0,70,70,70,,,26.900205850601196,26.607100009918213,26.924088954925537,dot,"[0.06, 0.08, 0.06, 0.08, 0.1, 0.06]","[[0.1344939073868, 0.11682503965153783], [0.2622842826516073, -0.1576809643807538], [0.491422654665352, 0.2653315688189552], [0.5669231994484553, 0.0667155191364867], [0.2299276458131091, 0.29835232047215776], [0.3356420801536577, 0.10517090915368521]]",density,black,,,1301830,visual,1,[],"['1', '2', '3', '4']",1,2023.2.3,harveyvisual,2.1,[],8,0.75,
0,pause,0.4,None,None,None,0,71,71,71,,,,,,,,,,,,,1301830,visual,1,[],"['1', '2', '3', '4']",1,2023.2.3,harveyvisual,2.1,[],8,0.75,
7,dot,0.3,['dot'],['density'],white,0,72,72,72,,,27.600214958190918,27.307230949401855,27.623742818832397,dot,"[0.06, 0.08, 0.06, 0.1, 0.06, 0.06, 0.1]","[[-0.4260259763687212, 0.0015611622021723967], [-0.003169876971998007, 0.13415651360788267], [-0.2586764037849864, 0.4417783913692737], [-0.4397986643511286, 0.306274470342183], [-0.0069778791964768315, 0.3653924841843964], [-0.25662591460159173, 0.21046748777052526], [-0.17930648864359452, 0.007725268650954965]]",density,white,,,1301830,visual,1,[],"['1', '2', '3', '4']",1,2023.2.3,harveyvisual,2.1,[],8,0.75,
0,pause,0.4,None,None,None,0,73,73,73,,,,,,,,,,,1,27.28855609893799,1301830,visual,1,[],"['1', '2', '3', '4']",1,2023.2.3,harveyvisual,2.1,[],8,0.75,
7,dot,0.3,['dot'],['density'],black,0,74,74,74,,,28.300206899642944,28.0070538520813,28.324790000915527,dot,"[0.08, 0.06, 0.06, 0.06, 0.06, 0.08, 0.08]","[[-0.16635260996794698, 0.28084462036912], [-0.40218122969076125, -0.17991686156932815], [-0.0845402480451966, 0.09445086570213204], [-0.12722724135381816, -0.176029296145206], [-0.3668576348978093, 0.24153552923633032], [-0.5374975881789634, 0.10465170418994485], [-0.31219932221879926, 0.029177302383891702]]",density,black,,,1301830,visual,1,[],"['1', '2', '3', '4']",1,2023.2.3,harveyvisual,2.1,[],8,0.75,
0,pause,0.4,None,None,None,0,75,75,75,,,,,,,,,,,,,1301830,visual,1,[],"['1', '2', '3', '4']",1,2023.2.3,harveyvisual,2.1,[],8,0.75,
7,dot,0.3,['dot'],['density'],black,0,76,76,76,,,29.00022292137146,28.707124948501587,29.02466893196106,dot,"[0.06, 0.08, 0.06, 0.1, 0.06, 0.1, 0.1]","[[0.3032073476866497, 0.39528308644852606], [0.12977480624643314, 0.5338553612741447], [-0.07830532742558233, 0.5277294273979773], [0.000705909343175084, 0.04538848857330666], [-0.11442247498636825, 0.3203087976624053], [0.11424952152856681, 0.31372813630522095], [0.2743618672110132, 0.19233036806743029]]",density,black,,,1301830,visual,1,[],"['1', '2', '3', '4']",1,2023.2.3,harveyvisual,2.1,[],8,0.75,
0,pause,0.4,None,None,None,0,77,77,77,,,,,,,,,,,,,1301830,visual,1,[],"['1', '2', '3', '4']",1,2023.2.3,harveyvisual,2.1,[],8,0.75,
7,dot,0.3,['dot'],['density'],black,0,78,78,78,,,29.700207948684692,29.40704894065857,29.723753929138184,dot,"[0.06, 0.08, 0.1, 0.1, 0.06, 0.1, 0.08]","[[0.3474653327129969, -0.31878285251617694], [0.04167069501601444, -0.04495125607964222], [-0.05005146056072613, -0.501422524998621], [-0.11295401278341419, -0.30095052262615135], [0.08710344590613708, -0.2932726077696002], [0.25592372840254046, -0.13825923460737455], [-0.15770825932276006, -0.07757053521742455]]",density,black,,,1301830,visual,1,[],"['1', '2', '3', '4']",1,2023.2.3,harveyvisual,2.1,[],8,0.75,
0,pause,0.4,None,None,None,0,79,79,79,,,,,,,,,,,,,1301830,visual,1,[],"['1', '2', '3', '4']",1,2023.2.3,harveyvisual,2.1,[],8,0.75,
7,dot,0.3,['dot'],['density'],black,0,80,80,80,,,30.40022301673889,30.10706400871277,30.42368483543396,dot,"[0.08, 0.06, 0.1, 0.06, 0.06, 0.06, 0.08]","[[-0.15204905838880944, -0.5333107186751418], [-0.1519936835116667, -0.2986813487337615], [0.3123805602017952, -0.370842296180838], [-0.04397638837772695, -0.01669328424437847], [0.11716920447009348, -0.14912816843546053], [0.1067198166566748, -0.5553575834591685], [0.04038917577175449, -0.3541606866516689]]",density,black,,,1301830,visual,1,[],"['1', '2', '3', '4']",1,2023.2.3,harveyvisual,2.1,[],8,0.75,
0,pause,0.4,None,None,None,0,81,81,81,,,,,,,,,,,,,1301830,visual,1,[],"['1', '2', '3', '4']",1,2023.2.3,harveyvisual,2.1,[],8,0.75,
7,dot,0.3,['dot'],['density'],black,0,82,82,82,,,31.100220918655396,30.806986808776855,31.12382984161377,dot,"[0.08, 0.08, 0.06, 0.08, 0.08, 0.1, 0.1]","[[0.373835093542847, 0.13553027784675922], [0.025265531087721685, -0.15487691700731251], [0.38086488534306906, -0.0720131222026176], [0.4315741710459581, -0.28075472739566504], [0.18097069018870113, 0.01647246612045595], [0.1962900518120967, -0.2624101628120604], [0.08955660480178401, 0.2127528718980948]]",density,black,,,1301830,visual,1,[],"['1', '2', '3', '4']",1,2023.2.3,harveyvisual,2.1,[],8,0.75,
0,pause,0.4,None,None,None,0,83,83,83,,,,,,,,,,,,,1301830,visual,1,[],"['1', '2', '3', '4']",1,2023.2.3,harveyvisual,2.1,[],8,0.75,
8,dot,0.3,['dot'],['density'],black,0,84,84,84,,,31.800229787826538,31.50700283050537,31.82366180419922,dot,"[0.06, 0.08, 0.06, 0.1, 0.08, 0.1, 0.06, 0.1]","[[-0.16499387414028463, -0.418455346753131], [0.031011941373623824, -0.006148034068666969], [-0.4150712424924157, -0.28668557629476243], [-0.199054958380199, -0.21375968732837633], [-0.4870789535587041, 0.00515905815181239], [-0.198479811208303, 0.006815000109153054], [-0.3273741662815474, 0.19008037141614484], [0.04340096687518584, -0.25044408321713213]]",density,black,,,1301830,visual,1,[],"['1', '2', '3', '4']",1,2023.2.3,harveyvisual,2.1,[],8,0.75,
0,pause,0.4,None,None,None,0,85,85,85,,,,,,,,,,,,,1301830,visual,1,[],"['1', '2', '3', '4']",1,2023.2.3,harveyvisual,2.1,[],8,0.75,
8,dot,0.3,['dot'],['density'],black,0,86,86,86,,,32.50020980834961,32.207040786743164,32.523767948150635,dot,"[0.06, 0.1, 0.08, 0.06, 0.08, 0.08, 0.08, 0.08]","[[-0.503192831713878, 0.2818759502405315], [-0.1851508851951268, 0.5121570681976513], [-0.3428391331654375, 0.06336275884690255], [-0.2620893383019587, 0.2653373399092269], [-0.09201493982796581, 0.138249408295409], [-0.14188251758679749, -0.08598668861617832], [-0.5391716430792404, 0.01870596234549803], [-0.2779852747659758, -0.23950462846526258]]",density,black,,,1301830,visual,1,[],"['1', '2', '3', '4']",1,2023.2.3,harveyvisual,2.1,[],8,0.75,
0,pause,0.4,None,None,None,0,87,87,87,,,,,,,,,,,,,1301830,visual,1,[],"['1', '2', '3', '4']",1,2023.2.3,harveyvisual,2.1,[],8,0.75,
8,dot,0.3,['dot'],['density'],white,0,88,88,88,,,33.20020580291748,32.90699481964111,33.224525928497314,dot,"[0.06, 0.1, 0.08, 0.08, 0.1, 0.08, 0.1, 0.08]","[[-0.3869743371455666, 0.15388434217336297], [0.11424038932868294, 0.18734519769139274], [-0.06602262913525138, -0.20199883598953133], [-0.13221522482970946, 0.16661696891490863], [-0.2408224703751142, -0.03724946932993881], [-0.01219752370661542, -0.004327099574405561], [-0.20345141844285677, 0.44978546357431476], [0.2450906497331586, -0.012808503174003826]]",density,white,,,1301830,visual,1,[],"['1', '2', '3', '4']",1,2023.2.3,harveyvisual,2.1,[],8,0.75,
0,pause,0.4,None,None,None,0,89,89,89,,,,,,,,,,,1,33.018497943878174,1301830,visual,1,[],"['1', '2', '3', '4']",1,2023.2.3,harveyvisual,2.1,[],8,0.75,
8,dot,0.3,['dot'],['density'],black,0,90,90,90,,,33.90022087097168,33.60706281661987,33.92360496520996,dot,"[0.08, 0.1, 0.08, 0.06, 0.06, 0.1, 0.08, 0.1]","[[-0.3167478768396544, -0.2124469325344782], [0.11150510454677101, -0.25361932254341324], [0.17657050060311263, -0.496926349220185], [0.20833757931744315, -0.0002320808252021913], [-0.0015234955214533466, 0.034722119540356526], [-0.10690598217119997, -0.19846612199298916], [0.32498422138424443, -0.23444872628509345], [-0.054741640541526956, -0.4230750989992696]]",density,black,,,1301830,visual,1,[],"['1', '2', '3', '4']",1,2023.2.3,harveyvisual,2.1,[],8,0.75,
0,pause,0.4,None,None,None,0,91,91,91,,,,,,,,,,,,,1301830,visual,1,[],"['1', '2', '3', '4']",1,2023.2.3,harveyvisual,2.1,[],8,0.75,
8,dot,0.3,['dot'],['density'],black,0,92,92,92,,,34.600215911865234,34.30803179740906,34.624621868133545,dot,"[0.08, 0.1, 0.06, 0.08, 0.08, 0.06, 0.1, 0.06]","[[-0.4462313073918426, 0.10595449025715867], [0.022923871415176152, 0.06290918987699953], [-0.12461589820496316, 0.4830175517012745], [-0.29730306390741434, 0.2752084497958106], [-0.2195410516364439, 0.056871795648565045], [0.008916049516666445, 0.2907399105306955], [-0.08256048209355603, -0.11638226771844133], [-0.4106304257826301, -0.09222594144079917]]",density,black,,,1301830,visual,1,[],"['1', '2', '3', '4']",1,2023.2.3,harveyvisual,2.1,[],8,0.75,
0,pause,0.4,None,None,None,0,93,93,93,,,,,,,,,,,,,1301830,visual,1,[],"['1', '2', '3', '4']",1,2023.2.3,harveyvisual,2.1,[],8,0.75,
8,dot,0.3,['dot'],['density'],white,0,94,94,94,,,35.30022597312927,35.00690484046936,35.323566913604736,dot,"[0.08, 0.08, 0.08, 0.06, 0.08, 0.08, 0.08, 0.1]","[[-0.2875956673588428, -0.37608972473646446], [0.1738442798715151, -0.5418380206356169], [-0.005791994605287101, -0.36400925298789194], [0.15381919852689818, -0.2106776783026027], [-0.02243369038452208, -0.11017027562433494], [-0.1375601387891928, -0.5383184991665005], [0.3481619806761259, -0.4256719133417836], [-0.2437856683810358, -0.16373273019932677]]",density,white,,,1301830,visual,1,[],"['1', '2', '3', '4']",1,2023.2.3,harveyvisual,2.1,[],8,0.75,
0,pause,0.4,None,None,None,0,95,95,95,,,,,,,,,,,1,35.187647104263306,1301830,visual,1,[],"['1', '2', '3', '4']",1,2023.2.3,harveyvisual,2.1,[],8,0.75,
9,dot,0.3,['dot'],['density'],black,0,96,96,96,,,36.000211000442505,35.707026958465576,36.02358889579773,dot,"[0.08, 0.08, 0.08, 0.08, 0.08, 0.1, 0.1, 0.08, 0.1]","[[0.12352761201622256, -0.5468572532837559], [0.3269537579821693, -0.14821727133703638], [-0.17374906020363926, -0.07190913605219341], [-0.07646026346349713, -0.5341566642345157], [0.06446752128858728, 0.011530587655488696], [0.17734850627899523, -0.32847254707869106], [-0.01015131191695844, -0.24065236825376074], [-0.3732824370369478, -0.21519922319826376], [-0.23017550258214428, -0.35747389881463476]]",density,black,,,1301830,visual,1,[],"['1', '2', '3', '4']",1,2023.2.3,harveyvisual,2.1,[],8,0.75,
0,pause,0.4,None,None,None,0,97,97,97,,,,,,,,,,,,,1301830,visual,1,[],"['1', '2', '3', '4']",1,2023.2.3,harveyvisual,2.1,[],8,0.75,
9,dot,0.3,['dot'],['density'],black,0,98,98,98,,,36.700206995010376,36.40702795982361,36.723657846450806,dot,"[0.06, 0.1, 0.08, 0.1, 0.06, 0.1, 0.08, 0.1, 0.1]","[[0.08964926938552661, 0.05394775442474662], [0.013667798857315082, 0.3651287039276397], [-0.3518235196438996, 0.4482863301015001], [0.0843039828244993, 0.5528122926054443], [-0.16049547673848438, 0.0730005648255046], [-0.2144141911430125, 0.27623828598157274], [0.3465547907671387, 0.0307758660088046], [-0.13596480001028877, 0.5242376261272882], [0.2304522598158348, 0.3521277948761275]]",density,black,,,1301830,visual,1,[],"['1', '2', '3', '4']",1,2023.2.3,harveyvisual,2.1,[],8,0.75,
0,pause,0.4,None,None,None,0,99,99,99,,,,,,,,,,,,,1301830,visual,1,[],"['1', '2', '3', '4']",1,2023.2.3,harveyvisual,2.1,[],8,0.75,
9,dot,0.3,['dot'],['density'],black,0,100,100,100,,,37.40022087097168,37.10686492919922,37.42353892326355,dot,"[0.1, 0.06, 0.1, 0.06, 0.06, 0.1, 0.1, 0.08, 0.06]","[[0.11766436913102363, -0.04327704920019282], [0.17973489876850246, -0.2957558932143311], [0.4322853556796634, 0.1292829237047714], [-0.0348924626991882, -0.2091692004054023], [0.511593351462966, -0.2715393032181878], [0.39631341359825684, -0.10388811790353111], [0.1759041025424718, 0.35783279634564974], [-0.11077337801993212, 0.08002505665429639], [0.1915495233696259, 0.15329463501335125]]",density,black,,,1301830,visual,1,[],"['1', '2', '3', '4']",1,2023.2.3,harveyvisual,2.1,[],8,0.75,
0,pause,0.4,None,None,None,0,101,101,101,,,,,,,,,,,,,1301830,visual,1,[],"['1', '2', '3', '4']",1,2023.2.3,harveyvisual,2.1,[],8,0.75,
9,dot,0.3,['dot'],['density'],black,0,102,102,102,,,38.100207805633545,37.80688190460205,38.12463092803955,dot,"[0.1, 0.06, 0.08, 0.08, 0.08, 0.1, 0.1, 0.08, 0.08]","[[0.4433726728065019, 0.22320554513198193], [0.1026133663954636, -0.050786049565613584], [0.20022034484770485, 0.4412403735117007], [0.45250313802570796, 0.010227273383000257], [0.037500571895399265, 0.24935285809920393], [0.23874579090912346, 0.11348512554989887], [0.25013734113836505, -0.23502010549412247], [0.4599692436892986, -0.2536974682823114], [0.04694731086691962, -0.2548367103293993]]",density,black,,,1301830,visual,1,[],"['1', '2', '3', '4']",1,2023.2.3,harveyvisual,2.1,[],8,0.75,
0,pause,0.4,None,None,None,0,103,103,103,,,,,,,,,,,,,1301830,visual,1,[],"['1', '2', '3', '4']",1,2023.2.3,harveyvisual,2.1,[],8,0.75,
9,dot,0.3,['dot'],['density'],black,0,104,104,104,,,38.80021691322327,38.50684094429016,38.823490858078,dot,"[0.1, 0.1, 0.1, 0.06, 0.1, 0.06, 0.06, 0.06, 0.08]","[[-0.25982930089867384, 0.41046177320377714], [0.2391912210628672, 0.4152301159030731], [-0.011899047454085643, 0.5103750441914148], [0.15826907621474634, 0.20577518054892585], [-0.29033424199965224, 0.2058356795488901], [-0.056026696670660174, 0.08152775180209879], [-0.32571421803823364, -0.002973879155612714], [0.39820859476685, 0.29236875228581105], [-0.06367065787951752, 0.28966088639372295]]",density,black,,,1301830,visual,1,[],"['1', '2', '3', '4']",1,2023.2.3,harveyvisual,2.1,[],8,0.75,
0,pause,0.4,None,None,None,0,105,105,105,,,,,,,,,,,,,1301830,visual,1,[],"['1', '2', '3', '4']",1,2023.2.3,harveyvisual,2.1,[],8,0.75,
9,dot,0.3,['dot'],['density'],black,0,106,106,106,,,39.50021696090698,39.20783996582031,39.523451805114746,dot,"[0.08, 0.08, 0.1, 0.06, 0.06, 0.08, 0.1, 0.1, 0.08]","[[-0.011980588702785358, -0.14271344386551676], [-0.15345504415890063, -0.3599837049237609], [0.2909474261289129, -0.3591516282942406], [0.16239073734315843, -0.5386624114967425], [0.2227638828830022, -0.11271380419745088], [0.06426208015886789, 0.04859175461581491], [-0.3648571389210414, -0.3413683676300365], [0.3831858227582706, 0.019718563726728144], [0.06479696894599615, -0.3534524636945761]]",density,black,,,1301830,visual,1,[],"['1', '2', '3', '4']",1,2023.2.3,harveyvisual,2.1,[],8,0.75,
0,pause,0.4,None,None,None,0,107,107,107,,,,,,,,,,,,,1301830,visual,1,[],"['1', '2', '3', '4']",1,2023.2.3,harveyvisual,2.1,[],8,0.75,
20,dot,0.3,['dot'],['density'],black,0,108,108,108,,,40.20022201538086,39.92346692085266,40.22433400154114,dot,"[0.08, 0.08, 0.1, 0.1, 0.06, 0.1, 0.06, 0.08, 0.08, 0.06, 0.08, 0.1, 0.06, 0.1, 0.06, 0.06, 0.1, 0.1, 0.1, 0.06]","[[0.30204543648272586, 0.09983827538670753], [-0.6003660444713588, 0.0693441777599105], [0.016554020009609816, -0.16350101235072262], [-0.5044754026320741, -0.11490518328642968], [0.5941570586547192, -0.06837252257420864], [0.38959898318639063, -0.13315727357986878], [-0.41090386998491135, 0.16163977853556888], [0.42933922353436726, -0.3389652741944616], [0.32903252335651656, 0.4632389793343268], [-0.35546440485061076, -0.4006835231892775], [0.5348213232358784, 0.1430342427499361], [-0.32533602161177455, 0.36092231096581484], [-0.28299786368704394, -0.098036637352168], [-0.06731580685402982, 0.42543799088913326], [-0.21275603487942063, 0.1330597470404803], [-0.1458164687718725, -0.36274736552259385], [0.13102483087077021, -0.35434010579581526], [0.12921418595997536, 0.5884410783052283], [0.08456878998548245, 0.22621737854925972], [-0.03477251215716237, 0.03871819780458219]]",density,black,,,1301830,visual,1,[],"['1', '2', '3', '4']",1,2023.2.3,harveyvisual,2.1,[],8,0.75,
0,pause,0.4,None,None,None,0,109,109,109,,,,,,,,,,,,,1301830,visual,1,[],"['1', '2', '3', '4']",1,2023.2.3,harveyvisual,2.1,[],8,0.75,
20,dot,0.3,['dot'],['density'],white,0,110,110,110,,,40.90021085739136,40.62342095375061,40.92344093322754,dot,"[0.1, 0.08, 0.1, 0.06, 0.06, 0.06, 0.08, 0.08, 0.06, 0.06, 0.08, 0.06, 0.06, 0.1, 0.08, 0.06, 0.1, 0.1, 0.1, 0.1]","[[0.2409669089164609, 0.41506566601987016], [-0.30835005201860993, -0.24319924772443013], [0.11216437884300401, 0.1405547300699742], [-0.4721934510844539, 0.11844225130657099], [-0.12355215040473388, -0.5842402471393741], [-0.35107626336129477, 0.44666638801480835], [0.507591122581608, 0.274442427101166], [-0.12081530153837544, -0.02639454286385945], [-0.20814265958544897, 0.2249767927272881], [0.48184939076115174, -0.08957932356733828], [0.46105552852395026, -0.36982088899503407], [-0.19432371702478496, -0.40048735499923527], [-0.003191289342259429, 0.5356470702063861], [0.15899397179698993, -0.04908401250159722], [0.25918553182969206, -0.32632125950122887], [0.10470702193901704, -0.5652091828650117], [-0.5811343510965642, -0.038256834586945815], [0.03868084850097686, -0.2114284563759603], [-0.43432666729677183, -0.39708611360902396], [-0.3325860450976611, -0.01902433209765353]]",density,white,,,1301830,visual,1,[],"['1', '2', '3', '4']",1,2023.2.3,harveyvisual,2.1,[],8,0.75,
0,pause,0.4,None,None,None,0,111,111,111,,,,,,,,,,,1,40.626177072525024,1301830,visual,1,[],"['1', '2', '3', '4']",1,2023.2.3,harveyvisual,2.1,[],8,0.75,
20,dot,0.3,['dot'],['density'],black,0,112,112,112,,,41.60022187232971,41.3233859539032,41.62339496612549,dot,"[0.1, 0.08, 0.1, 0.08, 0.06, 0.08, 0.08, 0.06, 0.08, 0.08, 0.08, 0.08, 0.1, 0.1, 0.08, 0.08, 0.06, 0.08, 0.06, 0.06]","[[-0.46966509667668377, 0.09289321073496065], [-0.14856184728356248, 0.13318161559683306], [-0.12278223243123881, -0.34324482547401014], [0.35681065407412493, -0.028506450876960854], [0.26037684848480713, -0.5157433798392504], [0.4959210468688232, 0.12144371225575212], [-0.4123818675667673, -0.42635130973424695], [0.2617491643891403, -0.24019655405881657], [-0.573409969777073, -0.11535736808870536], [-0.10330937811390117, 0.4981763949567303], [0.4772946315726222, -0.207458773956023], [-0.17656206031834726, -0.11281733792751492], [0.11128976210811148, -0.12205456432039785], [0.035218978151446145, 0.30490205083559685], [0.154093460849401, 0.5349455238757422], [-0.34867501818919927, 0.3103651551582476], [-0.37419707687394055, -0.15848905320082513], [0.47275629763648175, 0.32273878943348294], [0.0006035705019681314, -0.5839382240398142], [0.23708294438272148, 0.21106060527577974]]",density,black,,,1301830,visual,1,[],"['1', '2', '3', '4']",1,2023.2.3,harveyvisual,2.1,[],8,0.75,
0,pause,0.4,None,None,None,0,113,113,113,,,,,,,,,,,,,1301830,visual,1,[],"['1', '2', '3', '4']",1,2023.2.3,harveyvisual,2.1,[],8,0.75,
20,dot,0.3,['dot'],['density'],black,0,114,114,114,,,42.3002188205719,42.02334189414978,42.323410987854004,dot,"[0.1, 0.08, 0.06, 0.06, 0.08, 0.08, 0.08, 0.06, 0.06, 0.08, 0.06, 0.1, 0.1, 0.08, 0.06, 0.08, 0.06, 0.1, 0.1, 0.08]","[[-0.31137177040091935, 0.4606738298619347], [-0.31153298628184106, -0.2361892341958638], [-0.1111203490002845, -0.5079124619905577], [0.27885534244527765, -0.23254726591800756], [-0.5572215706457925, -0.23048912265378074], [0.09804843883532155, 0.2936429778006986], [-0.018305907901560725, -0.11758628830402129], [-0.27513518178966584, 0.2262922457696056], [-0.5502945020815817, 0.2025060013179602], [0.5334562548560063, -0.1278405216248919], [0.06369307410219338, 0.49693009958706846], [0.2516493792829717, 0.5477394841600448], [0.5126954558630136, 0.22255078799678996], [0.26002864826071626, 0.10070623455957606], [-0.19415159981030505, 0.03460192009007568], [0.03225710050417385, -0.3336134508315201], [-0.47844831558305506, -0.017695845093888385], [-0.4075421708738953, -0.44727527627341584], [0.3510950554271832, -0.4914988642618051], [0.34527198144398275, 0.3732675964532137]]",density,black,,,1301830,visual,1,[],"['1', '2', '3', '4']",1,2023.2.3,harveyvisual,2.1,[],8,0.75,
0,pause,0.4,None,None,None,0,115,115,115,,,,,,,,,,,,,1301830,visual,1,[],"['1', '2', '3', '4']",1,2023.2.3,harveyvisual,2.1,[],8,0.75,
20,dot,0.3,['dot'],['density'],black,0,116,116,116,,,43.00020790100098,42.72522187232971,43.02425694465637,dot,"[0.1, 0.1, 0.06, 0.08, 0.06, 0.1, 0.1, 0.08, 0.1, 0.1, 0.06, 0.1, 0.06, 0.08, 0.06, 0.1, 0.06, 0.08, 0.08, 0.1]","[[0.3860581043702901, -0.0011994313607597284], [-0.04339951221940419, -0.5332053878644791], [-0.35405566257387455, 0.3656752011241675], [-0.012962232645393867, -0.09296970319145559], [-0.3516086906442048, -0.2290078415208308], [-0.5438444378292897, 0.15802873511041915], [-0.057544937285938236, 0.2737920876794707], [0.6034133541406571, -0.0010186073284250072], [0.37839138529904937, -0.32931179308681147], [0.046784824212314224, -0.2948459562303268], [0.19359454570707213, 0.2405266044589408], [-0.5436973591061082, -0.24771819804952042], [-0.2178984869644342, 0.11530647201111421], [0.5526034456458507, -0.24589678124851302], [-0.09902171677691551, 0.5799329336314804], [0.3027468646645657, 0.4181197024463501], [0.24435608462154068, -0.18572728191888743], [0.2599918578050996, -0.5342457772463992], [0.4072850790403598, 0.23299324539624044], [-0.2678041883700773, -0.4732352875764334]]",density,black,,,1301830,visual,1,[],"['1', '2', '3', '4']",1,2023.2.3,harveyvisual,2.1,[],8,0.75,
0,pause,0.4,None,None,None,0,117,117,117,,,,,,,,,,,,,1301830,visual,1,[],"['1', '2', '3', '4']",1,2023.2.3,harveyvisual,2.1,[],8,0.75,
20,dot,0.3,['dot'],['density'],black,0,118,118,118,,,43.700214862823486,43.423340797424316,43.723328828811646,dot,"[0.1, 0.1, 0.08, 0.08, 0.06, 0.06, 0.08, 0.1, 0.1, 0.08, 0.08, 0.1, 0.1, 0.1, 0.06, 0.1, 0.06, 0.1, 0.1, 0.1]","[[-0.4232316086691946, 0.2576896991695566], [0.2324889956028835, 0.5468469284984228], [0.2856260285318303, 0.23814982485752667], [-0.27492435532522513, -0.19702391622796128], [0.1724632906822361, -0.0703277812777483], [-0.4426230119928661, 0.010427199958771949], [-0.2257512040001261, 0.064945783300553], [-0.29419207009855713, 0.4994460998398045], [0.06592029439212532, -0.30493057767602555], [-0.026069191463543917, 0.5817104018008649], [0.355330479560096, -0.4202389341998461], [0.40620456715650854, 0.441573447824729], [0.10685901979419254, 0.34498143454945374], [0.5862240072678132, -0.13447179625443356], [-0.45968235732066287, -0.27402737865384214], [0.3877603653741707, -0.18124402017488783], [-0.026090514228688355, -0.598936334519867], [0.18767857875936256, -0.5219035932551778], [0.5504922153900814, 0.1719078556515865], [-0.21830480193770607, -0.4331538570637905]]",density,black,,,1301830,visual,1,[],"['1', '2', '3', '4']",1,2023.2.3,harveyvisual,2.1,[],8,0.75,
0,pause,0.4,None,None,None,0,119,119,119,,,,,,,,,,,,,1301830,visual,1,[],"['1', '2', '3', '4']",1,2023.2.3,harveyvisual,2.1,[],8,0.75,
20,dot,0.3,['dot'],['density'],black,0,120,120,120,,,44.400216817855835,44.1233069896698,44.423348903656006,dot,"[0.06, 0.1, 0.1, 0.1, 0.08, 0.08, 0.08, 0.06, 0.08, 0.06, 0.08, 0.06, 0.08, 0.08, 0.06, 0.06, 0.1, 0.06, 0.06, 0.08]","[[-0.269080150863043, -0.540126460899716], [0.5818257388302027, -0.016358648282391974], [-0.59064257657396, 0.008444370616523589], [0.25094982324035686, -0.33590025714444094], [0.3983694474733944, 0.306759680248303], [0.15475019675494206, 0.5061224609061461], [-0.11494070007413631, 0.017254520482538283], [-0.2830986661267591, 0.20502171997718655], [-0.20209638958209442, 0.49228243051630105], [0.04699667077625802, -0.35870048817380906], [0.25672865487102836, -0.12870566893415064], [0.07236154273978246, -0.5543744427087811], [0.21640571268526654, 0.11545797340348563], [0.02418883492995627, 0.189965806736629], [-0.26448454801909177, -0.2719870406269438], [-0.42029549767885555, -0.42233926612421735], [-0.5101572275374544, -0.1849707745217727], [0.010621707760026244, -0.14496636303044597], [0.4761515917607345, -0.18370115573611637], [-0.5045847666726159, 0.2500467040858013]]",density,black,,,1301830,visual,1,[],"['1', '2', '3', '4']",1,2023.2.3,harveyvisual,2.1,[],8,0.75,
0,pause,0.4,None,None,None,0,121,121,121,,,,,,,,,,,,,1301830,visual,1,[],"['1', '2', '3', '4']",1,2023.2.3,harveyvisual,2.1,[],8,0.75,
20,dot,0.3,['dot'],['density'],black,0,122,122,122,,,45.10021901130676,44.82334280014038,45.1241660118103,dot,"[0.06, 0.06, 0.06, 0.1, 0.06, 0.06, 0.08, 0.06, 0.1, 0.06, 0.06, 0.08, 0.06, 0.1, 0.1, 0.08, 0.08, 0.06, 0.08, 0.08]","[[0.5461376590175436, -0.21798407577039186], [0.3039448371840745, 0.12329668380714531], [-0.3476867448806511, 0.2834692430322536], [0.05972062161906966, -0.22718944471124974], [-0.5516683441184191, -0.017584990555789604], [-0.109830887523436, 0.48866400585805725], [0.05594793561013822, -0.01921488881503164], [-0.007152814034886323, 0.18405848228272892], [0.03234840057865396, -0.5124753623804233], [0.365812548566938, 0.44545161096826613], [0.47949143580499876, 0.19781892741900403], [0.38406777377013934, -0.07388185390552277], [-0.17727473884862693, -0.14043743679370302], [-0.1938084290388109, -0.3817076516981416], [-0.5471222393886482, -0.25539246525061204], [0.26584543466877075, -0.42984310152227123], [-0.29391648270717663, 0.05807391056108713], [0.10384440961373975, 0.4692168689777978], [0.5779669523825998, -0.00619737878693119], [-0.32356430232792566, 0.48509990863417396]]",density,black,,,1301830,visual,1,[],"['1', '2', '3', '4']",1,2023.2.3,harveyvisual,2.1,[],8,0.75,
0,pause,0.4,None,None,None,0,123,123,123,,,,,,,,,,,,,1301830,visual,1,[],"['1', '2', '3', '4']",1,2023.2.3,harveyvisual,2.1,[],8,0.75,
20,dot,0.3,['dot'],['density'],black,0,124,124,124,,,45.800211906433105,45.52328300476074,45.82328200340271,dot,"[0.06, 0.08, 0.06, 0.1, 0.06, 0.08, 0.06, 0.08, 0.08, 0.1, 0.06, 0.06, 0.06, 0.08, 0.06, 0.08, 0.06, 0.06, 0.08, 0.08]","[[0.2928085076492374, -0.08983103808306503], [-0.27191528744538557, 0.06454821326491633], [-0.5745451076562769, -0.05410793936719982], [-0.34351100389233313, 0.28692550194098915], [-0.03385069786378514, 0.3010164394713505], [-0.2683354949992852, -0.48772256857447926], [0.49852970382067097, -0.005365095759631511], [0.03058430435370063, -0.19521901774822265], [-0.5180112348898718, 0.1337045658373331], [0.4295112992867688, -0.24485309703478608], [0.12377224406029541, 0.5440785980010321], [-0.10036386048093626, 0.522063406003558], [0.32020246294158206, 0.47769059095795374], [-0.028152104401992672, -0.4310123323410172], [0.1743187376826716, 0.24632765599422912], [0.25453979573324437, -0.40882564748716943], [0.003634096297982281, -0.00340665088476777], [0.5184161558514423, 0.2466559937639501], [-0.420339840266779, -0.16629329074660193], [0.10952544371144313, -0.5898164828953996]]",density,black,,,1301830,visual,1,[],"['1', '2', '3', '4']",1,2023.2.3,harveyvisual,2.1,[],8,0.75,
0,pause,0.4,None,None,None,0,125,125,125,,,,,,,,,,,,,1301830,visual,1,[],"['1', '2', '3', '4']",1,2023.2.3,harveyvisual,2.1,[],8,0.75,
20,dot,0.3,['dot'],['density'],black,0,126,126,126,,,46.5002179145813,46.223267793655396,46.523293018341064,dot,"[0.08, 0.08, 0.1, 0.06, 0.06, 0.06, 0.08, 0.1, 0.1, 0.08, 0.08, 0.06, 0.06, 0.1, 0.06, 0.08, 0.06, 0.06, 0.08, 0.06]","[[0.2947998222712872, 0.4160566223723685], [0.12785265429675663, 0.1497607131768005], [-0.3607497217222587, 0.34677766716708214], [0.1281479736688027, -0.5445389936066239], [0.21505335176224383, -0.04445117385737396], [-0.4612668963834283, -0.15761897791608176], [0.11703561671812546, 0.5181514055195778], [-0.3143363548700545, -0.5022434388098644], [-0.09891154857010498, -0.21490493781272763], [-0.1272524976416663, 0.13993995252136093], [0.3868309042144882, 0.24547419008315624], [-0.4004893343836331, 0.13341775279084445], [0.3441225538809225, -0.21861665062760977], [0.08009165350832348, -0.311123255277846], [0.5612318903795507, -0.15260705784476986], [-0.14695539928963436, 0.3404286156315004], [-0.24940311951115074, -0.08675153908582661], [-0.6028467741993767, -0.0233171527693043], [-0.2000614014122366, 0.5528864695831643], [0.4170411378282787, 0.03409006448083268]]",density,black,,,1301830,visual,1,[],"['1', '2', '3', '4']",1,2023.2.3,harveyvisual,2.1,[],8,0.75,
0,pause,0.4,None,None,None,0,127,127,127,,,,,,,,,,,,,1301830,visual,1,[],"['1', '2', '3', '4']",1,2023.2.3,harveyvisual,2.1,[],8,0.75,
20,dot,0.3,['dot'],['density'],white,0,128,128,128,,,47.2002170085907,46.923229932785034,47.225017786026,dot,"[0.1, 0.08, 0.1, 0.08, 0.06, 0.08, 0.1, 0.06, 0.06, 0.08, 0.08, 0.08, 0.08, 0.06, 0.1, 0.1, 0.1, 0.08, 0.06, 0.1]","[[-0.2750412057152673, 0.13487267978456263], [-0.07974930860195084, 0.2532747445576444], [0.335029965853743, 0.3789261704635737], [-0.32217344631866696, -0.43413074258198286], [-0.045928857909266596, -0.5940264326329463], [-0.4709378775117439, -0.02894375005308475], [0.10368080530165258, 0.467184886431683], [0.45497234174145607, 0.20138923658320157], [0.5277228973843854, -0.2731657370800858], [0.5754202923069124, 0.04728427198196647], [0.17892553332778804, -0.05325057964169877], [-0.37605790505741665, 0.4710818893497568], [-0.004892692051935654, 0.037341966190282516], [0.1308719176439106, -0.42066977719675913], [0.06808328742637804, -0.22900755742820605], [-0.47145915182271336, 0.20397471290311597], [-0.3497700323616745, -0.18029779432627036], [-0.537239288522501, -0.23601248438680983], [0.3005106662089507, -0.2280895845687706], [0.38500151757558465, -0.05544493964781222]]",density,white,,,1301830,visual,1,[],"['1', '2', '3', '4']",1,2023.2.3,harveyvisual,2.1,[],8,0.75,
0,pause,0.4,None,None,None,0,129,129,129,,,,,,,,,,,1,46.89296197891235,1301830,visual,1,[],"['1', '2', '3', '4']",1,2023.2.3,harveyvisual,2.1,[],8,0.75,
20,dot,0.3,['dot'],['density'],black,0,130,130,130,,,47.90022301673889,47.623363971710205,47.92334794998169,dot,"[0.08, 0.08, 0.06, 0.06, 0.1, 0.08, 0.08, 0.08, 0.06, 0.06, 0.06, 0.1, 0.06, 0.1, 0.06, 0.1, 0.08, 0.06, 0.08, 0.1]","[[0.0039843170346499646, 0.5590985086984478], [-0.5234798666255784, 0.08055329862370875], [0.5806574603189235, 0.11541320126966617], [-0.4469883079984509, -0.21857519724864252], [0.2227855266004849, 0.2320536900106802], [0.07965281303971128, 0.014272882825151711], [-0.136523721425024, 0.3224366354603009], [0.45184913032556506, -0.07749435002330524], [0.18501367070489727, -0.5664647331217016], [0.479207054213982, -0.27153201754832385], [-0.2707421086749824, 0.17158691278701055], [0.30428067821439375, 0.4290173040763192], [0.20788581928807082, -0.25416386411995706], [-0.23334406915282074, -0.4941551693864858], [-0.237730915779448, -0.30377357275622513], [-0.38617639363144396, 0.44314518916924484], [-0.006853561044470546, -0.2651847331578373], [-0.3572915465442545, -0.03769253740480211], [-0.1738774077787527, -0.10809214453786076], [0.3760980879145591, 0.11341290985201924]]",density,black,,,1301830,visual,1,[],"['1', '2', '3', '4']",1,2023.2.3,harveyvisual,2.1,[],8,0.75,
0,pause,0.4,None,None,None,0,131,131,131,,,,,,,,,,,,,1301830,visual,1,[],"['1', '2', '3', '4']",1,2023.2.3,harveyvisual,2.1,[],8,0.75,
20,dot,0.3,['dot'],['density'],black,0,132,132,132,,,48.60022687911987,48.32320189476013,48.6231849193573,dot,"[0.1, 0.06, 0.08, 0.06, 0.06, 0.1, 0.08, 0.08, 0.06, 0.06, 0.1, 0.08, 0.08, 0.1, 0.1, 0.08, 0.08, 0.08, 0.06, 0.08]","[[-0.29669581321667066, -0.20947449301211918], [0.2933522186165334, 0.23754680260483307], [-0.5365898719187905, 0.08479111824952029], [-0.02920327269089229, -0.28571813134015506], [-0.05243760508463824, -0.5062319139682878], [-0.2610802028850977, 0.14541983940838055], [0.41954580118527784, -0.0008817754194573313], [0.4507041939304378, 0.3938829322144438], [0.39195081612755034, -0.3199203953345122], [0.11455253107560914, 0.3223775306577119], [0.1523943021333305, -0.38590779482360765], [-0.4868411872559383, -0.239846146007678], [0.014034244208802615, 0.1528105907049795], [-0.3300844553011812, 0.48464338079180647], [-0.056734468350806866, 0.40644071486970357], [0.16511055874458813, -0.01825841643551429], [-0.3346495530289316, -0.46225345732075207], [0.1721272832111823, 0.5550268641324643], [-0.4441014828159954, 0.27129669575562587], [0.5628882768686686, -0.2196326693967744]]",density,black,,,1301830,visual,1,[],"['1', '2', '3', '4']",1,2023.2.3,harveyvisual,2.1,[],8,0.75,
0,pause,0.4,None,None,None,0,133,133,133,,,,,,,,,,,,,1301830,visual,1,[],"['1', '2', '3', '4']",1,2023.2.3,harveyvisual,2.1,[],8,0.75,
20,dot,0.3,['dot'],['density'],black,0,134,134,134,,,49.300215005874634,49.02318596839905,49.32316994667053,dot,"[0.08, 0.08, 0.1, 0.06, 0.1, 0.1, 0.06, 0.08, 0.06, 0.08, 0.08, 0.1, 0.08, 0.08, 0.06, 0.08, 0.1, 0.08, 0.06, 0.06]","[[0.31657524772302936, 0.041929046015724], [0.2900860211984997, -0.1922551807407869], [0.019845877408601775, 0.39968289385497513], [0.5123976310171089, -0.036043029559896356], [0.02669055124366193, 0.037444371191821535], [-0.13930834196800462, -0.23202724652111795], [-0.4878352903959913, 0.05893480436023463], [-0.5057168221743978, -0.234340635504067], [-0.14993939073108398, 0.14224899204196106], [-0.3199607641338876, -0.42703981750442627], [-0.27344554978497576, 0.33061705454292445], [0.0516805865944483, -0.3138106760239641], [-0.1618277240418471, -0.575490300335087], [0.3025129772101264, -0.46661487857276346], [0.2589510668079321, 0.4006086430420248], [-0.2037102294826887, 0.534688830636045], [0.5442373525389733, 0.17256484984652976], [0.4802694184272457, -0.23568495863831276], [-0.2813530857478571, -0.02756562969024301], [-0.5000075684526971, 0.3270586176941178]]",density,black,,,1301830,visual,1,[],"['1', '2', '3', '4']",1,2023.2.3,harveyvisual,2.1,[],8,0.75,
0,pause,0.4,None,None,None,0,135,135,135,,,,,,,,,,,,,1301830,visual,1,[],"['1', '2', '3', '4']",1,2023.2.3,harveyvisual,2.1,[],8,0.75,
20,dot,0.3,['dot'],['density'],black,0,136,136,136,,,50.00020980834961,49.72315788269043,50.02314782142639,dot,"[0.06, 0.1, 0.08, 0.06, 0.1, 0.06, 0.06, 0.1, 0.06, 0.08, 0.1, 0.08, 0.06, 0.08, 0.08, 0.08, 0.1, 0.1, 0.08, 0.1]","[[-0.32666055969741026, -0.06120654998856717], [0.11050168279934847, -0.5445853700643388], [-0.395593337853289, 0.4554976113806575], [0.28558962882678984, -0.4063235813747177], [0.1875251458219227, -0.08631362310806034], [-0.29134516881320105, 0.22466803022616055], [0.0041183492525892484, -0.301434407961586], [-0.523738615492812, 0.10567200225507917], [-0.18514737651928892, -0.35756466952876065], [0.19957262706852008, 0.5311578121823166], [-0.04397228514106444, 0.3356421339518423], [0.455723462883839, -0.04443724630920248], [-0.514584224728899, -0.30009526825465493], [0.20544738682427954, 0.15114834434884394], [-0.5208424257672934, -0.10331762207714179], [-0.14252611907247315, 0.5834917134156362], [0.49430476416888613, -0.23520882036909152], [0.4934605071929058, 0.2505648663865172], [-0.0568357405889226, 0.06999216104936856], [0.30940811045690053, 0.34967636332061003]]",density,black,,,1301830,visual,1,[],"['1', '2', '3', '4']",1,2023.2.3,harveyvisual,2.1,[],8,0.75,
0,pause,0.4,None,None,None,0,137,137,137,,,,,,,,,,,,,1301830,visual,1,[],"['1', '2', '3', '4']",1,2023.2.3,harveyvisual,2.1,[],8,0.75,
20,dot,0.3,['dot'],['density'],black,0,138,138,138,,,50.70020580291748,50.425482988357544,50.723129987716675,dot,"[0.06, 0.1, 0.08, 0.06, 0.06, 0.06, 0.1, 0.06, 0.1, 0.08, 0.1, 0.06, 0.06, 0.08, 0.08, 0.1, 0.08, 0.08, 0.06, 0.08]","[[0.10648117951901004, 0.10515089683752021], [-0.580825660657633, -0.13584782491009495], [-0.44553881212929447, 0.22011473854304653], [0.1212829427905684, -0.3814417341429951], [0.25509611058470094, 0.4146850520623354], [0.5174700270248406, -0.2604503587017034], [-0.30491071457429847, -0.27504943995363756], [-0.08703157700245967, -0.020253954561119447], [0.02944324744383897, -0.16980302825578342], [-0.2483163060571047, 0.4173726404821777], [0.493602910197242, 0.19058588271942678], [0.5936188283682465, -0.06231176580240257], [0.05613229876341885, 0.4297489924048894], [-0.3783684064577137, -0.4531089850157999], [-0.10715785052420695, -0.3842801341389481], [-0.222863780269569, 0.11518095767747105], [-0.38813539132690117, -0.03635822707046105], [-0.045414808017388064, 0.2360147099057942], [0.2215018987103693, -0.1515126784837964], [0.3355656013171374, -0.4122984144407155]]",density,black,,,1301830,visual,1,[],"['1', '2', '3', '4']",1,2023.2.3,harveyvisual,2.1,[],8,0.75,
0,pause,0.4,None,None,None,0,139,139,139,,,,,,,,,,,,,1301830,visual,1,[],"['1', '2', '3', '4']",1,2023.2.3,harveyvisual,2.1,[],8,0.75,
20,dot,0.3,['dot'],['density'],black,0,140,140,140,,,51.40021085739136,51.12317395210266,51.42402482032776,dot,"[0.06, 0.06, 0.06, 0.1, 0.08, 0.08, 0.1, 0.06, 0.08, 0.06, 0.1, 0.08, 0.06, 0.1, 0.08, 0.08, 0.08, 0.1, 0.08, 0.08]","[[0.30426362510675187, -0.49150016628913523], [-0.058723818502968705, -0.5359845275177101], [-0.4464737505291779, -0.4035358762070595], [-0.5430717485996366, -0.19776980956185525], [-0.5060362770833073, 0.021935313071363816], [-0.08875626775866363, 0.4026502294985592], [0.273934853917542, 0.30560445968613703], [0.5746590166148985, 0.15089830863105996], [0.4060373603132571, -0.07411622340245294], [-0.28690122388791245, -0.24757951046705207], [0.13548539618074673, 0.033085843079608934], [0.17519728722433803, -0.2836230965733004], [-0.21010987480163906, 0.1593731930496699], [-0.3947298627794237, 0.28291810794110206], [0.11885587919713037, 0.5357838205580248], [0.5515458483722105, -0.24828446079262026], [-0.19674433497612315, -0.06366733007974834], [0.06812511464043602, 0.2130623316606569], [-0.01737934047393963, -0.3437073957145466], [-0.2270675989717565, -0.42890744101641753]]",density,black,,,1301830,visual,1,[],"['1', '2', '3', '4']",1,2023.2.3,harveyvisual,2.1,[],8,0.75,
0,pause,0.4,None,None,None,0,141,141,141,,,,,,,,,,,,,1301830,visual,1,[],"['1', '2', '3', '4']",1,2023.2.3,harveyvisual,2.1,[],8,0.75,
20,dot,0.3,['dot'],['density'],white,0,142,142,142,,,52.100228786468506,51.8231258392334,52.123143911361694,dot,"[0.06, 0.08, 0.08, 0.08, 0.1, 0.06, 0.08, 0.06, 0.08, 0.08, 0.06, 0.06, 0.1, 0.06, 0.06, 0.06, 0.08, 0.08, 0.1, 0.08]","[[-0.3946011083561317, 0.40181427090715127], [-0.06975433099519235, 0.4282691221963445], [-0.290078805257504, -0.20711566645432988], [0.3679039918316832, 0.12258989010804139], [0.17334646439936008, -0.45521155324450635], [-0.4775847758509705, -0.061779447848546165], [-0.5669698630246036, 0.20032362983308794], [-0.15899858469670375, -0.46900747666746145], [0.2694950304986745, 0.4682036361427352], [0.3986302258908211, -0.312937719634119], [0.47711444515488266, -0.06891570863737356], [0.4779164941940842, 0.32335926426879646], [0.007663800693490597, 0.22984107245815866], [-0.06234001795156496, -0.2934041650329553], [-0.2408649253480048, 0.025002519095718823], [0.5790592553990058, 0.10164232468948944], [-0.02441670783922756, -0.022353773096443597], [-0.3734253919157, 0.19584413231350573], [0.24662890005519267, -0.0591735893436624], [-0.48463117584105503, -0.33269656975772877]]",density,white,,,1301830,visual,1,[],"['1', '2', '3', '4']",1,2023.2.3,harveyvisual,2.1,[],8,0.75,
0,pause,0.4,None,None,None,0,143,143,143,,,,,,,,,,,1,51.81657409667969,1301830,visual,1,[],"['1', '2', '3', '4']",1,2023.2.3,harveyvisual,2.1,[],8,0.75,
20,dot,0.3,['dot'],['density'],black,0,144,144,144,,,52.80022692680359,52.523080825805664,52.823983907699585,dot,"[0.06, 0.08, 0.1, 0.1, 0.08, 0.1, 0.1, 0.1, 0.1, 0.08, 0.06, 0.1, 0.06, 0.08, 0.08, 0.06, 0.08, 0.06, 0.08, 0.06]","[[-0.5638221497672125, -0.14456310255254087], [0.3801875544267306, 0.34339296591177687], [-0.11547814572556758, -0.5568240595689061], [0.37982863569069025, -0.0839626279357073], [0.21825339654086384, -0.42983140411451526], [-0.44823488426482105, 0.2112712279143399], [0.3820044303058876, 0.12429565865017655], [-0.35794830056125015, -0.15330152760318005], [-0.11320792105486166, 0.45695249808821903], [0.11209118239102989, -0.15689642849170937], [-0.3809195591935477, 0.3917941088609661], [-0.2529456597686769, -0.3536738404581441], [0.10172032533728637, 0.4436705097021777], [-0.23499794808680852, 0.26439607847785596], [0.6002832334341811, -0.04197371747779315], [-0.015614425467146198, -0.38082548625121326], [0.11401127421261847, 0.053749726982356694], [0.40610176577608914, -0.27599158731464835], [-0.17271003649359196, 0.07678589029958172], [-0.4631308683059261, -0.3364085790377471]]",density,black,,,1301830,visual,1,[],"['1', '2', '3', '4']",1,2023.2.3,harveyvisual,2.1,[],8,0.75,
0,pause,0.4,None,None,None,0,145,145,145,,,,,,,,,,,,,1301830,visual,1,[],"['1', '2', '3', '4']",1,2023.2.3,harveyvisual,2.1,[],8,0.75,
20,dot,0.3,['dot'],['density'],black,0,146,146,146,,,53.500213861465454,53.22308278083801,53.52338695526123,dot,"[0.06, 0.1, 0.08, 0.08, 0.06, 0.08, 0.1, 0.06, 0.08, 0.06, 0.1, 0.08, 0.1, 0.06, 0.08, 0.1, 0.1, 0.1, 0.08, 0.1]","[[-0.041287515391070784, -0.06657543846531688], [-0.5362360428678472, 0.17054422127424074], [-0.05195152649318702, -0.34971244974618665], [-0.2909419493293413, 0.22539221090537787], [0.33100119923364957, -0.2780680191986456], [0.29775260838636264, 0.3203207599729124], [-0.43264282741832105, -0.29998200947428016], [-0.026812709820193237, 0.3601159848760572], [-0.5648812918030902, -0.028895632189675113], [0.5500685288781354, -0.04989332432526444], [-0.34822424105171557, -0.04349391604565628], [0.17449428198970784, 0.5786893653286617], [0.22506676523956504, -0.44308149866778807], [0.33686648912238293, 0.09785992173823022], [0.5266796655457088, 0.24730958793412267], [-0.3736492243994659, 0.42005134762723556], [-0.12943048540627966, 0.5544568930103416], [-0.03663231558672708, -0.5706396844019572], [0.17103760321185335, -0.13189379664920337], [0.12861135294660786, 0.20550052770428073]]",density,black,,,1301830,visual,1,[],"['1', '2', '3', '4']",1,2023.2.3,harveyvisual,2.1,[],8,0.75,
0,pause,0.4,None,None,None,0,147,147,147,,,,,,,,,,,,,1301830,visual,1,[],"['1', '2', '3', '4']",1,2023.2.3,harveyvisual,2.1,[],8,0.75,
20,dot,0.3,['dot'],['density'],black,0,148,148,148,,,54.200233936309814,53.923059940338135,54.22307300567627,dot,"[0.1, 0.1, 0.08, 0.06, 0.08, 0.1, 0.08, 0.1, 0.06, 0.06, 0.1, 0.06, 0.08, 0.06, 0.06, 0.1, 0.08, 0.06, 0.06, 0.06]","[[0.211368165001251, 0.5569170032726601], [-0.1396330795193974, -0.5765354662244938], [-0.007851324440879104, -0.35441190041906473], [0.13860650347972037, -0.131251768788479], [0.5744854557402258, -0.1258825476607436], [-0.2998038085758315, 0.2699271161793836], [-0.12694932241985196, -0.07833332411738614], [0.3979099381305763, 0.008216693753207494], [0.544687890075552, 0.2074304107443063], [0.17220358721244067, -0.43332747346061284], [-0.4651765877118056, -0.20846981147245555], [0.3300346930513437, -0.17146439775087263], [-0.22524577646989308, -0.35666820922875575], [-0.24076918511842915, 0.0882134918170957], [-0.5907452580604635, 0.05033757741283318], [0.22210886565394494, 0.1085770753249472], [0.13785742956078806, 0.35291485334490613], [-0.08971402826824582, 0.3869476427916695], [-0.041065504863534885, 0.6034162592032797], [0.44716473736323137, 0.38094730995871595]]",density,black,,,1301830,visual,1,[],"['1', '2', '3', '4']",1,2023.2.3,harveyvisual,2.1,[],8,0.75,
0,pause,0.4,None,None,None,0,149,149,149,,,,,,,,,,,,,1301830,visual,1,[],"['1', '2', '3', '4']",1,2023.2.3,harveyvisual,2.1,[],8,0.75,
20,dot,0.3,['dot'],['density'],black,0,150,150,150,,,54.900230884552,54.62391996383667,54.923007011413574,dot,"[0.08, 0.08, 0.06, 0.06, 0.1, 0.08, 0.08, 0.06, 0.08, 0.06, 0.06, 0.06, 0.06, 0.08, 0.08, 0.1, 0.1, 0.06, 0.08, 0.06]","[[-0.019089615778870472, 0.05264284529263763], [-0.5704727280843407, 0.0922053049263018], [0.35717466377449225, -0.27217785051134824], [-0.468221047031091, 0.26122835345023], [0.5805477846723882, 0.08419825796288669], [0.057783482570545996, 0.4527737361321599], [0.23623970445819487, -0.0010903120868469562], [0.28002975012267617, -0.5218364060838211], [-0.2910894148019998, 0.4974674199980921], [0.2918899956203328, 0.2588955169046607], [0.25668432994232915, 0.5445687773690602], [-0.12868748888171844, 0.23545440678053542], [-0.030502765158004652, -0.44389856272107264], [0.4887116485649302, 0.3215589524483915], [-0.3355263812207761, -0.018368983092024505], [-0.5903502561884075, -0.09703216331858669], [-0.29915719517844064, -0.3582341113157601], [0.0029985434129333743, -0.17210749824198068], [-0.48699192235958105, -0.2943684403991332], [0.5397350377904248, -0.214703652040208]]",density,black,,,1301830,visual,1,[],"['1', '2', '3', '4']",1,2023.2.3,harveyvisual,2.1,[],8,0.75,
0,pause,0.4,None,None,None,0,151,151,151,,,,,,,,,,,,,1301830,visual,1,[],"['1', '2', '3', '4']",1,2023.2.3,harveyvisual,2.1,[],8,0.75,
20,dot,0.3,['dot'],['density'],black,0,152,152,152,,,55.60022592544556,55.322999000549316,55.624106884002686,dot,"[0.08, 0.08, 0.06, 0.06, 0.06, 0.1, 0.08, 0.06, 0.1, 0.08, 0.08, 0.06, 0.08, 0.1, 0.08, 0.06, 0.08, 0.1, 0.06, 0.08]","[[-0.34248037463150094, 0.08457251044766118], [-0.5933125701365698, -0.06031205756360624], [-0.3461339828088103, 0.46647616143160575], [-0.10206802969122886, -0.49860670611182295], [-0.5177082745069638, 0.2697721228426367], [-0.1418255816684898, 0.07050186975153305], [-0.4727173990912581, -0.21470836917294508], [0.44888582115137987, 0.02685971529254838], [0.5923876548954089, -0.11011565819099266], [0.19588212563017393, -0.3255476409196695], [0.484045665121254, 0.3452900370895166], [0.44456580942227497, -0.39288188960799103], [-0.0004586352732498522, 0.52082407441111], [0.1857006802747272, 0.3016928208793628], [-0.4273596347461827, -0.4255361612256291], [0.07168496039917072, -0.15866028078689748], [0.19507196579657582, 0.004284224052674035], [-0.2197878438104376, -0.1465910006750651], [0.32549381037387637, -0.14805395646635167], [-0.03506074345511612, 0.3133207242145173]]",density,black,,,1301830,visual,1,[],"['1', '2', '3', '4']",1,2023.2.3,harveyvisual,2.1,[],8,0.75,
0,pause,0.4,None,None,None,0,153,153,153,,,,,,,,,,,,,1301830,visual,1,[],"['1', '2', '3', '4']",1,2023.2.3,harveyvisual,2.1,[],8,0.75,
20,dot,0.3,['dot'],['density'],black,0,154,154,154,,,56.300206899642944,56.02299880981445,56.323935985565186,dot,"[0.06, 0.08, 0.08, 0.08, 0.06, 0.06, 0.06, 0.1, 0.08, 0.1, 0.06, 0.08, 0.1, 0.1, 0.08, 0.06, 0.1, 0.06, 0.06, 0.1]","[[0.14427195493247236, -0.4596127841128753], [-0.3155742477963387, 0.48206528882232313], [0.16442765633431822, 0.03770896795940992], [-0.20970870929318453, 0.27875413179238484], [0.11847090626933143, 0.2835176353584068], [0.3353977951920586, -0.09716374025207941], [-0.5654559861216878, 0.18100804787573668], [0.16350837007515862, -0.2447522811920913], [0.09641724990727552, 0.5760023716728194], [0.5665175969240274, -0.004094484615970395], [-0.30000533167981974, 0.10956311107620476], [0.32014146317916525, 0.4325826236957435], [0.402953673024116, 0.2235391262702484], [-0.4694181800969721, -0.018249151612894254], [-0.29273665199174403, -0.16432771446760658], [-0.0029378029615632073, 0.13232315382506088], [-0.043128246114786495, -0.3885872980702144], [0.5492768979917416, -0.22962366187282576], [-0.44868233786484846, -0.31173097384488013], [-0.08156693943194904, -0.06984634518906419]]",density,black,,,1301830,visual,1,[],"['1', '2', '3', '4']",1,2023.2.3,harveyvisual,2.1,[],8,0.75,
0,pause,0.4,None,None,None,0,155,155,155,,,,,,,,,,,,,1301830,visual,1,[],"['1', '2', '3', '4']",1,2023.2.3,harveyvisual,2.1,[],8,0.75,
9,dot,0.3,['dot'],['density'],black,0,156,156,156,,,57.00020980834961,56.722986936569214,57.02682685852051,dot,"[0.1, 0.1, 0.06, 0.06, 0.06, 0.06, 0.1, 0.08, 0.08]","[[0.08305850914464513, -0.5442468290176591], [0.035628337695759515, -0.10623885656661826], [-0.40455734034313895, -0.4103448572564978], [-0.27695520492017833, -0.22921059622728732], [-0.0679181879583315, -0.31282249044743377], [0.15394835823740735, -0.27999833282003045], [0.36545074601266236, -0.2024769979494575], [-0.18616414474285772, -0.004612976462616847], [-0.15152437179077458, -0.5570863580044498]]",density,black,,,1301830,visual,1,[],"['1', '2', '3', '4']",1,2023.2.3,harveyvisual,2.1,[],8,0.75,
0,pause,0.4,None,None,None,0,157,157,157,,,,,,,,,,,,,1301830,visual,1,[],"['1', '2', '3', '4']",1,2023.2.3,harveyvisual,2.1,[],8,0.75,
9,dot,0.3,['dot'],['density'],black,0,158,158,158,,,57.700209856033325,57.426692962646484,57.7230019569397,dot,"[0.06, 0.08, 0.1, 0.1, 0.08, 0.08, 0.08, 0.1, 0.08]","[[-0.5242180236495622, 0.2097960018926228], [-0.2671382220306689, 0.3003190330968159], [-0.06183693718886379, 0.22592490829479475], [-0.2001015593906042, -0.14641750634996328], [-0.09246193223873551, 0.43765994221656135], [-0.29330373087767303, 0.05285487614136386], [0.007094383220706952, 0.008748553761596398], [0.1465325421295601, 0.294910430799518], [0.04425292235957525, -0.2230758375085622]]",density,black,,,1301830,visual,1,[],"['1', '2', '3', '4']",1,2023.2.3,harveyvisual,2.1,[],8,0.75,
0,pause,0.4,None,None,None,0,159,159,159,,,,,,,,,,,,,1301830,visual,1,[],"['1', '2', '3', '4']",1,2023.2.3,harveyvisual,2.1,[],8,0.75,
9,dot,0.3,['dot'],['density'],black,0,160,160,160,,,58.400208950042725,58.12292289733887,58.422900915145874,dot,"[0.06, 0.1, 0.06, 0.08, 0.1, 0.06, 0.06, 0.08, 0.08]","[[0.5571797577834091, 0.07732674165650813], [0.16332656704353227, -0.09331314560094064], [0.4138178119161903, 0.3925230053806507], [0.28711316854655766, 0.07147022394212545], [0.052100496024031176, 0.3810199549023822], [0.2172039135420496, 0.26337040755706287], [-0.2646845915772586, 0.12849707234668142], [0.21844181080216274, 0.4926952285236599], [0.0761275456309072, 0.11718001140956479]]",density,black,,,1301830,visual,1,[],"['1', '2', '3', '4']",1,2023.2.3,harveyvisual,2.1,[],8,0.75,
0,pause,0.4,None,None,None,0,161,161,161,,,,,,,,,,,,,1301830,visual,1,[],"['1', '2', '3', '4']",1,2023.2.3,harveyvisual,2.1,[],8,0.75,
9,dot,0.3,['dot'],['density'],white,0,162,162,162,,,59.10022497177124,58.82291078567505,59.12289595603943,dot,"[0.1, 0.1, 0.06, 0.1, 0.08, 0.06, 0.06, 0.06, 0.06]","[[0.5633060189111645, -0.020447411670609934], [0.24486306384976717, 0.44476630120442473], [0.18428866344346043, -0.051083701103786204], [0.30165572131442664, 0.2239114093385097], [-0.0017431279865323516, 0.11759053127645673], [0.36864926730470376, 0.029118730319846676], [0.08307425003498874, 0.31712463906399285], [0.26393370779995823, -0.24286541122091637], [0.5109425385251136, 0.2557989077594731]]",density,white,,,1301830,visual,1,[],"['1', '2', '3', '4']",1,2023.2.3,harveyvisual,2.1,[],8,0.75,
0,pause,0.4,None,None,None,0,163,163,163,,,,,,,,,,,1,58.9073588848114,1301830,visual,1,[],"['1', '2', '3', '4']",1,2023.2.3,harveyvisual,2.1,[],8,0.75,
9,dot,0.3,['dot'],['density'],black,0,164,164,164,,,59.8002188205719,59.522928953170776,59.82288694381714,dot,"[0.06, 0.1, 0.08, 0.1, 0.06, 0.1, 0.06, 0.06, 0.06]","[[0.050129075631511706, -0.29659829200500587], [0.1522424042566208, -0.02012498145544232], [-0.31773020450764894, 0.09756431981266957], [-0.25388767024787284, -0.20865833148222632], [-0.06549152868915667, -0.10253084504872755], [-0.047012852932693645, 0.11741599898337682], [0.26526013051082903, -0.18996189821299347], [0.2442588296558726, 0.17404051307925203], [0.053323608967773835, 0.34462047536600726]]",density,black,,,1301830,visual,1,[],"['1', '2', '3', '4']",1,2023.2.3,harveyvisual,2.1,[],8,0.75,
0,pause,0.4,None,None,None,0,165,165,165,,,,,,,,,,,,,1301830,visual,1,[],"['1', '2', '3', '4']",1,2023.2.3,harveyvisual,2.1,[],8,0.75,
9,dot,0.3,['dot'],['density'],black,0,166,166,166,,,60.50020885467529,60.226032972335815,60.52291297912598,dot,"[0.06, 0.08, 0.06, 0.1, 0.1, 0.1, 0.1, 0.1, 0.1]","[[-0.23139737267821464, 0.4582894628988488], [-0.22563640623437264, 0.09161215191469056], [0.08653997658409265, 0.18408404769425912], [-0.34134765149242685, 0.2795210921938051], [-0.45752590330905135, 0.08752711185150099], [-0.035040587470716034, -0.07657027701648178], [-0.27120713465948276, -0.1309343981320133], [-0.3537313425617488, -0.374673418779248], [-0.09309732942360581, 0.2754840453600595]]",density,black,,,1301830,visual,1,[],"['1', '2', '3', '4']",1,2023.2.3,harveyvisual,2.1,[],8,0.75,
0,pause,0.4,None,None,None,0,167,167,167,,,,,,,,,,,,,1301830,visual,1,[],"['1', '2', '3', '4']",1,2023.2.3,harveyvisual,2.1,[],8,0.75,
8,dot,0.3,['dot'],['density'],black,0,168,168,168,,,61.20023488998413,60.92376494407654,61.22285079956055,dot,"[0.1, 0.06, 0.08, 0.06, 0.06, 0.06, 0.1, 0.1]","[[0.4694715163891994, 0.13329625263481096], [0.14358160208090395, 0.35167434699812705], [0.41559735975202405, 0.3690190921299561], [-0.041805684447173724, 0.4315913723966695], [-0.04993254304034498, 0.2285123563850015], [0.25337459258073897, 0.16365346604105616], [0.18476510797087844, 0.5481483313560797], [0.14868800337579569, -0.10349430855878591]]",density,black,,,1301830,visual,1,[],"['1', '2', '3', '4']",1,2023.2.3,harveyvisual,2.1,[],8,0.75,
0,pause,0.4,None,None,None,0,169,169,169,,,,,,,,,,,,,1301830,visual,1,[],"['1', '2', '3', '4']",1,2023.2.3,harveyvisual,2.1,[],8,0.75,
8,dot,0.3,['dot'],['density'],black,0,170,170,170,,,61.90021085739136,61.60620999336243,61.922812938690186,dot,"[0.08, 0.06, 0.08, 0.08, 0.08, 0.1, 0.1, 0.06]","[[0.17295790489511154, -0.46037743866749825], [0.1416591427765588, 0.05421051799673566], [0.21994266958916148, -0.13656690113679631], [0.3639906379971415, 0.0627265571221228], [0.015481321741344221, -0.13916897583717935], [0.440802488837635, -0.2883976186876931], [0.5157567705321767, -0.08800602901884749], [0.24768837887357187, 0.24424825162618136]]",density,black,,,1301830,visual,1,[],"['1', '2', '3', '4']",1,2023.2.3,harveyvisual,2.1,[],8,0.75,
0,pause,0.4,None,None,None,0,171,171,171,,,,,,,,,,,,,1301830,visual,1,[],"['1', '2', '3', '4']",1,2023.2.3,harveyvisual,2.1,[],8,0.75,
8,dot,0.3,['dot'],['density'],black,0,172,172,172,,,62.60020899772644,62.30608296394348,62.622803926467896,dot,"[0.06, 0.1, 0.08, 0.08, 0.08, 0.1, 0.08, 0.1]","[[0.4107983822504989, -0.04783789354839145], [-0.06954892783911702, 0.20421019801840873], [0.19287329246680035, -0.23674413065931216], [-0.04658255687897442, -0.27568538913083557], [0.19478566210173015, -0.00965484605936359], [-0.04069516991009335, -0.04900998707948758], [0.17921022995035232, 0.2044367826380957], [-0.22871454517575843, 0.05025111546696341]]",density,black,,,1301830,visual,1,[],"['1', '2', '3', '4']",1,2023.2.3,harveyvisual,2.1,[],8,0.75,
0,pause,0.4,None,None,None,0,173,173,173,,,,,,,,,,,,,1301830,visual,1,[],"['1', '2', '3', '4']",1,2023.2.3,harveyvisual,2.1,[],8,0.75,
8,dot,0.3,['dot'],['density'],black,0,174,174,174,,,63.300232887268066,63.02280879020691,63.3238468170166,dot,"[0.06, 0.08, 0.06, 0.06, 0.1, 0.06, 0.06, 0.06]","[[0.1740819983727909, -0.16863019829442621], [0.14644114519141543, -0.4524198896657212], [0.0024885361438939093, 0.023531574910491997], [-0.23717340943857948, -0.31112918658627675], [-0.11311749148073028, -0.46867866316561874], [-0.17928248077090506, -0.060241557052319365], [-0.03957999532622772, -0.24759906754331504], [-0.4644327601918011, -0.3627803331480915]]",density,black,,,1301830,visual,1,[],"['1', '2', '3', '4']",1,2023.2.3,harveyvisual,2.1,[],8,0.75,
0,pause,0.4,None,None,None,0,175,175,175,,,,,,,,,,,,,1301830,visual,1,[],"['1', '2', '3', '4']",1,2023.2.3,harveyvisual,2.1,[],8,0.75,
8,dot,0.3,['dot'],['density'],black,0,176,176,176,,,64.00021600723267,63.70602893829346,64.0227530002594,dot,"[0.08, 0.08, 0.1, 0.08, 0.06, 0.06, 0.1, 0.1]","[[0.5011924336457421, -0.024432440978935197], [0.2806328112604475, -0.04317330297599672], [0.4832514634589159, 0.31109822070486504], [0.16408111659662816, 0.42847901077729456], [0.23688927214560462, 0.23559820796421724], [0.07772697954394367, 0.06196890701796274], [0.10192126774068293, -0.18867749580812243], [-0.012619648351882298, 0.24997239668137242]]",density,black,,,1301830,visual,1,[],"['1', '2', '3', '4']",1,2023.2.3,harveyvisual,2.1,[],8,0.75,
0,pause,0.4,None,None,None,0,177,177,177,,,,,,,,,,,,,1301830,visual,1,[],"['1', '2', '3', '4']",1,2023.2.3,harveyvisual,2.1,[],8,0.75,
8,dot,0.3,['dot'],['density'],black,0,178,178,178,,,64.70021891593933,64.40601086616516,64.72275590896606,dot,"[0.1, 0.06, 0.08, 0.06, 0.08, 0.06, 0.06, 0.06]","[[-0.30918623351354413, -0.2762980118811315], [0.03442122464869854, -0.32944299641312663], [0.20656618624830034, -0.4515266663928406], [0.20458815773351877, -0.002924552385479317], [-0.054765695239429084, -0.14491701700869716], [-0.0008776159608741382, 0.05441634750414142], [0.19975410704164612, -0.21252729673777132], [-0.19330391669800595, 0.14377227853430027]]",density,black,,,1301830,visual,1,[],"['1', '2', '3', '4']",1,2023.2.3,harveyvisual,2.1,[],8,0.75,
0,pause,0.4,None,None,None,0,179,179,179,,,,,,,,,,,,,1301830,visual,1,[],"['1', '2', '3', '4']",1,2023.2.3,harveyvisual,2.1,[],8,0.75,
7,dot,0.3,['dot'],['density'],black,0,180,180,180,,,65.40022897720337,65.10609078407288,65.42365384101868,dot,"[0.1, 0.1, 0.06, 0.06, 0.08, 0.1, 0.08]","[[-0.137089699111686, -0.0603537150230737], [-0.5113647139476066, -0.13847335204066147], [-0.15813839015967857, -0.36469710156031643], [-0.2936616210719107, -0.2141411575526577], [-0.32787652212665946, 0.04250548396893007], [0.004093135922799089, -0.22788394746255153], [-0.17456170860443615, 0.20133573380951708]]",density,black,,,1301830,visual,1,[],"['1', '2', '3', '4']",1,2023.2.3,harveyvisual,2.1,[],8,0.75,
0,pause,0.4,None,None,None,0,181,181,181,,,,,,,,,,,,,1301830,visual,1,[],"['1', '2', '3', '4']",1,2023.2.3,harveyvisual,2.1,[],8,0.75,
7,dot,0.3,['dot'],['density'],black,0,182,182,182,,,66.10022687911987,65.80605101585388,66.12273979187012,dot,"[0.06, 0.06, 0.08, 0.1, 0.08, 0.1, 0.1]","[[0.3302081014073935, 0.19448071361351732], [-0.22286629369238187, 0.3450023392305547], [-0.11533339293480348, 0.13926201039730488], [0.12023407780451623, 0.21240672508650668], [0.2659789407074307, 0.3894086603790018], [0.026604934602130894, 0.39133200849180605], [0.212400253920387, 0.027377351413115796]]",density,black,,,1301830,visual,1,[],"['1', '2', '3', '4']",1,2023.2.3,harveyvisual,2.1,[],8,0.75,
0,pause,0.4,None,None,None,0,183,183,183,,,,,,,,,,,,,1301830,visual,1,[],"['1', '2', '3', '4']",1,2023.2.3,harveyvisual,2.1,[],8,0.75,
7,dot,0.3,['dot'],['density'],black,0,184,184,184,,,66.80020999908447,66.50607085227966,66.82274985313416,dot,"[0.06, 0.08, 0.08, 0.08, 0.1, 0.08, 0.06]","[[-0.23675386446936744, -0.019099737415117023], [-0.3793299299598963, 0.3840296974489508], [0.16444052853698826, 0.25964081185693966], [-0.17441972694422359, 0.2376971805458075], [0.025313303261310992, 0.0859287266400301], [-0.3760941870171968, 0.1722047307528389], [-0.012854506600276856, 0.3778399739802858]]",density,black,,,1301830,visual,1,[],"['1', '2', '3', '4']",1,2023.2.3,harveyvisual,2.1,[],8,0.75,
0,pause,0.4,None,None,None,0,185,185,185,,,,,,,,,,,,,1301830,visual,1,[],"['1', '2', '3', '4']",1,2023.2.3,harveyvisual,2.1,[],8,0.75,
7,dot,0.3,['dot'],['density'],black,0,186,186,186,,,67.50022578239441,67.20608401298523,67.52267694473267,dot,"[0.1, 0.08, 0.08, 0.06, 0.1, 0.06, 0.08]","[[-0.1635229753841098, 0.12186382262109141], [0.03437657187081179, 0.5178389267683822], [0.324184412335695, 0.17931743601205324], [0.08929018524031027, 0.11005745596178185], [-0.1318259817332877, 0.4026967659136047], [-0.053046683696667, -0.06058584598870606], [0.042745683665752716, 0.304616966822181]]",density,black,,,1301830,visual,1,[],"['1', '2', '3', '4']",1,2023.2.3,harveyvisual,2.1,[],8,0.75,
0,pause,0.4,None,None,None,0,187,187,187,,,,,,,,,,,,,1301830,visual,1,[],"['1', '2', '3', '4']",1,2023.2.3,harveyvisual,2.1,[],8,0.75,
7,dot,0.3,['dot'],['density'],black,0,188,188,188,,,68.20023584365845,67.9060628414154,68.22298693656921,dot,"[0.08, 0.1, 0.06, 0.06, 0.1, 0.1, 0.06]","[[-0.3423230189937584, -0.41219609722212536], [-0.1182323968952694, -0.35552357509158045], [-0.4111032443031386, -0.006313161275750597], [-0.5095560862941229, -0.2529410328503813], [-0.2588176969072235, -0.18091026219072012], [-0.0026253510642934245, -0.12197054074907589], [-0.16586784627322051, 0.0941069694468023]]",density,black,,,1301830,visual,1,[],"['1', '2', '3', '4']",1,2023.2.3,harveyvisual,2.1,[],8,0.75,
0,pause,0.4,None,None,None,0,189,189,189,,,,,,,,,,,,,1301830,visual,1,[],"['1', '2', '3', '4']",1,2023.2.3,harveyvisual,2.1,[],8,0.75,
7,dot,0.3,['dot'],['density'],black,0,190,190,190,,,68.90022397041321,68.60710883140564,68.92269587516785,dot,"[0.06, 0.08, 0.08, 0.1, 0.08, 0.1, 0.06]","[[0.020512593940644967, 0.06058225053891463], [-0.12457192929091994, 0.22210134043855223], [0.2267676360835929, 0.07227077176864677], [-0.19381219694833235, -0.14277017550647156], [0.096077147208419, -0.13886261858003718], [0.087393672000005, 0.26445259248386815], [-0.018663113410245565, 0.4344684582511623]]",density,black,,,1301830,visual,1,[],"['1', '2', '3', '4']",1,2023.2.3,harveyvisual,2.1,[],8,0.75,
0,pause,0.4,None,None,None,0,191,191,191,,,,,,,,,,,,,1301830,visual,1,[],"['1', '2', '3', '4']",1,2023.2.3,harveyvisual,2.1,[],8,0.75,
6,dot,0.3,['dot'],['density'],black,0,192,192,192,,,69.60023283958435,69.30601501464844,69.62266898155212,dot,"[0.1, 0.1, 0.1, 0.06, 0.08, 0.08]","[[0.0015484977009578463, -0.37153509484940705], [-0.24631791352898516, -0.16063896847060222], [-0.21037316856202723, -0.37491302730087106], [-0.14520134419833938, 0.05228402714841561], [-0.41979900021501537, -0.27073368115662844], [-0.020720382871846178, -0.14076137757070492]]",density,black,,,1301830,visual,1,[],"['1', '2', '3', '4']",1,2023.2.3,harveyvisual,2.1,[],8,0.75,
0,pause,0.4,None,None,None,0,193,193,193,,,,,,,,,,,,,1301830,visual,1,[],"['1', '2', '3', '4']",1,2023.2.3,harveyvisual,2.1,[],8,0.75,
6,dot,0.3,['dot'],['density'],black,0,194,194,194,,,70.3002119064331,70.00681686401367,70.32258701324463,dot,"[0.1, 0.06, 0.1, 0.08, 0.06, 0.08]","[[-0.06594826066790033, 0.1051940440944823], [0.15491437476435005, 0.24610541937573027], [-0.07004887042171212, 0.3755397070333221], [0.22920853754483062, 0.04629278748534093], [0.14611265926610215, 0.46549762069565603], [0.352938231914746, 0.33060025924169734]]",density,black,,,1301830,visual,1,[],"['1', '2', '3', '4']",1,2023.2.3,harveyvisual,2.1,[],8,0.75,
0,pause,0.4,None,None,None,0,195,195,195,,,,,,,,,,,,,1301830,visual,1,[],"['1', '2', '3', '4']",1,2023.2.3,harveyvisual,2.1,[],8,0.75,
6,dot,0.3,['dot'],['density'],black,0,196,196,196,,,71.00022387504578,70.70591878890991,71.02257490158081,dot,"[0.06, 0.08, 0.1, 0.1, 0.08, 0.06]","[[-0.2094991805307552, 0.08302354111181451], [0.09557258300728075, 0.3458622669714129], [0.22056408800171526, -0.017094369341425636], [0.026601936584830878, 0.1297564650757722], [-0.11681768564656844, 0.2726391152528644], [-0.03570146891163527, -0.09222923444939024]]",density,black,,,1301830,visual,1,[],"['1', '2', '3', '4']",1,2023.2.3,harveyvisual,2.1,[],8,0.75,
0,pause,0.4,None,None,None,0,197,197,197,,,,,,,,,,,,,1301830,visual,1,[],"['1', '2', '3', '4']",1,2023.2.3,harveyvisual,2.1,[],8,0.75,
6,dot,0.3,['dot'],['density'],black,0,198,198,198,,,71.70022797584534,71.40589594841003,71.72255492210388,dot,"[0.06, 0.06, 0.08, 0.1, 0.1, 0.06]","[[0.500827999951601, -0.23304028533624072], [0.20916386845998064, 0.08030245107060778], [0.27809793757338463, -0.1905950399710685], [0.08327260932553728, -0.13599284299194644], [0.16768982653485215, -0.38480252821003114], [0.4174962964646186, 0.01069632702004041]]",density,black,,,1301830,visual,1,[],"['1', '2', '3', '4']",1,2023.2.3,harveyvisual,2.1,[],8,0.75,
0,pause,0.4,None,None,None,0,199,199,199,,,,,,,,,,,,,1301830,visual,1,[],"['1', '2', '3', '4']",1,2023.2.3,harveyvisual,2.1,[],8,0.75,
6,dot,0.3,['dot'],['density'],black,0,200,200,200,,,72.40022087097168,72.10590291023254,72.42253684997559,dot,"[0.1, 0.1, 0.06, 0.1, 0.08, 0.06]","[[-0.36874454135919904, -0.07559312273534534], [-0.010504004432700158, -0.20559114413973084], [-0.17044584652251332, 0.17221059634863578], [-0.26251446752681207, -0.3074850979938877], [0.06633568674208327, -0.020893677029436595], [-0.1538914639536258, -0.02772778393149798]]",density,black,,,1301830,visual,1,[],"['1', '2', '3', '4']",1,2023.2.3,harveyvisual,2.1,[],8,0.75,
0,pause,0.4,None,None,None,0,201,201,201,,,,,,,,,,,,,1301830,visual,1,[],"['1', '2', '3', '4']",1,2023.2.3,harveyvisual,2.1,[],8,0.75,
6,dot,0.3,['dot'],['density'],black,0,202,202,202,,,73.10021781921387,72.80587100982666,73.12345290184021,dot,"[0.1, 0.08, 0.06, 0.06, 0.1, 0.08]","[[-0.362545063880459, -0.421860962952156], [-0.24010638466002518, -0.0327569241266412], [-0.22622339336134992, -0.23590116153186103], [-0.41823503972227205, -0.14060420183103206], [-0.028992295722001654, -0.1293578273409096], [-0.1459617666416116, -0.4591052827033254]]",density,black,,,1301830,visual,1,[],"['1', '2', '3', '4']",1,2023.2.3,harveyvisual,2.1,[],8,0.75,
0,pause,0.4,None,None,None,0,203,203,203,,,,,,,,,,,,,1301830,visual,1,[],"['1', '2', '3', '4']",1,2023.2.3,harveyvisual,2.1,[],8,0.75,
5,dot,0.3,['dot'],['density'],white,0,204,204,204,,,73.80023193359375,73.50586080551147,73.82250499725342,dot,"[0.08, 0.06, 0.08, 0.08, 0.08]","[[-0.15120343604734773, 0.13880483605515373], [-0.27543704003083597, 0.3074941448909677], [-0.47853302670601033, 0.30949922786165307], [-0.3682774975032249, -0.13900280599659498], [-0.34692227301900613, 0.0889564565184539]]",density,white,,,1301830,visual,1,[],"['1', '2', '3', '4']",1,2023.2.3,harveyvisual,2.1,[],8,0.75,
0,pause,0.4,None,None,None,0,205,205,205,,,,,,,,,,,1,73.48818802833557,1301830,visual,1,[],"['1', '2', '3', '4']",1,2023.2.3,harveyvisual,2.1,[],8,0.75,
5,dot,0.3,['dot'],['density'],black,0,206,206,206,,,74.50022292137146,74.20585179328918,74.52283787727356,dot,"[0.08, 0.1, 0.1, 0.08, 0.1]","[[0.34746533592570195, 0.16118282603596082], [0.14457128296481445, 0.28865621170929245], [0.4549189851861922, 0.34228556952890804], [0.008483415068308318, 0.44103246018778014], [0.27150044131742485, 0.4621652121832405]]",density,black,,,1301830,visual,1,[],"['1', '2', '3', '4']",1,2023.2.3,harveyvisual,2.1,[],8,0.75,
0,pause,0.4,None,None,None,0,207,207,207,,,,,,,,,,,,,1301830,visual,1,[],"['1', '2', '3', '4']",1,2023.2.3,harveyvisual,2.1,[],8,0.75,
5,dot,0.3,['dot'],['density'],white,0,208,208,208,,,75.20021986961365,74.90581178665161,75.2224760055542,dot,"[0.06, 0.06, 0.08, 0.06, 0.06]","[[0.45108699871130137, 0.12052648913612102], [0.3120839015871755, -0.055344110322042436], [0.5361186937318446, -0.08608482415671545], [0.24926945818158194, 0.15209517992691748], [0.3855135356736719, -0.25840400127360613]]",density,white,,,1301830,visual,1,[],"['1', '2', '3', '4']",1,2023.2.3,harveyvisual,2.1,[],8,0.75,
0,pause,0.4,None,None,None,0,209,209,209,,,,,,,,,,,,,1301830,visual,1,[],"['1', '2', '3', '4']",1,2023.2.3,harveyvisual,2.1,[],8,0.75,
5,dot,0.3,['dot'],['density'],black,0,210,210,210,,,75.90024185180664,75.60578179359436,75.92463684082031,dot,"[0.08, 0.08, 0.08, 0.06, 0.06]","[[0.07471778162596296, -0.10525453490666745], [0.30258431325283514, -0.18125951612401361], [-0.10797831538154114, 0.025200229490558432], [0.07898181201564736, 0.11749757771993925], [0.31731369449760916, 0.032388289652815004]]",density,black,1,75.42739200592041,1301830,visual,1,[],"['1', '2', '3', '4']",1,2023.2.3,harveyvisual,2.1,[],8,0.75,
0,pause,0.4,None,None,None,0,211,211,211,,,,,,,,,,,,,1301830,visual,1,[],"['1', '2', '3', '4']",1,2023.2.3,harveyvisual,2.1,[],8,0.75,
5,dot,0.3,['dot'],['density'],black,0,212,212,212,,,76.60021781921387,76.30582785606384,76.6224889755249,dot,"[0.06, 0.08, 0.06, 0.08, 0.1]","[[-0.47409275164437775, -0.17842554437930905], [-0.28800513042966097, -0.4059597382025641], [-0.20075697267214665, 0.008887320625593834], [-0.2708677629513771, -0.1868162154653106], [-0.0886924353013077, -0.2820475711339636]]",density,black,,,1301830,visual,1,[],"['1', '2', '3', '4']",1,2023.2.3,harveyvisual,2.1,[],8,0.75,
0,pause,0.4,None,None,None,0,213,213,213,,,,,,,,,,,,,1301830,visual,1,[],"['1', '2', '3', '4']",1,2023.2.3,harveyvisual,2.1,[],8,0.75,
5,dot,0.3,['dot'],['density'],black,0,214,214,214,,,77.30022478103638,77.00579690933228,77.3224709033966,dot,"[0.08, 0.1, 0.1, 0.08, 0.1]","[[-0.13667773294397823, -0.4810836359727921], [0.22435054442879343, -0.38211739689247126], [0.18745946747878278, -0.17039478388844306], [0.024239655080151325, -0.29759851870815907], [0.08919077751561523, -0.5300131723353856]]",density,black,,,1301830,visual,1,[],"['1', '2', '3', '4']",1,2023.2.3,harveyvisual,2.1,[],8,0.75,
0,pause,0.4,None,None,None,0,215,215,215,,,,,,,,,,,,,1301830,visual,1,[],"['1', '2', '3', '4']",1,2023.2.3,harveyvisual,2.1,[],8,0.75,
4,dot,0.3,['dot'],['density'],black,0,216,216,216,,,78.00021386146545,77.70577883720398,78.02242994308472,dot,"[0.1, 0.08, 0.1, 0.06]","[[0.107131415583101, 0.03171316484874249], [0.3330877778846877, 0.14211400081541528], [0.23058747141838212, -0.24340322486593785], [0.3173726134345681, -0.05921806988573682]]",density,black,,,1301830,visual,1,[],"['1', '2', '3', '4']",1,2023.2.3,harveyvisual,2.1,[],8,0.75,
0,pause,0.4,None,None,None,0,217,217,217,,,,,,,,,,,,,1301830,visual,1,[],"['1', '2', '3', '4']",1,2023.2.3,harveyvisual,2.1,[],8,0.75,
4,dot,0.3,['dot'],['density'],black,0,218,218,218,,,78.70021200180054,78.40570878982544,78.72325897216797,dot,"[0.1, 0.06, 0.08, 0.1]","[[-0.1807894278345534, -0.050693892368996955], [-0.03778933673514029, -0.29773510453537966], [0.0747201162679791, -0.1287424711559737], [-0.02241484737224569, 0.07404475448468936]]",density,black,,,1301830,visual,1,[],"['1', '2', '3', '4']",1,2023.2.3,harveyvisual,2.1,[],8,0.75,
0,pause,0.4,None,None,None,0,219,219,219,,,,,,,,,,,,,1301830,visual,1,[],"['1', '2', '3', '4']",1,2023.2.3,harveyvisual,2.1,[],8,0.75,
4,dot,0.3,['dot'],['density'],black,0,220,220,220,,,79.40021800994873,79.1072449684143,79.42239284515381,dot,"[0.1, 0.1, 0.08, 0.1]","[[0.28769160010247724, 0.4706884012140322], [0.03735362687931127, 0.4645781312677133], [0.33102019499247487, 0.1847810932959147], [0.1685132699603264, 0.30497059043407926]]",density,black,,,1301830,visual,1,[],"['1', '2', '3', '4']",1,2023.2.3,harveyvisual,2.1,[],8,0.75,
0,pause,0.4,None,None,None,0,221,221,221,,,,,,,,,,,,,1301830,visual,1,[],"['1', '2', '3', '4']",1,2023.2.3,harveyvisual,2.1,[],8,0.75,
4,dot,0.3,['dot'],['density'],black,0,222,222,222,,,80.10023283958435,79.80569887161255,80.12233185768127,dot,"[0.1, 0.06, 0.1, 0.1]","[[-0.22711054503220823, -0.5144049053218714], [-0.016307770745122817, -0.5558659767831347], [-0.26432457165568224, -0.2824025039497699], [-0.026303944553407815, -0.34464361634901186]]",density,black,,,1301830,visual,1,[],"['1', '2', '3', '4']",1,2023.2.3,harveyvisual,2.1,[],8,0.75,
0,pause,0.4,None,None,None,0,223,223,223,,,,,,,,,,,,,1301830,visual,1,[],"['1', '2', '3', '4']",1,2023.2.3,harveyvisual,2.1,[],8,0.75,
4,dot,0.3,['dot'],['density'],black,0,224,224,224,,,80.80021095275879,80.50565695762634,80.82232689857483,dot,"[0.08, 0.1, 0.1, 0.1]","[[0.0004228548582206217, 0.4437421379736539], [0.24572762857664815, 0.2260868474052859], [0.007756854070108054, 0.1846819218217072], [0.22099789303306372, 0.4278063517398125]]",density,black,,,1301830,visual,1,[],"['1', '2', '3', '4']",1,2023.2.3,harveyvisual,2.1,[],8,0.75,
0,pause,0.4,None,None,None,0,225,225,225,,,,,,,,,,,,,1301830,visual,1,[],"['1', '2', '3', '4']",1,2023.2.3,harveyvisual,2.1,[],8,0.75,
4,dot,0.3,['dot'],['density'],black,0,226,226,226,,,81.5002088546753,81.2067518234253,81.52230787277222,dot,"[0.06, 0.06, 0.08, 0.1]","[[0.3225849294362846, -0.13157286681700714], [0.2615083713376798, -0.38790318245483907], [0.48399895238698887, -0.2981397300552969], [0.514252162939949, -0.043630752066028525]]",density,black,,,1301830,visual,1,[],"['1', '2', '3', '4']",1,2023.2.3,harveyvisual,2.1,[],8,0.75,
0,pause,0.4,None,None,None,0,227,227,227,,,,,,,,,,,,,1301830,visual,1,[],"['1', '2', '3', '4']",1,2023.2.3,harveyvisual,2.1,[],8,0.75,
3,dot,0.3,['dot'],['density'],white,0,228,228,228,,,82.20023679733276,81.90645790100098,82.22230982780457,dot,"[0.1, 0.08, 0.1]","[[0.026071599024748527, -0.32860913997604846], [-0.11834724389398482, -0.18584523127985947], [0.10068982493997472, -0.12518245043845455]]",density,white,,,1301830,visual,1,[],"['1', '2', '3', '4']",1,2023.2.3,harveyvisual,2.1,[],8,0.75,
0,pause,0.4,None,None,None,0,229,229,229,,,,,,,,,,,1,82.0262188911438,1301830,visual,1,[],"['1', '2', '3', '4']",1,2023.2.3,harveyvisual,2.1,[],8,0.75,
3,dot,0.3,['dot'],['density'],black,0,230,230,230,,,82.90022683143616,82.60558795928955,82.92224192619324,dot,"[0.1, 0.06, 0.06]","[[-0.5649268285189266, -0.02945458741690218], [-0.36332336008090005, 0.05160617148840915], [-0.5004673786076542, 0.20230308468415367]]",density,black,,,1301830,visual,1,[],"['1', '2', '3', '4']",1,2023.2.3,harveyvisual,2.1,[],8,0.75,
0,pause,0.4,None,None,None,0,231,231,231,,,,,,,,,,,,,1301830,visual,1,[],"['1', '2', '3', '4']",1,2023.2.3,harveyvisual,2.1,[],8,0.75,
3,dot,0.3,['dot'],['density'],black,0,232,232,232,,,83.60021901130676,83.30558180809021,83.6222198009491,dot,"[0.06, 0.08, 0.1]","[[0.348550694073714, -0.26372109460002424], [0.5073713069625243, -0.14206826334288786], [0.3419709386041379, 0.005891602819957491]]",density,black,,,1301830,visual,1,[],"['1', '2', '3', '4']",1,2023.2.3,harveyvisual,2.1,[],8,0.75,
0,pause,0.4,None,None,None,0,233,233,233,,,,,,,,,,,,,1301830,visual,1,[],"['1', '2', '3', '4']",1,2023.2.3,harveyvisual,2.1,[],8,0.75,
3,dot,0.3,['dot'],['density'],black,0,234,234,234,,,84.30023193359375,84.00555682182312,84.32220888137817,dot,"[0.1, 0.06, 0.08]","[[0.16698284004709638, 0.14340522813657522], [0.014382160343152013, -0.0120418799203457], [0.17626274868444566, -0.13037823744598942]]",density,black,,,1301830,visual,1,[],"['1', '2', '3', '4']",1,2023.2.3,harveyvisual,2.1,[],8,0.75,
0,pause,0.4,None,None,None,0,235,235,235,,,,,,,,,,,,,1301830,visual,1,[],"['1', '2', '3', '4']",1,2023.2.3,harveyvisual,2.1,[],8,0.75,
3,dot,0.3,['dot'],['density'],black,0,236,236,236,,,85.00021696090698,84.70553779602051,85.02220296859741,dot,"[0.06, 0.1, 0.06]","[[0.13574725429899362, -0.5423283227425341], [-0.036793286563257144, -0.3768814925557267], [0.16175487704753985, -0.3348017255345844]]",density,black,,,1301830,visual,1,[],"['1', '2', '3', '4']",1,2023.2.3,harveyvisual,2.1,[],8,0.75,
0,pause,0.4,None,None,None,0,237,237,237,,,,,,,,,,,,,1301830,visual,1,[],"['1', '2', '3', '4']",1,2023.2.3,harveyvisual,2.1,[],8,0.75,
3,dot,0.3,['dot'],['density'],black,0,238,238,238,,,85.7002158164978,85.40551996231079,85.72219395637512,dot,"[0.1, 0.1, 0.1]","[[-0.015545778166788895, 0.3668732894324268], [-0.08169376046335623, 0.5804400028356697], [-0.24536523618143577, 0.46292967544173164]]",density,black,,,1301830,visual,1,[],"['1', '2', '3', '4']",1,2023.2.3,harveyvisual,2.1,[],8,0.75,
0,pause,0.4,None,None,None,0,239,239,239,,,,,,,,,,,,,1301830,visual,1,[],"['1', '2', '3', '4']",1,2023.2.3,harveyvisual,2.1,[],8,0.75,
2,dot,0.3,['dot'],['density'],black,0,240,240,240,,,86.40023994445801,86.10549187660217,86.42225193977356,dot,"[0.1, 0.06]","[[0.038501021189721846, -0.3380528513692932], [0.2360793696083702, -0.306423538752856]]",density,black,,,1301830,visual,1,[],"['1', '2', '3', '4']",1,2023.2.3,harveyvisual,2.1,[],8,0.75,
0,pause,0.4,None,None,None,0,241,241,241,,,,,,,,,,,,,1301830,visual,1,[],"['1', '2', '3', '4']",1,2023.2.3,harveyvisual,2.1,[],8,0.75,
2,dot,0.3,['dot'],['density'],black,0,242,242,242,,,87.10021996498108,86.80550193786621,87.12215089797974,dot,"[0.1, 0.08]","[[-0.16440981108753766, 0.5378091218652469], [-0.08422838651173449, 0.35445914222875186]]",density,black,,,1301830,visual,1,[],"['1', '2', '3', '4']",1,2023.2.3,harveyvisual,2.1,[],8,0.75,
0,pause,0.4,None,None,None,0,243,243,243,,,,,,,,,,,,,1301830,visual,1,[],"['1', '2', '3', '4']",1,2023.2.3,harveyvisual,2.1,[],8,0.75,
2,dot,0.3,['dot'],['density'],black,0,244,244,244,,,87.80022478103638,87.50548100471497,87.82217788696289,dot,"[0.08, 0.08]","[[0.21918454152848227, -0.10588244801595839], [0.1860161616926718, 0.09155890801726524]]",density,black,,,1301830,visual,1,[],"['1', '2', '3', '4']",1,2023.2.3,harveyvisual,2.1,[],8,0.75,
0,pause,0.4,None,None,None,0,245,245,245,,,,,,,,,,,,,1301830,visual,1,[],"['1', '2', '3', '4']",1,2023.2.3,harveyvisual,2.1,[],8,0.75,
2,dot,0.3,['dot'],['density'],black,0,246,246,246,,,88.5002269744873,88.20546889305115,88.52210783958435,dot,"[0.1, 0.08]","[[-0.20887660672828282, 0.3399455197969581], [-0.34272369919491674, 0.19089688818271272]]",density,black,,,1301830,visual,1,[],"['1', '2', '3', '4']",1,2023.2.3,harveyvisual,2.1,[],8,0.75,
0,pause,0.4,None,None,None,0,247,247,247,,,,,,,,,,,,,1301830,visual,1,[],"['1', '2', '3', '4']",1,2023.2.3,harveyvisual,2.1,[],8,0.75,
2,dot,0.3,['dot'],['density'],black,0,248,248,248,,,89.2002158164978,88.90543794631958,89.22208786010742,dot,"[0.06, 0.08]","[[-0.19266755722762574, -0.036106715323925336], [-0.096675332858716, 0.13967695308521302]]",density,black,,,1301830,visual,1,[],"['1', '2', '3', '4']",1,2023.2.3,harveyvisual,2.1,[],8,0.75,
0,pause,0.4,None,None,None,0,249,249,249,,,,,,,,,,,,,1301830,visual,1,[],"['1', '2', '3', '4']",1,2023.2.3,harveyvisual,2.1,[],8,0.75,
2,dot,0.3,['dot'],['density'],black,0,250,250,250,,,89.90024089813232,89.60542178153992,89.9220519065857,dot,"[0.1, 0.1]","[[0.002249876020969301, 0.20442088447143333], [-0.056293345030126195, 0.39599742374220376]]",density,black,,,1301830,visual,1,[],"['1', '2', '3', '4']",1,2023.2.3,harveyvisual,2.1,[],8,0.75,
0,pause,0.4,None,None,None,0,251,251,251,,,,,,,,,,,,,1301830,visual,1,[],"['1', '2', '3', '4']",1,2023.2.3,harveyvisual,2.1,[],8,0.75,
1,dot,0.3,['dot'],['density'],black,0,252,252,252,,,90.60022497177124,90.30536985397339,90.62206792831421,dot,[0.1],"[0.5668064281626585, -0.020013277593342628]",density,black,,,1301830,visual,1,[],"['1', '2', '3', '4']",1,2023.2.3,harveyvisual,2.1,[],8,0.75,
0,pause,0.4,None,None,None,0,253,253,253,,,,,,,,,,,,,1301830,visual,1,[],"['1', '2', '3', '4']",1,2023.2.3,harveyvisual,2.1,[],8,0.75,
1,dot,0.3,['dot'],['density'],white,0,254,254,254,,,91.3002278804779,91.00535988807678,91.32202982902527,dot,[0.08],"[-0.3631366314731191, 0.1590646049745197]",density,white,,,1301830,visual,1,[],"['1', '2', '3', '4']",1,2023.2.3,harveyvisual,2.1,[],8,0.75,
0,pause,0.4,None,None,None,0,255,255,255,,,,,,,,,,,1,91.1463520526886,1301830,visual,1,[],"['1', '2', '3', '4']",1,2023.2.3,harveyvisual,2.1,[],8,0.75,
1,dot,0.3,['dot'],['density'],black,0,256,256,256,,,92.00023078918457,91.70540690422058,92.02205491065979,dot,[0.1],"[-0.43105706563061386, -0.18359692062194616]",density,black,,,1301830,visual,1,[],"['1', '2', '3', '4']",1,2023.2.3,harveyvisual,2.1,[],8,0.75,
0,pause,0.4,None,None,None,0,257,257,257,,,,,,,,,,,,,1301830,visual,1,[],"['1', '2', '3', '4']",1,2023.2.3,harveyvisual,2.1,[],8,0.75,
1,dot,0.3,['dot'],['density'],black,0,258,258,258,,,92.70023083686829,92.40574789047241,92.7219808101654,dot,[0.06],"[0.0956549371127339, 0.09579573331985794]",density,black,,,1301830,visual,1,[],"['1', '2', '3', '4']",1,2023.2.3,harveyvisual,2.1,[],8,0.75,
0,pause,0.4,None,None,None,0,259,259,259,,,,,,,,,,,,,1301830,visual,1,[],"['1', '2', '3', '4']",1,2023.2.3,harveyvisual,2.1,[],8,0.75,
1,dot,0.3,['dot'],['density'],white,0,260,260,260,,,93.40022993087769,93.10536885261536,93.42309498786926,dot,[0.1],"[0.15956500649880873, 0.2640393008039057]",density,white,,,1301830,visual,1,[],"['1', '2', '3', '4']",1,2023.2.3,harveyvisual,2.1,[],8,0.75,
0,pause,0.4,None,None,None,0,261,261,261,,,,,,,,,,,1,93.15961790084839,1301830,visual,1,[],"['1', '2', '3', '4']",1,2023.2.3,harveyvisual,2.1,[],8,0.75,
1,dot,0.3,['dot'],['density'],black,0,262,262,262,,,94.1002128124237,93.80528783798218,94.1219699382782,dot,[0.06],"[-0.0300711363278092, -0.16168860719337894]",density,black,,,1301830,visual,1,[],"['1', '2', '3', '4']",1,2023.2.3,harveyvisual,2.1,[],8,0.75,
0,pause,0.4,None,None,None,0,263,263,263,,,,,,,,,,,,,1301830,visual,1,[],"['1', '2', '3', '4']",1,2023.2.3,harveyvisual,2.1,[],8,0.75,
20,dot,0.3,['dot'],['density'],black,0,264,264,264,,,94.80022692680359,94.52288699150085,94.82199001312256,dot,"[0.08, 0.08, 0.08, 0.08, 0.08, 0.1, 0.08, 0.08, 0.06, 0.06, 0.1, 0.08, 0.06, 0.08, 0.08, 0.1, 0.08, 0.08, 0.08, 0.08]","[[-0.4290359449313712, -0.19258887907779065], [-0.09212637272875057, -0.1014166299004089], [0.11305694547307443, 0.42370901495731894], [0.09543523235646356, 0.019177727288082647], [-0.4060757428271493, 0.24188257075721004], [0.4921027517183597, -0.2080835368167637], [0.00939206890132449, -0.34888423463590734], [-0.13711297238068665, 0.26564601644127595], [0.5044205790477706, 0.029572193657989743], [-0.21386473994337302, -0.2507566079708421], [0.38210532232099925, 0.4281042803415638], [-0.28253364898234495, 0.5308601443376489], [0.4207551641808719, -0.43214582980870686], [-0.5163762910144312, -0.0211946162144645], [0.04077871695241875, -0.598998074282976], [-0.2906873273792402, -0.0555762677559985], [0.21393865313696603, -0.4088412407610276], [0.3363029465193955, 0.18219192748764768], [-0.38347110021648884, -0.3962189387688403], [0.5389699821957302, 0.2658473052637279]]",density,black,,,1301830,visual,1,[],"['1', '2', '3', '4']",1,2023.2.3,harveyvisual,2.1,[],8,0.75,
0,pause,0.4,None,None,None,0,265,265,265,,,,,,,,,,,,,1301830,visual,1,[],"['1', '2', '3', '4']",1,2023.2.3,harveyvisual,2.1,[],8,0.75,
20,dot,0.3,['dot'],['density'],black,0,266,266,266,,,95.50021290779114,95.22194981575012,95.52196788787842,dot,"[0.08, 0.06, 0.1, 0.08, 0.1, 0.06, 0.08, 0.06, 0.08, 0.1, 0.1, 0.06, 0.08, 0.06, 0.08, 0.08, 0.08, 0.1, 0.06, 0.1]","[[-0.25458682032489516, -0.0823968407349806], [0.38491273283233274, -0.17052455763414576], [-0.37412647870189564, -0.39099665741262923], [-0.21303572447340918, 0.23133484948794836], [-0.5420367154676621, -0.12539796171459916], [0.04299194216220714, -0.003532474460116064], [0.249941276946412, 0.1741381062489491], [0.25016418275356445, 0.4183900854889814], [0.1823020104571188, -0.3674243619160348], [0.3884611667234278, 0.02939076937442414], [-0.3676777430254028, 0.40093190168230364], [-0.06378430572199734, -0.566983922315402], [-0.4347122004616804, 0.18214614354592307], [0.04570434303865645, 0.3491758928159143], [-0.08849875627822323, -0.34447077370158646], [-0.21889168900677758, 0.5238415674634074], [0.5745374536410176, -0.01350008180828599], [0.44337860978975885, 0.37477640336425394], [0.10432708840606397, 0.5624961625369334], [0.5676353487082356, 0.1951525147779786]]",density,black,,,1301830,visual,1,[],"['1', '2', '3', '4']",1,2023.2.3,harveyvisual,2.1,[],8,0.75,
