num,mod,duration,shape,ll_cond,colors,.thisRepN,.thisTrialN,.thisN,.thisIndex,thisRow.t,notes,raw_global_time,t_start,t_stop,shapes,size,pos,cond,color,button,RT,participant,session,starting_run,left button (match/odd),right button (non-match/even),samples_per_block,psychopy version,expName,offset,audio,number_runs,radius,
1,dot,0.3,['dot'],['density'],black,0,0,0,0,,,2.4002161026000977,2.105802059173584,2.40574312210083,dot,[0.1],"[0.2443568370277045, -0.23874091154858243]",density,black,,,1301830,visual,1,[],"['1', '2', '3', '4']",1,2023.2.3,harveyvisual,2.1,[],8,0.75,
0,pause,0.4,None,None,None,0,1,1,1,,,,,,,,,,,,,1301830,visual,1,[],"['1', '2', '3', '4']",1,2023.2.3,harveyvisual,2.1,[],8,0.75,
1,dot,0.3,['dot'],['density'],black,0,2,2,2,,,3.10021710395813,2.8057589530944824,3.1062920093536377,dot,[0.08],"[0.39967490259390637, -0.2576437183111264]",density,black,,,1301830,visual,1,[],"['1', '2', '3', '4']",1,2023.2.3,harveyvisual,2.1,[],8,0.75,
0,pause,0.4,None,None,None,0,3,3,3,,,,,,,,,,,,,1301830,visual,1,[],"['1', '2', '3', '4']",1,2023.2.3,harveyvisual,2.1,[],8,0.75,
1,dot,0.3,['dot'],['density'],black,0,4,4,4,,,3.8001909255981445,3.5063509941101074,3.8062939643859863,dot,[0.06],"[0.4230572171255965, 0.15564154118015242]",density,black,,,1301830,visual,1,[],"['1', '2', '3', '4']",1,2023.2.3,harveyvisual,2.1,[],8,0.75,
0,pause,0.4,None,None,None,0,5,5,5,,,,,,,,,,,,,1301830,visual,1,[],"['1', '2', '3', '4']",1,2023.2.3,harveyvisual,2.1,[],8,0.75,
1,dot,0.3,['dot'],['density'],black,0,6,6,6,,,4.50020694732666,4.206310987472534,4.506258010864258,dot,[0.06],"[-0.31757534052014, 0.30709612076893067]",density,black,,,1301830,visual,1,[],"['1', '2', '3', '4']",1,2023.2.3,harveyvisual,2.1,[],8,0.75,
0,pause,0.4,None,None,None,0,7,7,7,,,,,,,,,,,,,1301830,visual,1,[],"['1', '2', '3', '4']",1,2023.2.3,harveyvisual,2.1,[],8,0.75,
1,dot,0.3,['dot'],['density'],white,0,8,8,8,,,5.200202941894531,4.90627908706665,5.206252098083496,dot,[0.1],"[-0.43400380483721984, 0.10531265887229962]",density,white,,,1301830,visual,1,[],"['1', '2', '3', '4']",1,2023.2.3,harveyvisual,2.1,[],8,0.75,
0,pause,0.4,None,None,None,0,9,9,9,,,,,,,,,,,1,5.367891073226929,1301830,visual,1,[],"['1', '2', '3', '4']",1,2023.2.3,harveyvisual,2.1,[],8,0.75,
1,dot,0.3,['dot'],['density'],white,0,10,10,10,,,5.900195121765137,5.608500003814697,5.908505916595459,dot,[0.08],"[0.31457923939875737, -0.4122609730770665]",density,white,,,1301830,visual,1,[],"['1', '2', '3', '4']",1,2023.2.3,harveyvisual,2.1,[],8,0.75,
0,pause,0.4,None,None,None,0,11,11,11,,,,,,,,,,,1,5.996992111206055,1301830,visual,1,[],"['1', '2', '3', '4']",1,2023.2.3,harveyvisual,2.1,[],8,0.75,
2,dot,0.3,['dot'],['density'],black,0,12,12,12,,,6.600207090377808,6.30847692489624,6.608499050140381,dot,"[0.08, 0.1]","[[-0.09730612249650272, 0.4989075015380273], [-0.22752244688881013, 0.34485221713342457]]",density,black,,,1301830,visual,1,[],"['1', '2', '3', '4']",1,2023.2.3,harveyvisual,2.1,[],8,0.75,
0,pause,0.4,None,None,None,0,13,13,13,,,,,,,,,,,,,1301830,visual,1,[],"['1', '2', '3', '4']",1,2023.2.3,harveyvisual,2.1,[],8,0.75,
2,dot,0.3,['dot'],['density'],black,0,14,14,14,,,7.3002049922943115,7.008461952209473,7.308465957641602,dot,"[0.06, 0.1]","[[0.09481659993656301, 0.43631713998557026], [0.0662189159667295, 0.23745101446818795]]",density,black,,,1301830,visual,1,[],"['1', '2', '3', '4']",1,2023.2.3,harveyvisual,2.1,[],8,0.75,
0,pause,0.4,None,None,None,0,15,15,15,,,,,,,,,,,,,1301830,visual,1,[],"['1', '2', '3', '4']",1,2023.2.3,harveyvisual,2.1,[],8,0.75,
2,dot,0.3,['dot'],['density'],black,0,16,16,16,,,8.00022006034851,7.7084619998931885,8.008538961410522,dot,"[0.08, 0.1]","[[0.29932439847351855, -0.2783039550742582], [0.14276117392638485, -0.15345139110726028]]",density,black,,,1301830,visual,1,[],"['1', '2', '3', '4']",1,2023.2.3,harveyvisual,2.1,[],8,0.75,
0,pause,0.4,None,None,None,0,17,17,17,,,,,,,,,,,,,1301830,visual,1,[],"['1', '2', '3', '4']",1,2023.2.3,harveyvisual,2.1,[],8,0.75,
2,dot,0.3,['dot'],['density'],black,0,18,18,18,,,8.700200080871582,8.408545017242432,8.708554029464722,dot,"[0.06, 0.1]","[[0.17083311991776792, -0.05558111512160733], [0.1461049568064877, -0.25438559320493304]]",density,black,,,1301830,visual,1,[],"['1', '2', '3', '4']",1,2023.2.3,harveyvisual,2.1,[],8,0.75,
0,pause,0.4,None,None,None,0,19,19,19,,,,,,,,,,,,,1301830,visual,1,[],"['1', '2', '3', '4']",1,2023.2.3,harveyvisual,2.1,[],8,0.75,
2,dot,0.3,['dot'],['density'],black,0,20,20,20,,,9.400196075439453,9.108434915542603,9.408550024032593,dot,"[0.08, 0.1]","[[-0.22897676209827808, 0.468650264003531], [-0.0598036877009514, 0.5760211786176329]]",density,black,,,1301830,visual,1,[],"['1', '2', '3', '4']",1,2023.2.3,harveyvisual,2.1,[],8,0.75,
0,pause,0.4,None,None,None,0,21,21,21,,,,,,,,,,,,,1301830,visual,1,[],"['1', '2', '3', '4']",1,2023.2.3,harveyvisual,2.1,[],8,0.75,
2,dot,0.3,['dot'],['density'],black,0,22,22,22,,,10.100204944610596,9.808610916137695,10.10859203338623,dot,"[0.06, 0.1]","[[0.1851205616289071, -0.3624876981064337], [0.3405923022038234, -0.23608025195482504]]",density,black,,,1301830,visual,1,[],"['1', '2', '3', '4']",1,2023.2.3,harveyvisual,2.1,[],8,0.75,
0,pause,0.4,None,None,None,0,23,23,23,,,,,,,,,,,,,1301830,visual,1,[],"['1', '2', '3', '4']",1,2023.2.3,harveyvisual,2.1,[],8,0.75,
3,dot,0.3,['dot'],['density'],black,0,24,24,24,,,10.800200939178467,10.50857400894165,10.80859112739563,dot,"[0.06, 0.1, 0.1]","[[-0.1827482077423914, 0.13189758396693702], [0.006935645283384683, 0.04732296079382947], [-0.049709858873230685, 0.28599666368451326]]",density,black,,,1301830,visual,1,[],"['1', '2', '3', '4']",1,2023.2.3,harveyvisual,2.1,[],8,0.75,
0,pause,0.4,None,None,None,0,25,25,25,,,,,,,,,,,,,1301830,visual,1,[],"['1', '2', '3', '4']",1,2023.2.3,harveyvisual,2.1,[],8,0.75,
3,dot,0.3,['dot'],['density'],black,0,26,26,26,,,11.500196933746338,11.2085599899292,11.508501052856445,dot,"[0.06, 0.1, 0.08]","[[-0.36641147837046456, 0.28339849123565264], [-0.19108570342652328, 0.4628134959899303], [-0.16564092668537764, 0.24926372681875647]]",density,black,,,1301830,visual,1,[],"['1', '2', '3', '4']",1,2023.2.3,harveyvisual,2.1,[],8,0.75,
0,pause,0.4,None,None,None,0,27,27,27,,,,,,,,,,,,,1301830,visual,1,[],"['1', '2', '3', '4']",1,2023.2.3,harveyvisual,2.1,[],8,0.75,
3,dot,0.3,['dot'],['density'],black,0,28,28,28,,,12.200215101242065,11.908477067947388,12.208476066589355,dot,"[0.06, 0.06, 0.06]","[[-0.32624451712468355, -0.43854848545497693], [-0.39409142490376414, -0.22516425170789148], [-0.152352104904091, -0.33204091051628687]]",density,black,,,1301830,visual,1,[],"['1', '2', '3', '4']",1,2023.2.3,harveyvisual,2.1,[],8,0.75,
0,pause,0.4,None,None,None,0,29,29,29,,,,,,,,,,,,,1301830,visual,1,[],"['1', '2', '3', '4']",1,2023.2.3,harveyvisual,2.1,[],8,0.75,
3,dot,0.3,['dot'],['density'],black,0,30,30,30,,,12.900217056274414,12.608302116394043,12.908442974090576,dot,"[0.08, 0.06, 0.1]","[[0.026071599024748527, -0.32860913997604846], [-0.11834724389398482, -0.18584523127985947], [0.10068982493997472, -0.12518245043845455]]",density,black,,,1301830,visual,1,[],"['1', '2', '3', '4']",1,2023.2.3,harveyvisual,2.1,[],8,0.75,
0,pause,0.4,None,None,None,0,31,31,31,,,,,,,,,,,,,1301830,visual,1,[],"['1', '2', '3', '4']",1,2023.2.3,harveyvisual,2.1,[],8,0.75,
3,dot,0.3,['dot'],['density'],black,0,32,32,32,,,13.600202083587646,13.308298110961914,13.608451128005981,dot,"[0.1, 0.08, 0.08]","[[-0.32034981165049564, 0.18083778238314796], [-0.3344619052850136, -0.04022521570367012], [-0.13485517643248812, 0.10330846540140716]]",density,black,,,1301830,visual,1,[],"['1', '2', '3', '4']",1,2023.2.3,harveyvisual,2.1,[],8,0.75,
0,pause,0.4,None,None,None,0,33,33,33,,,,,,,,,,,,,1301830,visual,1,[],"['1', '2', '3', '4']",1,2023.2.3,harveyvisual,2.1,[],8,0.75,
3,dot,0.3,['dot'],['density'],black,0,34,34,34,,,14.300198078155518,14.008244037628174,14.308233976364136,dot,"[0.1, 0.08, 0.06]","[[-0.15188894406744968, -0.195193050272512], [6.772800145782267e-05, -0.040844811103836635], [-0.2045693439875358, 0.0038115475482788236]]",density,black,,,1301830,visual,1,[],"['1', '2', '3', '4']",1,2023.2.3,harveyvisual,2.1,[],8,0.75,
0,pause,0.4,None,None,None,0,35,35,35,,,,,,,,,,,,,1301830,visual,1,[],"['1', '2', '3', '4']",1,2023.2.3,harveyvisual,2.1,[],8,0.75,
4,dot,0.3,['dot'],['density'],black,0,36,36,36,,,15.000216007232666,14.708225965499878,15.008249998092651,dot,"[0.06, 0.08, 0.1, 0.08]","[[-0.46485289602757673, 0.3603628353310837], [-0.30733625211232357, 0.21626236973196436], [-0.38991578213366157, 0.024479253410336757], [-0.570234662048439, 0.14093512067028166]]",density,black,,,1301830,visual,1,[],"['1', '2', '3', '4']",1,2023.2.3,harveyvisual,2.1,[],8,0.75,
0,pause,0.4,None,None,None,0,37,37,37,,,,,,,,,,,,,1301830,visual,1,[],"['1', '2', '3', '4']",1,2023.2.3,harveyvisual,2.1,[],8,0.75,
4,dot,0.3,['dot'],['density'],black,0,38,38,38,,,15.700225114822388,15.408257961273193,15.708226919174194,dot,"[0.08, 0.06, 0.06, 0.08]","[[0.3510671072586959, 0.39105757673094776], [0.13754249634966464, 0.24690230999823115], [0.2791454519284172, 0.028997379515453933], [0.42442503262497266, 0.18132357243737673]]",density,black,,,1301830,visual,1,[],"['1', '2', '3', '4']",1,2023.2.3,harveyvisual,2.1,[],8,0.75,
0,pause,0.4,None,None,None,0,39,39,39,,,,,,,,,,,,,1301830,visual,1,[],"['1', '2', '3', '4']",1,2023.2.3,harveyvisual,2.1,[],8,0.75,
4,dot,0.3,['dot'],['density'],black,0,40,40,40,,,16.400207996368408,16.108247995376587,16.408306121826172,dot,"[0.08, 0.08, 0.1, 0.1]","[[-0.4918595852306691, 0.19162898845839058], [-0.30188041745692074, 0.10218906117132437], [-0.3018224646415858, -0.14357118929282034], [-0.4853871342809682, -0.061736688026617866]]",density,black,,,1301830,visual,1,[],"['1', '2', '3', '4']",1,2023.2.3,harveyvisual,2.1,[],8,0.75,
0,pause,0.4,None,None,None,0,41,41,41,,,,,,,,,,,,,1301830,visual,1,[],"['1', '2', '3', '4']",1,2023.2.3,harveyvisual,2.1,[],8,0.75,
4,dot,0.3,['dot'],['density'],black,0,42,42,42,,,17.100193977355957,16.808310985565186,17.10820698738098,dot,"[0.08, 0.1, 0.1, 0.08]","[[0.5195678262777355, 0.06634869171649047], [0.11508779247300271, 0.04459464887784077], [0.27862218446352316, 0.18290230777407274], [0.28701832247091064, -0.08209332131291468]]",density,black,,,1301830,visual,1,[],"['1', '2', '3', '4']",1,2023.2.3,harveyvisual,2.1,[],8,0.75,
0,pause,0.4,None,None,None,0,43,43,43,,,,,,,,,,,,,1301830,visual,1,[],"['1', '2', '3', '4']",1,2023.2.3,harveyvisual,2.1,[],8,0.75,
4,dot,0.3,['dot'],['density'],black,0,44,44,44,,,17.800220012664795,17.508266925811768,17.80813503265381,dot,"[0.08, 0.08, 0.1, 0.06]","[[0.010836700166572746, 0.3385055392368038], [-0.21755291078517647, 0.23172276430217797], [0.04881011250022837, 0.13413393103699342], [-0.16894730197854985, 0.4434327172909165]]",density,black,,,1301830,visual,1,[],"['1', '2', '3', '4']",1,2023.2.3,harveyvisual,2.1,[],8,0.75,
0,pause,0.4,None,None,None,0,45,45,45,,,,,,,,,,,,,1301830,visual,1,[],"['1', '2', '3', '4']",1,2023.2.3,harveyvisual,2.1,[],8,0.75,
4,dot,0.3,['dot'],['density'],black,0,46,46,46,,,18.500221967697144,18.208142042160034,18.508125066757202,dot,"[0.08, 0.06, 0.06, 0.06]","[[-0.5372831058023291, 0.07679305146548565], [-0.47746952625478134, -0.11455356156484316], [-0.2888199447118168, 0.02804534169422597], [-0.3317661241759115, -0.2533775510137967]]",density,black,,,1301830,visual,1,[],"['1', '2', '3', '4']",1,2023.2.3,harveyvisual,2.1,[],8,0.75,
0,pause,0.4,None,None,None,0,47,47,47,,,,,,,,,,,,,1301830,visual,1,[],"['1', '2', '3', '4']",1,2023.2.3,harveyvisual,2.1,[],8,0.75,
5,dot,0.3,['dot'],['density'],black,0,48,48,48,,,19.200204133987427,18.908122062683105,19.20811414718628,dot,"[0.08, 0.1, 0.1, 0.08, 0.06]","[[-0.18510638544872327, 0.41559840932892733], [-0.057175862535637494, 0.18304904272057057], [0.24003340414173915, 0.43371676657957026], [0.006490958465160464, 0.4770521622163581], [0.13658455045585424, 0.2476502540597336]]",density,black,,,1301830,visual,1,[],"['1', '2', '3', '4']",1,2023.2.3,harveyvisual,2.1,[],8,0.75,
0,pause,0.4,None,None,None,0,49,49,49,,,,,,,,,,,,,1301830,visual,1,[],"['1', '2', '3', '4']",1,2023.2.3,harveyvisual,2.1,[],8,0.75,
5,dot,0.3,['dot'],['density'],black,0,50,50,50,,,19.900203943252563,19.608086109161377,19.908098936080933,dot,"[0.1, 0.06, 0.1, 0.1, 0.08]","[[0.10176071415026891, -0.0029310292721688898], [0.32748853803000494, -0.2831003617774451], [0.10999898603900501, -0.23076615641811304], [0.2383494361888625, 0.16403485824849598], [0.3558293804179042, -0.08171974316418079]]",density,black,,,1301830,visual,1,[],"['1', '2', '3', '4']",1,2023.2.3,harveyvisual,2.1,[],8,0.75,
0,pause,0.4,None,None,None,0,51,51,51,,,,,,,,,,,,,1301830,visual,1,[],"['1', '2', '3', '4']",1,2023.2.3,harveyvisual,2.1,[],8,0.75,
5,dot,0.3,['dot'],['density'],black,0,52,52,52,,,20.60020399093628,20.30810809135437,20.608081102371216,dot,"[0.08, 0.06, 0.08, 0.08, 0.06]","[[-0.4702494158317004, 0.19352793081356498], [-0.36864189631283095, -0.2113573127283173], [-0.3573601989406874, -0.007363185939446715], [-0.15559938224235453, -0.02548680069503583], [-0.25069196230576396, 0.1747846118010945]]",density,black,,,1301830,visual,1,[],"['1', '2', '3', '4']",1,2023.2.3,harveyvisual,2.1,[],8,0.75,
0,pause,0.4,None,None,None,0,53,53,53,,,,,,,,,,,,,1301830,visual,1,[],"['1', '2', '3', '4']",1,2023.2.3,harveyvisual,2.1,[],8,0.75,
5,dot,0.3,['dot'],['density'],black,0,54,54,54,,,21.30020809173584,21.00806498527527,21.308053970336914,dot,"[0.1, 0.1, 0.08, 0.06, 0.08]","[[-0.15120343604734773, 0.13880483605515373], [-0.27543704003083597, 0.3074941448909677], [-0.47853302670601033, 0.30949922786165307], [-0.3682774975032249, -0.13900280599659498], [-0.34692227301900613, 0.0889564565184539]]",density,black,,,1301830,visual,1,[],"['1', '2', '3', '4']",1,2023.2.3,harveyvisual,2.1,[],8,0.75,
0,pause,0.4,None,None,None,0,55,55,55,,,,,,,,,,,,,1301830,visual,1,[],"['1', '2', '3', '4']",1,2023.2.3,harveyvisual,2.1,[],8,0.75,
5,dot,0.3,['dot'],['density'],black,0,56,56,56,,,22.000198125839233,21.70803713798523,22.00802206993103,dot,"[0.06, 0.1, 0.1, 0.08, 0.1]","[[0.2447541601906441, 0.3086669061463178], [0.2085849672204031, -0.04267428248465989], [0.44393754570968663, -0.061602228714441105], [0.027125763574429876, 0.05764502161176834], [0.36879828001487897, 0.1310025380577708]]",density,black,,,1301830,visual,1,[],"['1', '2', '3', '4']",1,2023.2.3,harveyvisual,2.1,[],8,0.75,
0,pause,0.4,None,None,None,0,57,57,57,,,,,,,,,,,,,1301830,visual,1,[],"['1', '2', '3', '4']",1,2023.2.3,harveyvisual,2.1,[],8,0.75,
5,dot,0.3,['dot'],['density'],black,0,58,58,58,,,22.70021104812622,22.408014059066772,22.708023071289062,dot,"[0.1, 0.08, 0.1, 0.06, 0.08]","[[-0.11834215492801986, 0.412508379109845], [0.31881799646300274, 0.30859303438359803], [-0.06368743078099719, 0.10105058071702504], [0.1133485112468387, 0.46262203184429457], [0.11957051434631445, 0.24197418837926052]]",density,black,,,1301830,visual,1,[],"['1', '2', '3', '4']",1,2023.2.3,harveyvisual,2.1,[],8,0.75,
0,pause,0.4,None,None,None,0,59,59,59,,,,,,,,,,,,,1301830,visual,1,[],"['1', '2', '3', '4']",1,2023.2.3,harveyvisual,2.1,[],8,0.75,
6,dot,0.3,['dot'],['density'],black,0,60,60,60,,,23.40019702911377,23.107996940612793,23.40800714492798,dot,"[0.08, 0.06, 0.08, 0.08, 0.06, 0.1]","[[-0.21871154593458392, 0.523205648483303], [-0.10311842393244862, 0.3355489225101837], [0.008055670172287269, 0.5366903261171385], [0.1303263863168633, 0.3782575370349718], [0.03185769749340688, 0.17145177849191712], [-0.2810167974491763, 0.15418865533644557]]",density,black,,,1301830,visual,1,[],"['1', '2', '3', '4']",1,2023.2.3,harveyvisual,2.1,[],8,0.75,
0,pause,0.4,None,None,None,0,61,61,61,,,,,,,,,,,,,1301830,visual,1,[],"['1', '2', '3', '4']",1,2023.2.3,harveyvisual,2.1,[],8,0.75,
6,dot,0.3,['dot'],['density'],black,0,62,62,62,,,24.100209951400757,23.80797505378723,24.10795497894287,dot,"[0.08, 0.06, 0.08, 0.1, 0.1, 0.08]","[[-0.5379788740814003, -0.011730333491669416], [-0.1820890739253136, -0.27973544868684425], [-0.07809457889047756, -0.09124846264896269], [-0.30616251401069866, -0.45101817852416426], [-0.44200878281119743, -0.26991620184617166], [-0.3315938551005316, -0.08696624632848979]]",density,black,,,1301830,visual,1,[],"['1', '2', '3', '4']",1,2023.2.3,harveyvisual,2.1,[],8,0.75,
0,pause,0.4,None,None,None,0,63,63,63,,,,,,,,,,,,,1301830,visual,1,[],"['1', '2', '3', '4']",1,2023.2.3,harveyvisual,2.1,[],8,0.75,
6,dot,0.3,['dot'],['density'],black,0,64,64,64,,,24.800214052200317,24.50801110267639,24.808141946792603,dot,"[0.06, 0.08, 0.08, 0.06, 0.08, 0.1]","[[-0.08086177951302478, 0.2470577028799217], [0.17809040740055945, 0.25721690350386706], [0.248993691455746, -0.144418230259854], [0.04260816027356476, -0.17251108440570345], [0.26201279645255604, 0.07253913185781388], [-0.0017619790798508912, 0.027830886297901026]]",density,black,,,1301830,visual,1,[],"['1', '2', '3', '4']",1,2023.2.3,harveyvisual,2.1,[],8,0.75,
0,pause,0.4,None,None,None,0,65,65,65,,,,,,,,,,,,,1301830,visual,1,[],"['1', '2', '3', '4']",1,2023.2.3,harveyvisual,2.1,[],8,0.75,
6,dot,0.3,['dot'],['density'],black,0,66,66,66,,,25.5002179145813,25.208101987838745,25.508093118667603,dot,"[0.08, 0.08, 0.1, 0.08, 0.06, 0.06]","[[-0.06594826066790033, 0.1051940440944823], [0.15491437476435005, 0.24610541937573027], [-0.07004887042171212, 0.3755397070333221], [0.22920853754483062, 0.04629278748534093], [0.14611265926610215, 0.46549762069565603], [0.352938231914746, 0.33060025924169734]]",density,black,,,1301830,visual,1,[],"['1', '2', '3', '4']",1,2023.2.3,harveyvisual,2.1,[],8,0.75,
0,pause,0.4,None,None,None,0,67,67,67,,,,,,,,,,,,,1301830,visual,1,[],"['1', '2', '3', '4']",1,2023.2.3,harveyvisual,2.1,[],8,0.75,
6,dot,0.3,['dot'],['density'],black,0,68,68,68,,,26.200206995010376,25.907948970794678,26.209280967712402,dot,"[0.1, 0.08, 0.06, 0.08, 0.1, 0.06]","[[-0.31609589870198396, -0.31007670116123803], [-0.4478311917512715, 0.10082722748193511], [-0.2864981571692688, -0.05140390439239721], [-0.09675803094031296, -0.12021517342888931], [-0.4941273593136662, -0.13098935533792763], [-0.1300426850498692, 0.1160403058404222]]",density,black,,,1301830,visual,1,[],"['1', '2', '3', '4']",1,2023.2.3,harveyvisual,2.1,[],8,0.75,
0,pause,0.4,None,None,None,0,69,69,69,,,,,,,,,,,,,1301830,visual,1,[],"['1', '2', '3', '4']",1,2023.2.3,harveyvisual,2.1,[],8,0.75,
6,dot,0.3,['dot'],['density'],black,0,70,70,70,,,26.900197982788086,26.608220100402832,26.908056020736694,dot,"[0.06, 0.1, 0.06, 0.1, 0.06, 0.08]","[[-0.2094991805307552, 0.08302354111181451], [0.09557258300728075, 0.3458622669714129], [0.22056408800171526, -0.017094369341425636], [0.026601936584830878, 0.1297564650757722], [-0.11681768564656844, 0.2726391152528644], [-0.03570146891163527, -0.09222923444939024]]",density,black,,,1301830,visual,1,[],"['1', '2', '3', '4']",1,2023.2.3,harveyvisual,2.1,[],8,0.75,
0,pause,0.4,None,None,None,0,71,71,71,,,,,,,,,,,,,1301830,visual,1,[],"['1', '2', '3', '4']",1,2023.2.3,harveyvisual,2.1,[],8,0.75,
7,dot,0.3,['dot'],['density'],black,0,72,72,72,,,27.600218057632446,27.308045148849487,27.608041048049927,dot,"[0.06, 0.06, 0.1, 0.1, 0.08, 0.06, 0.08]","[[0.12902113605384963, -0.35167066519854956], [0.3838909825822851, -0.05572740120406059], [-0.02857767273637445, 0.1549795872955612], [0.19333287999408408, 0.10698923431715611], [-0.08146847087507005, -0.06064403559207536], [0.18020694687254563, -0.15550905334431223], [-0.07225335190945896, -0.28606481362007624]]",density,black,,,1301830,visual,1,[],"['1', '2', '3', '4']",1,2023.2.3,harveyvisual,2.1,[],8,0.75,
0,pause,0.4,None,None,None,0,73,73,73,,,,,,,,,,,,,1301830,visual,1,[],"['1', '2', '3', '4']",1,2023.2.3,harveyvisual,2.1,[],8,0.75,
7,dot,0.3,['dot'],['density'],white,0,74,74,74,,,28.30019998550415,28.008032083511353,28.308027029037476,dot,"[0.08, 0.06, 0.06, 0.1, 0.06, 0.08, 0.06]","[[-0.39883248072855915, 0.30823732592088265], [-0.041341486549100435, 0.2390478988097413], [-0.013495537319202725, 0.5211111720540192], [-0.2415889716500472, 0.10795059447242317], [-0.023803066389735523, 0.02076064871433158], [0.14387498046506175, 0.3548008600093999], [-0.24331877599120405, 0.46521846842164205]]",density,white,,,1301830,visual,1,[],"['1', '2', '3', '4']",1,2023.2.3,harveyvisual,2.1,[],8,0.75,
0,pause,0.4,None,None,None,0,75,75,75,,,,,,,,,,,1,28.466936111450195,1301830,visual,1,[],"['1', '2', '3', '4']",1,2023.2.3,harveyvisual,2.1,[],8,0.75,
7,dot,0.3,['dot'],['density'],black,0,76,76,76,,,29.000205993652344,28.70804214477539,29.007986068725586,dot,"[0.06, 0.08, 0.1, 0.06, 0.1, 0.06, 0.1]","[[-0.23022292756182125, -0.05768485575552839], [-0.3970021412728509, -0.1722837668104814], [-0.2989980436724142, -0.5015189566068301], [-0.1887121522124618, -0.3052937986494308], [-0.001193606839323686, -0.45187687349833133], [-0.45251418858811787, -0.367940027934103], [0.11213422846620591, -0.19711986939188722]]",density,black,,,1301830,visual,1,[],"['1', '2', '3', '4']",1,2023.2.3,harveyvisual,2.1,[],8,0.75,
0,pause,0.4,None,None,None,0,77,77,77,,,,,,,,,,,,,1301830,visual,1,[],"['1', '2', '3', '4']",1,2023.2.3,harveyvisual,2.1,[],8,0.75,
7,dot,0.3,['dot'],['density'],black,0,78,78,78,,,29.70019793510437,29.407994985580444,29.70797896385193,dot,"[0.1, 0.08, 0.1, 0.08, 0.1, 0.1, 0.06]","[[-0.08751196138777266, -0.40239331021683095], [-0.1389983634140625, -0.1821537091642013], [-0.5212097088452917, -0.15879536445288125], [-0.24197016774290594, 0.025691971861017886], [-0.324083892787021, -0.3083678109532634], [0.06465625853811506, -0.19815494036826437], [-0.2569867334647868, -0.5155038850209747]]",density,black,,,1301830,visual,1,[],"['1', '2', '3', '4']",1,2023.2.3,harveyvisual,2.1,[],8,0.75,
0,pause,0.4,None,None,None,0,79,79,79,,,,,,,,,,,,,1301830,visual,1,[],"['1', '2', '3', '4']",1,2023.2.3,harveyvisual,2.1,[],8,0.75,
7,dot,0.3,['dot'],['density'],black,0,80,80,80,,,30.400203943252563,30.108005046844482,30.40795397758484,dot,"[0.1, 0.08, 0.06, 0.06, 0.1, 0.1, 0.08]","[[-0.23895008888738212, 0.05027357720500052], [0.04847041368780161, 0.3376116924566045], [0.007425979130163878, -0.07582657330311053], [-0.16109724709992976, 0.33554312732420544], [-0.17199436159673825, -0.1887904434853683], [0.1858169564317131, 0.14031933770952934], [-0.038655615351801086, 0.15226176997737048]]",density,black,,,1301830,visual,1,[],"['1', '2', '3', '4']",1,2023.2.3,harveyvisual,2.1,[],8,0.75,
0,pause,0.4,None,None,None,0,81,81,81,,,,,,,,,,,,,1301830,visual,1,[],"['1', '2', '3', '4']",1,2023.2.3,harveyvisual,2.1,[],8,0.75,
7,dot,0.3,['dot'],['density'],black,0,82,82,82,,,31.100203037261963,30.807986974716187,31.107934951782227,dot,"[0.08, 0.1, 0.1, 0.08, 0.08, 0.1, 0.1]","[[-0.3616029487054454, 0.4456424486886853], [-0.1496406170718537, 0.08450683720449656], [-0.4229793897960434, 0.19545916586121675], [-0.050735401720141765, 0.4582308035931027], [-0.23416009772798219, 0.28880413379285297], [0.00916417092529717, 0.20866532064640267], [0.0895043828575618, 0.020292244516940467]]",density,black,,,1301830,visual,1,[],"['1', '2', '3', '4']",1,2023.2.3,harveyvisual,2.1,[],8,0.75,
0,pause,0.4,None,None,None,0,83,83,83,,,,,,,,,,,,,1301830,visual,1,[],"['1', '2', '3', '4']",1,2023.2.3,harveyvisual,2.1,[],8,0.75,
8,dot,0.3,['dot'],['density'],black,0,84,84,84,,,31.800205945968628,31.50786805152893,31.82447600364685,dot,"[0.06, 0.1, 0.1, 0.1, 0.06, 0.06, 0.06, 0.08]","[[-0.3306282708070712, -0.09459634407206743], [0.17708038186302957, -0.36794437316098305], [-0.34368294577136044, -0.39688855169369486], [-0.16397220561896333, 0.03033928826277653], [-0.08476975953586025, -0.41834960305423746], [-0.16765121495786453, -0.2265743681515788], [0.0449590487082352, -0.10546915507075137], [-0.5574709661459258, -0.15664368712912546]]",density,black,,,1301830,visual,1,[],"['1', '2', '3', '4']",1,2023.2.3,harveyvisual,2.1,[],8,0.75,
0,pause,0.4,None,None,None,0,85,85,85,,,,,,,,,,,,,1301830,visual,1,[],"['1', '2', '3', '4']",1,2023.2.3,harveyvisual,2.1,[],8,0.75,
8,dot,0.3,['dot'],['density'],black,0,86,86,86,,,32.500216007232666,32.20791697502136,32.507895946502686,dot,"[0.08, 0.1, 0.1, 0.1, 0.06, 0.08, 0.08, 0.08]","[[0.2564657333297123, -0.5164120873644681], [0.16207736998829034, -0.17430025554579232], [0.3801370228700199, -0.12440354324600712], [0.3861419762144276, -0.3474957963553726], [0.023072413076989942, -0.006703975881976366], [-0.07114697953604181, -0.35683211304459495], [0.45447188669532573, 0.06927659529933487], [0.23571610799738704, 0.02784742549372824]]",density,black,,,1301830,visual,1,[],"['1', '2', '3', '4']",1,2023.2.3,harveyvisual,2.1,[],8,0.75,
0,pause,0.4,None,None,None,0,87,87,87,,,,,,,,,,,,,1301830,visual,1,[],"['1', '2', '3', '4']",1,2023.2.3,harveyvisual,2.1,[],8,0.75,
8,dot,0.3,['dot'],['density'],black,0,88,88,88,,,33.20021295547485,32.90789794921875,33.20789313316345,dot,"[0.1, 0.08, 0.1, 0.08, 0.1, 0.1, 0.08, 0.06]","[[-0.16499387414028463, -0.418455346753131], [0.031011941373623824, -0.006148034068666969], [-0.4150712424924157, -0.28668557629476243], [-0.199054958380199, -0.21375968732837633], [-0.4870789535587041, 0.00515905815181239], [-0.198479811208303, 0.006815000109153054], [-0.3273741662815474, 0.19008037141614484], [0.04340096687518584, -0.25044408321713213]]",density,black,,,1301830,visual,1,[],"['1', '2', '3', '4']",1,2023.2.3,harveyvisual,2.1,[],8,0.75,
0,pause,0.4,None,None,None,0,89,89,89,,,,,,,,,,,,,1301830,visual,1,[],"['1', '2', '3', '4']",1,2023.2.3,harveyvisual,2.1,[],8,0.75,
8,dot,0.3,['dot'],['density'],white,0,90,90,90,,,33.900206089019775,33.60789394378662,33.90787696838379,dot,"[0.06, 0.08, 0.06, 0.1, 0.08, 0.08, 0.06, 0.06]","[[0.4578461037593053, -0.0425280984807614], [0.3105081462658962, -0.253400778181943], [0.5107466611240274, 0.18303335057259504], [0.05013881804369301, 0.21472050036076742], [0.11913774150617627, -0.046477809882714556], [0.3069987493408211, 0.11186211070896974], [0.10261508471656716, -0.25482825738733483], [-0.08881417545548334, 0.035709595317019026]]",density,white,,,1301830,visual,1,[],"['1', '2', '3', '4']",1,2023.2.3,harveyvisual,2.1,[],8,0.75,
0,pause,0.4,None,None,None,0,91,91,91,,,,,,,,,,,1,34.02064514160156,1301830,visual,1,[],"['1', '2', '3', '4']",1,2023.2.3,harveyvisual,2.1,[],8,0.75,
8,dot,0.3,['dot'],['density'],black,0,92,92,92,,,34.60019898414612,34.307862997055054,34.60786008834839,dot,"[0.1, 0.08, 0.1, 0.1, 0.08, 0.06, 0.08, 0.06]","[[-0.3290570048964025, 0.45712517183014534], [-0.12351728740192595, 0.19722326774196852], [-0.44617383739254307, -0.0315435053038489], [0.05824565693526591, 0.08769012542188236], [-0.4904255353169048, 0.31423420558286136], [-0.32491150822629034, 0.16696319418744587], [-0.12614658653380179, 0.4043789036591275], [0.10044097339982726, 0.3130264767685494]]",density,black,,,1301830,visual,1,[],"['1', '2', '3', '4']",1,2023.2.3,harveyvisual,2.1,[],8,0.75,
0,pause,0.4,None,None,None,0,93,93,93,,,,,,,,,,,,,1301830,visual,1,[],"['1', '2', '3', '4']",1,2023.2.3,harveyvisual,2.1,[],8,0.75,
8,dot,0.3,['dot'],['density'],black,0,94,94,94,,,35.30021905899048,35.00788998603821,35.30784201622009,dot,"[0.06, 0.06, 0.1, 0.06, 0.1, 0.1, 0.06, 0.08]","[[0.34834348934164344, -0.28812382596974456], [-0.10329597477015798, -0.5243874580500916], [0.11080732975293575, -0.39067626210733153], [-0.006800183936578442, -0.10390350920236302], [0.17453264242573352, -0.004648084789036161], [-0.11839138898177409, -0.2765800857961495], [-0.2122949223397977, -0.08354151726817095], [0.0010823045536620208, 0.09995244087301837]]",density,black,,,1301830,visual,1,[],"['1', '2', '3', '4']",1,2023.2.3,harveyvisual,2.1,[],8,0.75,
0,pause,0.4,None,None,None,0,95,95,95,,,,,,,,,,,,,1301830,visual,1,[],"['1', '2', '3', '4']",1,2023.2.3,harveyvisual,2.1,[],8,0.75,
9,dot,0.3,['dot'],['density'],black,0,96,96,96,,,36.00021314620972,35.70784401893616,36.00760197639465,dot,"[0.06, 0.06, 0.1, 0.08, 0.08, 0.1, 0.1, 0.08, 0.1]","[[0.019793807854907846, -0.43234396454466956], [-0.19026732246162045, -0.30921043426246514], [0.04019268118281429, 0.04496242893187172], [-0.3995051790572048, -0.35321755636659735], [-0.3855517065125252, -0.10705750392277943], [0.08372722599267078, -0.1679482296571974], [0.2622756688563642, -0.3928589043728353], [-0.14305193053609555, -0.047108980659819465], [-0.27076529918092873, 0.10825753519043561]]",density,black,,,1301830,visual,1,[],"['1', '2', '3', '4']",1,2023.2.3,harveyvisual,2.1,[],8,0.75,
0,pause,0.4,None,None,None,0,97,97,97,,,,,,,,,,,,,1301830,visual,1,[],"['1', '2', '3', '4']",1,2023.2.3,harveyvisual,2.1,[],8,0.75,
9,dot,0.3,['dot'],['density'],black,0,98,98,98,,,36.70021605491638,36.40770196914673,36.72429394721985,dot,"[0.08, 0.1, 0.06, 0.06, 0.1, 0.08, 0.08, 0.1, 0.08]","[[-0.06218673389315922, -0.4689115343027075], [0.3660477402554353, -0.15396192139437054], [0.1401329754895462, -0.14262156541192547], [0.12293598154832706, -0.38779640022673934], [0.42645158233284447, -0.3607859009111275], [-0.06238477126329685, -0.2564764349502154], [-0.2584688277182379, -0.29964401945706215], [-0.11312192996032899, -0.05439345917292958], [0.19096873654163896, 0.1321853744035435]]",density,black,,,1301830,visual,1,[],"['1', '2', '3', '4']",1,2023.2.3,harveyvisual,2.1,[],8,0.75,
0,pause,0.4,None,None,None,0,99,99,99,,,,,,,,,,,,,1301830,visual,1,[],"['1', '2', '3', '4']",1,2023.2.3,harveyvisual,2.1,[],8,0.75,
9,dot,0.3,['dot'],['density'],black,0,100,100,100,,,37.400222063064575,37.107622146606445,37.42427110671997,dot,"[0.06, 0.06, 0.08, 0.08, 0.06, 0.1, 0.06, 0.1, 0.08]","[[-0.08858128315591524, -0.3480052213079807], [0.37291707470974605, -0.0809562497479422], [-0.04311872097798103, 0.23152249840731254], [0.1734412630875083, -0.16491363602164627], [-0.024044713080900382, -0.04824256513196188], [0.126438571592319, 0.09122014985587756], [-0.2168202887682383, 0.11190421567656858], [-0.23215605484234547, -0.20356583507002532], [0.291417597339289, 0.24351333182926893]]",density,black,,,1301830,visual,1,[],"['1', '2', '3', '4']",1,2023.2.3,harveyvisual,2.1,[],8,0.75,
0,pause,0.4,None,None,None,0,101,101,101,,,,,,,,,,,,,1301830,visual,1,[],"['1', '2', '3', '4']",1,2023.2.3,harveyvisual,2.1,[],8,0.75,
9,dot,0.3,['dot'],['density'],white,0,102,102,102,,,38.100208044052124,37.80760097503662,38.124263048172,dot,"[0.1, 0.06, 0.1, 0.1, 0.08, 0.1, 0.08, 0.1, 0.08]","[[0.21556792455118703, 0.37642033042102185], [0.14366510572844648, -0.18651452926789283], [0.49642287684820396, -0.0794158383055628], [-0.04770628609247857, -0.12519201939426747], [0.20310136493979325, 0.154094551714378], [-0.004065485174475974, 0.09100382633055243], [-0.018053901421587658, 0.34918523294118026], [0.29624623666919286, -0.053344657000752645], [-0.2018857737562037, 0.01971770186205045]]",density,white,,,1301830,visual,1,[],"['1', '2', '3', '4']",1,2023.2.3,harveyvisual,2.1,[],8,0.75,
0,pause,0.4,None,None,None,0,103,103,103,,,,,,,,,,,1,38.223960161209106,1301830,visual,1,[],"['1', '2', '3', '4']",1,2023.2.3,harveyvisual,2.1,[],8,0.75,
9,dot,0.3,['dot'],['density'],black,0,104,104,104,,,38.80022597312927,38.50759291648865,38.82424306869507,dot,"[0.06, 0.1, 0.1, 0.1, 0.1, 0.08, 0.06, 0.08, 0.08]","[[0.21556792455118703, 0.37642033042102185], [0.14366510572844648, -0.18651452926789283], [0.49642287684820396, -0.0794158383055628], [-0.04770628609247857, -0.12519201939426747], [0.20310136493979325, 0.154094551714378], [-0.004065485174475974, 0.09100382633055243], [-0.018053901421587658, 0.34918523294118026], [0.29624623666919286, -0.053344657000752645], [-0.2018857737562037, 0.01971770186205045]]",density,black,,,1301830,visual,1,[],"['1', '2', '3', '4']",1,2023.2.3,harveyvisual,2.1,[],8,0.75,
0,pause,0.4,None,None,None,0,105,105,105,,,,,,,,,,,,,1301830,visual,1,[],"['1', '2', '3', '4']",1,2023.2.3,harveyvisual,2.1,[],8,0.75,
9,dot,0.3,['dot'],['density'],black,0,106,106,106,,,39.50022101402283,39.20756411552429,39.52423810958862,dot,"[0.08, 0.06, 0.06, 0.08, 0.08, 0.1, 0.06, 0.1, 0.1]","[[0.23250081832313607, -0.03448075506690146], [0.3034476098774822, 0.1830296703973891], [-0.18904104685434053, 0.18833284185042862], [0.2553794676357457, 0.5314352583170906], [0.16363099535363254, 0.3461022642192175], [-0.0841935017478271, 0.3664174397160571], [-0.26748786402911323, -0.05736109653727262], [0.043842773669028334, 0.577246673499167], [0.02102957219118283, 0.0979254794926055]]",density,black,,,1301830,visual,1,[],"['1', '2', '3', '4']",1,2023.2.3,harveyvisual,2.1,[],8,0.75,
0,pause,0.4,None,None,None,0,107,107,107,,,,,,,,,,,,,1301830,visual,1,[],"['1', '2', '3', '4']",1,2023.2.3,harveyvisual,2.1,[],8,0.75,
20,dot,0.3,['dot'],['density'],black,0,108,108,108,,,40.20021295547485,39.92422604560852,40.224199056625366,dot,"[0.08, 0.08, 0.1, 0.06, 0.1, 0.08, 0.08, 0.08, 0.06, 0.1, 0.06, 0.1, 0.1, 0.08, 0.08, 0.1, 0.06, 0.1, 0.1, 0.08]","[[0.5141482831797975, 0.12846188867727498], [0.09568922886705022, 0.28841649593296437], [-0.582689855807142, 0.13766348669672474], [-0.3019331239242148, 0.17426456571232463], [-0.3256077622007128, 0.39707089985187427], [0.30334814501267315, -0.07667380599634005], [-0.04997994883677359, 0.1152468438591896], [0.06414990784884189, -0.36938552135961594], [0.5441790470273148, -0.10657439929053883], [-0.199489126713634, -0.43965143600014633], [-0.0962856615210651, 0.5407914998954734], [-0.4362328372178177, -0.38613427235101094], [0.36827940481726584, -0.4047085028256064], [-0.18615786378802596, -0.11278133109013216], [0.0787473883568014, -0.11824787184198804], [-0.553899651854918, -0.12544932531749353], [0.4568838323149603, 0.3504049603251904], [-0.046028847034794707, -0.5845684840175562], [0.12877405852407298, 0.5120794877621184], [0.2823480102333735, 0.14858373886246]]",density,black,,,1301830,visual,1,[],"['1', '2', '3', '4']",1,2023.2.3,harveyvisual,2.1,[],8,0.75,
0,pause,0.4,None,None,None,0,109,109,109,,,,,,,,,,,,,1301830,visual,1,[],"['1', '2', '3', '4']",1,2023.2.3,harveyvisual,2.1,[],8,0.75,
20,dot,0.3,['dot'],['density'],black,0,110,110,110,,,40.90020513534546,40.62421011924744,40.92418813705444,dot,"[0.06, 0.08, 0.08, 0.06, 0.1, 0.1, 0.06, 0.06, 0.1, 0.06, 0.1, 0.06, 0.08, 0.06, 0.08, 0.06, 0.08, 0.08, 0.06, 0.06]","[[-0.2502675209179606, 0.3537012393964065], [0.4354699371676437, 0.04850623629353812], [-0.04314837195148846, 0.38263039914860775], [0.09280433481188022, -0.12521659720696643], [-0.5937018798125396, 0.02845843472921905], [0.06890601887057046, -0.5185733794258237], [0.16012497042623985, 0.07736625564062583], [-0.3457662227653964, -0.018719941208963586], [-0.17987458000453987, -0.2615073944322752], [0.024553249327159077, 0.5938973575892428], [0.3285145920479352, -0.36672880299692845], [-0.46480514166927234, 0.22923169679176175], [-0.32128735128293573, -0.41576142682354333], [0.36065668168020193, 0.35999916234766194], [-0.04388770142202736, 0.037671825272129644], [0.4617166190616372, -0.20004463447724521], [-0.4917485732486541, -0.1499548314323886], [0.16837131230184899, 0.4516842373732325], [0.13128305377997795, -0.3304921449261514], [-0.16798471982268837, 0.563491992017723]]",density,black,,,1301830,visual,1,[],"['1', '2', '3', '4']",1,2023.2.3,harveyvisual,2.1,[],8,0.75,
0,pause,0.4,None,None,None,0,111,111,111,,,,,,,,,,,,,1301830,visual,1,[],"['1', '2', '3', '4']",1,2023.2.3,harveyvisual,2.1,[],8,0.75,
20,dot,0.3,['dot'],['density'],black,0,112,112,112,,,41.60021710395813,41.32418894767761,41.62416696548462,dot,"[0.08, 0.06, 0.1, 0.06, 0.08, 0.08, 0.08, 0.1, 0.1, 0.06, 0.1, 0.1, 0.06, 0.08, 0.1, 0.06, 0.1, 0.06, 0.08, 0.06]","[[-0.0695518837883885, 0.4846190974698602], [0.1037554494017523, -0.21279411093126332], [0.5696230883029764, 0.11034742660928562], [0.010134927188437226, 0.0926920397867903], [-0.5521742931052024, -0.006855919139541394], [-0.19611358286941133, -0.03929230293166064], [-0.26309389556674045, 0.39490431204113985], [0.5041736127257342, -0.1396245478361695], [0.24169888269600448, 0.369294587484315], [-0.5613859264527262, 0.21781700620959493], [-0.39249726499961235, -0.25491394449298393], [-0.3436834215130084, 0.19725355136652223], [0.36489054527289, -0.3745679870875342], [0.299752619453021, 0.0643632721697378], [0.07688040529417794, -0.5619541161365861], [-0.15101031969562378, -0.4667519398240281], [-0.3598859728088061, -0.45860650694901556], [0.4942063437444525, 0.33929297089837435], [0.03148844700946518, 0.2871284027604313], [0.10804714117324299, 0.5855623053035044]]",density,black,,,1301830,visual,1,[],"['1', '2', '3', '4']",1,2023.2.3,harveyvisual,2.1,[],8,0.75,
0,pause,0.4,None,None,None,0,113,113,113,,,,,,,,,,,,,1301830,visual,1,[],"['1', '2', '3', '4']",1,2023.2.3,harveyvisual,2.1,[],8,0.75,
20,dot,0.3,['dot'],['density'],black,0,114,114,114,,,42.30020809173584,42.02417492866516,42.32414698600769,dot,"[0.06, 0.06, 0.1, 0.1, 0.06, 0.1, 0.06, 0.06, 0.08, 0.08, 0.08, 0.1, 0.1, 0.1, 0.1, 0.1, 0.06, 0.08, 0.06, 0.08]","[[0.3253024960349614, 0.4909437095371837], [0.30900506543632666, 0.06771134952402069], [-0.5064205054832156, -0.1951321133282744], [-0.06366905960352764, 0.2814221272327191], [-0.01091636924562922, -0.4078146512891434], [-0.2711831393850733, 0.4291689428189741], [0.3058303690307109, -0.45549628474520665], [0.522269005349366, -0.021322210794721796], [-0.4305906824866523, 0.22167896987685598], [0.006609910119772744, 0.5763892033217323], [-0.604369823519262, 0.004246438094540721], [0.2525968439955347, -0.16267066535745928], [0.49662934246909296, -0.2155852538522622], [-0.08851551618687281, -0.15092092675960633], [-0.23211148062300863, -0.0021557925920495657], [0.4419654080714187, 0.22408945785189555], [-0.03606585112793348, 0.05019246749308537], [0.08775844868616056, -0.579116820232174], [-0.27392594825629174, -0.2245864231949939], [-0.2309971602893338, -0.4486608700036266]]",density,black,,,1301830,visual,1,[],"['1', '2', '3', '4']",1,2023.2.3,harveyvisual,2.1,[],8,0.75,
0,pause,0.4,None,None,None,0,115,115,115,,,,,,,,,,,,,1301830,visual,1,[],"['1', '2', '3', '4']",1,2023.2.3,harveyvisual,2.1,[],8,0.75,
20,dot,0.3,['dot'],['density'],black,0,116,116,116,,,43.00020408630371,42.7241370677948,43.02413201332092,dot,"[0.1, 0.06, 0.06, 0.08, 0.08, 0.06, 0.1, 0.06, 0.1, 0.06, 0.1, 0.08, 0.08, 0.06, 0.06, 0.08, 0.1, 0.08, 0.1, 0.1]","[[-0.13383553778505292, 0.2592834333296228], [0.550127212594241, -0.04827943205214691], [-0.5846294364239937, -0.07598552363870958], [-0.26459870507765054, -0.057979115499325384], [-0.539098374430818, 0.19625042787627234], [0.09706613922156782, -0.483672339105282], [-0.22914039491039512, -0.444810631766122], [0.55859269622438, 0.15480612941438693], [0.28417177462938636, 0.09332255867210337], [0.30553353160325214, 0.4475504649768255], [-0.44173418239561424, 0.40160869499424506], [-0.023928325182041243, 0.08311237259122606], [-0.40868858066928465, -0.25880432433918205], [0.4576082812729668, -0.2630119567172891], [-0.2671317244552457, 0.49594152889943643], [0.38495876951175645, 0.2720729230463508], [-0.04652427061691844, -0.1706819932747426], [0.2477839104942673, -0.17882478616577369], [0.06875845069168507, 0.4584051509617001], [0.3078989237854791, -0.3793793813445061]]",density,black,,,1301830,visual,1,[],"['1', '2', '3', '4']",1,2023.2.3,harveyvisual,2.1,[],8,0.75,
0,pause,0.4,None,None,None,0,117,117,117,,,,,,,,,,,,,1301830,visual,1,[],"['1', '2', '3', '4']",1,2023.2.3,harveyvisual,2.1,[],8,0.75,
20,dot,0.3,['dot'],['density'],black,0,118,118,118,,,43.70020508766174,43.42415809631348,43.72413897514343,dot,"[0.08, 0.06, 0.1, 0.06, 0.06, 0.08, 0.1, 0.08, 0.1, 0.1, 0.1, 0.08, 0.08, 0.06, 0.06, 0.08, 0.06, 0.06, 0.08, 0.1]","[[-0.2717634077935789, 0.4590800880123651], [0.487721014500465, 0.2692065933083129], [-0.11982580899642448, 0.014585749361289646], [-0.4136634261863571, -0.11563909375517162], [0.13378857934838895, 0.4130589319991046], [0.012155654164850205, -0.13819275953503246], [0.26692759422605483, -0.3392830358336659], [-0.18923774930983678, -0.4814751404826587], [0.2659111442382428, 0.10006931062658031], [-0.5590596556488506, 0.041362148279466715], [-0.08350357169592393, -0.30763060924085794], [0.5903288756999384, 0.0011392236548961043], [-0.36715467602534835, 0.21119634264314713], [0.022710372840729964, -0.4796614110955959], [0.2132295345473748, -0.10283279010222962], [-0.446463809855378, -0.32238398596905643], [0.09486441521932354, 0.20800562129525557], [-0.15993720240409298, 0.27436244719588687], [0.5123664348287561, -0.20064837074601138], [-0.05555850863659251, 0.48066001438946804]]",density,black,,,1301830,visual,1,[],"['1', '2', '3', '4']",1,2023.2.3,harveyvisual,2.1,[],8,0.75,
0,pause,0.4,None,None,None,0,119,119,119,,,,,,,,,,,,,1301830,visual,1,[],"['1', '2', '3', '4']",1,2023.2.3,harveyvisual,2.1,[],8,0.75,
20,dot,0.3,['dot'],['density'],black,0,120,120,120,,,44.40021514892578,44.12422704696655,44.42419695854187,dot,"[0.08, 0.08, 0.06, 0.1, 0.08, 0.1, 0.08, 0.06, 0.08, 0.1, 0.08, 0.08, 0.06, 0.06, 0.06, 0.06, 0.1, 0.1, 0.1, 0.1]","[[0.3249907135734408, -0.15487805629145152], [-0.15506541190893408, -0.42761385410595043], [0.46081539693872864, -0.33333319801502914], [-0.05323066709113189, -0.04458914571496819], [-0.11088045055935403, 0.5710289771749205], [0.42500544263502904, 0.07074452586657554], [-0.10281992971349707, 0.1908593859180735], [-0.33594612640004645, -0.305534923715768], [-0.5625683615324304, 0.18721221547325895], [-0.005334084507243597, -0.546329683362335], [0.5901284339816527, -0.12955090686540505], [0.10366611370434342, -0.2076103939152688], [-0.5015964752927343, -0.007639208067103942], [-0.2932288504392854, 0.49322703860964445], [0.20783596611951405, 0.32697335533981975], [-0.25909971428305784, 0.03743176854874397], [0.5001347385533758, 0.3031214581237711], [0.3410538099823075, 0.48783734251691624], [0.19870089038364813, -0.43122574481566545], [0.2287536532379596, 0.03663709107452218]]",density,black,,,1301830,visual,1,[],"['1', '2', '3', '4']",1,2023.2.3,harveyvisual,2.1,[],8,0.75,
0,pause,0.4,None,None,None,0,121,121,121,,,,,,,,,,,,,1301830,visual,1,[],"['1', '2', '3', '4']",1,2023.2.3,harveyvisual,2.1,[],8,0.75,
20,dot,0.3,['dot'],['density'],black,0,122,122,122,,,45.10019898414612,44.82414698600769,45.12412095069885,dot,"[0.06, 0.08, 0.06, 0.06, 0.06, 0.06, 0.08, 0.06, 0.1, 0.06, 0.06, 0.06, 0.1, 0.1, 0.06, 0.06, 0.08, 0.08, 0.08, 0.08]","[[-0.4806573462121206, 0.035684679576096445], [-0.38717700222826273, 0.2717400527610529], [0.058603209546546076, 0.42251915813414287], [0.2579668120949691, 0.5349492021952115], [0.5011373640720233, 0.22164124332937346], [-0.11156178945216189, 0.2647485116637497], [0.0029368984762263572, -0.4763904391789366], [0.25352649028906227, -0.09577416357897056], [0.175502910456398, 0.19610398207207524], [-0.25586896464415615, 0.1350968211441015], [-0.05888017538679258, 0.5972217688216913], [-0.34158592837222634, -0.39941443690673895], [-0.34619904601712415, 0.4873570213164322], [0.4817972473453548, -0.051590705873578], [0.29891765496747447, -0.38604753151176974], [-0.06579050678814391, -0.22870341126500243], [0.42130074181342236, 0.411581899402207], [0.5087952775165366, -0.2873866816218271], [-0.5584120062958541, -0.16763112467448424], [-0.2520528045287739, -0.07742110007611647]]",density,black,,,1301830,visual,1,[],"['1', '2', '3', '4']",1,2023.2.3,harveyvisual,2.1,[],8,0.75,
0,pause,0.4,None,None,None,0,123,123,123,,,,,,,,,,,,,1301830,visual,1,[],"['1', '2', '3', '4']",1,2023.2.3,harveyvisual,2.1,[],8,0.75,
20,dot,0.3,['dot'],['density'],black,0,124,124,124,,,45.80021905899048,45.524080991744995,45.82406401634216,dot,"[0.1, 0.1, 0.08, 0.08, 0.06, 0.06, 0.08, 0.1, 0.08, 0.06, 0.06, 0.06, 0.1, 0.1, 0.1, 0.1, 0.06, 0.1, 0.1, 0.08]","[[0.5785894635689693, -0.12040363492400322], [0.2994308473198706, -0.08982537070893098], [-0.33076958678847485, 0.29140630016819], [0.09691505743228668, 0.370238761358637], [-0.023379289474519505, -0.5811495356659644], [-0.07126992809011745, -0.23817681217747927], [0.14041521512237864, 0.04524781135352596], [-0.5782954243781172, 0.16325722132605738], [-0.26366173302111695, -0.12443925249767762], [-0.5443530829808629, -0.09202129494636169], [0.4044635140586893, 0.23275726063285868], [-0.26950829104663676, -0.5021271576872808], [0.007902466910852501, 0.5382290811045142], [0.43917383819830225, -0.313574863750527], [-0.049297299104049674, 0.07911889343195877], [-0.3685758058459375, -0.28818773370062245], [0.20692958872519218, -0.3637776698886461], [-0.13112806298510027, 0.4002100973356294], [-0.3559000391397381, 0.07750257653861253], [0.31184815602348026, 0.4243305701200458]]",density,black,,,1301830,visual,1,[],"['1', '2', '3', '4']",1,2023.2.3,harveyvisual,2.1,[],8,0.75,
0,pause,0.4,None,None,None,0,125,125,125,,,,,,,,,,,,,1301830,visual,1,[],"['1', '2', '3', '4']",1,2023.2.3,harveyvisual,2.1,[],8,0.75,
20,dot,0.3,['dot'],['density'],black,0,126,126,126,,,46.50023293495178,46.22404408454895,46.52411913871765,dot,"[0.08, 0.08, 0.06, 0.06, 0.06, 0.08, 0.08, 0.1, 0.06, 0.1, 0.1, 0.06, 0.1, 0.08, 0.06, 0.1, 0.08, 0.08, 0.1, 0.08]","[[-0.524412258162299, 0.08375366093052661], [-0.2513783424810807, 0.10927284420145211], [0.48454836255293554, 0.20257519613356156], [0.11482592222155696, 0.006999039970339904], [0.431953599310836, -0.10361644485213611], [-0.0742744455570773, -0.2575084521384372], [-0.1256159985644026, 0.4457627773916846], [-0.4223048042582941, 0.29231288222296864], [0.2854020475579522, 0.29634255591416625], [0.4194164238737418, -0.3809462478046761], [0.08881358036716425, -0.532791755547848], [-0.29048855901442505, -0.15511910618844726], [-0.48698451678378923, -0.3183875474693994], [-0.24050305345946044, -0.44839300427619766], [0.14491745512590415, -0.2803785460274343], [0.10530570829193109, 0.4086842711529889], [-0.5383666538125621, -0.1172189278536471], [0.6031092574051172, 0.026855193409113957], [-0.07973629607713917, -0.04942138919056327], [0.4532418603876164, 0.3968625242773118]]",density,black,,,1301830,visual,1,[],"['1', '2', '3', '4']",1,2023.2.3,harveyvisual,2.1,[],8,0.75,
0,pause,0.4,None,None,None,0,127,127,127,,,,,,,,,,,,,1301830,visual,1,[],"['1', '2', '3', '4']",1,2023.2.3,harveyvisual,2.1,[],8,0.75,
20,dot,0.3,['dot'],['density'],black,0,128,128,128,,,47.200201988220215,46.92403602600098,47.22402215003967,dot,"[0.1, 0.06, 0.06, 0.08, 0.08, 0.06, 0.06, 0.08, 0.08, 0.1, 0.06, 0.1, 0.08, 0.1, 0.08, 0.06, 0.1, 0.1, 0.1, 0.06]","[[-0.3809016946832723, -0.2083524726850554], [-0.38271025628179, 0.26726919422549994], [0.13254518851888952, 0.33736045095381395], [0.50718571404931, 0.1381803353030458], [0.1832530286954367, -0.43665852038741304], [0.4159282698597174, -0.1180222771298553], [0.15675964363910155, 0.5273255392566705], [-0.3595924978515107, 0.025628899440118647], [-0.08986269415584358, 0.39949296390023625], [0.37433208403555995, -0.3747895223965453], [-0.15995215641892102, -0.04925256051136628], [0.16187422175508814, -0.16446467904755224], [-0.5555180864498284, 0.09037799015230025], [-0.01591339064477648, 0.18622609255035183], [-0.5822176104138784, -0.14165384655536908], [-0.038697387240069214, -0.4714519540017347], [-0.41689806080784964, -0.4176921249334941], [0.3073004672277194, 0.17396127440944886], [-0.13800314365751998, -0.3062789612857146], [0.12509242691214406, 0.057835224681659136]]",density,black,,,1301830,visual,1,[],"['1', '2', '3', '4']",1,2023.2.3,harveyvisual,2.1,[],8,0.75,
0,pause,0.4,None,None,None,0,129,129,129,,,,,,,,,,,,,1301830,visual,1,[],"['1', '2', '3', '4']",1,2023.2.3,harveyvisual,2.1,[],8,0.75,
20,dot,0.3,['dot'],['density'],black,0,130,130,130,,,47.90021800994873,47.624027967453,47.924006938934326,dot,"[0.06, 0.1, 0.08, 0.06, 0.08, 0.06, 0.06, 0.08, 0.1, 0.06, 0.1, 0.08, 0.08, 0.06, 0.1, 0.1, 0.08, 0.06, 0.1, 0.06]","[[-0.3456285945187665, 0.0588977534383508], [0.24460782731154607, 0.2580441884643694], [-0.15935933684247516, -0.31641577143493865], [-0.20767953971430025, -0.5098264222848383], [-0.1943243876454136, 0.32264917999804676], [0.2942539315507854, -0.4268464706565672], [0.3792943661765735, 0.0717166705102476], [-0.02161254545406477, 0.08330362994763185], [-0.43132935450368703, -0.3547239561602189], [0.5332784436865233, -0.27237724835774463], [0.1622423920689583, -0.19736689097004662], [0.04604832401463377, -0.5395338658786215], [-0.0020281223655577163, 0.41583752762557324], [0.5123061804586625, 0.2136675723965767], [-0.5020071700330757, -0.16388981269825803], [-0.6029314984755765, 0.044674742700499225], [-0.5117215781107325, 0.21592667264133808], [-0.12321872816814095, 0.5729618431258325], [-0.028447828815978515, -0.11515384192172828], [0.543146781219875, -0.07490849677080089]]",density,black,,,1301830,visual,1,[],"['1', '2', '3', '4']",1,2023.2.3,harveyvisual,2.1,[],8,0.75,
0,pause,0.4,None,None,None,0,131,131,131,,,,,,,,,,,,,1301830,visual,1,[],"['1', '2', '3', '4']",1,2023.2.3,harveyvisual,2.1,[],8,0.75,
20,dot,0.3,['dot'],['density'],black,0,132,132,132,,,48.600218057632446,48.32399606704712,48.623985052108765,dot,"[0.06, 0.08, 0.06, 0.1, 0.06, 0.06, 0.1, 0.08, 0.1, 0.08, 0.06, 0.06, 0.1, 0.08, 0.06, 0.08, 0.08, 0.1, 0.1, 0.06]","[[-0.1394076145609623, -0.5723861744254221], [-0.09780417910096895, -0.12301515478285374], [0.11493853428133904, -0.09469097126887827], [0.5197001256007509, -0.19985830189475362], [0.3785162873100847, -0.47191954632576216], [-0.36162331862528774, -0.03300684164039985], [0.4397637174441821, -0.020352047667663686], [-0.4973255665494795, 0.16854741291974834], [-0.16198796946440946, 0.33131435899746253], [-0.2839456135066879, -0.35365714443824126], [0.31440343096963164, 0.24271905565021934], [-0.3559283184222128, 0.4299757975112553], [0.09717775463336786, -0.5574728019523588], [-0.5645446677406986, -0.03746693438901305], [0.1756908783720197, 0.5315874486939433], [-0.29637963517405874, 0.15844707815307058], [0.1822043510951773, 0.08987940995846322], [0.23151932599375213, -0.2983136941658349], [-0.08771057376877289, -0.3209557663372963], [0.5268924663064712, 0.17229851673228996]]",density,black,,,1301830,visual,1,[],"['1', '2', '3', '4']",1,2023.2.3,harveyvisual,2.1,[],8,0.75,
0,pause,0.4,None,None,None,0,133,133,133,,,,,,,,,,,,,1301830,visual,1,[],"['1', '2', '3', '4']",1,2023.2.3,harveyvisual,2.1,[],8,0.75,
20,dot,0.3,['dot'],['density'],black,0,134,134,134,,,49.30022096633911,49.0239839553833,49.32396912574768,dot,"[0.1, 0.06, 0.08, 0.06, 0.08, 0.06, 0.08, 0.1, 0.06, 0.1, 0.08, 0.06, 0.06, 0.06, 0.08, 0.1, 0.1, 0.1, 0.08, 0.08]","[[-0.12024472764395494, 0.3738837329490541], [0.09490555366137754, -0.525648069484261], [0.5018984824543599, -0.12417689220400036], [-0.40023369779770124, -0.24747042469410202], [-0.38421641417363633, 0.11795570248834097], [-0.163465620544392, -0.3595527352065079], [0.2911945316882987, -0.28721119033059817], [0.10914684678509912, 0.36176269266705385], [-0.07060493074150809, 0.06147605948512225], [0.4611309066336494, 0.23670051023525157], [0.4719199286446759, -0.3717034152190757], [0.2902492597499031, 0.4400479465365601], [-0.30340725867990787, 0.28935350692113304], [-0.2345326270661512, -0.10324625777662216], [-0.5954306389343278, 0.06978959088580938], [0.6024686864683472, 0.047373992141541435], [0.20824475329859216, 0.042849003908143724], [-0.08085400610075832, 0.5916933026617244], [0.003312225432776872, -0.2521695440665061], [-0.13105695025175695, -0.581006850669979]]",density,black,,,1301830,visual,1,[],"['1', '2', '3', '4']",1,2023.2.3,harveyvisual,2.1,[],8,0.75,
0,pause,0.4,None,None,None,0,135,135,135,,,,,,,,,,,,,1301830,visual,1,[],"['1', '2', '3', '4']",1,2023.2.3,harveyvisual,2.1,[],8,0.75,
20,dot,0.3,['dot'],['density'],black,0,136,136,136,,,50.00021195411682,49.72395706176758,50.02394914627075,dot,"[0.06, 0.06, 0.1, 0.06, 0.1, 0.08, 0.08, 0.1, 0.1, 0.1, 0.08, 0.1, 0.1, 0.06, 0.1, 0.06, 0.08, 0.1, 0.06, 0.08]","[[0.24691060084890581, 0.03419454244864473], [-0.045717989123352454, -0.5628227227170803], [0.4652528291070691, -0.17130084962421036], [0.15857998799596806, 0.4972869973957763], [-0.05594715894265334, -0.07999158412100338], [-0.4796155305049631, 0.01589377139469711], [-0.5020332048022201, 0.22229629831617015], [-0.4123756610850877, -0.1855572316485315], [0.4813486700284343, 0.11360204015564984], [-0.3384027786628326, 0.34802075793300047], [0.18278292566299448, -0.41333906613216687], [0.2696553618740901, 0.2995898311070606], [-0.21993989390548974, -0.26471865582750953], [-0.2883445583205369, 0.02484395150430474], [0.20531655415237626, -0.22442048599987796], [-0.030815290545118557, 0.24330718334665635], [-0.0318111072889089, 0.43580720293623565], [-0.2626627283359621, 0.5286474443662696], [0.008192394874355302, -0.3376596995422706], [0.3686597478061373, 0.47709161907146125]]",density,black,,,1301830,visual,1,[],"['1', '2', '3', '4']",1,2023.2.3,harveyvisual,2.1,[],8,0.75,
0,pause,0.4,None,None,None,0,137,137,137,,,,,,,,,,,,,1301830,visual,1,[],"['1', '2', '3', '4']",1,2023.2.3,harveyvisual,2.1,[],8,0.75,
20,dot,0.3,['dot'],['density'],black,0,138,138,138,,,50.700206995010376,50.423941135406494,50.72392797470093,dot,"[0.06, 0.08, 0.1, 0.08, 0.06, 0.06, 0.1, 0.08, 0.1, 0.08, 0.08, 0.08, 0.06, 0.06, 0.06, 0.06, 0.1, 0.06, 0.1, 0.08]","[[-0.09348595829496598, -0.26999222818437096], [0.38017294004338065, -0.15942338641255216], [0.5785542753044445, -0.023356635267847176], [-0.5660427957203901, 0.004010939911747918], [-0.027888908510365185, 0.4209813155625278], [-0.0641072477821536, 0.01906112502396773], [0.14069350022960214, 0.27084750600481033], [-0.48935186686440657, -0.2695861751380004], [0.044293070961690884, -0.4354817437283857], [0.09864111233901218, -0.21584883635605762], [0.21858867839220375, -0.018636097437505605], [0.46127963256421, 0.29169645125605737], [0.293455157874432, 0.42139428665718237], [-0.2979654501768319, -0.33819643708091063], [-0.16205135717580726, -0.5573840567770062], [-0.22974389585373062, 0.11458230981041861], [-0.4393517566486589, 0.20179072524601704], [-0.28755144348863687, 0.3987902749171427], [0.15470074589513594, 0.5659618317792997], [0.35616991953676347, -0.4475915615132965]]",density,black,,,1301830,visual,1,[],"['1', '2', '3', '4']",1,2023.2.3,harveyvisual,2.1,[],8,0.75,
0,pause,0.4,None,None,None,0,139,139,139,,,,,,,,,,,,,1301830,visual,1,[],"['1', '2', '3', '4']",1,2023.2.3,harveyvisual,2.1,[],8,0.75,
20,dot,0.3,['dot'],['density'],black,0,140,140,140,,,51.40021514892578,51.12392997741699,51.42391395568848,dot,"[0.08, 0.08, 0.06, 0.08, 0.08, 0.08, 0.1, 0.06, 0.1, 0.08, 0.06, 0.08, 0.08, 0.06, 0.08, 0.1, 0.06, 0.06, 0.1, 0.1]","[[0.02119092886825591, 0.4218239895209279], [0.42376457409713486, 0.2724720585117522], [-0.14967430744321103, 0.5079602840086223], [-0.3215075613698149, -0.42184592360339296], [-0.07073639673868004, -0.5705347095505459], [-0.5555780665979698, -0.13475047695484463], [-0.5165412109238985, 0.23719434765420438], [-0.12385075098642445, -0.3067109013073482], [0.11933872139192014, -0.44033883398452417], [-0.2563890635160117, 0.24583254575789015], [0.1653228368610783, 0.2037061607506082], [0.5147394335153587, -0.283099507180349], [0.15367691373728032, -0.23834734739851904], [-0.5993062204625683, 0.04976091341845208], [-0.1979611507271049, 0.024929443666451778], [0.5405130517482734, -0.07939371806846585], [0.20410281038138656, 0.5051850017579917], [0.3192755811414896, -0.38311173665982445], [-0.05692336176390955, 0.1582082228822329], [-0.038781042085150874, -0.10556466069372267]]",density,black,,,1301830,visual,1,[],"['1', '2', '3', '4']",1,2023.2.3,harveyvisual,2.1,[],8,0.75,
0,pause,0.4,None,None,None,0,141,141,141,,,,,,,,,,,,,1301830,visual,1,[],"['1', '2', '3', '4']",1,2023.2.3,harveyvisual,2.1,[],8,0.75,
20,dot,0.3,['dot'],['density'],black,0,142,142,142,,,52.10021209716797,51.82396101951599,52.123955965042114,dot,"[0.06, 0.1, 0.06, 0.08, 0.1, 0.06, 0.08, 0.08, 0.06, 0.06, 0.06, 0.06, 0.1, 0.1, 0.1, 0.08, 0.06, 0.08, 0.06, 0.08]","[[-0.11913851575164802, 0.1163095771373227], [0.38831649980270766, -0.30337851234660845], [-0.44868476236109617, -0.307086284481195], [-0.02028993643310284, 0.3916571426488177], [0.1162726760024968, 0.15569636606740755], [-0.02663991183624148, -0.12245638767754502], [0.49173489164134365, 0.14495706204270298], [-0.3916581148835534, -0.08808423047190778], [0.3258935114849796, -0.05154982849915013], [-0.05307780349361091, -0.5557011719363891], [-0.19417019033450617, -0.42216501490386427], [-0.5552868112877185, 0.19999266689236175], [0.19516366067265312, 0.43623515958893555], [0.194573544360494, -0.43333159240123814], [-0.5832650063721527, -0.10684718444418696], [0.5723023862664166, -0.14109329126940534], [0.3817220948443487, 0.3829752095959127], [-0.36273490272927134, 0.36076612048179674], [0.17516845276437953, -0.19536181461737945], [-0.15369008789236938, 0.5545406835426109]]",density,black,,,1301830,visual,1,[],"['1', '2', '3', '4']",1,2023.2.3,harveyvisual,2.1,[],8,0.75,
0,pause,0.4,None,None,None,0,143,143,143,,,,,,,,,,,,,1301830,visual,1,[],"['1', '2', '3', '4']",1,2023.2.3,harveyvisual,2.1,[],8,0.75,
20,dot,0.3,['dot'],['density'],black,0,144,144,144,,,52.80021405220032,52.5239360332489,52.82392406463623,dot,"[0.06, 0.08, 0.1, 0.08, 0.06, 0.06, 0.08, 0.08, 0.06, 0.1, 0.1, 0.08, 0.08, 0.06, 0.08, 0.08, 0.1, 0.08, 0.08, 0.06]","[[-0.14807057676114255, -0.28193878557765045], [-0.03249256396848288, -0.5928919841645469], [0.2796786963429475, 0.49385757893825033], [0.2710496489983354, -0.25880887316049994], [0.3394901912743372, 0.15975678654621295], [0.05170693083023614, -0.3829022660974377], [-0.07809741755744437, -0.054429004572815964], [0.39279866612926173, -0.42437220197435344], [0.4612566083222268, -0.14229847037029253], [-0.17042472877863868, 0.36651719116537407], [-0.46204202482713586, -0.021109485191612765], [0.1276217119657138, 0.35597497525809396], [0.17142442700764426, -0.5690479370832944], [-0.42313917906508536, 0.3508489760568829], [-0.32152924669009114, -0.183792890698545], [0.18207702200760922, -0.029089659393897516], [-0.07427404311077934, 0.5655701245167961], [-0.2688949441770544, 0.013476689161549427], [0.5829876757358744, 0.007153782758705318], [0.5138551861646526, 0.2590944892579549]]",density,black,,,1301830,visual,1,[],"['1', '2', '3', '4']",1,2023.2.3,harveyvisual,2.1,[],8,0.75,
0,pause,0.4,None,None,None,0,145,145,145,,,,,,,,,,,,,1301830,visual,1,[],"['1', '2', '3', '4']",1,2023.2.3,harveyvisual,2.1,[],8,0.75,
20,dot,0.3,['dot'],['density'],black,0,146,146,146,,,53.500208139419556,53.223905086517334,53.523849964141846,dot,"[0.08, 0.1, 0.08, 0.1, 0.08, 0.08, 0.06, 0.06, 0.08, 0.1, 0.08, 0.08, 0.1, 0.06, 0.06, 0.08, 0.08, 0.1, 0.06, 0.06]","[[-0.046194455846199856, 0.07960489614528132], [0.3550116409023554, 0.14157356142134664], [0.16584885723199072, -0.44251822062703194], [-0.20305329563128316, -0.538354224558389], [0.49420095036751366, -0.08574385579333632], [0.13088137435238978, 0.4683317959723621], [0.3271738376777581, -0.2678081194154389], [-0.4006804304217678, -0.3163008974208449], [0.3094375762597933, 0.39634372240868365], [0.0026487618092719822, -0.29514515513972117], [-0.15658352397420072, 0.5545563447848272], [-0.3223654555800736, 0.30155667251861495], [-0.28197705444512616, -0.13689203532697036], [-0.5154007420340482, 0.10880713447052304], [-0.47004817980402747, -0.08252550342536175], [0.5590510864672388, 0.21667076391575565], [-0.26454814710153746, 0.06066174507368616], [0.14883473183244578, -0.16788670954760898], [-0.1338267802270942, 0.33401533994659227], [0.16818875199191552, 0.03859314944027681]]",density,black,,,1301830,visual,1,[],"['1', '2', '3', '4']",1,2023.2.3,harveyvisual,2.1,[],8,0.75,
0,pause,0.4,None,None,None,0,147,147,147,,,,,,,,,,,,,1301830,visual,1,[],"['1', '2', '3', '4']",1,2023.2.3,harveyvisual,2.1,[],8,0.75,
20,dot,0.3,['dot'],['density'],black,0,148,148,148,,,54.20022201538086,53.92400407791138,54.223998069763184,dot,"[0.1, 0.1, 0.06, 0.1, 0.08, 0.1, 0.1, 0.06, 0.08, 0.1, 0.06, 0.06, 0.1, 0.06, 0.1, 0.06, 0.1, 0.06, 0.08, 0.1]","[[0.5081721659818422, 0.009841402192374726], [0.1702939096172199, -0.39482254869905187], [0.18310528584024366, 0.5042325856751849], [-0.23749942249739592, 0.33489937160220995], [-0.24271992958754807, -0.4534213074738129], [-0.5471295423562157, 0.1843951996897149], [-0.10811806828597276, -0.13161423375428183], [-0.5101314923109941, -0.06962823167995896], [0.026046066650657007, 0.22571048280968165], [0.30187570246679707, 0.16830085300940445], [0.21593270401282294, -0.1928797591229262], [-0.31603144256788124, -0.06730149971037297], [0.4698504789148924, 0.30730399210006165], [0.40136887069943683, -0.29736229930697855], [-0.05250893866438522, -0.31849319840262136], [-0.04105521054586003, -0.5159681878119156], [-0.49810812425572887, -0.27443331990521863], [0.13354685524710463, 0.02027805613028577], [-0.040486665695987245, 0.4043217229534881], [-0.44743107071449495, 0.35147949824563046]]",density,black,,,1301830,visual,1,[],"['1', '2', '3', '4']",1,2023.2.3,harveyvisual,2.1,[],8,0.75,
0,pause,0.4,None,None,None,0,149,149,149,,,,,,,,,,,,,1301830,visual,1,[],"['1', '2', '3', '4']",1,2023.2.3,harveyvisual,2.1,[],8,0.75,
20,dot,0.3,['dot'],['density'],black,0,150,150,150,,,54.90021300315857,54.62399911880493,54.92387914657593,dot,"[0.08, 0.08, 0.1, 0.06, 0.08, 0.1, 0.08, 0.08, 0.06, 0.08, 0.08, 0.1, 0.08, 0.1, 0.1, 0.08, 0.06, 0.06, 0.1, 0.1]","[[-0.46870312681213044, 0.0037295317131405548], [-0.12862530558152946, 0.5239593763123065], [0.13594036331379622, 0.10555195459373046], [-0.28413843829118257, -0.5120829698708746], [-0.06905548958865904, 0.01936527125672427], [0.11335200651609012, -0.5419767812278445], [0.2840443845066368, -0.3330522536863691], [0.4621145447412841, -0.05539289544210957], [0.27755390737510055, 0.5060432004952612], [-0.24744221566832597, -0.2832302737262335], [0.057848312209335395, 0.4126049833799371], [-0.34192912489568583, 0.41864081102987355], [0.548747339694912, 0.2258176607625994], [-0.1017802809225713, -0.45501167951068844], [0.17518041221757719, -0.10463471506351574], [0.017645041012830376, -0.2585066652532336], [-0.4645229702485667, -0.21635726501096583], [0.3166668571707335, 0.31889069294799344], [-0.2307340275069839, 0.141190098776117], [0.5273609735145347, -0.24088502799473144]]",density,black,,,1301830,visual,1,[],"['1', '2', '3', '4']",1,2023.2.3,harveyvisual,2.1,[],8,0.75,
0,pause,0.4,None,None,None,0,151,151,151,,,,,,,,,,,,,1301830,visual,1,[],"['1', '2', '3', '4']",1,2023.2.3,harveyvisual,2.1,[],8,0.75,
20,dot,0.3,['dot'],['density'],black,0,152,152,152,,,55.600224018096924,55.323997020721436,55.62400197982788,dot,"[0.06, 0.1, 0.08, 0.06, 0.1, 0.06, 0.1, 0.08, 0.08, 0.08, 0.08, 0.1, 0.08, 0.1, 0.1, 0.1, 0.1, 0.08, 0.1, 0.1]","[[-0.2772143428236898, 0.013708283301050672], [-0.5679358906324347, 0.16394820469851254], [0.0855389873242125, -0.588092862341616], [0.09170206401172831, -0.19059515845524594], [0.5392892801536234, -0.2269895613898562], [0.5844321700715575, 0.1300182333169008], [0.15047922549192272, 0.49594535060954437], [-0.3893459477909131, -0.18698165090263924], [0.4287946389868441, 0.3700067686067812], [0.3973588712821413, 0.16073820792835503], [0.1443392632418844, 0.25443617148407693], [0.3417136681168459, -0.05287389977770707], [-0.5674027955883415, -0.0364433695988772], [-0.2696625648352685, 0.3180780762164409], [-0.13305370696951563, -0.5237047995022037], [-0.10275279725807007, 0.5924996234475787], [0.14215814888786138, -0.39237620774481485], [-0.09854380036483967, 0.12880209168089896], [-0.36995680162855327, -0.40708863816112373], [-0.1984107173602384, -0.22927794655973543]]",density,black,,,1301830,visual,1,[],"['1', '2', '3', '4']",1,2023.2.3,harveyvisual,2.1,[],8,0.75,
0,pause,0.4,None,None,None,0,153,153,153,,,,,,,,,,,,,1301830,visual,1,[],"['1', '2', '3', '4']",1,2023.2.3,harveyvisual,2.1,[],8,0.75,
20,dot,0.3,['dot'],['density'],black,0,154,154,154,,,56.300209045410156,56.0239999294281,56.324028968811035,dot,"[0.08, 0.1, 0.1, 0.08, 0.1, 0.06, 0.06, 0.08, 0.08, 0.06, 0.1, 0.06, 0.06, 0.08, 0.08, 0.1, 0.1, 0.08, 0.1, 0.06]","[[-0.4511298566626418, -0.25861780991121375], [0.13765309327357234, -0.5046863464205703], [-0.16632829282624934, 0.11110259258558297], [0.5069054806613916, 0.19713536182791963], [-0.37399618672146673, 0.30655516782166126], [0.17341368814407154, 0.5038905970259387], [0.14593801510882265, 0.04031520638663855], [-0.3828656959052765, -0.0051640454234884725], [0.0022736192362218244, -0.3348170559768405], [-0.18027793070250875, 0.36550836350304305], [0.5483018521220034, -0.15115346362956952], [-0.1799536437611129, -0.4610137626924205], [0.2837534016660104, -0.15344403299242432], [0.01815961504665531, 0.31288480100733285], [-0.5655306073349452, 0.10043895631457256], [0.45447034409908704, -0.31887218487287794], [-0.016174058297048766, -0.11666935647859944], [0.2131208383874602, 0.27713083058138155], [-0.08441976558200204, 0.5510151242541357], [-0.20468541476635083, -0.0964131288472937]]",density,black,,,1301830,visual,1,[],"['1', '2', '3', '4']",1,2023.2.3,harveyvisual,2.1,[],8,0.75,
0,pause,0.4,None,None,None,0,155,155,155,,,,,,,,,,,,,1301830,visual,1,[],"['1', '2', '3', '4']",1,2023.2.3,harveyvisual,2.1,[],8,0.75,
9,dot,0.3,['dot'],['density'],black,0,156,156,156,,,57.00022006034851,56.70729303359985,57.02401900291443,dot,"[0.06, 0.08, 0.1, 0.1, 0.06, 0.06, 0.08, 0.1, 0.06]","[[0.17250841666444466, -0.5173949811024123], [-0.03744062107829021, -0.3895067986023326], [0.30010350549611725, -0.35742528465303014], [0.33064876224298684, -0.08057424749072183], [-0.16743636965090838, -0.09291053242622109], [0.1226827020066543, -0.24711763375004436], [0.047527772487498496, -0.037432207059122605], [0.20928928941955194, 0.09999474740890861], [-0.30040876562534896, -0.42726910911839744]]",density,black,,,1301830,visual,1,[],"['1', '2', '3', '4']",1,2023.2.3,harveyvisual,2.1,[],8,0.75,
0,pause,0.4,None,None,None,0,157,157,157,,,,,,,,,,,,,1301830,visual,1,[],"['1', '2', '3', '4']",1,2023.2.3,harveyvisual,2.1,[],8,0.75,
9,dot,0.3,['dot'],['density'],black,0,158,158,158,,,57.70022892951965,57.40725803375244,57.72376298904419,dot,"[0.08, 0.1, 0.1, 0.08, 0.06, 0.1, 0.1, 0.06, 0.1]","[[-0.3143165991636532, -0.4594448536910345], [-0.2552048841139852, -0.06866208597721758], [-0.4539914907372049, -0.019462523532982], [-0.0016330512078212595, -0.20036737320767878], [-0.1856154264835833, -0.2915493351998931], [-0.41369389823818076, -0.2734186166626005], [0.2388286227728169, -0.07063581723838416], [0.0412368179136257, 0.05808754956878123], [-0.37802967984412894, 0.19285536194211775]]",density,black,,,1301830,visual,1,[],"['1', '2', '3', '4']",1,2023.2.3,harveyvisual,2.1,[],8,0.75,
0,pause,0.4,None,None,None,0,159,159,159,,,,,,,,,,,,,1301830,visual,1,[],"['1', '2', '3', '4']",1,2023.2.3,harveyvisual,2.1,[],8,0.75,
9,dot,0.3,['dot'],['density'],black,0,160,160,160,,,58.400229930877686,58.10706901550293,58.42372703552246,dot,"[0.08, 0.08, 0.06, 0.1, 0.08, 0.06, 0.1, 0.06, 0.06]","[[0.23250081832313607, -0.03448075506690146], [0.3034476098774822, 0.1830296703973891], [-0.18904104685434053, 0.18833284185042862], [0.2553794676357457, 0.5314352583170906], [0.16363099535363254, 0.3461022642192175], [-0.0841935017478271, 0.3664174397160571], [-0.26748786402911323, -0.05736109653727262], [0.043842773669028334, 0.577246673499167], [0.02102957219118283, 0.0979254794926055]]",density,black,,,1301830,visual,1,[],"['1', '2', '3', '4']",1,2023.2.3,harveyvisual,2.1,[],8,0.75,
0,pause,0.4,None,None,None,0,161,161,161,,,,,,,,,,,,,1301830,visual,1,[],"['1', '2', '3', '4']",1,2023.2.3,harveyvisual,2.1,[],8,0.75,
9,dot,0.3,['dot'],['density'],black,0,162,162,162,,,59.1002299785614,58.80705809593201,59.12374210357666,dot,"[0.08, 0.08, 0.08, 0.08, 0.1, 0.06, 0.06, 0.1, 0.1]","[[-0.4219467838066047, -0.18114019941065054], [-0.2081543488995217, -0.4860059455967178], [-0.008274735502094755, -0.3457533902190916], [0.02376323820852766, -0.0891001390581758], [-0.4116277839025775, 0.058108040724694845], [-0.18144554169200455, -0.05292133149533743], [0.21944315682242976, -0.26450239569476724], [0.11466821484809545, 0.13327019789913197], [-0.2288148866166432, -0.2599929378926301]]",density,black,,,1301830,visual,1,[],"['1', '2', '3', '4']",1,2023.2.3,harveyvisual,2.1,[],8,0.75,
0,pause,0.4,None,None,None,0,163,163,163,,,,,,,,,,,,,1301830,visual,1,[],"['1', '2', '3', '4']",1,2023.2.3,harveyvisual,2.1,[],8,0.75,
9,dot,0.3,['dot'],['density'],white,0,164,164,164,,,59.80020499229431,59.507041931152344,59.823683977127075,dot,"[0.1, 0.08, 0.08, 0.08, 0.06, 0.1, 0.1, 0.06, 0.1]","[[0.050129075631511706, -0.29659829200500587], [0.1522424042566208, -0.02012498145544232], [-0.31773020450764894, 0.09756431981266957], [-0.25388767024787284, -0.20865833148222632], [-0.06549152868915667, -0.10253084504872755], [-0.047012852932693645, 0.11741599898337682], [0.26526013051082903, -0.18996189821299347], [0.2442588296558726, 0.17404051307925203], [0.053323608967773835, 0.34462047536600726]]",density,white,,,1301830,visual,1,[],"['1', '2', '3', '4']",1,2023.2.3,harveyvisual,2.1,[],8,0.75,
0,pause,0.4,None,None,None,0,165,165,165,,,,,,,,,,,1,59.95767402648926,1301830,visual,1,[],"['1', '2', '3', '4']",1,2023.2.3,harveyvisual,2.1,[],8,0.75,
9,dot,0.3,['dot'],['density'],black,0,166,166,166,,,60.50020098686218,60.2070050239563,60.52366495132446,dot,"[0.08, 0.06, 0.08, 0.08, 0.06, 0.08, 0.08, 0.08, 0.08]","[[0.38655548767220327, 0.3303110468779764], [-0.15062718332117264, 0.3263612679497012], [0.12850016508903517, 0.5435449351404695], [0.04975739233973968, 0.11256198773833849], [0.05418506391445401, 0.3174451450657875], [0.282644584802279, 0.13382110200906677], [0.4968372747528943, 0.11977440893831985], [-0.17748280977865974, 0.12733825933579754], [-0.16508880216336755, 0.5437291489982663]]",density,black,,,1301830,visual,1,[],"['1', '2', '3', '4']",1,2023.2.3,harveyvisual,2.1,[],8,0.75,
0,pause,0.4,None,None,None,0,167,167,167,,,,,,,,,,,,,1301830,visual,1,[],"['1', '2', '3', '4']",1,2023.2.3,harveyvisual,2.1,[],8,0.75,
8,dot,0.3,['dot'],['density'],black,0,168,168,168,,,61.20020413398743,60.90704703330994,61.22366905212402,dot,"[0.1, 0.1, 0.1, 0.1, 0.08, 0.06, 0.1, 0.08]","[[-0.17382250058115215, 0.008030820220576582], [-0.5561520679887834, 0.09064024109159684], [-0.2322770524578434, -0.18818443710846813], [-0.41357291590276396, -0.2905316508268561], [-0.37423053416790164, -0.04064357687765813], [-0.014699175284411378, 0.15059198662288528], [-0.015485985535575739, -0.1348843831724925], [-0.36639977644872057, 0.228205681233079]]",density,black,,,1301830,visual,1,[],"['1', '2', '3', '4']",1,2023.2.3,harveyvisual,2.1,[],8,0.75,
0,pause,0.4,None,None,None,0,169,169,169,,,,,,,,,,,,,1301830,visual,1,[],"['1', '2', '3', '4']",1,2023.2.3,harveyvisual,2.1,[],8,0.75,
8,dot,0.3,['dot'],['density'],black,0,170,170,170,,,61.900229930877686,61.606969118118286,61.92366003990173,dot,"[0.06, 0.08, 0.06, 0.1, 0.08, 0.1, 0.08, 0.08]","[[0.34834348934164344, -0.28812382596974456], [-0.10329597477015798, -0.5243874580500916], [0.11080732975293575, -0.39067626210733153], [-0.006800183936578442, -0.10390350920236302], [0.17453264242573352, -0.004648084789036161], [-0.11839138898177409, -0.2765800857961495], [-0.2122949223397977, -0.08354151726817095], [0.0010823045536620208, 0.09995244087301837]]",density,black,,,1301830,visual,1,[],"['1', '2', '3', '4']",1,2023.2.3,harveyvisual,2.1,[],8,0.75,
0,pause,0.4,None,None,None,0,171,171,171,,,,,,,,,,,,,1301830,visual,1,[],"['1', '2', '3', '4']",1,2023.2.3,harveyvisual,2.1,[],8,0.75,
8,dot,0.3,['dot'],['density'],black,0,172,172,172,,,62.60021114349365,62.30696511268616,62.62362313270569,dot,"[0.06, 0.1, 0.1, 0.1, 0.08, 0.08, 0.1, 0.08]","[[0.17295790489511154, -0.46037743866749825], [0.1416591427765588, 0.05421051799673566], [0.21994266958916148, -0.13656690113679631], [0.3639906379971415, 0.0627265571221228], [0.015481321741344221, -0.13916897583717935], [0.440802488837635, -0.2883976186876931], [0.5157567705321767, -0.08800602901884749], [0.24768837887357187, 0.24424825162618136]]",density,black,,,1301830,visual,1,[],"['1', '2', '3', '4']",1,2023.2.3,harveyvisual,2.1,[],8,0.75,
0,pause,0.4,None,None,None,0,173,173,173,,,,,,,,,,,,,1301830,visual,1,[],"['1', '2', '3', '4']",1,2023.2.3,harveyvisual,2.1,[],8,0.75,
8,dot,0.3,['dot'],['density'],black,0,174,174,174,,,63.30022311210632,63.00692892074585,63.32360100746155,dot,"[0.08, 0.08, 0.1, 0.06, 0.1, 0.08, 0.1, 0.08]","[[-0.19469543066458847, -0.326291241472255], [0.30343637985980976, -0.10925869102227477], [-0.1969922581528186, -0.11664339975312436], [0.2570255161168456, -0.3247060146943647], [0.10684135558856425, -0.18174565546534566], [0.03482742583321104, -0.4893606045609451], [-0.015658395544436696, -0.0001692298399926468], [0.11980560642279467, 0.15585563517441894]]",density,black,,,1301830,visual,1,[],"['1', '2', '3', '4']",1,2023.2.3,harveyvisual,2.1,[],8,0.75,
0,pause,0.4,None,None,None,0,175,175,175,,,,,,,,,,,,,1301830,visual,1,[],"['1', '2', '3', '4']",1,2023.2.3,harveyvisual,2.1,[],8,0.75,
8,dot,0.3,['dot'],['density'],black,0,176,176,176,,,64.00022506713867,63.70691514015198,64.02358794212341,dot,"[0.1, 0.1, 0.08, 0.08, 0.08, 0.1, 0.1, 0.1]","[[-0.4639556696772753, 0.10472599959088454], [-0.22970357876872852, 0.24758381400794424], [-0.060094057158436125, -0.14613975383200573], [-0.022569829209962654, 0.2677975872319761], [-0.3077859326170116, -0.10488986274105515], [-0.16040535020917, 0.031608708128470005], [-0.5175577931920246, -0.20517812764611504], [0.1194024413118107, 0.007837779916585986]]",density,black,,,1301830,visual,1,[],"['1', '2', '3', '4']",1,2023.2.3,harveyvisual,2.1,[],8,0.75,
0,pause,0.4,None,None,None,0,177,177,177,,,,,,,,,,,,,1301830,visual,1,[],"['1', '2', '3', '4']",1,2023.2.3,harveyvisual,2.1,[],8,0.75,
8,dot,0.3,['dot'],['density'],black,0,178,178,178,,,64.70021295547485,64.40688991546631,64.72355198860168,dot,"[0.08, 0.06, 0.06, 0.06, 0.06, 0.08, 0.1, 0.06]","[[-0.13214754069031825, -0.5402677255150703], [0.1288984478000013, -0.5519726475135984], [0.27401725229332, -0.34994268047279037], [-0.052680844420756816, 0.006786609240531098], [0.03557367748195712, -0.3699094958310016], [-0.23170140006741713, -0.18198058676873416], [-0.33504621301322857, -0.3611685350886627], [0.0760940577115827, -0.14857148175569432]]",density,black,,,1301830,visual,1,[],"['1', '2', '3', '4']",1,2023.2.3,harveyvisual,2.1,[],8,0.75,
0,pause,0.4,None,None,None,0,179,179,179,,,,,,,,,,,,,1301830,visual,1,[],"['1', '2', '3', '4']",1,2023.2.3,harveyvisual,2.1,[],8,0.75,
7,dot,0.3,['dot'],['density'],black,0,180,180,180,,,65.40022897720337,65.10686898231506,65.42362093925476,dot,"[0.06, 0.1, 0.1, 0.06, 0.08, 0.06, 0.08]","[[0.3302081014073935, 0.19448071361351732], [-0.22286629369238187, 0.3450023392305547], [-0.11533339293480348, 0.13926201039730488], [0.12023407780451623, 0.21240672508650668], [0.2659789407074307, 0.3894086603790018], [0.026604934602130894, 0.39133200849180605], [0.212400253920387, 0.027377351413115796]]",density,black,,,1301830,visual,1,[],"['1', '2', '3', '4']",1,2023.2.3,harveyvisual,2.1,[],8,0.75,
0,pause,0.4,None,None,None,0,181,181,181,,,,,,,,,,,,,1301830,visual,1,[],"['1', '2', '3', '4']",1,2023.2.3,harveyvisual,2.1,[],8,0.75,
7,dot,0.3,['dot'],['density'],black,0,182,182,182,,,66.10021996498108,65.80692410469055,66.12357091903687,dot,"[0.08, 0.1, 0.06, 0.1, 0.08, 0.06, 0.08]","[[0.3350011905151264, 0.09255159473130091], [-0.07424962927914175, -0.2643067362759337], [-0.0068732696698998825, 0.04948606721470151], [0.12855319879406235, -0.3381192636220083], [0.11551090787938859, 0.24000211478775196], [0.3415900712266813, -0.1269386107563701], [0.14228147320501944, -0.08533637750285226]]",density,black,,,1301830,visual,1,[],"['1', '2', '3', '4']",1,2023.2.3,harveyvisual,2.1,[],8,0.75,
0,pause,0.4,None,None,None,0,183,183,183,,,,,,,,,,,,,1301830,visual,1,[],"['1', '2', '3', '4']",1,2023.2.3,harveyvisual,2.1,[],8,0.75,
7,dot,0.3,['dot'],['density'],black,0,184,184,184,,,66.80022192001343,66.50688695907593,66.82352614402771,dot,"[0.1, 0.1, 0.1, 0.1, 0.08, 0.08, 0.08]","[[-0.2877807563129739, -0.2392998172879968], [-0.4930284393840153, 0.02918626900802282], [-0.13307942101536208, -0.4135874564509098], [-0.1727922191076213, -0.04289663127052677], [-0.3943840059764042, -0.4351600913800347], [-0.03321109949484203, -0.21096883087625085], [-0.5418728138863746, -0.1990057631286019]]",density,black,,,1301830,visual,1,[],"['1', '2', '3', '4']",1,2023.2.3,harveyvisual,2.1,[],8,0.75,
0,pause,0.4,None,None,None,0,185,185,185,,,,,,,,,,,,,1301830,visual,1,[],"['1', '2', '3', '4']",1,2023.2.3,harveyvisual,2.1,[],8,0.75,
7,dot,0.3,['dot'],['density'],black,0,186,186,186,,,67.5002031326294,67.20685696601868,67.52347707748413,dot,"[0.08, 0.08, 0.06, 0.1, 0.06, 0.08, 0.1]","[[0.19245168201499255, -0.1876960705048169], [-0.3381443552002159, -0.23329338142126996], [-0.10497405195571721, -0.20200038512761503], [-0.19215049966389516, -0.01485034356210763], [-0.14804808022624072, 0.20187381879058183], [0.049390412829639754, -0.0077734514623590935], [0.08212821656350888, 0.19234027401595055]]",density,black,,,1301830,visual,1,[],"['1', '2', '3', '4']",1,2023.2.3,harveyvisual,2.1,[],8,0.75,
0,pause,0.4,None,None,None,0,187,187,187,,,,,,,,,,,,,1301830,visual,1,[],"['1', '2', '3', '4']",1,2023.2.3,harveyvisual,2.1,[],8,0.75,
7,dot,0.3,['dot'],['density'],black,0,188,188,188,,,68.20020914077759,67.90681314468384,68.22345900535583,dot,"[0.06, 0.06, 0.08, 0.06, 0.06, 0.1, 0.06]","[[0.4852053974746821, 0.2414638673891567], [0.4489127705046299, 0.011725618337583463], [0.18065050592779294, 0.3526250807613559], [0.03625639584007868, 0.1261309995663498], [0.1794309074695897, -0.0624577020416761], [0.2856641480650803, 0.17770493422509798], [0.3124387752689665, -0.21816880331392838]]",density,black,,,1301830,visual,1,[],"['1', '2', '3', '4']",1,2023.2.3,harveyvisual,2.1,[],8,0.75,
0,pause,0.4,None,None,None,0,189,189,189,,,,,,,,,,,,,1301830,visual,1,[],"['1', '2', '3', '4']",1,2023.2.3,harveyvisual,2.1,[],8,0.75,
7,dot,0.3,['dot'],['density'],black,0,190,190,190,,,68.9002411365509,68.60684394836426,68.92353105545044,dot,"[0.08, 0.1, 0.08, 0.08, 0.1, 0.06, 0.1]","[[-0.1635229753841098, 0.12186382262109141], [0.03437657187081179, 0.5178389267683822], [0.324184412335695, 0.17931743601205324], [0.08929018524031027, 0.11005745596178185], [-0.1318259817332877, 0.4026967659136047], [-0.053046683696667, -0.06058584598870606], [0.042745683665752716, 0.304616966822181]]",density,black,,,1301830,visual,1,[],"['1', '2', '3', '4']",1,2023.2.3,harveyvisual,2.1,[],8,0.75,
0,pause,0.4,None,None,None,0,191,191,191,,,,,,,,,,,,,1301830,visual,1,[],"['1', '2', '3', '4']",1,2023.2.3,harveyvisual,2.1,[],8,0.75,
6,dot,0.3,['dot'],['density'],black,0,192,192,192,,,69.6002049446106,69.30684304237366,69.62347912788391,dot,"[0.1, 0.1, 0.1, 0.06, 0.1, 0.06]","[[-0.11553075830627273, 0.47698778124428043], [-0.1112787518129194, 0.10456141670764223], [-0.48855705683845824, 0.21494657582805063], [-0.2538299919008863, 0.2532006538804931], [-0.3271837865365474, 0.4662148945367939], [0.006792750312598743, 0.27345996435494924]]",density,black,,,1301830,visual,1,[],"['1', '2', '3', '4']",1,2023.2.3,harveyvisual,2.1,[],8,0.75,
0,pause,0.4,None,None,None,0,193,193,193,,,,,,,,,,,,,1301830,visual,1,[],"['1', '2', '3', '4']",1,2023.2.3,harveyvisual,2.1,[],8,0.75,
6,dot,0.3,['dot'],['density'],black,0,194,194,194,,,70.30020999908447,70.00689911842346,70.32350301742554,dot,"[0.1, 0.06, 0.08, 0.08, 0.1, 0.06]","[[0.5108460974500976, 0.10904555526594768], [0.5033362887342737, -0.29902707163897635], [0.3062164979741722, 0.05793810054487639], [0.22849736264613016, -0.28041776899433873], [0.12909977445373055, -0.06500178518750158], [0.41889526300287094, -0.11616960582105396]]",density,black,,,1301830,visual,1,[],"['1', '2', '3', '4']",1,2023.2.3,harveyvisual,2.1,[],8,0.75,
0,pause,0.4,None,None,None,0,195,195,195,,,,,,,,,,,,,1301830,visual,1,[],"['1', '2', '3', '4']",1,2023.2.3,harveyvisual,2.1,[],8,0.75,
6,dot,0.3,['dot'],['density'],black,0,196,196,196,,,71.00022292137146,70.70675301551819,71.02347803115845,dot,"[0.08, 0.06, 0.08, 0.06, 0.08, 0.1]","[[-0.3495133471434448, -0.27378397825191725], [-0.13100446626766318, 0.13866361521721876], [-0.5155090776439144, 0.11776884681908774], [-0.4780287848267884, -0.11588239978167382], [-0.11897161770401087, -0.0933943475842369], [-0.303431097341306, -0.010759678588622423]]",density,black,,,1301830,visual,1,[],"['1', '2', '3', '4']",1,2023.2.3,harveyvisual,2.1,[],8,0.75,
0,pause,0.4,None,None,None,0,197,197,197,,,,,,,,,,,,,1301830,visual,1,[],"['1', '2', '3', '4']",1,2023.2.3,harveyvisual,2.1,[],8,0.75,
6,dot,0.3,['dot'],['density'],white,0,198,198,198,,,71.70021510124207,71.40671896934509,71.72339606285095,dot,"[0.08, 0.1, 0.1, 0.08, 0.06, 0.06]","[[-0.4836161913484198, -0.3187453071493452], [-0.26471688047626735, -0.2860523134109648], [-0.41762950244179403, 0.08668289631298715], [-0.3878484475239729, -0.1200129628316565], [-0.19654931186518254, -0.017200237521102193], [-0.07523945320955261, -0.19429752312200124]]",density,white,,,1301830,visual,1,[],"['1', '2', '3', '4']",1,2023.2.3,harveyvisual,2.1,[],8,0.75,
0,pause,0.4,None,None,None,0,199,199,199,,,,,,,,,,,1,71.93918299674988,1301830,visual,1,[],"['1', '2', '3', '4']",1,2023.2.3,harveyvisual,2.1,[],8,0.75,
6,dot,0.3,['dot'],['density'],black,0,200,200,200,,,72.40021800994873,72.1067111492157,72.42336702346802,dot,"[0.06, 0.08, 0.1, 0.06, 0.06, 0.1]","[[-0.4836161913484198, -0.3187453071493452], [-0.26471688047626735, -0.2860523134109648], [-0.41762950244179403, 0.08668289631298715], [-0.3878484475239729, -0.1200129628316565], [-0.19654931186518254, -0.017200237521102193], [-0.07523945320955261, -0.19429752312200124]]",density,black,,,1301830,visual,1,[],"['1', '2', '3', '4']",1,2023.2.3,harveyvisual,2.1,[],8,0.75,
0,pause,0.4,None,None,None,0,201,201,201,,,,,,,,,,,,,1301830,visual,1,[],"['1', '2', '3', '4']",1,2023.2.3,harveyvisual,2.1,[],8,0.75,
6,dot,0.3,['dot'],['density'],white,0,202,202,202,,,73.10022401809692,72.8066999912262,73.12334513664246,dot,"[0.06, 0.08, 0.06, 0.06, 0.1, 0.1]","[[0.4249538099490167, -0.025354946498656116], [0.305005901383002, 0.397829445973664], [0.04954868862097969, 0.09819418046919175], [0.452299537631068, 0.2574679639516015], [0.21081936584905453, -0.08903757916275208], [0.27954488569289765, 0.14103100078867375]]",density,white,,,1301830,visual,1,[],"['1', '2', '3', '4']",1,2023.2.3,harveyvisual,2.1,[],8,0.75,
0,pause,0.4,None,None,None,0,203,203,203,,,,,,,,,,,1,73.17748808860779,1301830,visual,1,[],"['1', '2', '3', '4']",1,2023.2.3,harveyvisual,2.1,[],8,0.75,
5,dot,0.3,['dot'],['density'],black,0,204,204,204,,,73.80022597312927,73.506667137146,73.82334995269775,dot,"[0.1, 0.08, 0.08, 0.06, 0.06]","[[-0.2338402938730933, 0.15846616122991625], [-0.3229678957369872, -0.0901175890533356], [-0.5034912146055804, 0.021834460539281654], [-0.23914892391179104, -0.28496604153387733], [-0.10132718886958789, -0.1172648190903725]]",density,black,,,1301830,visual,1,[],"['1', '2', '3', '4']",1,2023.2.3,harveyvisual,2.1,[],8,0.75,
0,pause,0.4,None,None,None,0,205,205,205,,,,,,,,,,,,,1301830,visual,1,[],"['1', '2', '3', '4']",1,2023.2.3,harveyvisual,2.1,[],8,0.75,
5,dot,0.3,['dot'],['density'],black,0,206,206,206,,,74.50020694732666,74.20666694641113,74.52332496643066,dot,"[0.06, 0.06, 0.06, 0.08, 0.1]","[[-0.20882687658313398, 0.05979685123170853], [0.07709165915785691, 0.33819008637117026], [0.02323578322535992, 0.12175330968231063], [0.02522363087913582, -0.08718927316059993], [-0.12152044988768049, 0.28453648995279207]]",density,black,,,1301830,visual,1,[],"['1', '2', '3', '4']",1,2023.2.3,harveyvisual,2.1,[],8,0.75,
0,pause,0.4,None,None,None,0,207,207,207,,,,,,,,,,,,,1301830,visual,1,[],"['1', '2', '3', '4']",1,2023.2.3,harveyvisual,2.1,[],8,0.75,
5,dot,0.3,['dot'],['density'],black,0,208,208,208,,,75.20022010803223,74.90667605400085,75.22331404685974,dot,"[0.06, 0.08, 0.08, 0.08, 0.1]","[[0.36014554898799966, 0.387810422325294], [0.055757472799778995, 0.16941293674392635], [0.2210739480460382, 0.008175952352481365], [0.48495712857242873, 0.07425785546611247], [0.25975240449222103, 0.2092734881649904]]",density,black,,,1301830,visual,1,[],"['1', '2', '3', '4']",1,2023.2.3,harveyvisual,2.1,[],8,0.75,
0,pause,0.4,None,None,None,0,209,209,209,,,,,,,,,,,,,1301830,visual,1,[],"['1', '2', '3', '4']",1,2023.2.3,harveyvisual,2.1,[],8,0.75,
5,dot,0.3,['dot'],['density'],black,0,210,210,210,,,75.90023303031921,75.60662198066711,75.9233090877533,dot,"[0.08, 0.06, 0.06, 0.1, 0.1]","[[-0.13667773294397823, -0.4810836359727921], [0.22435054442879343, -0.38211739689247126], [0.18745946747878278, -0.17039478388844306], [0.024239655080151325, -0.29759851870815907], [0.08919077751561523, -0.5300131723353856]]",density,black,,,1301830,visual,1,[],"['1', '2', '3', '4']",1,2023.2.3,harveyvisual,2.1,[],8,0.75,
0,pause,0.4,None,None,None,0,211,211,211,,,,,,,,,,,,,1301830,visual,1,[],"['1', '2', '3', '4']",1,2023.2.3,harveyvisual,2.1,[],8,0.75,
5,dot,0.3,['dot'],['density'],black,0,212,212,212,,,76.60021209716797,76.30674004554749,76.62339901924133,dot,"[0.06, 0.06, 0.1, 0.06, 0.1]","[[-0.5348211864270219, -0.08335004612931018], [-0.428892633085643, 0.14758700623805307], [-0.3277098387322906, -0.27887202276080253], [-0.29687101947458117, -0.03792463078145938], [-0.23363771935579355, 0.21194794904782605]]",density,black,,,1301830,visual,1,[],"['1', '2', '3', '4']",1,2023.2.3,harveyvisual,2.1,[],8,0.75,
0,pause,0.4,None,None,None,0,213,213,213,,,,,,,,,,,,,1301830,visual,1,[],"['1', '2', '3', '4']",1,2023.2.3,harveyvisual,2.1,[],8,0.75,
5,dot,0.3,['dot'],['density'],black,0,214,214,214,,,77.30023312568665,77.00672793388367,77.3232901096344,dot,"[0.1, 0.08, 0.08, 0.1, 0.08]","[[-0.4004020094395207, -0.04445243948850948], [-0.17181756668418613, -0.18180129995893848], [-0.46264198425852476, 0.17889071841303528], [-0.23640824159873003, 0.08340028676903545], [-0.2824747884808712, 0.2826805534387526]]",density,black,,,1301830,visual,1,[],"['1', '2', '3', '4']",1,2023.2.3,harveyvisual,2.1,[],8,0.75,
0,pause,0.4,None,None,None,0,215,215,215,,,,,,,,,,,,,1301830,visual,1,[],"['1', '2', '3', '4']",1,2023.2.3,harveyvisual,2.1,[],8,0.75,
4,dot,0.3,['dot'],['density'],black,0,216,216,216,,,78.000235080719,77.70658493041992,78.02337002754211,dot,"[0.08, 0.1, 0.06, 0.06]","[[0.13421512820946938, -0.5336194340609706], [0.2622623892029083, -0.3575253733063478], [0.024533045116508903, -0.3376850530006363], [0.166924465117498, -0.0963569090623874]]",density,black,,,1301830,visual,1,[],"['1', '2', '3', '4']",1,2023.2.3,harveyvisual,2.1,[],8,0.75,
0,pause,0.4,None,None,None,0,217,217,217,,,,,,,,,,,,,1301830,visual,1,[],"['1', '2', '3', '4']",1,2023.2.3,harveyvisual,2.1,[],8,0.75,
4,dot,0.3,['dot'],['density'],black,0,218,218,218,,,78.70021414756775,78.40655493736267,78.72334504127502,dot,"[0.1, 0.1, 0.06, 0.1]","[[0.06326389353998313, -0.3457479010937814], [-0.07512051392095552, -0.02196355495157639], [0.09410934090401228, -0.14113260442523076], [-0.13717358852421138, -0.29916566844175635]]",density,black,,,1301830,visual,1,[],"['1', '2', '3', '4']",1,2023.2.3,harveyvisual,2.1,[],8,0.75,
0,pause,0.4,None,None,None,0,219,219,219,,,,,,,,,,,,,1301830,visual,1,[],"['1', '2', '3', '4']",1,2023.2.3,harveyvisual,2.1,[],8,0.75,
4,dot,0.3,['dot'],['density'],black,0,220,220,220,,,79.40022301673889,79.10671591758728,79.42319393157959,dot,"[0.08, 0.1, 0.08, 0.06]","[[-0.24231220575667195, -0.22966258239168486], [-0.5136420973432148, -0.13696856920477488], [-0.4300726721285167, 0.13088957628356482], [-0.3148289313469241, -0.03851715211982174]]",density,black,,,1301830,visual,1,[],"['1', '2', '3', '4']",1,2023.2.3,harveyvisual,2.1,[],8,0.75,
0,pause,0.4,None,None,None,0,221,221,221,,,,,,,,,,,,,1301830,visual,1,[],"['1', '2', '3', '4']",1,2023.2.3,harveyvisual,2.1,[],8,0.75,
4,dot,0.3,['dot'],['density'],white,0,222,222,222,,,80.10021495819092,79.80665898323059,80.12314414978027,dot,"[0.06, 0.1, 0.1, 0.06]","[[0.08172100217045614, 0.5402562525463245], [-0.024891988969352973, 0.31595276793208527], [-0.14685316472848742, 0.5184788481920529], [-0.2646655063210597, 0.3159281349431851]]",density,white,,,1301830,visual,1,[],"['1', '2', '3', '4']",1,2023.2.3,harveyvisual,2.1,[],8,0.75,
0,pause,0.4,None,None,None,0,223,223,223,,,,,,,,,,,1,80.2451241016388,1301830,visual,1,[],"['1', '2', '3', '4']",1,2023.2.3,harveyvisual,2.1,[],8,0.75,
4,dot,0.3,['dot'],['density'],black,0,224,224,224,,,80.80020809173584,80.50647807121277,80.82312607765198,dot,"[0.06, 0.06, 0.06, 0.1]","[[-0.24231220575667195, -0.22966258239168486], [-0.5136420973432148, -0.13696856920477488], [-0.4300726721285167, 0.13088957628356482], [-0.3148289313469241, -0.03851715211982174]]",density,black,,,1301830,visual,1,[],"['1', '2', '3', '4']",1,2023.2.3,harveyvisual,2.1,[],8,0.75,
0,pause,0.4,None,None,None,0,225,225,225,,,,,,,,,,,,,1301830,visual,1,[],"['1', '2', '3', '4']",1,2023.2.3,harveyvisual,2.1,[],8,0.75,
4,dot,0.3,['dot'],['density'],white,0,226,226,226,,,81.50021600723267,81.20645499229431,81.52311301231384,dot,"[0.1, 0.06, 0.1, 0.06]","[[-0.1266132934267609, -0.4419116806690939], [0.09906976576587005, -0.33923851916676484], [0.1053941350115203, -0.5768907290059295], [0.29145715672269834, -0.49787884973145785]]",density,white,,,1301830,visual,1,[],"['1', '2', '3', '4']",1,2023.2.3,harveyvisual,2.1,[],8,0.75,
0,pause,0.4,None,None,None,0,227,227,227,,,,,,,,,,,1,81.5962929725647,1301830,visual,1,[],"['1', '2', '3', '4']",1,2023.2.3,harveyvisual,2.1,[],8,0.75,
3,dot,0.3,['dot'],['density'],black,0,228,228,228,,,82.20022892951965,81.90646600723267,82.22314310073853,dot,"[0.08, 0.1, 0.1]","[[-0.15188894406744968, -0.195193050272512], [6.772800145782267e-05, -0.040844811103836635], [-0.2045693439875358, 0.0038115475482788236]]",density,black,,,1301830,visual,1,[],"['1', '2', '3', '4']",1,2023.2.3,harveyvisual,2.1,[],8,0.75,
0,pause,0.4,None,None,None,0,229,229,229,,,,,,,,,,,,,1301830,visual,1,[],"['1', '2', '3', '4']",1,2023.2.3,harveyvisual,2.1,[],8,0.75,
3,dot,0.3,['dot'],['density'],black,0,230,230,230,,,82.90020608901978,82.60642004013062,82.9230740070343,dot,"[0.08, 0.1, 0.06]","[[-0.476501853024302, 0.3110516410681161], [-0.26865065753742645, 0.4732574608261889], [-0.2772428868380306, 0.2516539537451065]]",density,black,,,1301830,visual,1,[],"['1', '2', '3', '4']",1,2023.2.3,harveyvisual,2.1,[],8,0.75,
0,pause,0.4,None,None,None,0,231,231,231,,,,,,,,,,,,,1301830,visual,1,[],"['1', '2', '3', '4']",1,2023.2.3,harveyvisual,2.1,[],8,0.75,
3,dot,0.3,['dot'],['density'],black,0,232,232,232,,,83.60021114349365,83.30640506744385,83.62304401397705,dot,"[0.1, 0.1, 0.06]","[[0.4290032298944087, 0.1407520187648592], [0.22848299553954127, 0.06362144779139585], [0.3595680574788582, -0.09433362503040832]]",density,black,,,1301830,visual,1,[],"['1', '2', '3', '4']",1,2023.2.3,harveyvisual,2.1,[],8,0.75,
0,pause,0.4,None,None,None,0,233,233,233,,,,,,,,,,,,,1301830,visual,1,[],"['1', '2', '3', '4']",1,2023.2.3,harveyvisual,2.1,[],8,0.75,
3,dot,0.3,['dot'],['density'],white,0,234,234,234,,,84.30022406578064,84.00637197494507,84.3230390548706,dot,"[0.08, 0.08, 0.1]","[[-0.09236249555143743, 0.14437879021360575], [0.06053771141254397, 0.008702735453236923], [-0.17336599953316903, -0.04113967592870183]]",density,white,,,1301830,visual,1,[],"['1', '2', '3', '4']",1,2023.2.3,harveyvisual,2.1,[],8,0.75,
0,pause,0.4,None,None,None,0,235,235,235,,,,,,,,,,,1,84.40062808990479,1301830,visual,1,[],"['1', '2', '3', '4']",1,2023.2.3,harveyvisual,2.1,[],8,0.75,
3,dot,0.3,['dot'],['density'],white,0,236,236,236,,,85.0002191066742,84.70635795593262,85.02301812171936,dot,"[0.1, 0.08, 0.08]","[[0.03752440580708033, 0.5298990797186869], [-0.14535247226304113, 0.44143535861080874], [0.07857889528852925, 0.30774558950641073]]",density,white,,,1301830,visual,1,[],"['1', '2', '3', '4']",1,2023.2.3,harveyvisual,2.1,[],8,0.75,
0,pause,0.4,None,None,None,0,237,237,237,,,,,,,,,,,1,85.0827271938324,1301830,visual,1,[],"['1', '2', '3', '4']",1,2023.2.3,harveyvisual,2.1,[],8,0.75,
3,dot,0.3,['dot'],['density'],black,0,238,238,238,,,85.70020604133606,85.40633702278137,85.72299098968506,dot,"[0.08, 0.06, 0.1]","[[-0.476501853024302, 0.3110516410681161], [-0.26865065753742645, 0.4732574608261889], [-0.2772428868380306, 0.2516539537451065]]",density,black,,,1301830,visual,1,[],"['1', '2', '3', '4']",1,2023.2.3,harveyvisual,2.1,[],8,0.75,
0,pause,0.4,None,None,None,0,239,239,239,,,,,,,,,,,,,1301830,visual,1,[],"['1', '2', '3', '4']",1,2023.2.3,harveyvisual,2.1,[],8,0.75,
2,dot,0.3,['dot'],['density'],black,0,240,240,240,,,86.40020513534546,86.10631799697876,86.42297005653381,dot,"[0.1, 0.06]","[[-0.3970652553054307, 0.36151140161898554], [-0.22306532646831484, 0.26288994227005946]]",density,black,,,1301830,visual,1,[],"['1', '2', '3', '4']",1,2023.2.3,harveyvisual,2.1,[],8,0.75,
0,pause,0.4,None,None,None,0,241,241,241,,,,,,,,,,,,,1301830,visual,1,[],"['1', '2', '3', '4']",1,2023.2.3,harveyvisual,2.1,[],8,0.75,
2,dot,0.3,['dot'],['density'],black,0,242,242,242,,,87.10022306442261,86.80638098716736,87.12315702438354,dot,"[0.06, 0.06]","[[-0.21141336561075566, 0.4273762957479495], [-0.1407142259739198, 0.23984948612333498]]",density,black,,,1301830,visual,1,[],"['1', '2', '3', '4']",1,2023.2.3,harveyvisual,2.1,[],8,0.75,
0,pause,0.4,None,None,None,0,243,243,243,,,,,,,,,,,,,1301830,visual,1,[],"['1', '2', '3', '4']",1,2023.2.3,harveyvisual,2.1,[],8,0.75,
2,dot,0.3,['dot'],['density'],black,0,244,244,244,,,87.80022692680359,87.50642013549805,87.82299709320068,dot,"[0.06, 0.06]","[[-0.3970652553054307, 0.36151140161898554], [-0.22306532646831484, 0.26288994227005946]]",density,black,,,1301830,visual,1,[],"['1', '2', '3', '4']",1,2023.2.3,harveyvisual,2.1,[],8,0.75,
0,pause,0.4,None,None,None,0,245,245,245,,,,,,,,,,,,,1301830,visual,1,[],"['1', '2', '3', '4']",1,2023.2.3,harveyvisual,2.1,[],8,0.75,
2,dot,0.3,['dot'],['density'],black,0,246,246,246,,,88.5002179145813,88.20644211769104,88.52297806739807,dot,"[0.06, 0.06]","[[0.1734117655345296, 0.46860731914486053], [-0.01847566562869785, 0.52581935004857]]",density,black,,,1301830,visual,1,[],"['1', '2', '3', '4']",1,2023.2.3,harveyvisual,2.1,[],8,0.75,
0,pause,0.4,None,None,None,0,247,247,247,,,,,,,,,,,,,1301830,visual,1,[],"['1', '2', '3', '4']",1,2023.2.3,harveyvisual,2.1,[],8,0.75,
2,dot,0.3,['dot'],['density'],black,0,248,248,248,,,89.20021104812622,88.9063150882721,89.22290396690369,dot,"[0.1, 0.06]","[[0.5159928458027473, 0.13749655768121952], [0.38343727829172375, 0.28833164788761484]]",density,black,,,1301830,visual,1,[],"['1', '2', '3', '4']",1,2023.2.3,harveyvisual,2.1,[],8,0.75,
0,pause,0.4,None,None,None,0,249,249,249,,,,,,,,,,,,,1301830,visual,1,[],"['1', '2', '3', '4']",1,2023.2.3,harveyvisual,2.1,[],8,0.75,
2,dot,0.3,['dot'],['density'],black,0,250,250,250,,,89.90020799636841,89.60624504089355,89.92288112640381,dot,"[0.1, 0.1]","[[0.09481659993656301, 0.43631713998557026], [0.0662189159667295, 0.23745101446818795]]",density,black,,,1301830,visual,1,[],"['1', '2', '3', '4']",1,2023.2.3,harveyvisual,2.1,[],8,0.75,
0,pause,0.4,None,None,None,0,251,251,251,,,,,,,,,,,,,1301830,visual,1,[],"['1', '2', '3', '4']",1,2023.2.3,harveyvisual,2.1,[],8,0.75,
1,dot,0.3,['dot'],['density'],black,0,252,252,252,,,90.6002140045166,90.30625891685486,90.6229510307312,dot,[0.06],"[-0.43400380483721984, 0.10531265887229962]",density,black,,,1301830,visual,1,[],"['1', '2', '3', '4']",1,2023.2.3,harveyvisual,2.1,[],8,0.75,
0,pause,0.4,None,None,None,0,253,253,253,,,,,,,,,,,,,1301830,visual,1,[],"['1', '2', '3', '4']",1,2023.2.3,harveyvisual,2.1,[],8,0.75,
1,dot,0.3,['dot'],['density'],black,0,254,254,254,,,91.30023407936096,91.00622606277466,91.3229570388794,dot,[0.1],"[0.14557363600905707, -0.03994760510263185]",density,black,,,1301830,visual,1,[],"['1', '2', '3', '4']",1,2023.2.3,harveyvisual,2.1,[],8,0.75,
0,pause,0.4,None,None,None,0,255,255,255,,,,,,,,,,,,,1301830,visual,1,[],"['1', '2', '3', '4']",1,2023.2.3,harveyvisual,2.1,[],8,0.75,
1,dot,0.3,['dot'],['density'],black,0,256,256,256,,,92.00023412704468,91.70625615119934,92.0229549407959,dot,[0.1],"[-0.4309303250570785, -0.37878052449928096]",density,black,,,1301830,visual,1,[],"['1', '2', '3', '4']",1,2023.2.3,harveyvisual,2.1,[],8,0.75,
0,pause,0.4,None,None,None,0,257,257,257,,,,,,,,,,,,,1301830,visual,1,[],"['1', '2', '3', '4']",1,2023.2.3,harveyvisual,2.1,[],8,0.75,
1,dot,0.3,['dot'],['density'],black,0,258,258,258,,,92.70021605491638,92.40633702278137,92.72283005714417,dot,[0.1],"[-0.1989246115662565, -0.15069844343359862]",density,black,,,1301830,visual,1,[],"['1', '2', '3', '4']",1,2023.2.3,harveyvisual,2.1,[],8,0.75,
0,pause,0.4,None,None,None,0,259,259,259,,,,,,,,,,,,,1301830,visual,1,[],"['1', '2', '3', '4']",1,2023.2.3,harveyvisual,2.1,[],8,0.75,
1,dot,0.3,['dot'],['density'],black,0,260,260,260,,,93.4002411365509,93.10614109039307,93.42281103134155,dot,[0.06],"[-0.43105706563061386, -0.18359692062194616]",density,black,,,1301830,visual,1,[],"['1', '2', '3', '4']",1,2023.2.3,harveyvisual,2.1,[],8,0.75,
0,pause,0.4,None,None,None,0,261,261,261,,,,,,,,,,,,,1301830,visual,1,[],"['1', '2', '3', '4']",1,2023.2.3,harveyvisual,2.1,[],8,0.75,
1,dot,0.3,['dot'],['density'],black,0,262,262,262,,,94.10023307800293,93.80612993240356,94.12278699874878,dot,[0.08],"[0.19623115665255414, 0.1676894875529279]",density,black,,,1301830,visual,1,[],"['1', '2', '3', '4']",1,2023.2.3,harveyvisual,2.1,[],8,0.75,
0,pause,0.4,None,None,None,0,263,263,263,,,,,,,,,,,,,1301830,visual,1,[],"['1', '2', '3', '4']",1,2023.2.3,harveyvisual,2.1,[],8,0.75,
20,dot,0.3,['dot'],['density'],white,0,264,264,264,,,94.80023908615112,94.5227780342102,94.82277703285217,dot,"[0.06, 0.08, 0.06, 0.08, 0.06, 0.1, 0.1, 0.06, 0.08, 0.1, 0.1, 0.08, 0.1, 0.06, 0.08, 0.06, 0.08, 0.08, 0.08, 0.08]","[[-0.32950208810852505, 0.13792051504721314], [-0.26142923177756766, -0.08266622918977784], [-0.3861223718221364, -0.31673243943632234], [0.39805874235320327, -0.26401503691132877], [-0.10367425197996638, 0.5564061253148397], [0.5232043156568001, 0.2190065339006277], [-0.5204501320103605, 0.19613564090083957], [0.18315128112731005, -0.46530033141114635], [0.08510593692235091, 0.09963323215043818], [0.022229623084769057, 0.4028215938630517], [0.29367971921571745, 0.33305156434564287], [0.42849247390571954, -0.03328968030025853], [-0.5944422293356645, -0.08174481782775195], [-0.3222690364174706, 0.5114432900514889], [0.24016489340630276, -0.14744190340820662], [0.004745970905357444, -0.32052825965093296], [-0.46480591814131444, 0.38254870106203215], [-0.0876928836840023, 0.2126613524298575], [-0.06930926333442922, -0.5361503585916854], [-0.27872232179951495, -0.5024415586565363]]",density,white,,,1301830,visual,1,[],"['1', '2', '3', '4']",1,2023.2.3,harveyvisual,2.1,[],8,0.75,
0,pause,0.4,None,None,None,0,265,265,265,,,,,,,,,,,1,94.9981460571289,1301830,visual,1,[],"['1', '2', '3', '4']",1,2023.2.3,harveyvisual,2.1,[],8,0.75,
20,dot,0.3,['dot'],['density'],black,0,266,266,266,,,95.50022006034851,95.22277498245239,95.52278709411621,dot,"[0.08, 0.08, 0.06, 0.08, 0.08, 0.06, 0.06, 0.1, 0.08, 0.08, 0.1, 0.08, 0.08, 0.1, 0.08, 0.1, 0.06, 0.06, 0.1, 0.1]","[[-0.3339486124134636, 0.21148818888239163], [-0.5113941836234572, 0.03501617292135745], [-0.49169580647068756, 0.35286900528520126], [0.119807472289722, 0.024388891876372165], [-0.25594017778301187, -0.32368592309978456], [0.35686093082182313, -0.14925678408253257], [-0.011863858730399413, -0.5346221105492235], [0.3448237849643512, 0.32827411751687235], [0.5492022225769587, -0.12923211825698394], [-0.10496803977865576, -0.17531854998027568], [0.5892827860034432, 0.07317454342654606], [0.25355481923985934, -0.3733181767455629], [-0.01259034731883013, 0.3988062276341251], [-0.1935158193314216, 0.5567885231134369], [-0.5200546709142859, -0.20533105088643094], [-0.22340257202929725, -0.016374348732480448], [0.326202883910959, 0.11518399927843781], [0.24224492390274854, 0.551153863388762], [-0.06180726741033837, 0.08387240220575753], [0.059310829956227495, -0.35901262845521414]]",density,black,,,1301830,visual,1,[],"['1', '2', '3', '4']",1,2023.2.3,harveyvisual,2.1,[],8,0.75,
