num,mod,duration,shape,ll_cond,colors,.thisRepN,.thisTrialN,.thisN,.thisIndex,thisRow.t,notes,raw_global_time,t_start,t_stop,shapes,size,pos,cond,color,button,RT,participant,session,starting_run,left button (match/odd),right button (non-match/even),samples_per_block,psychopy version,expName,offset,audio,number_runs,radius,
1,dot,0.3,['dot'],['density'],black,0,0,0,0,,,2.4002299308776855,2.1115949153900146,2.411520004272461,dot,[0.1],"[0.5363314188299194, -0.14809861569100125]",density,black,,,1301830,visual,1,[],"['1', '2', '3', '4']",1,2023.2.3,harveyvisual,2.1,[],8,0.75,
0,pause,0.4,None,None,None,0,1,1,1,,,,,,,,,,,,,1301830,visual,1,[],"['1', '2', '3', '4']",1,2023.2.3,harveyvisual,2.1,[],8,0.75,
1,dot,0.3,['dot'],['density'],black,0,2,2,2,,,3.100221872329712,2.811521053314209,3.1121459007263184,dot,[0.06],"[-0.2532192430475575, -0.5275431624831907]",density,black,,,1301830,visual,1,[],"['1', '2', '3', '4']",1,2023.2.3,harveyvisual,2.1,[],8,0.75,
0,pause,0.4,None,None,None,0,3,3,3,,,,,,,,,,,,,1301830,visual,1,[],"['1', '2', '3', '4']",1,2023.2.3,harveyvisual,2.1,[],8,0.75,
1,dot,0.3,['dot'],['density'],black,0,4,4,4,,,3.8002259731292725,3.512181043624878,3.812130928039551,dot,[0.08],"[-0.2532192430475575, -0.5275431624831907]",density,black,,,1301830,visual,1,[],"['1', '2', '3', '4']",1,2023.2.3,harveyvisual,2.1,[],8,0.75,
0,pause,0.4,None,None,None,0,5,5,5,,,,,,,,,,,,,1301830,visual,1,[],"['1', '2', '3', '4']",1,2023.2.3,harveyvisual,2.1,[],8,0.75,
1,dot,0.3,['dot'],['density'],white,0,6,6,6,,,4.50022292137146,4.2121570110321045,4.512083053588867,dot,[0.06],"[0.5668064281626585, -0.020013277593342628]",density,white,,,1301830,visual,1,[],"['1', '2', '3', '4']",1,2023.2.3,harveyvisual,2.1,[],8,0.75,
0,pause,0.4,None,None,None,0,7,7,7,,,,,,,,,,,1,4.667183876037598,1301830,visual,1,[],"['1', '2', '3', '4']",1,2023.2.3,harveyvisual,2.1,[],8,0.75,
1,dot,0.3,['dot'],['density'],black,0,8,8,8,,,5.200223922729492,4.912088871002197,5.212095022201538,dot,[0.08],"[0.5363314188299194, -0.14809861569100125]",density,black,,,1301830,visual,1,[],"['1', '2', '3', '4']",1,2023.2.3,harveyvisual,2.1,[],8,0.75,
0,pause,0.4,None,None,None,0,9,9,9,,,,,,,,,,,,,1301830,visual,1,[],"['1', '2', '3', '4']",1,2023.2.3,harveyvisual,2.1,[],8,0.75,
1,dot,0.3,['dot'],['density'],black,0,10,10,10,,,5.90022087097168,5.614222049713135,5.914351940155029,dot,[0.1],"[0.0956549371127339, 0.09579573331985794]",density,black,,,1301830,visual,1,[],"['1', '2', '3', '4']",1,2023.2.3,harveyvisual,2.1,[],8,0.75,
0,pause,0.4,None,None,None,0,11,11,11,,,,,,,,,,,,,1301830,visual,1,[],"['1', '2', '3', '4']",1,2023.2.3,harveyvisual,2.1,[],8,0.75,
2,dot,0.3,['dot'],['density'],black,0,12,12,12,,,6.600214958190918,6.314373970031738,6.614211082458496,dot,"[0.1, 0.08]","[[0.21918454152848227, -0.10588244801595839], [0.1860161616926718, 0.09155890801726524]]",density,black,,,1301830,visual,1,[],"['1', '2', '3', '4']",1,2023.2.3,harveyvisual,2.1,[],8,0.75,
0,pause,0.4,None,None,None,0,13,13,13,,,,,,,,,,,,,1301830,visual,1,[],"['1', '2', '3', '4']",1,2023.2.3,harveyvisual,2.1,[],8,0.75,
2,dot,0.3,['dot'],['density'],black,0,14,14,14,,,7.300218105316162,7.014249086380005,7.314150094985962,dot,"[0.08, 0.06]","[[0.07059805578258149, -0.2458188734665979], [0.058763118304238846, -0.4455693812784497]]",density,black,,,1301830,visual,1,[],"['1', '2', '3', '4']",1,2023.2.3,harveyvisual,2.1,[],8,0.75,
0,pause,0.4,None,None,None,0,15,15,15,,,,,,,,,,,,,1301830,visual,1,[],"['1', '2', '3', '4']",1,2023.2.3,harveyvisual,2.1,[],8,0.75,
2,dot,0.3,['dot'],['density'],black,0,16,16,16,,,8.000207901000977,7.714180946350098,8.014143943786621,dot,"[0.08, 0.06]","[[-0.22897676209827808, 0.468650264003531], [-0.0598036877009514, 0.5760211786176329]]",density,black,,,1301830,visual,1,[],"['1', '2', '3', '4']",1,2023.2.3,harveyvisual,2.1,[],8,0.75,
0,pause,0.4,None,None,None,0,17,17,17,,,,,,,,,,,,,1301830,visual,1,[],"['1', '2', '3', '4']",1,2023.2.3,harveyvisual,2.1,[],8,0.75,
2,dot,0.3,['dot'],['density'],black,0,18,18,18,,,8.700222969055176,8.41415810585022,8.71414303779602,dot,"[0.1, 0.1]","[[0.500151128333041, 0.1656925720118866], [0.3771979967144504, 0.3235340638115745]]",density,black,,,1301830,visual,1,[],"['1', '2', '3', '4']",1,2023.2.3,harveyvisual,2.1,[],8,0.75,
0,pause,0.4,None,None,None,0,19,19,19,,,,,,,,,,,,,1301830,visual,1,[],"['1', '2', '3', '4']",1,2023.2.3,harveyvisual,2.1,[],8,0.75,
2,dot,0.3,['dot'],['density'],white,0,20,20,20,,,9.40021300315857,9.11427092552185,9.414231061935425,dot,"[0.06, 0.08]","[[0.4101371699595759, -0.046236245446824746], [0.42481245787877703, -0.24684889303111815]]",density,white,,,1301830,visual,1,[],"['1', '2', '3', '4']",1,2023.2.3,harveyvisual,2.1,[],8,0.75,
0,pause,0.4,None,None,None,0,21,21,21,,,,,,,,,,,1,9.489758968353271,1301830,visual,1,[],"['1', '2', '3', '4']",1,2023.2.3,harveyvisual,2.1,[],8,0.75,
2,dot,0.3,['dot'],['density'],black,0,22,22,22,,,10.100200891494751,9.814114093780518,10.114207029342651,dot,"[0.1, 0.08]","[[-0.20887660672828282, 0.3399455197969581], [-0.34272369919491674, 0.19089688818271272]]",density,black,,,1301830,visual,1,[],"['1', '2', '3', '4']",1,2023.2.3,harveyvisual,2.1,[],8,0.75,
0,pause,0.4,None,None,None,0,23,23,23,,,,,,,,,,,,,1301830,visual,1,[],"['1', '2', '3', '4']",1,2023.2.3,harveyvisual,2.1,[],8,0.75,
3,dot,0.3,['dot'],['density'],black,0,24,24,24,,,10.80022406578064,10.514216899871826,10.81404995918274,dot,"[0.1, 0.06, 0.06]","[[0.4995185571857965, 0.14229679706320136], [0.2944600495073675, 0.23335097983198633], [0.330752226915583, 0.0299241169750933]]",density,black,,,1301830,visual,1,[],"['1', '2', '3', '4']",1,2023.2.3,harveyvisual,2.1,[],8,0.75,
0,pause,0.4,None,None,None,0,25,25,25,,,,,,,,,,,,,1301830,visual,1,[],"['1', '2', '3', '4']",1,2023.2.3,harveyvisual,2.1,[],8,0.75,
3,dot,0.3,['dot'],['density'],black,0,26,26,26,,,11.500204086303711,11.21419095993042,11.514189958572388,dot,"[0.08, 0.06, 0.08]","[[0.026071599024748527, -0.32860913997604846], [-0.11834724389398482, -0.18584523127985947], [0.10068982493997472, -0.12518245043845455]]",density,black,,,1301830,visual,1,[],"['1', '2', '3', '4']",1,2023.2.3,harveyvisual,2.1,[],8,0.75,
0,pause,0.4,None,None,None,0,27,27,27,,,,,,,,,,,,,1301830,visual,1,[],"['1', '2', '3', '4']",1,2023.2.3,harveyvisual,2.1,[],8,0.75,
3,dot,0.3,['dot'],['density'],black,0,28,28,28,,,12.20021390914917,11.914107084274292,12.214027881622314,dot,"[0.1, 0.1, 0.08]","[[-0.31319101668702665, 0.019781348947723338], [-0.5473895760332308, 0.024991247927059115], [-0.4494119348059314, -0.1602141851013313]]",density,black,,,1301830,visual,1,[],"['1', '2', '3', '4']",1,2023.2.3,harveyvisual,2.1,[],8,0.75,
0,pause,0.4,None,None,None,0,29,29,29,,,,,,,,,,,,,1301830,visual,1,[],"['1', '2', '3', '4']",1,2023.2.3,harveyvisual,2.1,[],8,0.75,
3,dot,0.3,['dot'],['density'],black,0,30,30,30,,,12.90020489692688,12.614152908325195,12.913999080657959,dot,"[0.1, 0.08, 0.1]","[[-0.32034981165049564, 0.18083778238314796], [-0.3344619052850136, -0.04022521570367012], [-0.13485517643248812, 0.10330846540140716]]",density,black,,,1301830,visual,1,[],"['1', '2', '3', '4']",1,2023.2.3,harveyvisual,2.1,[],8,0.75,
0,pause,0.4,None,None,None,0,31,31,31,,,,,,,,,,,,,1301830,visual,1,[],"['1', '2', '3', '4']",1,2023.2.3,harveyvisual,2.1,[],8,0.75,
3,dot,0.3,['dot'],['density'],black,0,32,32,32,,,13.600225925445557,13.314138889312744,13.613992929458618,dot,"[0.08, 0.06, 0.06]","[[0.348550694073714, -0.26372109460002424], [0.5073713069625243, -0.14206826334288786], [0.3419709386041379, 0.005891602819957491]]",density,black,,,1301830,visual,1,[],"['1', '2', '3', '4']",1,2023.2.3,harveyvisual,2.1,[],8,0.75,
0,pause,0.4,None,None,None,0,33,33,33,,,,,,,,,,,,,1301830,visual,1,[],"['1', '2', '3', '4']",1,2023.2.3,harveyvisual,2.1,[],8,0.75,
3,dot,0.3,['dot'],['density'],black,0,34,34,34,,,14.300209045410156,14.014121055603027,14.313987970352173,dot,"[0.08, 0.1, 0.06]","[[0.041215869578383385, -0.00689674906403758], [0.17500875751152645, 0.21459232562634095], [-0.03632281132631849, 0.2012994076415249]]",density,black,,,1301830,visual,1,[],"['1', '2', '3', '4']",1,2023.2.3,harveyvisual,2.1,[],8,0.75,
0,pause,0.4,None,None,None,0,35,35,35,,,,,,,,,,,,,1301830,visual,1,[],"['1', '2', '3', '4']",1,2023.2.3,harveyvisual,2.1,[],8,0.75,
4,dot,0.3,['dot'],['density'],black,0,36,36,36,,,15.000200033187866,14.71397590637207,15.014106035232544,dot,"[0.06, 0.08, 0.08, 0.06]","[[0.3428963381299033, -0.004396565162037705], [0.42558881424794154, 0.18301493672810298], [0.5687630200397232, 0.01721079717795714], [0.4301208405972816, -0.23499851958356296]]",density,black,,,1301830,visual,1,[],"['1', '2', '3', '4']",1,2023.2.3,harveyvisual,2.1,[],8,0.75,
0,pause,0.4,None,None,None,0,37,37,37,,,,,,,,,,,,,1301830,visual,1,[],"['1', '2', '3', '4']",1,2023.2.3,harveyvisual,2.1,[],8,0.75,
4,dot,0.3,['dot'],['density'],black,0,38,38,38,,,15.70020604133606,15.414108991622925,15.714091062545776,dot,"[0.1, 0.1, 0.06, 0.08]","[[0.010836700166572746, 0.3385055392368038], [-0.21755291078517647, 0.23172276430217797], [0.04881011250022837, 0.13413393103699342], [-0.16894730197854985, 0.4434327172909165]]",density,black,,,1301830,visual,1,[],"['1', '2', '3', '4']",1,2023.2.3,harveyvisual,2.1,[],8,0.75,
0,pause,0.4,None,None,None,0,39,39,39,,,,,,,,,,,,,1301830,visual,1,[],"['1', '2', '3', '4']",1,2023.2.3,harveyvisual,2.1,[],8,0.75,
4,dot,0.3,['dot'],['density'],black,0,40,40,40,,,16.400207042694092,16.114078998565674,16.413913011550903,dot,"[0.06, 0.06, 0.1, 0.1]","[[-0.0389916918612136, -0.388752419995929], [-0.2709884701808293, -0.36873671266769453], [0.09349318837137091, -0.23801008290575854], [-0.09100040788429245, -0.11490803606521542]]",density,black,,,1301830,visual,1,[],"['1', '2', '3', '4']",1,2023.2.3,harveyvisual,2.1,[],8,0.75,
0,pause,0.4,None,None,None,0,41,41,41,,,,,,,,,,,,,1301830,visual,1,[],"['1', '2', '3', '4']",1,2023.2.3,harveyvisual,2.1,[],8,0.75,
4,dot,0.3,['dot'],['density'],black,0,42,42,42,,,17.10022807121277,16.813936948776245,17.11392903327942,dot,"[0.06, 0.1, 0.1, 0.1]","[[0.06241226843583792, -0.3147100539198924], [0.2553405417111816, -0.24584579293690137], [0.0027514156828475403, -0.09786489187307437], [0.1660279615748852, 0.026007470517245626]]",density,black,,,1301830,visual,1,[],"['1', '2', '3', '4']",1,2023.2.3,harveyvisual,2.1,[],8,0.75,
0,pause,0.4,None,None,None,0,43,43,43,,,,,,,,,,,,,1301830,visual,1,[],"['1', '2', '3', '4']",1,2023.2.3,harveyvisual,2.1,[],8,0.75,
4,dot,0.3,['dot'],['density'],black,0,44,44,44,,,17.800209045410156,17.513927936553955,17.81407904624939,dot,"[0.08, 0.1, 0.08, 0.1]","[[-0.03907102058372138, -0.1723346686752248], [0.13255167928633116, -0.03782047714335622], [0.2720101467217329, -0.23443565690461937], [0.07080951743106016, -0.35239766365090747]]",density,black,,,1301830,visual,1,[],"['1', '2', '3', '4']",1,2023.2.3,harveyvisual,2.1,[],8,0.75,
0,pause,0.4,None,None,None,0,45,45,45,,,,,,,,,,,,,1301830,visual,1,[],"['1', '2', '3', '4']",1,2023.2.3,harveyvisual,2.1,[],8,0.75,
4,dot,0.3,['dot'],['density'],black,0,46,46,46,,,18.50019907951355,18.213852882385254,18.51389193534851,dot,"[0.1, 0.06, 0.06, 0.06]","[[-0.4116264312708952, 0.16775371224632304], [-0.5618780911112883, -0.04134114392370045], [-0.3363713887364365, -0.04915619770205748], [-0.48212301157369764, -0.2249233832905235]]",density,black,,,1301830,visual,1,[],"['1', '2', '3', '4']",1,2023.2.3,harveyvisual,2.1,[],8,0.75,
0,pause,0.4,None,None,None,0,47,47,47,,,,,,,,,,,,,1301830,visual,1,[],"['1', '2', '3', '4']",1,2023.2.3,harveyvisual,2.1,[],8,0.75,
5,dot,0.3,['dot'],['density'],black,0,48,48,48,,,19.2002170085907,18.913822889328003,19.213819980621338,dot,"[0.06, 0.1, 0.06, 0.1, 0.1]","[[0.33660852042816714, -0.448935078303268], [0.16237328695183198, -0.028906365321866932], [0.003149504206933677, -0.1844463225559013], [0.4065340125681681, -0.22407981263326276], [0.20027486954239768, -0.2346061295568129]]",density,black,,,1301830,visual,1,[],"['1', '2', '3', '4']",1,2023.2.3,harveyvisual,2.1,[],8,0.75,
0,pause,0.4,None,None,None,0,49,49,49,,,,,,,,,,,,,1301830,visual,1,[],"['1', '2', '3', '4']",1,2023.2.3,harveyvisual,2.1,[],8,0.75,
5,dot,0.3,['dot'],['density'],black,0,50,50,50,,,19.90022587776184,19.61380696296692,19.913790941238403,dot,"[0.06, 0.06, 0.1, 0.08, 0.1]","[[0.07471778162596296, -0.10525453490666745], [0.30258431325283514, -0.18125951612401361], [-0.10797831538154114, 0.025200229490558432], [0.07898181201564736, 0.11749757771993925], [0.31731369449760916, 0.032388289652815004]]",density,black,,,1301830,visual,1,[],"['1', '2', '3', '4']",1,2023.2.3,harveyvisual,2.1,[],8,0.75,
0,pause,0.4,None,None,None,0,51,51,51,,,,,,,,,,,,,1301830,visual,1,[],"['1', '2', '3', '4']",1,2023.2.3,harveyvisual,2.1,[],8,0.75,
5,dot,0.3,['dot'],['density'],black,0,52,52,52,,,20.600207090377808,20.313782930374146,20.613774061203003,dot,"[0.08, 0.06, 0.06, 0.1, 0.1]","[[0.45108699871130137, 0.12052648913612102], [0.3120839015871755, -0.055344110322042436], [0.5361186937318446, -0.08608482415671545], [0.24926945818158194, 0.15209517992691748], [0.3855135356736719, -0.25840400127360613]]",density,black,,,1301830,visual,1,[],"['1', '2', '3', '4']",1,2023.2.3,harveyvisual,2.1,[],8,0.75,
0,pause,0.4,None,None,None,0,53,53,53,,,,,,,,,,,,,1301830,visual,1,[],"['1', '2', '3', '4']",1,2023.2.3,harveyvisual,2.1,[],8,0.75,
5,dot,0.3,['dot'],['density'],black,0,54,54,54,,,21.300215005874634,21.013768911361694,21.313755989074707,dot,"[0.08, 0.08, 0.1, 0.08, 0.06]","[[-0.006164932418690097, -0.4528126201229341], [-0.1681524682570009, -0.11721653268637569], [-0.1959903964051736, -0.3710708837277218], [0.03544926667602863, -0.1302589477940128], [0.16830580561999814, -0.32298356607012285]]",density,black,,,1301830,visual,1,[],"['1', '2', '3', '4']",1,2023.2.3,harveyvisual,2.1,[],8,0.75,
0,pause,0.4,None,None,None,0,55,55,55,,,,,,,,,,,,,1301830,visual,1,[],"['1', '2', '3', '4']",1,2023.2.3,harveyvisual,2.1,[],8,0.75,
5,dot,0.3,['dot'],['density'],black,0,56,56,56,,,22.000214099884033,21.713752031326294,22.013731956481934,dot,"[0.08, 0.1, 0.06, 0.06, 0.06]","[[0.36014554898799966, 0.387810422325294], [0.055757472799778995, 0.16941293674392635], [0.2210739480460382, 0.008175952352481365], [0.48495712857242873, 0.07425785546611247], [0.25975240449222103, 0.2092734881649904]]",density,black,,,1301830,visual,1,[],"['1', '2', '3', '4']",1,2023.2.3,harveyvisual,2.1,[],8,0.75,
0,pause,0.4,None,None,None,0,57,57,57,,,,,,,,,,,,,1301830,visual,1,[],"['1', '2', '3', '4']",1,2023.2.3,harveyvisual,2.1,[],8,0.75,
5,dot,0.3,['dot'],['density'],black,0,58,58,58,,,22.700215101242065,22.413732051849365,22.71371102333069,dot,"[0.08, 0.1, 0.1, 0.06, 0.1]","[[-0.3593586909609717, -0.014123405231526708], [-0.016214713675271986, 0.25764317450247104], [-0.14180258575993823, 0.0328893580167688], [-0.4739301778776912, 0.15719809156630632], [-0.2718601341595813, 0.23222304362681612]]",density,black,,,1301830,visual,1,[],"['1', '2', '3', '4']",1,2023.2.3,harveyvisual,2.1,[],8,0.75,
0,pause,0.4,None,None,None,0,59,59,59,,,,,,,,,,,,,1301830,visual,1,[],"['1', '2', '3', '4']",1,2023.2.3,harveyvisual,2.1,[],8,0.75,
6,dot,0.3,['dot'],['density'],black,0,60,60,60,,,23.400216102600098,23.113709926605225,23.41373109817505,dot,"[0.1, 0.06, 0.06, 0.08, 0.08, 0.06]","[[-0.4130096743352808, -0.09152271377164663], [-0.19778223104980006, -0.03862987845790588], [-0.5782793278508197, 0.04067119283421001], [-0.2942915267906656, -0.3673297053134895], [-0.33560074172492643, 0.119885218799542], [-0.5263932498355091, -0.25924495598585295]]",density,black,,,1301830,visual,1,[],"['1', '2', '3', '4']",1,2023.2.3,harveyvisual,2.1,[],8,0.75,
0,pause,0.4,None,None,None,0,61,61,61,,,,,,,,,,,,,1301830,visual,1,[],"['1', '2', '3', '4']",1,2023.2.3,harveyvisual,2.1,[],8,0.75,
6,dot,0.3,['dot'],['density'],black,0,62,62,62,,,24.1002140045166,23.813692092895508,24.113692045211792,dot,"[0.1, 0.1, 0.08, 0.06, 0.06, 0.1]","[[0.23041567882598732, 0.45619944218456715], [0.5278859611842325, 0.18245830030246968], [0.08738225171760033, 0.1578384040678088], [0.20561463112105705, -0.03996865664556224], [0.3021721310554224, 0.21718230064421146], [0.4273755636869532, 0.38341374408431883]]",density,black,,,1301830,visual,1,[],"['1', '2', '3', '4']",1,2023.2.3,harveyvisual,2.1,[],8,0.75,
0,pause,0.4,None,None,None,0,63,63,63,,,,,,,,,,,,,1301830,visual,1,[],"['1', '2', '3', '4']",1,2023.2.3,harveyvisual,2.1,[],8,0.75,
6,dot,0.3,['dot'],['density'],black,0,64,64,64,,,24.800225019454956,24.513680934906006,24.81364393234253,dot,"[0.1, 0.1, 0.06, 0.06, 0.06, 0.1]","[[0.1344939073868, 0.11682503965153783], [0.2622842826516073, -0.1576809643807538], [0.491422654665352, 0.2653315688189552], [0.5669231994484553, 0.0667155191364867], [0.2299276458131091, 0.29835232047215776], [0.3356420801536577, 0.10517090915368521]]",density,black,,,1301830,visual,1,[],"['1', '2', '3', '4']",1,2023.2.3,harveyvisual,2.1,[],8,0.75,
0,pause,0.4,None,None,None,0,65,65,65,,,,,,,,,,,,,1301830,visual,1,[],"['1', '2', '3', '4']",1,2023.2.3,harveyvisual,2.1,[],8,0.75,
6,dot,0.3,['dot'],['density'],black,0,66,66,66,,,25.500223875045776,25.213690996170044,25.513674020767212,dot,"[0.06, 0.08, 0.06, 0.06, 0.08, 0.06]","[[-0.06594826066790033, 0.1051940440944823], [0.15491437476435005, 0.24610541937573027], [-0.07004887042171212, 0.3755397070333221], [0.22920853754483062, 0.04629278748534093], [0.14611265926610215, 0.46549762069565603], [0.352938231914746, 0.33060025924169734]]",density,black,,,1301830,visual,1,[],"['1', '2', '3', '4']",1,2023.2.3,harveyvisual,2.1,[],8,0.75,
0,pause,0.4,None,None,None,0,67,67,67,,,,,,,,,,,,,1301830,visual,1,[],"['1', '2', '3', '4']",1,2023.2.3,harveyvisual,2.1,[],8,0.75,
6,dot,0.3,['dot'],['density'],black,0,68,68,68,,,26.20021891593933,25.913672924041748,26.213661909103394,dot,"[0.08, 0.08, 0.08, 0.1, 0.08, 0.08]","[[-0.36874454135919904, -0.07559312273534534], [-0.010504004432700158, -0.20559114413973084], [-0.17044584652251332, 0.17221059634863578], [-0.26251446752681207, -0.3074850979938877], [0.06633568674208327, -0.020893677029436595], [-0.1538914639536258, -0.02772778393149798]]",density,black,,,1301830,visual,1,[],"['1', '2', '3', '4']",1,2023.2.3,harveyvisual,2.1,[],8,0.75,
0,pause,0.4,None,None,None,0,69,69,69,,,,,,,,,,,,,1301830,visual,1,[],"['1', '2', '3', '4']",1,2023.2.3,harveyvisual,2.1,[],8,0.75,
6,dot,0.3,['dot'],['density'],black,0,70,70,70,,,26.900227069854736,26.61364507675171,26.91364288330078,dot,"[0.06, 0.1, 0.1, 0.1, 0.06, 0.06]","[[-0.4130096743352808, -0.09152271377164663], [-0.19778223104980006, -0.03862987845790588], [-0.5782793278508197, 0.04067119283421001], [-0.2942915267906656, -0.3673297053134895], [-0.33560074172492643, 0.119885218799542], [-0.5263932498355091, -0.25924495598585295]]",density,black,,,1301830,visual,1,[],"['1', '2', '3', '4']",1,2023.2.3,harveyvisual,2.1,[],8,0.75,
0,pause,0.4,None,None,None,0,71,71,71,,,,,,,,,,,,,1301830,visual,1,[],"['1', '2', '3', '4']",1,2023.2.3,harveyvisual,2.1,[],8,0.75,
7,dot,0.3,['dot'],['density'],black,0,72,72,72,,,27.600208044052124,27.313606023788452,27.613621950149536,dot,"[0.08, 0.1, 0.06, 0.06, 0.08, 0.06, 0.1]","[[-0.0840690222646118, 0.326581156863932], [0.2873095043411744, 0.40733497502034743], [0.3312644566818162, -0.06338498518608723], [-0.0506181805300269, 0.10889297565070959], [0.1236891467835978, 0.25045991881734525], [0.122473450616654, -0.061936092255746894], [0.3019459967494134, 0.15241064997072415]]",density,black,,,1301830,visual,1,[],"['1', '2', '3', '4']",1,2023.2.3,harveyvisual,2.1,[],8,0.75,
0,pause,0.4,None,None,None,0,73,73,73,,,,,,,,,,,,,1301830,visual,1,[],"['1', '2', '3', '4']",1,2023.2.3,harveyvisual,2.1,[],8,0.75,
7,dot,0.3,['dot'],['density'],black,0,74,74,74,,,28.30021905899048,28.01359510421753,28.31357502937317,dot,"[0.06, 0.06, 0.06, 0.1, 0.08, 0.1, 0.1]","[[0.14162553822338392, 0.3850374027840034], [0.14862566890709045, -0.11120959689479885], [0.39332636479883865, 0.3869926518090174], [0.40462455387813373, -0.12110830933676162], [0.23143806607869288, 0.12402376181071403], [0.031443448417621304, 0.15083815177969048], [0.4360523150463376, 0.1818515773867412]]",density,black,,,1301830,visual,1,[],"['1', '2', '3', '4']",1,2023.2.3,harveyvisual,2.1,[],8,0.75,
0,pause,0.4,None,None,None,0,75,75,75,,,,,,,,,,,,,1301830,visual,1,[],"['1', '2', '3', '4']",1,2023.2.3,harveyvisual,2.1,[],8,0.75,
7,dot,0.3,['dot'],['density'],black,0,76,76,76,,,29.000202894210815,28.71357297897339,29.013556957244873,dot,"[0.08, 0.06, 0.1, 0.08, 0.1, 0.08, 0.1]","[[-0.4069355390488937, 0.37207368581823036], [-0.24593577727054447, 0.19917396778247878], [-0.42360727833657225, -0.08003411738888748], [-0.22269992972584096, -0.007913174381400552], [-0.5458110461780458, 0.2006057762678532], [-0.12767295506375728, 0.3689678629588407], [-0.26313434255033313, 0.5223746060296944]]",density,black,,,1301830,visual,1,[],"['1', '2', '3', '4']",1,2023.2.3,harveyvisual,2.1,[],8,0.75,
0,pause,0.4,None,None,None,0,77,77,77,,,,,,,,,,,,,1301830,visual,1,[],"['1', '2', '3', '4']",1,2023.2.3,harveyvisual,2.1,[],8,0.75,
7,dot,0.3,['dot'],['density'],black,0,78,78,78,,,29.700227975845337,29.413551092147827,29.71356701850891,dot,"[0.1, 0.08, 0.1, 0.08, 0.1, 0.1, 0.06]","[[0.36124702795982905, 0.02861074637729004], [0.035495459613383976, -0.03736980990239832], [0.4545067059830119, -0.22475560039862832], [0.21831658066582188, 0.20471036725638603], [0.23621436127430617, -0.13960795011418334], [0.5606656921354746, -0.047865395727918474], [0.5468561378002438, 0.2161657569851178]]",density,black,,,1301830,visual,1,[],"['1', '2', '3', '4']",1,2023.2.3,harveyvisual,2.1,[],8,0.75,
0,pause,0.4,None,None,None,0,79,79,79,,,,,,,,,,,,,1301830,visual,1,[],"['1', '2', '3', '4']",1,2023.2.3,harveyvisual,2.1,[],8,0.75,
7,dot,0.3,['dot'],['density'],black,0,80,80,80,,,30.400202989578247,30.113560914993286,30.41354489326477,dot,"[0.08, 0.06, 0.08, 0.1, 0.1, 0.1, 0.1]","[[-0.16635260996794698, 0.28084462036912], [-0.40218122969076125, -0.17991686156932815], [-0.0845402480451966, 0.09445086570213204], [-0.12722724135381816, -0.176029296145206], [-0.3668576348978093, 0.24153552923633032], [-0.5374975881789634, 0.10465170418994485], [-0.31219932221879926, 0.029177302383891702]]",density,black,,,1301830,visual,1,[],"['1', '2', '3', '4']",1,2023.2.3,harveyvisual,2.1,[],8,0.75,
0,pause,0.4,None,None,None,0,81,81,81,,,,,,,,,,,,,1301830,visual,1,[],"['1', '2', '3', '4']",1,2023.2.3,harveyvisual,2.1,[],8,0.75,
7,dot,0.3,['dot'],['density'],black,0,82,82,82,,,31.100226879119873,30.813544034957886,31.113576889038086,dot,"[0.06, 0.08, 0.08, 0.1, 0.08, 0.08, 0.1]","[[0.3474653327129969, -0.31878285251617694], [0.04167069501601444, -0.04495125607964222], [-0.05005146056072613, -0.501422524998621], [-0.11295401278341419, -0.30095052262615135], [0.08710344590613708, -0.2932726077696002], [0.25592372840254046, -0.13825923460737455], [-0.15770825932276006, -0.07757053521742455]]",density,black,,,1301830,visual,1,[],"['1', '2', '3', '4']",1,2023.2.3,harveyvisual,2.1,[],8,0.75,
0,pause,0.4,None,None,None,0,83,83,83,,,,,,,,,,,,,1301830,visual,1,[],"['1', '2', '3', '4']",1,2023.2.3,harveyvisual,2.1,[],8,0.75,
8,dot,0.3,['dot'],['density'],black,0,84,84,84,,,31.800206899642944,31.513540983200073,31.813570022583008,dot,"[0.08, 0.06, 0.08, 0.06, 0.08, 0.06, 0.06, 0.08]","[[0.2715518471235014, -0.4245138665073026], [0.03602391524707561, -0.40638782213015096], [0.4828297141312073, -0.09119901312376678], [0.02835794216237903, 0.028275321652194735], [-0.0895445032969687, -0.19822740391127236], [0.3178997883629752, 0.08245100984997318], [0.21920060966397442, -0.22342839817001514], [0.46807969757011175, -0.32427319705723295]]",density,black,,,1301830,visual,1,[],"['1', '2', '3', '4']",1,2023.2.3,harveyvisual,2.1,[],8,0.75,
0,pause,0.4,None,None,None,0,85,85,85,,,,,,,,,,,,,1301830,visual,1,[],"['1', '2', '3', '4']",1,2023.2.3,harveyvisual,2.1,[],8,0.75,
8,dot,0.3,['dot'],['density'],black,0,86,86,86,,,32.50021290779114,32.21352291107178,32.513510942459106,dot,"[0.1, 0.1, 0.1, 0.06, 0.08, 0.08, 0.08, 0.06]","[[-0.17001050475317317, -0.17367687575201368], [0.3600613666554234, 0.010096468830953859], [-0.08326222131596324, 0.04242117989324811], [0.04296950773068638, 0.29875887990525135], [0.04919814700692566, -0.23206276490508926], [0.2733682510361541, 0.19343137942482672], [0.15974695196996483, -0.02827404827190698], [-0.2919014881818027, 0.0006738684867251376]]",density,black,,,1301830,visual,1,[],"['1', '2', '3', '4']",1,2023.2.3,harveyvisual,2.1,[],8,0.75,
0,pause,0.4,None,None,None,0,87,87,87,,,,,,,,,,,,,1301830,visual,1,[],"['1', '2', '3', '4']",1,2023.2.3,harveyvisual,2.1,[],8,0.75,
8,dot,0.3,['dot'],['density'],black,0,88,88,88,,,33.20021200180054,32.91349697113037,33.2135169506073,dot,"[0.1, 0.06, 0.08, 0.1, 0.06, 0.08, 0.08, 0.1]","[[-0.19427332908310624, 0.44975086906229733], [-0.40583056883657587, 0.41268852933836647], [-0.1064323235824443, 0.09134240931295125], [0.037438273390647224, 0.2873761216870531], [-0.27580465694358225, 0.2567900319995576], [0.047234249799456944, 0.4983172858691376], [0.15563182967593078, 0.1192504703698398], [-0.32834908909536226, -0.014402300111889832]]",density,black,,,1301830,visual,1,[],"['1', '2', '3', '4']",1,2023.2.3,harveyvisual,2.1,[],8,0.75,
0,pause,0.4,None,None,None,0,89,89,89,,,,,,,,,,,,,1301830,visual,1,[],"['1', '2', '3', '4']",1,2023.2.3,harveyvisual,2.1,[],8,0.75,
8,dot,0.3,['dot'],['density'],black,0,90,90,90,,,33.9002320766449,33.61349391937256,33.91352701187134,dot,"[0.06, 0.08, 0.1, 0.06, 0.06, 0.06, 0.06, 0.06]","[[0.5011924336457421, -0.024432440978935197], [0.2806328112604475, -0.04317330297599672], [0.4832514634589159, 0.31109822070486504], [0.16408111659662816, 0.42847901077729456], [0.23688927214560462, 0.23559820796421724], [0.07772697954394367, 0.06196890701796274], [0.10192126774068293, -0.18867749580812243], [-0.012619648351882298, 0.24997239668137242]]",density,black,,,1301830,visual,1,[],"['1', '2', '3', '4']",1,2023.2.3,harveyvisual,2.1,[],8,0.75,
0,pause,0.4,None,None,None,0,91,91,91,,,,,,,,,,,,,1301830,visual,1,[],"['1', '2', '3', '4']",1,2023.2.3,harveyvisual,2.1,[],8,0.75,
8,dot,0.3,['dot'],['density'],white,0,92,92,92,,,34.600224018096924,34.313512086868286,34.613418102264404,dot,"[0.1, 0.08, 0.08, 0.1, 0.06, 0.1, 0.08, 0.06]","[[-0.13470540342303577, 0.06408260861786476], [-0.32633744656496655, 0.15045505181492372], [-0.2908673593763413, -0.0762007135190446], [-0.5368971138264618, 0.18470905249118252], [0.055331558945424124, 0.1732254888039505], [-0.30909967543404826, 0.3845911877556102], [-0.0777863596696305, 0.41921053595603236], [0.03181857584637903, -0.08967320215721851]]",density,white,,,1301830,visual,1,[],"['1', '2', '3', '4']",1,2023.2.3,harveyvisual,2.1,[],8,0.75,
0,pause,0.4,None,None,None,0,93,93,93,,,,,,,,,,,1,34.79405498504639,1301830,visual,1,[],"['1', '2', '3', '4']",1,2023.2.3,harveyvisual,2.1,[],8,0.75,
8,dot,0.3,['dot'],['density'],black,0,94,94,94,,,35.300222873687744,35.01341390609741,35.313395977020264,dot,"[0.1, 0.1, 0.06, 0.08, 0.1, 0.08, 0.06, 0.1]","[[0.28112832868380594, 0.3075763237432237], [-0.21381995858864508, 0.197554992839043], [0.14035436555963224, -0.1470740351963634], [-0.04856350071149823, -0.017306043905309515], [0.12070301707556046, 0.11279463428917226], [0.35236156425888765, 0.046198621115284964], [-0.012223412543992913, 0.3265760435025566], [0.11745206869397669, 0.49408919182137495]]",density,black,,,1301830,visual,1,[],"['1', '2', '3', '4']",1,2023.2.3,harveyvisual,2.1,[],8,0.75,
0,pause,0.4,None,None,None,0,95,95,95,,,,,,,,,,,,,1301830,visual,1,[],"['1', '2', '3', '4']",1,2023.2.3,harveyvisual,2.1,[],8,0.75,
9,dot,0.3,['dot'],['density'],black,0,96,96,96,,,36.000205993652344,35.71339702606201,36.01338005065918,dot,"[0.06, 0.1, 0.08, 0.06, 0.08, 0.1, 0.06, 0.1, 0.1]","[[-0.1410632352740557, -0.317905811010377], [-0.01624442214728049, 0.1794094022286925], [0.09468404279643694, -0.24727132108451297], [-0.2758455249254349, -0.14491344886434532], [-0.07397021974914944, -0.09933967896750957], [-0.3580751224104431, 0.12641846535160695], [0.3672464474339042, -0.09947208873420914], [0.14679994141956812, -0.049441009882571184], [0.20049431506903384, 0.1443691092520585]]",density,black,,,1301830,visual,1,[],"['1', '2', '3', '4']",1,2023.2.3,harveyvisual,2.1,[],8,0.75,
0,pause,0.4,None,None,None,0,97,97,97,,,,,,,,,,,,,1301830,visual,1,[],"['1', '2', '3', '4']",1,2023.2.3,harveyvisual,2.1,[],8,0.75,
9,dot,0.3,['dot'],['density'],black,0,98,98,98,,,36.700226068496704,36.413373947143555,36.71335792541504,dot,"[0.08, 0.08, 0.1, 0.1, 0.06, 0.06, 0.06, 0.08, 0.06]","[[-0.08830733675648182, -0.32541118850070216], [0.2573655446525002, -0.0029570100823114536], [0.27547652153196345, -0.34332263321768475], [-0.10322368112243578, -0.12113330350182801], [-0.09512634339583304, 0.07974184968350245], [0.1087639633701519, -0.14934854126711464], [-0.2976800736237512, -0.022953619774800198], [0.014308470788770018, -0.5004438889851849], [-0.3557422450128242, -0.24953541402881954]]",density,black,,,1301830,visual,1,[],"['1', '2', '3', '4']",1,2023.2.3,harveyvisual,2.1,[],8,0.75,
0,pause,0.4,None,None,None,0,99,99,99,,,,,,,,,,,,,1301830,visual,1,[],"['1', '2', '3', '4']",1,2023.2.3,harveyvisual,2.1,[],8,0.75,
9,dot,0.3,['dot'],['density'],black,0,100,100,100,,,37.40022587776184,37.11334204673767,37.41332387924194,dot,"[0.06, 0.08, 0.1, 0.06, 0.08, 0.1, 0.08, 0.1, 0.1]","[[-0.23139737267821464, 0.4582894628988488], [-0.22563640623437264, 0.09161215191469056], [0.08653997658409265, 0.18408404769425912], [-0.34134765149242685, 0.2795210921938051], [-0.45752590330905135, 0.08752711185150099], [-0.035040587470716034, -0.07657027701648178], [-0.27120713465948276, -0.1309343981320133], [-0.3537313425617488, -0.374673418779248], [-0.09309732942360581, 0.2754840453600595]]",density,black,,,1301830,visual,1,[],"['1', '2', '3', '4']",1,2023.2.3,harveyvisual,2.1,[],8,0.75,
0,pause,0.4,None,None,None,0,101,101,101,,,,,,,,,,,,,1301830,visual,1,[],"['1', '2', '3', '4']",1,2023.2.3,harveyvisual,2.1,[],8,0.75,
9,dot,0.3,['dot'],['density'],black,0,102,102,102,,,38.10022807121277,37.81332588195801,38.113312005996704,dot,"[0.1, 0.06, 0.08, 0.06, 0.1, 0.1, 0.1, 0.1, 0.1]","[[-0.5586095828397086, -0.08452232608263664], [-0.5120381862419278, 0.15370428824398014], [-0.08562135647518901, 0.024493186907675612], [-0.3204263364507457, 0.2397592637991136], [-0.21279117965626912, -0.18999926927512983], [-0.34615304282718484, -0.002506468551820401], [-0.32642794983948487, 0.4412976810435594], [-0.12278716272436474, 0.3390467791696382], [0.05505897535061007, 0.17426903254619158]]",density,black,,,1301830,visual,1,[],"['1', '2', '3', '4']",1,2023.2.3,harveyvisual,2.1,[],8,0.75,
0,pause,0.4,None,None,None,0,103,103,103,,,,,,,,,,,,,1301830,visual,1,[],"['1', '2', '3', '4']",1,2023.2.3,harveyvisual,2.1,[],8,0.75,
9,dot,0.3,['dot'],['density'],black,0,104,104,104,,,38.800225019454956,38.513314962387085,38.813299894332886,dot,"[0.08, 0.1, 0.08, 0.08, 0.1, 0.06, 0.08, 0.08, 0.06]","[[-0.06218673389315922, -0.4689115343027075], [0.3660477402554353, -0.15396192139437054], [0.1401329754895462, -0.14262156541192547], [0.12293598154832706, -0.38779640022673934], [0.42645158233284447, -0.3607859009111275], [-0.06238477126329685, -0.2564764349502154], [-0.2584688277182379, -0.29964401945706215], [-0.11312192996032899, -0.05439345917292958], [0.19096873654163896, 0.1321853744035435]]",density,black,,,1301830,visual,1,[],"['1', '2', '3', '4']",1,2023.2.3,harveyvisual,2.1,[],8,0.75,
0,pause,0.4,None,None,None,0,105,105,105,,,,,,,,,,,,,1301830,visual,1,[],"['1', '2', '3', '4']",1,2023.2.3,harveyvisual,2.1,[],8,0.75,
9,dot,0.3,['dot'],['density'],black,0,106,106,106,,,39.50020694732666,39.21329307556152,39.51328802108765,dot,"[0.08, 0.1, 0.1, 0.06, 0.06, 0.08, 0.1, 0.08, 0.08]","[[0.34043128493099817, 0.2271075800100716], [0.2702764120171402, -0.10456749967376819], [-0.1274635928921129, -0.04210317806044915], [-0.03460273614387521, 0.1795356259369138], [0.14470969472881007, 0.3391925298523705], [0.06761060508642219, 0.0060094309834155335], [0.5117869412029185, -0.12050585585317111], [0.07404675892906432, -0.22660478390602867], [0.35723900661310204, -0.3185591288757]]",density,black,,,1301830,visual,1,[],"['1', '2', '3', '4']",1,2023.2.3,harveyvisual,2.1,[],8,0.75,
0,pause,0.4,None,None,None,0,107,107,107,,,,,,,,,,,,,1301830,visual,1,[],"['1', '2', '3', '4']",1,2023.2.3,harveyvisual,2.1,[],8,0.75,
20,dot,0.3,['dot'],['density'],black,0,108,108,108,,,40.20023488998413,39.913269996643066,40.21328401565552,dot,"[0.06, 0.1, 0.1, 0.1, 0.1, 0.08, 0.08, 0.08, 0.06, 0.08, 0.08, 0.1, 0.08, 0.1, 0.08, 0.1, 0.1, 0.08, 0.06, 0.1]","[[-0.02267082533270781, 0.07632937578901655], [0.4248501618255808, -0.09802743861781216], [-0.027290003310618927, 0.5543768295317241], [-0.030314055917773364, -0.5819457458775104], [0.5613962891438012, 0.05847600647855439], [0.263963075991303, 0.33075448660985485], [-0.1212900241065184, -0.21233506577822303], [0.239894234477957, 0.04981465703424559], [-0.37551171073992223, 0.1521720549046121], [-0.2651240063359418, -0.02891758322792648], [0.25121595141542075, -0.17578574128946461], [-0.2941641563589698, -0.3534394738511308], [0.47866210279848975, 0.3515467810216169], [-0.4374159694158767, -0.12204998003458634], [-0.13928665343851188, 0.3541607193030859], [0.22125349077630352, -0.5464222351181971], [-0.5849587078578491, 0.14192609187681265], [0.16450723253263388, -0.3470933321438686], [0.20492436701209504, 0.5158139146521682], [0.5151692878778086, -0.2820156742355924]]",density,black,,,1301830,visual,1,[],"['1', '2', '3', '4']",1,2023.2.3,harveyvisual,2.1,[],8,0.75,
0,pause,0.4,None,None,None,0,109,109,109,,,,,,,,,,,,,1301830,visual,1,[],"['1', '2', '3', '4']",1,2023.2.3,harveyvisual,2.1,[],8,0.75,
20,dot,0.3,['dot'],['density'],black,0,110,110,110,,,40.900213956832886,40.61327600479126,40.913269996643066,dot,"[0.1, 0.06, 0.06, 0.08, 0.08, 0.08, 0.06, 0.1, 0.06, 0.08, 0.06, 0.1, 0.08, 0.08, 0.08, 0.1, 0.06, 0.06, 0.08, 0.06]","[[-0.04459953257972893, -0.5889948549310157], [0.32784370072188773, 0.21673386365490432], [-0.4794254342613029, -0.047450384606226526], [-0.03556172532367252, 0.508548501214994], [0.5118023990147341, -0.16949271106410826], [0.5183012614523029, 0.31195601297894904], [-0.23914650194513054, 0.2251198329722015], [-0.016398912781570574, -0.04645296659604092], [0.1209807881077829, 0.29978373008808357], [-0.369444948411247, 0.3900082535003778], [0.14439352496695967, -0.3239308677084428], [-0.18786528690174936, -0.20309744765292503], [0.6029495807932473, 0.028101622881085524], [0.15772931545158686, -0.12258304548698268], [-0.5037084396647842, -0.269167662261504], [0.39170693765154285, 0.03360264476616481], [0.2872001272974921, 0.49850276311564756], [-0.1737369818193033, -0.4267674622338843], [0.3459123046265494, -0.32887848042260215], [0.2246773639249724, -0.5328130177582877]]",density,black,,,1301830,visual,1,[],"['1', '2', '3', '4']",1,2023.2.3,harveyvisual,2.1,[],8,0.75,
0,pause,0.4,None,None,None,0,111,111,111,,,,,,,,,,,,,1301830,visual,1,[],"['1', '2', '3', '4']",1,2023.2.3,harveyvisual,2.1,[],8,0.75,
20,dot,0.3,['dot'],['density'],black,0,112,112,112,,,41.6002299785614,41.313241958618164,41.613240003585815,dot,"[0.06, 0.1, 0.06, 0.1, 0.08, 0.1, 0.06, 0.08, 0.1, 0.1, 0.06, 0.1, 0.08, 0.08, 0.08, 0.06, 0.1, 0.08, 0.08, 0.08]","[[0.3233072674717091, -0.20661275968875992], [0.08570425357093037, -0.5969877220804596], [-0.17409451760400796, -0.2695245405730711], [0.012962556605226716, -0.21605356029391865], [-0.3921867570256568, -0.12453468824658159], [-0.547012620374937, -0.008883148190737655], [0.03911401185226948, 0.13749302469055513], [-0.5198764115757545, -0.29063900543779586], [-0.3079723714866215, 0.5088516829821617], [-0.13333002883685763, 0.33161095640832716], [0.2693382280048159, -0.4348617171473786], [0.48388082818788025, -0.3569886102837827], [-0.3685502433809874, 0.2517275039914431], [0.5986946066190452, -0.022579042227597546], [0.35382555839648644, 0.4454875661461783], [-0.35935414059521414, -0.45677771679941287], [0.11869637756857343, 0.5855569659065155], [-0.1738318850653176, -0.5429174240396825], [0.511395016866855, 0.2114342541393639], [-0.17059576649244879, 0.01227203484851036]]",density,black,,,1301830,visual,1,[],"['1', '2', '3', '4']",1,2023.2.3,harveyvisual,2.1,[],8,0.75,
0,pause,0.4,None,None,None,0,113,113,113,,,,,,,,,,,,,1301830,visual,1,[],"['1', '2', '3', '4']",1,2023.2.3,harveyvisual,2.1,[],8,0.75,
20,dot,0.3,['dot'],['density'],white,0,114,114,114,,,42.30021405220032,42.01324105262756,42.31323790550232,dot,"[0.1, 0.06, 0.08, 0.1, 0.1, 0.08, 0.08, 0.06, 0.1, 0.1, 0.06, 0.08, 0.1, 0.1, 0.06, 0.08, 0.06, 0.1, 0.08, 0.06]","[[0.045669147593561554, -0.04642900308605458], [0.19923156437977696, 0.2978213811566699], [0.5712964173065288, -0.15328447175650248], [0.374393674665885, 0.47500905935953813], [-0.44763292547902744, -0.11669367426376037], [-0.16922742749686848, -0.09708795950767785], [0.5317621269022687, 0.28709038124720077], [0.2552009399182573, -0.49589231170905856], [-0.41405951787363504, 0.1939034905303363], [0.2786284554997802, -0.26475720615441595], [-0.029856273926937238, -0.41506635417350646], [-0.007445655186053668, 0.21778259858776694], [0.3791846521121037, 0.16651067476903342], [-0.27445527016721216, 0.06542344920176624], [-0.42150684937590266, 0.3910301203702164], [0.05519300935588212, 0.42848017298144303], [-0.13475638090553838, 0.48749527213269206], [-0.21851471849618787, -0.357152421035962], [0.18693246927756146, 0.09230691272587654], [-0.19710468023109645, 0.29773310081690385]]",density,white,,,1301830,visual,1,[],"['1', '2', '3', '4']",1,2023.2.3,harveyvisual,2.1,[],8,0.75,
0,pause,0.4,None,None,None,0,115,115,115,,,,,,,,,,,1,42.334003925323486,1301830,visual,1,[],"['1', '2', '3', '4']",1,2023.2.3,harveyvisual,2.1,[],8,0.75,
20,dot,0.3,['dot'],['density'],black,0,116,116,116,,,43.00022006034851,42.713217973709106,43.01319098472595,dot,"[0.1, 0.06, 0.1, 0.1, 0.1, 0.06, 0.08, 0.1, 0.06, 0.08, 0.08, 0.06, 0.06, 0.06, 0.08, 0.1, 0.08, 0.08, 0.06, 0.06]","[[0.5792128887954197, -0.16122785051283098], [-0.5966932457073839, 0.04900513849726294], [0.2872919486694834, -0.2166554688612503], [-0.4382161110026523, -0.3194351701304963], [0.4128767886885797, 0.1611368451092301], [-0.00572927885318153, 0.22067783990831913], [0.3434912789627047, 0.45007239094574064], [-0.47612998851804356, 0.25455638130620384], [-0.21865347621068237, -0.03929398719547461], [-0.26385757971563667, 0.3874815010092194], [-0.23374636548750627, -0.3776655070005617], [-0.5763250539395854, -0.15020445520253523], [0.14141162664215434, -0.4894735233209106], [0.09437506319702571, -0.17606395605717484], [0.3301245260473309, -0.42409961663203904], [0.09969083862068151, 0.04036721271088384], [0.00689087199229832, 0.5560583682684094], [0.5935201571768328, 0.030817747617609623], [-0.38665260684033487, 0.050718223566347975], [-0.04590143936964863, -0.45983193832537583]]",density,black,,,1301830,visual,1,[],"['1', '2', '3', '4']",1,2023.2.3,harveyvisual,2.1,[],8,0.75,
0,pause,0.4,None,None,None,0,117,117,117,,,,,,,,,,,,,1301830,visual,1,[],"['1', '2', '3', '4']",1,2023.2.3,harveyvisual,2.1,[],8,0.75,
20,dot,0.3,['dot'],['density'],black,0,118,118,118,,,43.70021390914917,43.41317796707153,43.71317195892334,dot,"[0.08, 0.08, 0.06, 0.1, 0.08, 0.08, 0.06, 0.1, 0.08, 0.06, 0.08, 0.1, 0.06, 0.08, 0.08, 0.06, 0.1, 0.08, 0.06, 0.1]","[[-0.42238274762303474, -0.03217034880896541], [-0.45433719068192574, 0.293886002288006], [-0.22180160058551907, -0.21892872803727714], [0.4094324937154846, 0.04268057340316511], [0.28978738090134837, -0.5069151703139176], [-0.15876097888479285, 0.2187423389524915], [0.11499210938829763, -0.010350567420693846], [0.21479165015069057, -0.18317518328163707], [-0.01390503720954972, 0.34696189633234453], [0.519026984808887, -0.22064435748039915], [0.2476613298431174, 0.18926906751861172], [0.14373331709975135, 0.5044206470555611], [0.4828447097030607, 0.32999648067270304], [-0.3532921960999011, 0.4572949942431381], [-0.21495040925459852, -0.4298142520508833], [-0.42061653583816216, -0.3297378640492891], [-0.5959938114927996, 0.06952945071183139], [0.012034683853561878, -0.3885593575742355], [-0.088673165883428, 0.03932933629354929], [-0.1675745310272007, 0.5103646845298879]]",density,black,,,1301830,visual,1,[],"['1', '2', '3', '4']",1,2023.2.3,harveyvisual,2.1,[],8,0.75,
0,pause,0.4,None,None,None,0,119,119,119,,,,,,,,,,,,,1301830,visual,1,[],"['1', '2', '3', '4']",1,2023.2.3,harveyvisual,2.1,[],8,0.75,
20,dot,0.3,['dot'],['density'],black,0,120,120,120,,,44.400217056274414,44.11316800117493,44.41314697265625,dot,"[0.08, 0.08, 0.08, 0.1, 0.06, 0.08, 0.1, 0.1, 0.1, 0.06, 0.08, 0.08, 0.1, 0.06, 0.06, 0.08, 0.08, 0.1, 0.1, 0.06]","[[0.30675936311208396, 0.38211104484012937], [-0.20253729019117545, -0.569845280744407], [0.03465327660690143, -0.5278601990449843], [-0.2899697618003613, 0.08674832963435097], [-0.10030112013338766, -0.24609812406306425], [-0.1556800291161463, 0.3083908285577892], [0.3645153045170493, -0.3451975911111675], [0.10931949944471231, 0.4161696242140335], [-0.5107996879423194, 0.17555427958629943], [0.19074404997333072, 0.13222999074139474], [0.46690683321948223, 0.18877081242835186], [-0.43463087273941214, -0.1585590156209547], [0.22292598533528518, -0.12013401961069714], [0.5624433247378909, -0.07215127855435255], [-0.027955351032022513, 0.01595133102411872], [-0.2830603845098746, -0.3257062018050283], [-0.2137955027644981, 0.5547016241256121], [-0.5800210771666062, -0.03591004248990179], [-0.3920790870590193, 0.35987828581103337], [0.27158596111163813, -0.5397921999068367]]",density,black,,,1301830,visual,1,[],"['1', '2', '3', '4']",1,2023.2.3,harveyvisual,2.1,[],8,0.75,
0,pause,0.4,None,None,None,0,121,121,121,,,,,,,,,,,,,1301830,visual,1,[],"['1', '2', '3', '4']",1,2023.2.3,harveyvisual,2.1,[],8,0.75,
20,dot,0.3,['dot'],['density'],black,0,122,122,122,,,45.10022807121277,44.81314492225647,45.11313199996948,dot,"[0.08, 0.08, 0.06, 0.08, 0.08, 0.06, 0.1, 0.06, 0.08, 0.06, 0.08, 0.06, 0.06, 0.08, 0.1, 0.1, 0.06, 0.08, 0.08, 0.1]","[[0.02134675256108509, -0.22137528669848516], [-0.4385498251900397, 0.3154843849108696], [-0.025773084540103963, 0.3107961040975611], [-0.5277601180308463, -0.05401673345384042], [0.5625382431699187, -0.1728159029239611], [0.049698582014051085, 0.5788293694849227], [-0.2775954316144328, -0.4018310830209095], [0.376631797168571, -0.123860326841301], [0.1816137731949754, 0.138536556325059], [-0.13043478178394735, 0.11680507393034034], [-0.4112530931089097, -0.20447393102213973], [0.5283929440301124, 0.22587373426416424], [0.3880876910362322, -0.32664040827513147], [0.36395624426088236, 0.43997513027246093], [-0.05211647060011404, -0.5348759473946961], [0.21522338930536744, -0.2484288103283645], [-0.325281051886311, 0.003412123683250945], [0.5985065821960508, 0.040444627041767336], [-0.23826669533894157, 0.44712306358058107], [0.16689762217016835, -0.564459599907821]]",density,black,,,1301830,visual,1,[],"['1', '2', '3', '4']",1,2023.2.3,harveyvisual,2.1,[],8,0.75,
0,pause,0.4,None,None,None,0,123,123,123,,,,,,,,,,,,,1301830,visual,1,[],"['1', '2', '3', '4']",1,2023.2.3,harveyvisual,2.1,[],8,0.75,
20,dot,0.3,['dot'],['density'],black,0,124,124,124,,,45.80020499229431,45.51312804222107,45.8131148815155,dot,"[0.08, 0.1, 0.1, 0.08, 0.06, 0.1, 0.1, 0.1, 0.06, 0.06, 0.1, 0.08, 0.08, 0.08, 0.1, 0.06, 0.06, 0.08, 0.08, 0.1]","[[0.4725096890306001, -0.04203328532671813], [0.18986357502295081, 0.5617971187997552], [-0.03902572501988655, -0.09048000472015882], [-0.5588415615212549, -0.2100047072764234], [0.5362077378957194, -0.24409124158121856], [-0.05872097982447655, 0.13563445511292904], [0.5147450886581161, 0.26659518550656425], [0.18356652168795695, -0.4254444246072494], [0.36861225609790016, 0.41750204633579313], [-0.3646185475558028, 0.1992916157481221], [-0.09644971442193162, -0.36273758753096197], [-0.13422079733286318, 0.5243279617334862], [0.16154668936645433, 0.0007544220867767848], [-0.3396833466445213, -0.42230995909385804], [-0.49440312213695026, 0.029804379228326683], [0.3098720184404059, -0.27643229605865133], [-0.3703752523438969, 0.4490905535922332], [0.027002168479961175, -0.5677738550269884], [0.08235048588644112, 0.31018845561254493], [-0.17699641125391719, 0.33418565982664994]]",density,black,,,1301830,visual,1,[],"['1', '2', '3', '4']",1,2023.2.3,harveyvisual,2.1,[],8,0.75,
0,pause,0.4,None,None,None,0,125,125,125,,,,,,,,,,,,,1301830,visual,1,[],"['1', '2', '3', '4']",1,2023.2.3,harveyvisual,2.1,[],8,0.75,
20,dot,0.3,['dot'],['density'],black,0,126,126,126,,,46.50022506713867,46.21309995651245,46.513094902038574,dot,"[0.08, 0.1, 0.06, 0.08, 0.06, 0.06, 0.06, 0.1, 0.06, 0.08, 0.08, 0.08, 0.1, 0.1, 0.1, 0.06, 0.1, 0.1, 0.08, 0.1]","[[-0.3722702422467731, -0.23278740178517826], [0.10083912053248256, 0.07816850458822244], [0.43161388822368496, -0.3491538527706949], [-0.33254343015625165, 0.376110614486573], [0.03704727750933845, 0.5900692633611971], [-0.5684935971608038, -0.19106560172093048], [0.2922540875907721, -0.06492083430203699], [-0.31144932902566297, -0.5138877738468741], [0.5984816334255335, 0.06265914754027989], [0.4499763549169705, 0.1841221656685436], [0.03901227612212155, -0.34644244083306225], [0.08653099843957757, -0.5969121864321877], [-0.5560850945956065, 0.06312091263979178], [-0.10369496846216464, -0.5878336454495494], [-0.021055960319085854, 0.3432437427521432], [-0.17967949044397552, 0.15224014521166296], [0.2552128202941536, 0.4582775290076969], [-0.19249643158992957, -0.1335885004897321], [0.12393119390977492, -0.167571678675989], [0.5238097988569647, -0.18127319758066118]]",density,black,,,1301830,visual,1,[],"['1', '2', '3', '4']",1,2023.2.3,harveyvisual,2.1,[],8,0.75,
0,pause,0.4,None,None,None,0,127,127,127,,,,,,,,,,,,,1301830,visual,1,[],"['1', '2', '3', '4']",1,2023.2.3,harveyvisual,2.1,[],8,0.75,
20,dot,0.3,['dot'],['density'],black,0,128,128,128,,,47.20021104812622,46.91310906410217,47.2130970954895,dot,"[0.1, 0.1, 0.08, 0.08, 0.06, 0.1, 0.06, 0.08, 0.06, 0.08, 0.08, 0.1, 0.1, 0.06, 0.06, 0.06, 0.08, 0.1, 0.08, 0.06]","[[0.07654928052131216, -0.5424919513600341], [0.39342290569255534, 0.05454796329712669], [0.5496305610562869, 0.1695996492186711], [0.09752837180684326, 0.23612026843279632], [-0.41392400087924225, -0.060044623512946704], [0.2618880819440954, -0.14822828758779794], [-0.22809705077770026, -0.10093073058004864], [-0.5950349786349586, 0.09029901743592357], [-0.4219419858856849, -0.4015208881056186], [0.06577079087077431, -0.26265605728713304], [0.4487520791942897, -0.3425704720588759], [-0.2658270706662864, 0.30584667269936594], [-0.026878688102703996, 0.5055036660318493], [0.38847192630246763, 0.34844005992843], [0.5311120668324546, -0.12419106026467092], [-0.23547373502589436, -0.4952628919968368], [-0.07886170239021584, 0.16238734819842882], [-0.5508516662766506, -0.2082715520299192], [0.28460055076122504, -0.46894224088158776], [-0.26041663183126545, 0.5325851846973675]]",density,black,,,1301830,visual,1,[],"['1', '2', '3', '4']",1,2023.2.3,harveyvisual,2.1,[],8,0.75,
0,pause,0.4,None,None,None,0,129,129,129,,,,,,,,,,,,,1301830,visual,1,[],"['1', '2', '3', '4']",1,2023.2.3,harveyvisual,2.1,[],8,0.75,
20,dot,0.3,['dot'],['density'],black,0,130,130,130,,,47.90021896362305,47.61310410499573,47.91310000419617,dot,"[0.06, 0.06, 0.08, 0.08, 0.06, 0.1, 0.1, 0.06, 0.1, 0.08, 0.08, 0.08, 0.06, 0.08, 0.1, 0.1, 0.1, 0.06, 0.06, 0.1]","[[-0.46966509667668377, 0.09289321073496065], [-0.14856184728356248, 0.13318161559683306], [-0.12278223243123881, -0.34324482547401014], [0.35681065407412493, -0.028506450876960854], [0.26037684848480713, -0.5157433798392504], [0.4959210468688232, 0.12144371225575212], [-0.4123818675667673, -0.42635130973424695], [0.2617491643891403, -0.24019655405881657], [-0.573409969777073, -0.11535736808870536], [-0.10330937811390117, 0.4981763949567303], [0.4772946315726222, -0.207458773956023], [-0.17656206031834726, -0.11281733792751492], [0.11128976210811148, -0.12205456432039785], [0.035218978151446145, 0.30490205083559685], [0.154093460849401, 0.5349455238757422], [-0.34867501818919927, 0.3103651551582476], [-0.37419707687394055, -0.15848905320082513], [0.47275629763648175, 0.32273878943348294], [0.0006035705019681314, -0.5839382240398142], [0.23708294438272148, 0.21106060527577974]]",density,black,,,1301830,visual,1,[],"['1', '2', '3', '4']",1,2023.2.3,harveyvisual,2.1,[],8,0.75,
0,pause,0.4,None,None,None,0,131,131,131,,,,,,,,,,,,,1301830,visual,1,[],"['1', '2', '3', '4']",1,2023.2.3,harveyvisual,2.1,[],8,0.75,
20,dot,0.3,['dot'],['density'],black,0,132,132,132,,,48.6002140045166,48.31307291984558,48.61306691169739,dot,"[0.08, 0.08, 0.08, 0.06, 0.1, 0.1, 0.08, 0.06, 0.08, 0.06, 0.1, 0.06, 0.06, 0.06, 0.1, 0.1, 0.06, 0.1, 0.1, 0.08]","[[0.038875659233274296, -0.02054932733539161], [0.06229569220031017, 0.5957274998713216], [-0.46881126164487963, 0.3401857410748563], [0.4086767960850445, 0.16816404506584115], [-0.5847241016312851, -0.14933734672854782], [-0.3522217616142609, -0.040472622957663185], [0.23556419922261118, -0.5005560633631033], [-0.5488065689136937, 0.07115455628994738], [-0.2981806182001091, -0.46599195217802736], [0.2381466993046879, 0.02160240991252904], [0.24316925775591913, -0.24483164196181734], [-0.28691719343794997, 0.1850399274514153], [-0.05768121263206105, -0.40259395382880436], [0.08472395549554768, 0.31583290536056785], [0.5513693825461935, -0.01593871254587184], [-0.12270800250568104, 0.349070275382406], [0.36977258467347107, 0.4197981524850683], [-0.15019603643924861, 0.03669531126496928], [-0.47632012953096126, -0.34160891160316736], [-0.21296843407860588, 0.5387639412793507]]",density,black,,,1301830,visual,1,[],"['1', '2', '3', '4']",1,2023.2.3,harveyvisual,2.1,[],8,0.75,
0,pause,0.4,None,None,None,0,133,133,133,,,,,,,,,,,,,1301830,visual,1,[],"['1', '2', '3', '4']",1,2023.2.3,harveyvisual,2.1,[],8,0.75,
20,dot,0.3,['dot'],['density'],black,0,134,134,134,,,49.30021595954895,49.01305389404297,49.31305503845215,dot,"[0.08, 0.06, 0.08, 0.06, 0.1, 0.08, 0.1, 0.1, 0.1, 0.06, 0.08, 0.08, 0.06, 0.1, 0.06, 0.06, 0.08, 0.08, 0.08, 0.08]","[[0.3728979238450102, 0.07422352107868013], [-0.10282353579054404, 0.3281437938811842], [0.3416196880947441, -0.18947469021409202], [-0.41583669086811736, -0.0923199084866661], [0.21708724641606802, 0.43150644095728197], [-0.6030708591770925, -0.029361877087819302], [-0.10120584171812308, -0.5503569229712427], [0.4305872977272286, -0.3797191222960205], [-0.34815462400126357, -0.40670718111444537], [0.21708745541798236, -0.4773996682022613], [0.14471877756324747, 0.07368124345749827], [-0.3690055430703474, 0.1454007858270545], [0.0434343775277124, -0.19436187563566598], [0.044621046439580314, 0.58622423896277], [0.44039419959824244, 0.2663100898021265], [-0.2753953564139929, 0.49571145520193016], [-0.20163470731882105, -0.0871697715491016], [0.5928486987572105, 0.006691303336701954], [-0.12414619933432047, -0.3188263932302591], [-0.41125873341914504, 0.3506563433253494]]",density,black,,,1301830,visual,1,[],"['1', '2', '3', '4']",1,2023.2.3,harveyvisual,2.1,[],8,0.75,
0,pause,0.4,None,None,None,0,135,135,135,,,,,,,,,,,,,1301830,visual,1,[],"['1', '2', '3', '4']",1,2023.2.3,harveyvisual,2.1,[],8,0.75,
20,dot,0.3,['dot'],['density'],black,0,136,136,136,,,50.00020694732666,49.71303701400757,50.01303505897522,dot,"[0.06, 0.1, 0.06, 0.08, 0.06, 0.06, 0.08, 0.08, 0.06, 0.06, 0.08, 0.06, 0.1, 0.06, 0.08, 0.1, 0.08, 0.06, 0.1, 0.1]","[[-0.174583715237018, 0.12172643017620066], [-0.48249099659862615, -0.27097904483202573], [0.0544038347532485, 0.23118466914774893], [0.4044536962236983, 0.35433315745426897], [-0.1523027439961555, 0.5246656692749195], [0.1088236701812384, 0.5660666200260998], [0.5368651756981632, 0.15578836179254785], [-0.5306607480636192, -0.05608720688012908], [-0.22715172438207776, -0.39904427955414545], [-0.4343322360115701, 0.36299037562766484], [0.1547730936755115, -0.16514282248790363], [-0.2402797720753833, -0.19639823873630963], [0.09552964597560432, -0.5953098687920757], [0.5880107258124224, -0.13935377312283453], [0.288285006446803, -0.02896382522539709], [0.4160960988961845, -0.30822486232156987], [-0.04637681703063512, -0.02596345702661118], [0.2203645711402702, -0.42450190200389565], [-0.5782664167740436, 0.16462769345190703], [-0.3672902263514181, 0.16678880463876505]]",density,black,,,1301830,visual,1,[],"['1', '2', '3', '4']",1,2023.2.3,harveyvisual,2.1,[],8,0.75,
0,pause,0.4,None,None,None,0,137,137,137,,,,,,,,,,,,,1301830,visual,1,[],"['1', '2', '3', '4']",1,2023.2.3,harveyvisual,2.1,[],8,0.75,
20,dot,0.3,['dot'],['density'],black,0,138,138,138,,,50.700222969055176,50.413028955459595,50.713008880615234,dot,"[0.06, 0.1, 0.1, 0.08, 0.1, 0.06, 0.08, 0.1, 0.06, 0.1, 0.06, 0.1, 0.1, 0.06, 0.1, 0.08, 0.1, 0.06, 0.1, 0.06]","[[0.5896576425127157, 0.014349623419869506], [0.32502401458757546, 0.31083009089666225], [-0.08172862549442872, -0.010488167670167359], [-0.24214425118608324, -0.45371682774354577], [-0.3705988113433905, 0.009527499789677318], [-0.19164935677940315, 0.4253443030005162], [-0.5702541961837356, -0.15082113069356062], [-0.5528322156635068, 0.14173808575535343], [0.2125499138289928, -0.37622520722741526], [0.1139159767475153, 0.08260958039654598], [-0.12129223544378337, 0.24222291111440752], [-0.3954601320961216, 0.43042087959712255], [0.47049591680373914, -0.2438016493897615], [0.009041815528903152, 0.4296869282758925], [-0.3065221520570562, -0.23972953361564642], [0.09959310318404457, -0.15063287441105988], [0.38759315482278744, 0.07888220896612519], [0.3142237001685183, 0.509124322272406], [-0.029048458636445895, -0.5912484447857639], [-0.08746610961950907, -0.23278293856345672]]",density,black,,,1301830,visual,1,[],"['1', '2', '3', '4']",1,2023.2.3,harveyvisual,2.1,[],8,0.75,
0,pause,0.4,None,None,None,0,139,139,139,,,,,,,,,,,,,1301830,visual,1,[],"['1', '2', '3', '4']",1,2023.2.3,harveyvisual,2.1,[],8,0.75,
20,dot,0.3,['dot'],['density'],black,0,140,140,140,,,51.40020799636841,51.11300301551819,51.41299605369568,dot,"[0.1, 0.06, 0.08, 0.06, 0.1, 0.06, 0.06, 0.06, 0.1, 0.08, 0.08, 0.06, 0.08, 0.08, 0.06, 0.08, 0.06, 0.08, 0.1, 0.06]","[[-0.29282555006300226, 0.4586999452964814], [0.3090715378908243, -0.1974493977298047], [0.43461092622945074, 0.38685274598052743], [-0.5218485689301097, -0.09412895682672387], [-0.31698275272415466, 0.20068468369512915], [0.26347630940229616, 0.05296761075764511], [0.5179747556861506, -0.22655555722376933], [-0.4757218799887899, 0.3251063104366636], [-0.02337010955245189, -0.5747767859927398], [0.5568044059480558, -0.03238883707447937], [0.008965879154644973, 0.027086184705501726], [0.09018165003860412, 0.3262671051095668], [0.33718754174288024, -0.4655127116291238], [-0.12639648163115447, -0.3951082927568798], [0.4928670035250372, 0.20163935522580628], [-0.20452660279301021, 0.04811143542670193], [-0.0063497290753569136, -0.17103893342720317], [-0.40234582766381666, -0.42710290410249724], [0.06891708430432975, -0.3890073634905471], [0.013909572925155822, 0.5169781790975858]]",density,black,,,1301830,visual,1,[],"['1', '2', '3', '4']",1,2023.2.3,harveyvisual,2.1,[],8,0.75,
0,pause,0.4,None,None,None,0,141,141,141,,,,,,,,,,,,,1301830,visual,1,[],"['1', '2', '3', '4']",1,2023.2.3,harveyvisual,2.1,[],8,0.75,
20,dot,0.3,['dot'],['density'],black,0,142,142,142,,,52.10020995140076,51.81300592422485,52.112951040267944,dot,"[0.06, 0.06, 0.1, 0.08, 0.08, 0.08, 0.1, 0.06, 0.08, 0.1, 0.06, 0.06, 0.06, 0.06, 0.06, 0.08, 0.08, 0.1, 0.06, 0.08]","[[-0.4096532311198636, 0.07686714726710209], [0.5249424401057018, 0.1760272500125286], [-0.41793280409211697, -0.2727704017253901], [-0.5651851957377008, -0.044647951890261994], [0.11533768714008252, -0.12312461216478832], [-0.23660523054664334, -0.16601540653986313], [0.3292015030429468, -0.15555882253254044], [-0.23519887640401482, 0.3716216004581626], [0.5447997349764712, -0.17050935197345313], [-0.009954180781651223, 0.5427284198968665], [0.22799435088206277, -0.33229601758744987], [-0.46169384143305847, 0.27327507586196725], [0.3154256606509628, 0.3612316667331271], [-0.04668400058234434, -0.23443400223489547], [0.1552080418812266, 0.13814643622488598], [0.38463914615363903, -0.45080026457515165], [0.01317582982515686, 0.32656311795502124], [-0.09586304072684948, 0.08099518291749941], [-0.02225868362242578, -0.45588845726631], [-0.2297508570510854, -0.36121514343936534]]",density,black,,,1301830,visual,1,[],"['1', '2', '3', '4']",1,2023.2.3,harveyvisual,2.1,[],8,0.75,
0,pause,0.4,None,None,None,0,143,143,143,,,,,,,,,,,,,1301830,visual,1,[],"['1', '2', '3', '4']",1,2023.2.3,harveyvisual,2.1,[],8,0.75,
20,dot,0.3,['dot'],['density'],black,0,144,144,144,,,52.800220012664795,52.51294493675232,52.81292200088501,dot,"[0.1, 0.06, 0.06, 0.08, 0.08, 0.1, 0.1, 0.1, 0.1, 0.1, 0.06, 0.06, 0.08, 0.1, 0.1, 0.1, 0.1, 0.08, 0.08, 0.1]","[[0.5947127009173164, -0.07647567423028667], [-0.1430243787530351, 0.3989157731377285], [-0.43029443429877945, -0.06443777325302741], [-0.18695969885327168, -0.5736621536627129], [-0.4320600129846871, -0.34451910140020325], [0.2806352513292645, -0.47216043626380444], [-0.5033613664402166, 0.2811161237557016], [0.28430729137681, 0.3728231920208862], [-0.13863783666169122, -0.1448651468749248], [0.025954075931309717, 0.10732413917830075], [0.33867134442900004, -0.009629803678984583], [0.08434181161618248, -0.28702500339377], [0.5114934697305403, -0.2969552074150163], [-0.1939668752457605, -0.3482859856092945], [0.5378076209715329, 0.14407968735896953], [-0.19097676958988546, 0.13625533226990405], [-0.00468598703947376, 0.5317720389773833], [-0.018977200225186674, -0.46317788439368207], [0.06005106474207589, -0.09333300595748117], [-0.3347789408155978, 0.41607302962227666]]",density,black,,,1301830,visual,1,[],"['1', '2', '3', '4']",1,2023.2.3,harveyvisual,2.1,[],8,0.75,
0,pause,0.4,None,None,None,0,145,145,145,,,,,,,,,,,,,1301830,visual,1,[],"['1', '2', '3', '4']",1,2023.2.3,harveyvisual,2.1,[],8,0.75,
20,dot,0.3,['dot'],['density'],black,0,146,146,146,,,53.50021195411682,53.212913036346436,53.512903928756714,dot,"[0.1, 0.06, 0.08, 0.1, 0.06, 0.1, 0.06, 0.08, 0.06, 0.06, 0.08, 0.1, 0.06, 0.1, 0.08, 0.08, 0.08, 0.06, 0.06, 0.1]","[[-0.3202736286759612, -0.42404248992645965], [-0.25440202809922335, 0.04531520190374816], [0.041392176312587736, -0.39561018757298944], [0.3102515036127045, -0.4359151531265121], [-0.5409828530195694, -0.03989449033742759], [-0.21013200718688985, 0.46217027297404756], [0.4139910848973959, 0.08195513407474109], [-0.5013151120202448, 0.1855362455278422], [-0.011822895294352653, 0.5763445268018214], [0.6030204077713487, -0.021549899680068554], [0.4027116959892899, -0.12269369637829225], [-0.3637418980088736, -0.18288771790042252], [0.3767359534440645, 0.4542852709966708], [0.1193887667351562, 0.366077847869102], [0.16812467026749178, 0.09261638639011693], [-0.125515206232224, -0.1125200849662254], [-0.1841438955749602, 0.2329755451724581], [0.48141990939665014, -0.3365542547902782], [0.13833623195598233, -0.1857829035568186], [-0.1741106131520443, -0.5468147934410865]]",density,black,,,1301830,visual,1,[],"['1', '2', '3', '4']",1,2023.2.3,harveyvisual,2.1,[],8,0.75,
0,pause,0.4,None,None,None,0,147,147,147,,,,,,,,,,,,,1301830,visual,1,[],"['1', '2', '3', '4']",1,2023.2.3,harveyvisual,2.1,[],8,0.75,
20,dot,0.3,['dot'],['density'],white,0,148,148,148,,,54.200206995010376,53.9128999710083,54.21289587020874,dot,"[0.08, 0.1, 0.1, 0.08, 0.08, 0.08, 0.08, 0.06, 0.1, 0.1, 0.1, 0.08, 0.1, 0.1, 0.06, 0.1, 0.08, 0.08, 0.1, 0.08]","[[0.5626170751176128, 0.046829193558093674], [-0.10845787197272311, -0.43163856895831626], [0.10302325942615387, 0.545802581714469], [-0.18673208102035332, 0.36603287152725716], [0.19336336378077756, -0.5159572294769552], [0.176148442722861, -0.06015445426556487], [-0.3463317685021423, -0.19596236300312064], [0.3978711662038278, 0.2711422308619482], [0.30312527360282004, -0.2590972973660395], [-0.4958357024038769, 0.23944805032426975], [-0.5863431521358857, 0.05097349225102793], [0.18143226006027457, 0.3323755081905231], [-0.20713347937997456, 0.05880998126615944], [-0.33213855668352255, -0.404151167575797], [0.014536434853850921, 0.10357012509298202], [0.5582781998223246, -0.1452961396695885], [-0.5386602540854943, -0.2599339326761487], [0.11852836205552042, -0.3235798477573424], [-0.07517297712483961, -0.15802357908770537], [0.3746600001222833, -0.4520649220571435]]",density,white,,,1301830,visual,1,[],"['1', '2', '3', '4']",1,2023.2.3,harveyvisual,2.1,[],8,0.75,
0,pause,0.4,None,None,None,0,149,149,149,,,,,,,,,,,1,54.30249285697937,1301830,visual,1,[],"['1', '2', '3', '4']",1,2023.2.3,harveyvisual,2.1,[],8,0.75,
20,dot,0.3,['dot'],['density'],black,0,150,150,150,,,54.90022587776184,54.6128990650177,54.91291403770447,dot,"[0.1, 0.1, 0.08, 0.08, 0.06, 0.08, 0.1, 0.08, 0.08, 0.1, 0.1, 0.1, 0.1, 0.1, 0.08, 0.06, 0.06, 0.06, 0.08, 0.08]","[[-0.4665272860511286, -0.2825573505052653], [0.5862074277042452, 0.08391057387088349], [0.24954633365124368, 0.19982895015255486], [-0.5702209440591547, -0.04420052333866256], [-0.572062165814703, 0.1558660470673807], [0.1614288838518262, -0.3505248297307675], [0.028997220912039823, 0.5357313902511429], [0.27438800806821195, 0.4477892470653051], [-0.33523764332368455, 0.1216415473679231], [0.44934746566161554, -0.33639832035068334], [-0.024697273723697233, -0.1719406747130235], [0.27361066277085844, -0.1375856321255436], [-0.4320276746593467, 0.2994758314342882], [-0.016236236427091044, -0.4335591961660673], [0.5395135795819074, -0.1321527917934032], [-0.35433099733718915, 0.47876889972109754], [-0.21452976843468813, -0.09384465032304068], [-0.237378786121422, -0.42986630815104765], [-0.19115224783164575, 0.3506072520509619], [0.053868502770414106, 0.014718087203713703]]",density,black,,,1301830,visual,1,[],"['1', '2', '3', '4']",1,2023.2.3,harveyvisual,2.1,[],8,0.75,
0,pause,0.4,None,None,None,0,151,151,151,,,,,,,,,,,,,1301830,visual,1,[],"['1', '2', '3', '4']",1,2023.2.3,harveyvisual,2.1,[],8,0.75,
20,dot,0.3,['dot'],['density'],black,0,152,152,152,,,55.600231885910034,55.313050985336304,55.613012075424194,dot,"[0.08, 0.06, 0.08, 0.08, 0.1, 0.1, 0.1, 0.08, 0.08, 0.1, 0.08, 0.06, 0.08, 0.06, 0.06, 0.08, 0.08, 0.08, 0.1, 0.06]","[[0.39596166063087834, 0.11238574568027809], [-0.4734315414639929, -0.10067335458413523], [0.004484245889877059, -0.2745049113156019], [-0.20157657099913873, -0.3121165840326319], [-0.20710679592374964, 0.5400857279299434], [0.5714980415991754, -0.10549626243716266], [-0.18067118909650765, 0.30788783158525523], [0.0741337827863301, 0.11376686602554087], [0.24323990185882494, -0.4079788218211894], [-0.12758320414498497, -0.5501460843678898], [-0.2829645849008423, 0.05087810082722355], [0.26887959188380073, 0.4268817583362463], [-0.3939210684795911, 0.4038586898115561], [-0.13235532130114835, -0.12742586899588765], [0.5860700119075118, 0.10961776273275886], [0.3561202076554184, -0.10752778893410553], [0.019916662135588625, 0.3351018685610585], [-0.3469170917016182, -0.47428374728403805], [0.1831183415217411, -0.1897307746846112], [-0.49444763315749984, 0.21359590902946524]]",density,black,,,1301830,visual,1,[],"['1', '2', '3', '4']",1,2023.2.3,harveyvisual,2.1,[],8,0.75,
0,pause,0.4,None,None,None,0,153,153,153,,,,,,,,,,,,,1301830,visual,1,[],"['1', '2', '3', '4']",1,2023.2.3,harveyvisual,2.1,[],8,0.75,
20,dot,0.3,['dot'],['density'],black,0,154,154,154,,,56.30021095275879,56.013017892837524,56.31302094459534,dot,"[0.06, 0.06, 0.08, 0.08, 0.06, 0.06, 0.1, 0.1, 0.06, 0.06, 0.1, 0.1, 0.08, 0.1, 0.1, 0.06, 0.08, 0.06, 0.1, 0.06]","[[-0.5914722491999059, -0.017785395119831474], [-0.2877869317925458, 0.5266266832124546], [0.4650898843289918, 0.058420373504841194], [0.3395456368647597, -0.37654191662782766], [0.03262789908215924, -0.20628680542498856], [0.24318257124251463, -0.08134812467509517], [0.5782361710475933, -0.13639207542470683], [0.11979970357946201, 0.5146250353500706], [-0.2608381163452255, 0.17695526520540517], [-0.1224279113328337, -0.5836723569779838], [-0.5668831611171324, 0.1875028374278048], [0.11411004734415753, 0.06244796842030764], [0.054575101062437015, -0.4480740615253642], [-0.017832669692174896, 0.3180622471723924], [-0.4147553042682609, 0.3126055920474041], [-0.31792150996040863, -0.2038329456168903], [0.2861347818199076, 0.32382421105048387], [-0.24250079215878279, -0.018106781895131707], [-0.5078589821990231, -0.23833820849506565], [-0.36282548104067847, -0.4436794916669062]]",density,black,,,1301830,visual,1,[],"['1', '2', '3', '4']",1,2023.2.3,harveyvisual,2.1,[],8,0.75,
0,pause,0.4,None,None,None,0,155,155,155,,,,,,,,,,,,,1301830,visual,1,[],"['1', '2', '3', '4']",1,2023.2.3,harveyvisual,2.1,[],8,0.75,
9,dot,0.3,['dot'],['density'],black,0,156,156,156,,,57.000235080718994,56.712878942489624,57.01287603378296,dot,"[0.1, 0.08, 0.08, 0.1, 0.06, 0.1, 0.08, 0.06, 0.08]","[[0.22829877875946783, -0.39640994854570016], [0.3366371496270161, 0.05839125036393789], [-0.11436045239834208, -0.12024221759915668], [-0.02100147820737577, -0.3824026009196371], [0.08479146627654295, 0.024089629435920912], [0.16206374850784472, -0.16075841177209507], [0.38495438842944835, -0.24810596019115372], [-0.23418047716532614, 0.09565997955556291], [0.2111996426858246, 0.23215637940447356]]",density,black,,,1301830,visual,1,[],"['1', '2', '3', '4']",1,2023.2.3,harveyvisual,2.1,[],8,0.75,
0,pause,0.4,None,None,None,0,157,157,157,,,,,,,,,,,,,1301830,visual,1,[],"['1', '2', '3', '4']",1,2023.2.3,harveyvisual,2.1,[],8,0.75,
9,dot,0.3,['dot'],['density'],black,0,158,158,158,,,57.700236082077026,57.41299796104431,57.713001012802124,dot,"[0.08, 0.1, 0.1, 0.08, 0.06, 0.06, 0.06, 0.08, 0.06]","[[0.17250841666444466, -0.5173949811024123], [-0.03744062107829021, -0.3895067986023326], [0.30010350549611725, -0.35742528465303014], [0.33064876224298684, -0.08057424749072183], [-0.16743636965090838, -0.09291053242622109], [0.1226827020066543, -0.24711763375004436], [0.047527772487498496, -0.037432207059122605], [0.20928928941955194, 0.09999474740890861], [-0.30040876562534896, -0.42726910911839744]]",density,black,,,1301830,visual,1,[],"['1', '2', '3', '4']",1,2023.2.3,harveyvisual,2.1,[],8,0.75,
0,pause,0.4,None,None,None,0,159,159,159,,,,,,,,,,,,,1301830,visual,1,[],"['1', '2', '3', '4']",1,2023.2.3,harveyvisual,2.1,[],8,0.75,
9,dot,0.3,['dot'],['density'],black,0,160,160,160,,,58.400224924087524,58.11298394203186,58.41296100616455,dot,"[0.1, 0.08, 0.08, 0.1, 0.06, 0.1, 0.08, 0.06, 0.06]","[[-0.25982930089867384, 0.41046177320377714], [0.2391912210628672, 0.4152301159030731], [-0.011899047454085643, 0.5103750441914148], [0.15826907621474634, 0.20577518054892585], [-0.29033424199965224, 0.2058356795488901], [-0.056026696670660174, 0.08152775180209879], [-0.32571421803823364, -0.002973879155612714], [0.39820859476685, 0.29236875228581105], [-0.06367065787951752, 0.28966088639372295]]",density,black,,,1301830,visual,1,[],"['1', '2', '3', '4']",1,2023.2.3,harveyvisual,2.1,[],8,0.75,
0,pause,0.4,None,None,None,0,161,161,161,,,,,,,,,,,,,1301830,visual,1,[],"['1', '2', '3', '4']",1,2023.2.3,harveyvisual,2.1,[],8,0.75,
9,dot,0.3,['dot'],['density'],black,0,162,162,162,,,59.10022592544556,58.81296896934509,59.112951040267944,dot,"[0.06, 0.06, 0.06, 0.06, 0.1, 0.08, 0.08, 0.08, 0.1]","[[0.17250841666444466, -0.5173949811024123], [-0.03744062107829021, -0.3895067986023326], [0.30010350549611725, -0.35742528465303014], [0.33064876224298684, -0.08057424749072183], [-0.16743636965090838, -0.09291053242622109], [0.1226827020066543, -0.24711763375004436], [0.047527772487498496, -0.037432207059122605], [0.20928928941955194, 0.09999474740890861], [-0.30040876562534896, -0.42726910911839744]]",density,black,,,1301830,visual,1,[],"['1', '2', '3', '4']",1,2023.2.3,harveyvisual,2.1,[],8,0.75,
0,pause,0.4,None,None,None,0,163,163,163,,,,,,,,,,,,,1301830,visual,1,[],"['1', '2', '3', '4']",1,2023.2.3,harveyvisual,2.1,[],8,0.75,
9,dot,0.3,['dot'],['density'],white,0,164,164,164,,,59.8002290725708,59.512990951538086,59.81294798851013,dot,"[0.06, 0.1, 0.08, 0.06, 0.08, 0.1, 0.1, 0.08, 0.1]","[[0.4433726728065019, 0.22320554513198193], [0.1026133663954636, -0.050786049565613584], [0.20022034484770485, 0.4412403735117007], [0.45250313802570796, 0.010227273383000257], [0.037500571895399265, 0.24935285809920393], [0.23874579090912346, 0.11348512554989887], [0.25013734113836505, -0.23502010549412247], [0.4599692436892986, -0.2536974682823114], [0.04694731086691962, -0.2548367103293993]]",density,white,,,1301830,visual,1,[],"['1', '2', '3', '4']",1,2023.2.3,harveyvisual,2.1,[],8,0.75,
0,pause,0.4,None,None,None,0,165,165,165,,,,,,,,,,,1,59.90708088874817,1301830,visual,1,[],"['1', '2', '3', '4']",1,2023.2.3,harveyvisual,2.1,[],8,0.75,
9,dot,0.3,['dot'],['density'],white,0,166,166,166,,,60.50022506713867,60.2129430770874,60.512933015823364,dot,"[0.08, 0.06, 0.06, 0.06, 0.08, 0.1, 0.06, 0.1, 0.06]","[[-0.2844843713072754, 0.22325415166673976], [-0.1819235275981482, -0.2724209396165719], [-0.4663757242286994, 0.0951888680112534], [-0.002662519752874684, 0.12526046944360225], [-0.2804516333182533, -0.07461618094684651], [-0.06266188203573825, -0.10246171469469513], [0.05562179911838863, -0.3774952117829348], [-0.29777175193284133, -0.43797360937606633], [-0.44596842075831894, -0.24145786298940805]]",density,white,,,1301830,visual,1,[],"['1', '2', '3', '4']",1,2023.2.3,harveyvisual,2.1,[],8,0.75,
0,pause,0.4,None,None,None,0,167,167,167,,,,,,,,,,,1,60.55710697174072,1301830,visual,1,[],"['1', '2', '3', '4']",1,2023.2.3,harveyvisual,2.1,[],8,0.75,
8,dot,0.3,['dot'],['density'],white,0,168,168,168,,,61.20022797584534,60.912765979766846,61.21293306350708,dot,"[0.08, 0.1, 0.06, 0.08, 0.08, 0.1, 0.06, 0.1]","[[0.32983457944800887, -0.09988122376634187], [0.002544499336209532, 0.05447162498302279], [0.49322357980250997, 0.04173156098678792], [0.3398992085464782, -0.3241559212022164], [0.12656458423521935, -0.36323236959635974], [0.5072737450674915, -0.19500703868861743], [0.06482113683766944, -0.1422911224505784], [0.25865538318477954, 0.20042726536108785]]",density,white,,,1301830,visual,1,[],"['1', '2', '3', '4']",1,2023.2.3,harveyvisual,2.1,[],8,0.75,
0,pause,0.4,None,None,None,0,169,169,169,,,,,,,,,,,1,61.209287881851196,1301830,visual,1,[],"['1', '2', '3', '4']",1,2023.2.3,harveyvisual,2.1,[],8,0.75,
8,dot,0.3,['dot'],['density'],black,0,170,170,170,,,61.90022897720337,61.612924098968506,61.91288900375366,dot,"[0.1, 0.08, 0.08, 0.1, 0.06, 0.1, 0.06, 0.1]","[[-0.16499387414028463, -0.418455346753131], [0.031011941373623824, -0.006148034068666969], [-0.4150712424924157, -0.28668557629476243], [-0.199054958380199, -0.21375968732837633], [-0.4870789535587041, 0.00515905815181239], [-0.198479811208303, 0.006815000109153054], [-0.3273741662815474, 0.19008037141614484], [0.04340096687518584, -0.25044408321713213]]",density,black,,,1301830,visual,1,[],"['1', '2', '3', '4']",1,2023.2.3,harveyvisual,2.1,[],8,0.75,
0,pause,0.4,None,None,None,0,171,171,171,,,,,,,,,,,,,1301830,visual,1,[],"['1', '2', '3', '4']",1,2023.2.3,harveyvisual,2.1,[],8,0.75,
8,dot,0.3,['dot'],['density'],black,0,172,172,172,,,62.60021901130676,62.312690019607544,62.612679958343506,dot,"[0.08, 0.08, 0.08, 0.06, 0.1, 0.06, 0.1, 0.08]","[[-0.19427332908310624, 0.44975086906229733], [-0.40583056883657587, 0.41268852933836647], [-0.1064323235824443, 0.09134240931295125], [0.037438273390647224, 0.2873761216870531], [-0.27580465694358225, 0.2567900319995576], [0.047234249799456944, 0.4983172858691376], [0.15563182967593078, 0.1192504703698398], [-0.32834908909536226, -0.014402300111889832]]",density,black,,,1301830,visual,1,[],"['1', '2', '3', '4']",1,2023.2.3,harveyvisual,2.1,[],8,0.75,
0,pause,0.4,None,None,None,0,173,173,173,,,,,,,,,,,,,1301830,visual,1,[],"['1', '2', '3', '4']",1,2023.2.3,harveyvisual,2.1,[],8,0.75,
8,dot,0.3,['dot'],['density'],black,0,174,174,174,,,63.30021095275879,63.01271605491638,63.31270694732666,dot,"[0.1, 0.1, 0.08, 0.06, 0.1, 0.08, 0.1, 0.1]","[[0.4578461037593053, -0.0425280984807614], [0.3105081462658962, -0.253400778181943], [0.5107466611240274, 0.18303335057259504], [0.05013881804369301, 0.21472050036076742], [0.11913774150617627, -0.046477809882714556], [0.3069987493408211, 0.11186211070896974], [0.10261508471656716, -0.25482825738733483], [-0.08881417545548334, 0.035709595317019026]]",density,black,,,1301830,visual,1,[],"['1', '2', '3', '4']",1,2023.2.3,harveyvisual,2.1,[],8,0.75,
0,pause,0.4,None,None,None,0,175,175,175,,,,,,,,,,,,,1301830,visual,1,[],"['1', '2', '3', '4']",1,2023.2.3,harveyvisual,2.1,[],8,0.75,
8,dot,0.3,['dot'],['density'],black,0,176,176,176,,,64.00022196769714,63.712727069854736,64.01272797584534,dot,"[0.08, 0.08, 0.06, 0.08, 0.06, 0.08, 0.08, 0.1]","[[-0.3306282708070712, -0.09459634407206743], [0.17708038186302957, -0.36794437316098305], [-0.34368294577136044, -0.39688855169369486], [-0.16397220561896333, 0.03033928826277653], [-0.08476975953586025, -0.41834960305423746], [-0.16765121495786453, -0.2265743681515788], [0.0449590487082352, -0.10546915507075137], [-0.5574709661459258, -0.15664368712912546]]",density,black,,,1301830,visual,1,[],"['1', '2', '3', '4']",1,2023.2.3,harveyvisual,2.1,[],8,0.75,
0,pause,0.4,None,None,None,0,177,177,177,,,,,,,,,,,,,1301830,visual,1,[],"['1', '2', '3', '4']",1,2023.2.3,harveyvisual,2.1,[],8,0.75,
8,dot,0.3,['dot'],['density'],black,0,178,178,178,,,64.70022296905518,64.41270208358765,64.71268010139465,dot,"[0.06, 0.1, 0.06, 0.08, 0.1, 0.1, 0.08, 0.08]","[[0.17295790489511154, -0.46037743866749825], [0.1416591427765588, 0.05421051799673566], [0.21994266958916148, -0.13656690113679631], [0.3639906379971415, 0.0627265571221228], [0.015481321741344221, -0.13916897583717935], [0.440802488837635, -0.2883976186876931], [0.5157567705321767, -0.08800602901884749], [0.24768837887357187, 0.24424825162618136]]",density,black,,,1301830,visual,1,[],"['1', '2', '3', '4']",1,2023.2.3,harveyvisual,2.1,[],8,0.75,
0,pause,0.4,None,None,None,0,179,179,179,,,,,,,,,,,,,1301830,visual,1,[],"['1', '2', '3', '4']",1,2023.2.3,harveyvisual,2.1,[],8,0.75,
7,dot,0.3,['dot'],['density'],white,0,180,180,180,,,65.40021204948425,65.1126389503479,65.41265797615051,dot,"[0.06, 0.06, 0.08, 0.08, 0.06, 0.06, 0.08]","[[-0.2822174821233986, 0.002117056236134186], [-0.10673242512413421, 0.4781556216085482], [-0.18432519539246728, 0.19072201575640843], [-0.4524596318479574, 0.13966285650530724], [0.06907010423411483, 0.2912708813513049], [-0.07412436007020941, -0.021022205933558278], [-0.3208835015251209, 0.3986768431743725]]",density,white,,,1301830,visual,1,[],"['1', '2', '3', '4']",1,2023.2.3,harveyvisual,2.1,[],8,0.75,
0,pause,0.4,None,None,None,0,181,181,181,,,,,,,,,,,1,65.48270201683044,1301830,visual,1,[],"['1', '2', '3', '4']",1,2023.2.3,harveyvisual,2.1,[],8,0.75,
7,dot,0.3,['dot'],['density'],black,0,182,182,182,,,66.10022497177124,65.81260991096497,66.11259698867798,dot,"[0.1, 0.08, 0.1, 0.08, 0.06, 0.06, 0.08]","[[0.19245168201499255, -0.1876960705048169], [-0.3381443552002159, -0.23329338142126996], [-0.10497405195571721, -0.20200038512761503], [-0.19215049966389516, -0.01485034356210763], [-0.14804808022624072, 0.20187381879058183], [0.049390412829639754, -0.0077734514623590935], [0.08212821656350888, 0.19234027401595055]]",density,black,,,1301830,visual,1,[],"['1', '2', '3', '4']",1,2023.2.3,harveyvisual,2.1,[],8,0.75,
0,pause,0.4,None,None,None,0,183,183,183,,,,,,,,,,,,,1301830,visual,1,[],"['1', '2', '3', '4']",1,2023.2.3,harveyvisual,2.1,[],8,0.75,
7,dot,0.3,['dot'],['density'],black,0,184,184,184,,,66.8002200126648,66.5125880241394,66.81255793571472,dot,"[0.06, 0.08, 0.08, 0.1, 0.1, 0.08, 0.06]","[[0.06935229908748385, 0.4911641494940837], [-0.19266199922505295, 0.07836852906048222], [0.055274369019684175, 0.020452523162812593], [0.26239471350362015, 0.1001529216481179], [-0.06036973858781391, 0.3360513952533211], [-0.2638544135394649, 0.29089327984911306], [0.14813816713374972, 0.28344041791591096]]",density,black,,,1301830,visual,1,[],"['1', '2', '3', '4']",1,2023.2.3,harveyvisual,2.1,[],8,0.75,
0,pause,0.4,None,None,None,0,185,185,185,,,,,,,,,,,,,1301830,visual,1,[],"['1', '2', '3', '4']",1,2023.2.3,harveyvisual,2.1,[],8,0.75,
7,dot,0.3,['dot'],['density'],black,0,186,186,186,,,67.50022506713867,67.21256709098816,67.51254987716675,dot,"[0.08, 0.08, 0.06, 0.08, 0.06, 0.06, 0.06]","[[-0.4123410031792677, -0.32555807737620884], [-0.11281232420725038, -0.2658066965482441], [-0.16970574590124413, 0.10972852905085191], [-0.380148642061964, 0.19816541478521793], [-0.49975943015608576, -0.10400723965324657], [-0.30003386022098844, -0.09340949099572564], [-0.0679185705411078, -0.06780919729272472]]",density,black,,,1301830,visual,1,[],"['1', '2', '3', '4']",1,2023.2.3,harveyvisual,2.1,[],8,0.75,
0,pause,0.4,None,None,None,0,187,187,187,,,,,,,,,,,,,1301830,visual,1,[],"['1', '2', '3', '4']",1,2023.2.3,harveyvisual,2.1,[],8,0.75,
7,dot,0.3,['dot'],['density'],black,0,188,188,188,,,68.20021605491638,67.91255187988281,68.21259498596191,dot,"[0.1, 0.1, 0.08, 0.08, 0.06, 0.1, 0.06]","[[-0.16635260996794698, 0.28084462036912], [-0.40218122969076125, -0.17991686156932815], [-0.0845402480451966, 0.09445086570213204], [-0.12722724135381816, -0.176029296145206], [-0.3668576348978093, 0.24153552923633032], [-0.5374975881789634, 0.10465170418994485], [-0.31219932221879926, 0.029177302383891702]]",density,black,,,1301830,visual,1,[],"['1', '2', '3', '4']",1,2023.2.3,harveyvisual,2.1,[],8,0.75,
0,pause,0.4,None,None,None,0,189,189,189,,,,,,,,,,,,,1301830,visual,1,[],"['1', '2', '3', '4']",1,2023.2.3,harveyvisual,2.1,[],8,0.75,
7,dot,0.3,['dot'],['density'],black,0,190,190,190,,,68.90023589134216,68.61252307891846,68.91250896453857,dot,"[0.06, 0.1, 0.06, 0.1, 0.08, 0.1, 0.08]","[[-0.2877807563129739, -0.2392998172879968], [-0.4930284393840153, 0.02918626900802282], [-0.13307942101536208, -0.4135874564509098], [-0.1727922191076213, -0.04289663127052677], [-0.3943840059764042, -0.4351600913800347], [-0.03321109949484203, -0.21096883087625085], [-0.5418728138863746, -0.1990057631286019]]",density,black,,,1301830,visual,1,[],"['1', '2', '3', '4']",1,2023.2.3,harveyvisual,2.1,[],8,0.75,
0,pause,0.4,None,None,None,0,191,191,191,,,,,,,,,,,,,1301830,visual,1,[],"['1', '2', '3', '4']",1,2023.2.3,harveyvisual,2.1,[],8,0.75,
6,dot,0.3,['dot'],['density'],black,0,192,192,192,,,69.6002299785614,69.31254887580872,69.61253690719604,dot,"[0.06, 0.08, 0.1, 0.1, 0.08, 0.1]","[[0.285926512064941, -0.24481785515673876], [0.418595730147314, -0.41068201076939437], [0.08023911914447063, -0.2907744195836184], [0.5255309086764915, -0.21900298349449057], [0.21619509519697316, -0.004828458463526469], [0.21043770887025895, -0.4594541383061854]]",density,black,,,1301830,visual,1,[],"['1', '2', '3', '4']",1,2023.2.3,harveyvisual,2.1,[],8,0.75,
0,pause,0.4,None,None,None,0,193,193,193,,,,,,,,,,,,,1301830,visual,1,[],"['1', '2', '3', '4']",1,2023.2.3,harveyvisual,2.1,[],8,0.75,
6,dot,0.3,['dot'],['density'],black,0,194,194,194,,,70.30022597312927,70.01257300376892,70.31251287460327,dot,"[0.08, 0.06, 0.1, 0.08, 0.06, 0.06]","[[0.2333794889108542, 0.5108688068097712], [0.17720399199515413, 0.06488002481085814], [0.3526024925964592, 0.16961020277143707], [0.1596713132306006, 0.321837067503818], [0.0007438407140586783, 0.18344495120876914], [0.42757463853404776, 0.37786691715169374]]",density,black,,,1301830,visual,1,[],"['1', '2', '3', '4']",1,2023.2.3,harveyvisual,2.1,[],8,0.75,
0,pause,0.4,None,None,None,0,195,195,195,,,,,,,,,,,,,1301830,visual,1,[],"['1', '2', '3', '4']",1,2023.2.3,harveyvisual,2.1,[],8,0.75,
6,dot,0.3,['dot'],['density'],black,0,196,196,196,,,71.00022292137146,70.71250009536743,71.01249599456787,dot,"[0.1, 0.06, 0.06, 0.06, 0.08, 0.08]","[[-0.5416753121247185, 0.020803147184574915], [-0.3232269173664433, -0.07161231053200118], [-0.3008479376061402, -0.286480119217458], [-0.22299540496279888, 0.12470258063391813], [-0.10776740766186912, -0.19554033341247495], [-0.5165544979209102, -0.21376225914528924]]",density,black,,,1301830,visual,1,[],"['1', '2', '3', '4']",1,2023.2.3,harveyvisual,2.1,[],8,0.75,
0,pause,0.4,None,None,None,0,197,197,197,,,,,,,,,,,,,1301830,visual,1,[],"['1', '2', '3', '4']",1,2023.2.3,harveyvisual,2.1,[],8,0.75,
6,dot,0.3,['dot'],['density'],black,0,198,198,198,,,71.70023202896118,71.4124870300293,71.7124719619751,dot,"[0.06, 0.08, 0.08, 0.06, 0.1, 0.1]","[[0.20407874700173578, -0.003607462636592132], [0.19900023894327637, 0.3924983297162132], [0.3038969651674081, 0.19297037853131338], [-0.03476334221878716, -0.0007504963676470482], [-0.04769005191199877, 0.33834827157296915], [0.0832402191747092, 0.1716866405281877]]",density,black,,,1301830,visual,1,[],"['1', '2', '3', '4']",1,2023.2.3,harveyvisual,2.1,[],8,0.75,
0,pause,0.4,None,None,None,0,199,199,199,,,,,,,,,,,,,1301830,visual,1,[],"['1', '2', '3', '4']",1,2023.2.3,harveyvisual,2.1,[],8,0.75,
6,dot,0.3,['dot'],['density'],black,0,200,200,200,,,72.40022087097168,72.11262202262878,72.41261506080627,dot,"[0.08, 0.08, 0.06, 0.1, 0.1, 0.08]","[[0.5108460974500976, 0.10904555526594768], [0.5033362887342737, -0.29902707163897635], [0.3062164979741722, 0.05793810054487639], [0.22849736264613016, -0.28041776899433873], [0.12909977445373055, -0.06500178518750158], [0.41889526300287094, -0.11616960582105396]]",density,black,,,1301830,visual,1,[],"['1', '2', '3', '4']",1,2023.2.3,harveyvisual,2.1,[],8,0.75,
0,pause,0.4,None,None,None,0,201,201,201,,,,,,,,,,,,,1301830,visual,1,[],"['1', '2', '3', '4']",1,2023.2.3,harveyvisual,2.1,[],8,0.75,
6,dot,0.3,['dot'],['density'],black,0,202,202,202,,,73.10021495819092,72.81261992454529,73.11261105537415,dot,"[0.1, 0.1, 0.08, 0.08, 0.08, 0.06]","[[-0.5379788740814003, -0.011730333491669416], [-0.1820890739253136, -0.27973544868684425], [-0.07809457889047756, -0.09124846264896269], [-0.30616251401069866, -0.45101817852416426], [-0.44200878281119743, -0.26991620184617166], [-0.3315938551005316, -0.08696624632848979]]",density,black,,,1301830,visual,1,[],"['1', '2', '3', '4']",1,2023.2.3,harveyvisual,2.1,[],8,0.75,
0,pause,0.4,None,None,None,0,203,203,203,,,,,,,,,,,,,1301830,visual,1,[],"['1', '2', '3', '4']",1,2023.2.3,harveyvisual,2.1,[],8,0.75,
5,dot,0.3,['dot'],['density'],black,0,204,204,204,,,73.80023694038391,73.51262593269348,73.81262302398682,dot,"[0.1, 0.06, 0.06, 0.08, 0.08]","[[0.33660852042816714, -0.448935078303268], [0.16237328695183198, -0.028906365321866932], [0.003149504206933677, -0.1844463225559013], [0.4065340125681681, -0.22407981263326276], [0.20027486954239768, -0.2346061295568129]]",density,black,,,1301830,visual,1,[],"['1', '2', '3', '4']",1,2023.2.3,harveyvisual,2.1,[],8,0.75,
0,pause,0.4,None,None,None,0,205,205,205,,,,,,,,,,,,,1301830,visual,1,[],"['1', '2', '3', '4']",1,2023.2.3,harveyvisual,2.1,[],8,0.75,
5,dot,0.3,['dot'],['density'],black,0,206,206,206,,,74.50023293495178,74.21263098716736,74.51262593269348,dot,"[0.1, 0.08, 0.08, 0.06, 0.1]","[[0.2447541601906441, 0.3086669061463178], [0.2085849672204031, -0.04267428248465989], [0.44393754570968663, -0.061602228714441105], [0.027125763574429876, 0.05764502161176834], [0.36879828001487897, 0.1310025380577708]]",density,black,,,1301830,visual,1,[],"['1', '2', '3', '4']",1,2023.2.3,harveyvisual,2.1,[],8,0.75,
0,pause,0.4,None,None,None,0,207,207,207,,,,,,,,,,,,,1301830,visual,1,[],"['1', '2', '3', '4']",1,2023.2.3,harveyvisual,2.1,[],8,0.75,
5,dot,0.3,['dot'],['density'],black,0,208,208,208,,,75.20023798942566,74.91264390945435,75.21264505386353,dot,"[0.06, 0.1, 0.1, 0.1, 0.08]","[[-0.3593586909609717, -0.014123405231526708], [-0.016214713675271986, 0.25764317450247104], [-0.14180258575993823, 0.0328893580167688], [-0.4739301778776912, 0.15719809156630632], [-0.2718601341595813, 0.23222304362681612]]",density,black,,,1301830,visual,1,[],"['1', '2', '3', '4']",1,2023.2.3,harveyvisual,2.1,[],8,0.75,
0,pause,0.4,None,None,None,0,209,209,209,,,,,,,,,,,,,1301830,visual,1,[],"['1', '2', '3', '4']",1,2023.2.3,harveyvisual,2.1,[],8,0.75,
5,dot,0.3,['dot'],['density'],black,0,210,210,210,,,75.9002320766449,75.61264896392822,75.91252994537354,dot,"[0.06, 0.06, 0.06, 0.1, 0.08]","[[-0.17224806752104949, 0.21128771658676965], [-0.35983128753182364, -0.1328600505582573], [-0.33716814897054914, 0.09708697582185674], [-0.044562237693599294, -0.03778919281981133], [-0.17109626387405982, -0.21732524013947077]]",density,black,,,1301830,visual,1,[],"['1', '2', '3', '4']",1,2023.2.3,harveyvisual,2.1,[],8,0.75,
0,pause,0.4,None,None,None,0,211,211,211,,,,,,,,,,,,,1301830,visual,1,[],"['1', '2', '3', '4']",1,2023.2.3,harveyvisual,2.1,[],8,0.75,
5,dot,0.3,['dot'],['density'],black,0,212,212,212,,,76.60021209716797,76.3125410079956,76.61253499984741,dot,"[0.1, 0.08, 0.06, 0.08, 0.1]","[[-0.20882687658313398, 0.05979685123170853], [0.07709165915785691, 0.33819008637117026], [0.02323578322535992, 0.12175330968231063], [0.02522363087913582, -0.08718927316059993], [-0.12152044988768049, 0.28453648995279207]]",density,black,,,1301830,visual,1,[],"['1', '2', '3', '4']",1,2023.2.3,harveyvisual,2.1,[],8,0.75,
0,pause,0.4,None,None,None,0,213,213,213,,,,,,,,,,,,,1301830,visual,1,[],"['1', '2', '3', '4']",1,2023.2.3,harveyvisual,2.1,[],8,0.75,
5,dot,0.3,['dot'],['density'],white,0,214,214,214,,,77.30021595954895,77.01252293586731,77.31251788139343,dot,"[0.1, 0.1, 0.1, 0.1, 0.06]","[[0.2947939438731228, -0.23060267152592065], [-0.16069394766121817, -0.3416383267983795], [0.17571447256805817, -0.04795497140357211], [-0.06398416024856234, -0.043165972544212804], [0.046845399773749824, -0.2436216536023896]]",density,white,,,1301830,visual,1,[],"['1', '2', '3', '4']",1,2023.2.3,harveyvisual,2.1,[],8,0.75,
0,pause,0.4,None,None,None,0,215,215,215,,,,,,,,,,,1,77.46639895439148,1301830,visual,1,[],"['1', '2', '3', '4']",1,2023.2.3,harveyvisual,2.1,[],8,0.75,
4,dot,0.3,['dot'],['density'],black,0,216,216,216,,,78.0002269744873,77.71251606941223,78.01252007484436,dot,"[0.1, 0.1, 0.08, 0.08]","[[-0.24855901342904946, 0.4326179111294549], [-0.33066739519925503, 0.24314919490711104], [-0.015728317870896572, 0.5189617074191414], [-0.09686463175319387, 0.28200212383687606]]",density,black,,,1301830,visual,1,[],"['1', '2', '3', '4']",1,2023.2.3,harveyvisual,2.1,[],8,0.75,
0,pause,0.4,None,None,None,0,217,217,217,,,,,,,,,,,,,1301830,visual,1,[],"['1', '2', '3', '4']",1,2023.2.3,harveyvisual,2.1,[],8,0.75,
4,dot,0.3,['dot'],['density'],black,0,218,218,218,,,78.70023202896118,78.41249489784241,78.71249198913574,dot,"[0.06, 0.06, 0.06, 0.1]","[[0.012521055699324385, 0.11356654047594222], [0.23234191260135498, 0.08597184236642744], [-0.1711309036876675, 0.020891973622313913], [0.11376048882462075, -0.09104804463782627]]",density,black,,,1301830,visual,1,[],"['1', '2', '3', '4']",1,2023.2.3,harveyvisual,2.1,[],8,0.75,
0,pause,0.4,None,None,None,0,219,219,219,,,,,,,,,,,,,1301830,visual,1,[],"['1', '2', '3', '4']",1,2023.2.3,harveyvisual,2.1,[],8,0.75,
4,dot,0.3,['dot'],['density'],black,0,220,220,220,,,79.40023589134216,79.11250305175781,79.41252708435059,dot,"[0.06, 0.08, 0.06, 0.1]","[[-0.5133923796685119, -0.13567638448558317], [-0.3102378593599109, -0.17790160316510653], [-0.5338837235738882, 0.07316730980410076], [-0.255286731521037, 0.022123457211080083]]",density,black,,,1301830,visual,1,[],"['1', '2', '3', '4']",1,2023.2.3,harveyvisual,2.1,[],8,0.75,
0,pause,0.4,None,None,None,0,221,221,221,,,,,,,,,,,,,1301830,visual,1,[],"['1', '2', '3', '4']",1,2023.2.3,harveyvisual,2.1,[],8,0.75,
4,dot,0.3,['dot'],['density'],black,0,222,222,222,,,80.10022401809692,79.8123950958252,80.11223196983337,dot,"[0.06, 0.08, 0.1, 0.06]","[[0.012521055699324385, 0.11356654047594222], [0.23234191260135498, 0.08597184236642744], [-0.1711309036876675, 0.020891973622313913], [0.11376048882462075, -0.09104804463782627]]",density,black,,,1301830,visual,1,[],"['1', '2', '3', '4']",1,2023.2.3,harveyvisual,2.1,[],8,0.75,
0,pause,0.4,None,None,None,0,223,223,223,,,,,,,,,,,,,1301830,visual,1,[],"['1', '2', '3', '4']",1,2023.2.3,harveyvisual,2.1,[],8,0.75,
4,dot,0.3,['dot'],['density'],black,0,224,224,224,,,80.80023789405823,80.51237607002258,80.81236004829407,dot,"[0.1, 0.06, 0.1, 0.1]","[[-0.4116264312708952, 0.16775371224632304], [-0.5618780911112883, -0.04134114392370045], [-0.3363713887364365, -0.04915619770205748], [-0.48212301157369764, -0.2249233832905235]]",density,black,,,1301830,visual,1,[],"['1', '2', '3', '4']",1,2023.2.3,harveyvisual,2.1,[],8,0.75,
0,pause,0.4,None,None,None,0,225,225,225,,,,,,,,,,,,,1301830,visual,1,[],"['1', '2', '3', '4']",1,2023.2.3,harveyvisual,2.1,[],8,0.75,
4,dot,0.3,['dot'],['density'],black,0,226,226,226,,,81.50024008750916,81.21222305297852,81.5123519897461,dot,"[0.1, 0.06, 0.08, 0.08]","[[0.0004228548582206217, 0.4437421379736539], [0.24572762857664815, 0.2260868474052859], [0.007756854070108054, 0.1846819218217072], [0.22099789303306372, 0.4278063517398125]]",density,black,,,1301830,visual,1,[],"['1', '2', '3', '4']",1,2023.2.3,harveyvisual,2.1,[],8,0.75,
0,pause,0.4,None,None,None,0,227,227,227,,,,,,,,,,,,,1301830,visual,1,[],"['1', '2', '3', '4']",1,2023.2.3,harveyvisual,2.1,[],8,0.75,
3,dot,0.3,['dot'],['density'],black,0,228,228,228,,,82.2002420425415,81.91221189498901,82.21232891082764,dot,"[0.1, 0.06, 0.1]","[[0.1555504186016049, 0.15532406847092056], [-0.0680535881648269, 0.26220909641571793], [0.08533315121688807, 0.39122308779032533]]",density,black,,,1301830,visual,1,[],"['1', '2', '3', '4']",1,2023.2.3,harveyvisual,2.1,[],8,0.75,
0,pause,0.4,None,None,None,0,229,229,229,,,,,,,,,,,,,1301830,visual,1,[],"['1', '2', '3', '4']",1,2023.2.3,harveyvisual,2.1,[],8,0.75,
3,dot,0.3,['dot'],['density'],black,0,230,230,230,,,82.90021800994873,82.61231708526611,82.91232800483704,dot,"[0.06, 0.1, 0.1]","[[-0.27441186418729774, -0.31428620701652393], [-0.10438281902574013, -0.2032379983598837], [-0.31523395761825285, -0.08768035506307631]]",density,black,,,1301830,visual,1,[],"['1', '2', '3', '4']",1,2023.2.3,harveyvisual,2.1,[],8,0.75,
0,pause,0.4,None,None,None,0,231,231,231,,,,,,,,,,,,,1301830,visual,1,[],"['1', '2', '3', '4']",1,2023.2.3,harveyvisual,2.1,[],8,0.75,
3,dot,0.3,['dot'],['density'],black,0,232,232,232,,,83.60023093223572,83.31232500076294,83.61234307289124,dot,"[0.08, 0.06, 0.1]","[[0.3935061822875672, 0.2255916562549388], [0.5507663609445765, 0.05974239467682067], [0.33737455125106675, -0.013318187219183488]]",density,black,,,1301830,visual,1,[],"['1', '2', '3', '4']",1,2023.2.3,harveyvisual,2.1,[],8,0.75,
0,pause,0.4,None,None,None,0,233,233,233,,,,,,,,,,,,,1301830,visual,1,[],"['1', '2', '3', '4']",1,2023.2.3,harveyvisual,2.1,[],8,0.75,
3,dot,0.3,['dot'],['density'],black,0,234,234,234,,,84.30023097991943,84.01229405403137,84.31230306625366,dot,"[0.08, 0.08, 0.08]","[[-0.04083818552357515, -0.522177599776496], [0.2241586230204485, -0.5188142294055383], [0.09506152973916207, -0.364648334381489]]",density,black,,,1301830,visual,1,[],"['1', '2', '3', '4']",1,2023.2.3,harveyvisual,2.1,[],8,0.75,
0,pause,0.4,None,None,None,0,235,235,235,,,,,,,,,,,,,1301830,visual,1,[],"['1', '2', '3', '4']",1,2023.2.3,harveyvisual,2.1,[],8,0.75,
3,dot,0.3,['dot'],['density'],black,0,236,236,236,,,85.0002179145813,84.71229410171509,85.01231002807617,dot,"[0.08, 0.1, 0.06]","[[0.2768253388883432, 0.03346297355107007], [0.11287187477499526, -0.09417797505773098], [0.09003622344097514, 0.12370024427926096]]",density,black,,,1301830,visual,1,[],"['1', '2', '3', '4']",1,2023.2.3,harveyvisual,2.1,[],8,0.75,
0,pause,0.4,None,None,None,0,237,237,237,,,,,,,,,,,,,1301830,visual,1,[],"['1', '2', '3', '4']",1,2023.2.3,harveyvisual,2.1,[],8,0.75,
3,dot,0.3,['dot'],['density'],black,0,238,238,238,,,85.70023894309998,85.41229510307312,85.71225309371948,dot,"[0.1, 0.06, 0.06]","[[0.35100391059830643, -0.4491085892346253], [0.13011513135189492, -0.5590284990295896], [0.16905753934955023, -0.35714526366544236]]",density,black,,,1301830,visual,1,[],"['1', '2', '3', '4']",1,2023.2.3,harveyvisual,2.1,[],8,0.75,
0,pause,0.4,None,None,None,0,239,239,239,,,,,,,,,,,,,1301830,visual,1,[],"['1', '2', '3', '4']",1,2023.2.3,harveyvisual,2.1,[],8,0.75,
2,dot,0.3,['dot'],['density'],black,0,240,240,240,,,86.40024089813232,86.11227488517761,86.41223907470703,dot,"[0.06, 0.1]","[[0.1851205616289071, -0.3624876981064337], [0.3405923022038234, -0.23608025195482504]]",density,black,,,1301830,visual,1,[],"['1', '2', '3', '4']",1,2023.2.3,harveyvisual,2.1,[],8,0.75,
0,pause,0.4,None,None,None,0,241,241,241,,,,,,,,,,,,,1301830,visual,1,[],"['1', '2', '3', '4']",1,2023.2.3,harveyvisual,2.1,[],8,0.75,
2,dot,0.3,['dot'],['density'],black,0,242,242,242,,,87.10022592544556,86.81226205825806,87.11220598220825,dot,"[0.06, 0.06]","[[-0.19266755722762574, -0.036106715323925336], [-0.096675332858716, 0.13967695308521302]]",density,black,,,1301830,visual,1,[],"['1', '2', '3', '4']",1,2023.2.3,harveyvisual,2.1,[],8,0.75,
0,pause,0.4,None,None,None,0,243,243,243,,,,,,,,,,,,,1301830,visual,1,[],"['1', '2', '3', '4']",1,2023.2.3,harveyvisual,2.1,[],8,0.75,
2,dot,0.3,['dot'],['density'],black,0,244,244,244,,,87.80024099349976,87.512197971344,87.8121829032898,dot,"[0.06, 0.1]","[[0.11437717294043931, -0.408092871188616], [0.012734947149558614, -0.23578585574018435]]",density,black,,,1301830,visual,1,[],"['1', '2', '3', '4']",1,2023.2.3,harveyvisual,2.1,[],8,0.75,
0,pause,0.4,None,None,None,0,245,245,245,,,,,,,,,,,,,1301830,visual,1,[],"['1', '2', '3', '4']",1,2023.2.3,harveyvisual,2.1,[],8,0.75,
2,dot,0.3,['dot'],['density'],black,0,246,246,246,,,88.50021696090698,88.2121810913086,88.51218509674072,dot,"[0.08, 0.06]","[[-0.2277318593301165, -0.35289300204507235], [-0.09400723608355734, -0.20388512549033708]]",density,black,,,1301830,visual,1,[],"['1', '2', '3', '4']",1,2023.2.3,harveyvisual,2.1,[],8,0.75,
0,pause,0.4,None,None,None,0,247,247,247,,,,,,,,,,,,,1301830,visual,1,[],"['1', '2', '3', '4']",1,2023.2.3,harveyvisual,2.1,[],8,0.75,
2,dot,0.3,['dot'],['density'],black,0,248,248,248,,,89.20022702217102,88.91218495368958,89.21215105056763,dot,"[0.1, 0.1]","[[0.17083311991776792, -0.05558111512160733], [0.1461049568064877, -0.25438559320493304]]",density,black,,,1301830,visual,1,[],"['1', '2', '3', '4']",1,2023.2.3,harveyvisual,2.1,[],8,0.75,
0,pause,0.4,None,None,None,0,249,249,249,,,,,,,,,,,,,1301830,visual,1,[],"['1', '2', '3', '4']",1,2023.2.3,harveyvisual,2.1,[],8,0.75,
2,dot,0.3,['dot'],['density'],black,0,250,250,250,,,89.90021991729736,89.61217188835144,89.91212797164917,dot,"[0.06, 0.08]","[[0.45098141687762733, -0.20237638590572143], [0.5433504117931098, -0.02475258047346216]]",density,black,,,1301830,visual,1,[],"['1', '2', '3', '4']",1,2023.2.3,harveyvisual,2.1,[],8,0.75,
0,pause,0.4,None,None,None,0,251,251,251,,,,,,,,,,,,,1301830,visual,1,[],"['1', '2', '3', '4']",1,2023.2.3,harveyvisual,2.1,[],8,0.75,
1,dot,0.3,['dot'],['density'],black,0,252,252,252,,,90.60023093223572,90.31210994720459,90.61210608482361,dot,[0.06],"[0.03111034986587176, -0.1137363894063533]",density,black,,,1301830,visual,1,[],"['1', '2', '3', '4']",1,2023.2.3,harveyvisual,2.1,[],8,0.75,
0,pause,0.4,None,None,None,0,253,253,253,,,,,,,,,,,,,1301830,visual,1,[],"['1', '2', '3', '4']",1,2023.2.3,harveyvisual,2.1,[],8,0.75,
1,dot,0.3,['dot'],['density'],black,0,254,254,254,,,91.30022692680359,91.01203393936157,91.31212496757507,dot,[0.1],"[0.4420174282329864, -0.3383815273201445]",density,black,,,1301830,visual,1,[],"['1', '2', '3', '4']",1,2023.2.3,harveyvisual,2.1,[],8,0.75,
0,pause,0.4,None,None,None,0,255,255,255,,,,,,,,,,,,,1301830,visual,1,[],"['1', '2', '3', '4']",1,2023.2.3,harveyvisual,2.1,[],8,0.75,
1,dot,0.3,['dot'],['density'],black,0,256,256,256,,,92.0002110004425,91.71198606491089,92.01214003562927,dot,[0.08],"[-0.045934412585722416, -0.12236734128406912]",density,black,,,1301830,visual,1,[],"['1', '2', '3', '4']",1,2023.2.3,harveyvisual,2.1,[],8,0.75,
0,pause,0.4,None,None,None,0,257,257,257,,,,,,,,,,,,,1301830,visual,1,[],"['1', '2', '3', '4']",1,2023.2.3,harveyvisual,2.1,[],8,0.75,
1,dot,0.3,['dot'],['density'],black,0,258,258,258,,,92.70021891593933,92.411945104599,92.71207904815674,dot,[0.06],"[-0.31757534052014, 0.30709612076893067]",density,black,,,1301830,visual,1,[],"['1', '2', '3', '4']",1,2023.2.3,harveyvisual,2.1,[],8,0.75,
0,pause,0.4,None,None,None,0,259,259,259,,,,,,,,,,,,,1301830,visual,1,[],"['1', '2', '3', '4']",1,2023.2.3,harveyvisual,2.1,[],8,0.75,
1,dot,0.3,['dot'],['density'],white,0,260,260,260,,,93.4002149105072,93.11194205284119,93.41196703910828,dot,[0.08],"[-0.2532192430475575, -0.5275431624831907]",density,white,,,1301830,visual,1,[],"['1', '2', '3', '4']",1,2023.2.3,harveyvisual,2.1,[],8,0.75,
0,pause,0.4,None,None,None,0,261,261,261,,,,,,,,,,,1,93.56813979148865,1301830,visual,1,[],"['1', '2', '3', '4']",1,2023.2.3,harveyvisual,2.1,[],8,0.75,
1,dot,0.3,['dot'],['density'],black,0,262,262,262,,,94.10023188591003,93.81189799308777,94.11190009117126,dot,[0.08],"[0.21839164384074103, 0.06179923858190914]",density,black,,,1301830,visual,1,[],"['1', '2', '3', '4']",1,2023.2.3,harveyvisual,2.1,[],8,0.75,
0,pause,0.4,None,None,None,0,263,263,263,,,,,,,,,,,,,1301830,visual,1,[],"['1', '2', '3', '4']",1,2023.2.3,harveyvisual,2.1,[],8,0.75,
20,dot,0.3,['dot'],['density'],black,0,264,264,264,,,94.80022096633911,94.51192307472229,94.8118839263916,dot,"[0.1, 0.06, 0.06, 0.1, 0.1, 0.06, 0.06, 0.1, 0.06, 0.08, 0.06, 0.06, 0.06, 0.1, 0.08, 0.08, 0.06, 0.06, 0.1, 0.1]","[[-0.08708007699915465, -0.549405985715016], [-0.3298837394006529, -0.35519091593976704], [-0.23749946402789684, 0.32630832543860744], [0.4851625819703692, 0.3398906281437235], [-0.058202593873783015, 0.1761376222422546], [-0.07646407206723449, 0.5073618589275773], [0.58828578599254, 0.0703543391143189], [0.18948235602433616, -0.28510429696034867], [-0.5588641030594294, -0.08422687579789917], [-0.28212907625697614, -0.0035738042014783478], [-0.5682312286932301, 0.13015217812245677], [0.12306766547654602, 0.4607181026630266], [0.24216420985847453, 0.16418213790703373], [0.3057611471654156, -0.473310000800232], [-0.4184250437779211, 0.41419024652669867], [0.037274330635789665, -0.03459361856816212], [0.28016356724489366, -0.07685930603346403], [0.504319243150361, -0.2224008183460885], [-0.07848563019546484, -0.33395904006689303], [-0.13559804263645675, -0.14431227075359532]]",density,black,,,1301830,visual,1,[],"['1', '2', '3', '4']",1,2023.2.3,harveyvisual,2.1,[],8,0.75,
0,pause,0.4,None,None,None,0,265,265,265,,,,,,,,,,,,,1301830,visual,1,[],"['1', '2', '3', '4']",1,2023.2.3,harveyvisual,2.1,[],8,0.75,
20,dot,0.3,['dot'],['density'],black,0,266,266,266,,,95.50023293495178,95.21187090873718,95.51185989379883,dot,"[0.1, 0.1, 0.06, 0.08, 0.06, 0.06, 0.06, 0.06, 0.06, 0.1, 0.06, 0.08, 0.08, 0.1, 0.08, 0.06, 0.06, 0.06, 0.06, 0.08]","[[-0.09994479836513837, 0.584683016821412], [0.3569505035219145, -0.30691511141116384], [-0.16192729443365617, 0.3539309104566357], [0.16557332812398018, -0.5152069691587285], [-0.5689417135171901, 0.05699184589812056], [0.09535294904365998, -0.11113209653650036], [-0.3054495672119223, -0.46868885661625015], [-0.27022332625317586, -0.016353754981947022], [-0.48449250787496384, -0.13339161058589327], [-0.5070551328303775, 0.24412127400574252], [-0.055629723364546524, -0.32345094745158975], [0.03126154559236971, 0.13641630131395532], [0.5144805501198172, 0.15417982877351122], [0.34401695045691205, -0.07957665626098093], [0.24323071870811808, 0.1497139687593423], [-0.4176373955651216, 0.41461472563846735], [0.5255609482753975, -0.14620109120549427], [0.20420622331601268, 0.47155315430318234], [-0.24864518840175054, -0.24451463292994363], [-0.32523791088075527, 0.16654993130217888]]",density,black,,,1301830,visual,1,[],"['1', '2', '3', '4']",1,2023.2.3,harveyvisual,2.1,[],8,0.75,
