num,mod,duration,shape,ll_cond,colors,.thisRepN,.thisTrialN,.thisN,.thisIndex,thisRow.t,notes,raw_global_time,t_start,t_stop,shapes,size,pos,cond,color,button,RT,participant,session,starting_run,left button (match/odd),right button (non-match/even),samples_per_block,psychopy version,expName,offset,audio,number_runs,radius,
1,dot,0.3,['dot'],['density'],black,0,0,0,0,,,2.4002301692962646,2.1074421405792236,2.407353162765503,dot,[0.06],"[0.4420174282329864, -0.3383815273201445]",density,black,,,1301830,visual,1,[],"['1', '2', '3', '4']",1,2023.2.3,harveyvisual,2.1,[],8,0.75,
0,pause,0.4,None,None,None,0,1,1,1,,,,,,,,,,,1,2.7119691371917725,1301830,visual,1,[],"['1', '2', '3', '4']",1,2023.2.3,harveyvisual,2.1,[],8,0.75,
1,dot,0.3,['dot'],['density'],black,0,2,2,2,,,3.100222110748291,2.807366132736206,3.1083691120147705,dot,[0.1],"[-0.3631366314731191, 0.1590646049745197]",density,black,,,1301830,visual,1,[],"['1', '2', '3', '4']",1,2023.2.3,harveyvisual,2.1,[],8,0.75,
0,pause,0.4,None,None,None,0,3,3,3,,,,,,,,,,,,,1301830,visual,1,[],"['1', '2', '3', '4']",1,2023.2.3,harveyvisual,2.1,[],8,0.75,
1,dot,0.3,['dot'],['density'],white,0,4,4,4,,,3.80020809173584,3.507941961288452,3.807966947555542,dot,[0.06],"[-0.22364231775977078, 0.4637426405669522]",density,white,,,1301830,visual,1,[],"['1', '2', '3', '4']",1,2023.2.3,harveyvisual,2.1,[],8,0.75,
0,pause,0.4,None,None,None,0,5,5,5,,,,,,,,,,,1,3.968003034591675,1301830,visual,1,[],"['1', '2', '3', '4']",1,2023.2.3,harveyvisual,2.1,[],8,0.75,
1,dot,0.3,['dot'],['density'],black,0,6,6,6,,,4.5002219676971436,4.207858085632324,4.507922172546387,dot,[0.06],"[0.25023401086931774, -0.3984124620602511]",density,black,,,1301830,visual,1,[],"['1', '2', '3', '4']",1,2023.2.3,harveyvisual,2.1,[],8,0.75,
0,pause,0.4,None,None,None,0,7,7,7,,,,,,,,,,,,,1301830,visual,1,[],"['1', '2', '3', '4']",1,2023.2.3,harveyvisual,2.1,[],8,0.75,
1,dot,0.3,['dot'],['density'],black,0,8,8,8,,,5.200222969055176,4.907921075820923,5.207946062088013,dot,[0.1],"[0.00661777001411412, 0.39634766145863237]",density,black,,,1301830,visual,1,[],"['1', '2', '3', '4']",1,2023.2.3,harveyvisual,2.1,[],8,0.75,
0,pause,0.4,None,None,None,0,9,9,9,,,,,,,,,,,,,1301830,visual,1,[],"['1', '2', '3', '4']",1,2023.2.3,harveyvisual,2.1,[],8,0.75,
1,dot,0.3,['dot'],['density'],black,0,10,10,10,,,5.900213956832886,5.610165119171143,5.910154104232788,dot,[0.06],"[-0.31757534052014, 0.30709612076893067]",density,black,,,1301830,visual,1,[],"['1', '2', '3', '4']",1,2023.2.3,harveyvisual,2.1,[],8,0.75,
0,pause,0.4,None,None,None,0,11,11,11,,,,,,,,,,,,,1301830,visual,1,[],"['1', '2', '3', '4']",1,2023.2.3,harveyvisual,2.1,[],8,0.75,
2,dot,0.3,['dot'],['density'],white,0,12,12,12,,,6.60023307800293,6.310148000717163,6.610142946243286,dot,"[0.06, 0.1]","[[-0.22226122312079244, -0.00806926593831646], [-0.023245446524914906, -0.037240983575548024]]",density,white,,,1301830,visual,1,[],"['1', '2', '3', '4']",1,2023.2.3,harveyvisual,2.1,[],8,0.75,
0,pause,0.4,None,None,None,0,13,13,13,,,,,,,,,,,1,6.770438194274902,1301830,visual,1,[],"['1', '2', '3', '4']",1,2023.2.3,harveyvisual,2.1,[],8,0.75,
2,dot,0.3,['dot'],['density'],black,0,14,14,14,,,7.300220966339111,7.010087966918945,7.310091972351074,dot,"[0.08, 0.1]","[[-0.15489633838679245, 0.20775043904852977], [-0.02477214636975436, 0.05468251249351026]]",density,black,,,1301830,visual,1,[],"['1', '2', '3', '4']",1,2023.2.3,harveyvisual,2.1,[],8,0.75,
0,pause,0.4,None,None,None,0,15,15,15,,,,,,,,,,,,,1301830,visual,1,[],"['1', '2', '3', '4']",1,2023.2.3,harveyvisual,2.1,[],8,0.75,
2,dot,0.3,['dot'],['density'],black,0,16,16,16,,,8.000216960906982,7.710098028182983,8.010213136672974,dot,"[0.06, 0.08]","[[-0.15489633838679245, 0.20775043904852977], [-0.02477214636975436, 0.05468251249351026]]",density,black,,,1301830,visual,1,[],"['1', '2', '3', '4']",1,2023.2.3,harveyvisual,2.1,[],8,0.75,
0,pause,0.4,None,None,None,0,17,17,17,,,,,,,,,,,,,1301830,visual,1,[],"['1', '2', '3', '4']",1,2023.2.3,harveyvisual,2.1,[],8,0.75,
2,dot,0.3,['dot'],['density'],black,0,18,18,18,,,8.700220108032227,8.41007113456726,8.71019697189331,dot,"[0.06, 0.06]","[[0.24265818653156754, -0.3775895252336694], [0.4224299169789366, -0.289759305909148]]",density,black,,,1301830,visual,1,[],"['1', '2', '3', '4']",1,2023.2.3,harveyvisual,2.1,[],8,0.75,
0,pause,0.4,None,None,None,0,19,19,19,,,,,,,,,,,,,1301830,visual,1,[],"['1', '2', '3', '4']",1,2023.2.3,harveyvisual,2.1,[],8,0.75,
2,dot,0.3,['dot'],['density'],black,0,20,20,20,,,9.400227069854736,9.110051155090332,9.410032033920288,dot,"[0.06, 0.06]","[[0.21918454152848227, -0.10588244801595839], [0.1860161616926718, 0.09155890801726524]]",density,black,,,1301830,visual,1,[],"['1', '2', '3', '4']",1,2023.2.3,harveyvisual,2.1,[],8,0.75,
0,pause,0.4,None,None,None,0,21,21,21,,,,,,,,,,,,,1301830,visual,1,[],"['1', '2', '3', '4']",1,2023.2.3,harveyvisual,2.1,[],8,0.75,
2,dot,0.3,['dot'],['density'],black,0,22,22,22,,,10.10023307800293,9.810168981552124,10.110157012939453,dot,"[0.1, 0.08]","[[0.1652621768884792, -0.40183218801656556], [-0.03337249546828684, -0.4281924369736378]]",density,black,,,1301830,visual,1,[],"['1', '2', '3', '4']",1,2023.2.3,harveyvisual,2.1,[],8,0.75,
0,pause,0.4,None,None,None,0,23,23,23,,,,,,,,,,,,,1301830,visual,1,[],"['1', '2', '3', '4']",1,2023.2.3,harveyvisual,2.1,[],8,0.75,
3,dot,0.3,['dot'],['density'],black,0,24,24,24,,,10.800215005874634,10.510029077529907,10.81000804901123,dot,"[0.08, 0.06, 0.06]","[[-0.42255820389626353, 0.35871945956833473], [-0.19896656331745483, 0.3032224324013186], [-0.25553590712368324, 0.5056038804507684]]",density,black,,,1301830,visual,1,[],"['1', '2', '3', '4']",1,2023.2.3,harveyvisual,2.1,[],8,0.75,
0,pause,0.4,None,None,None,0,25,25,25,,,,,,,,,,,,,1301830,visual,1,[],"['1', '2', '3', '4']",1,2023.2.3,harveyvisual,2.1,[],8,0.75,
3,dot,0.3,['dot'],['density'],black,0,26,26,26,,,11.500210046768188,11.209999084472656,11.50999116897583,dot,"[0.08, 0.1, 0.1]","[[-0.09236249555143743, 0.14437879021360575], [0.06053771141254397, 0.008702735453236923], [-0.17336599953316903, -0.04113967592870183]]",density,black,,,1301830,visual,1,[],"['1', '2', '3', '4']",1,2023.2.3,harveyvisual,2.1,[],8,0.75,
0,pause,0.4,None,None,None,0,27,27,27,,,,,,,,,,,,,1301830,visual,1,[],"['1', '2', '3', '4']",1,2023.2.3,harveyvisual,2.1,[],8,0.75,
3,dot,0.3,['dot'],['density'],black,0,28,28,28,,,12.200232028961182,11.909983158111572,12.209973096847534,dot,"[0.1, 0.08, 0.1]","[[0.041215869578383385, -0.00689674906403758], [0.17500875751152645, 0.21459232562634095], [-0.03632281132631849, 0.2012994076415249]]",density,black,,,1301830,visual,1,[],"['1', '2', '3', '4']",1,2023.2.3,harveyvisual,2.1,[],8,0.75,
0,pause,0.4,None,None,None,0,29,29,29,,,,,,,,,,,,,1301830,visual,1,[],"['1', '2', '3', '4']",1,2023.2.3,harveyvisual,2.1,[],8,0.75,
3,dot,0.3,['dot'],['density'],black,0,30,30,30,,,12.900237083435059,12.609959125518799,12.909954071044922,dot,"[0.08, 0.08, 0.06]","[[-0.17720328293608806, -0.4514300161601115], [0.022754438065530718, -0.42143894503716073], [-0.10940085810899225, -0.24791511077847575]]",density,black,,,1301830,visual,1,[],"['1', '2', '3', '4']",1,2023.2.3,harveyvisual,2.1,[],8,0.75,
0,pause,0.4,None,None,None,0,31,31,31,,,,,,,,,,,,,1301830,visual,1,[],"['1', '2', '3', '4']",1,2023.2.3,harveyvisual,2.1,[],8,0.75,
3,dot,0.3,['dot'],['density'],black,0,32,32,32,,,13.600219011306763,13.309965133666992,13.609931945800781,dot,"[0.08, 0.08, 0.08]","[[-0.09236249555143743, 0.14437879021360575], [0.06053771141254397, 0.008702735453236923], [-0.17336599953316903, -0.04113967592870183]]",density,black,,,1301830,visual,1,[],"['1', '2', '3', '4']",1,2023.2.3,harveyvisual,2.1,[],8,0.75,
0,pause,0.4,None,None,None,0,33,33,33,,,,,,,,,,,,,1301830,visual,1,[],"['1', '2', '3', '4']",1,2023.2.3,harveyvisual,2.1,[],8,0.75,
3,dot,0.3,['dot'],['density'],black,0,34,34,34,,,14.3002290725708,14.009942054748535,14.309967994689941,dot,"[0.08, 0.08, 0.1]","[[0.03752440580708033, 0.5298990797186869], [-0.14535247226304113, 0.44143535861080874], [0.07857889528852925, 0.30774558950641073]]",density,black,,,1301830,visual,1,[],"['1', '2', '3', '4']",1,2023.2.3,harveyvisual,2.1,[],8,0.75,
0,pause,0.4,None,None,None,0,35,35,35,,,,,,,,,,,,,1301830,visual,1,[],"['1', '2', '3', '4']",1,2023.2.3,harveyvisual,2.1,[],8,0.75,
4,dot,0.3,['dot'],['density'],black,0,36,36,36,,,15.000221967697144,14.709908962249756,15.010020971298218,dot,"[0.06, 0.08, 0.1, 0.06]","[[-0.0389916918612136, -0.388752419995929], [-0.2709884701808293, -0.36873671266769453], [0.09349318837137091, -0.23801008290575854], [-0.09100040788429245, -0.11490803606521542]]",density,black,,,1301830,visual,1,[],"['1', '2', '3', '4']",1,2023.2.3,harveyvisual,2.1,[],8,0.75,
0,pause,0.4,None,None,None,0,37,37,37,,,,,,,,,,,,,1301830,visual,1,[],"['1', '2', '3', '4']",1,2023.2.3,harveyvisual,2.1,[],8,0.75,
4,dot,0.3,['dot'],['density'],black,0,38,38,38,,,15.700225114822388,15.410012006759644,15.709999084472656,dot,"[0.1, 0.1, 0.1, 0.1]","[[0.28769160010247724, 0.4706884012140322], [0.03735362687931127, 0.4645781312677133], [0.33102019499247487, 0.1847810932959147], [0.1685132699603264, 0.30497059043407926]]",density,black,,,1301830,visual,1,[],"['1', '2', '3', '4']",1,2023.2.3,harveyvisual,2.1,[],8,0.75,
0,pause,0.4,None,None,None,0,39,39,39,,,,,,,,,,,,,1301830,visual,1,[],"['1', '2', '3', '4']",1,2023.2.3,harveyvisual,2.1,[],8,0.75,
4,dot,0.3,['dot'],['density'],black,0,40,40,40,,,16.40023112297058,16.10999298095703,16.409876108169556,dot,"[0.08, 0.1, 0.1, 0.1]","[[0.06019618102804278, 0.17823994931545822], [-0.1876584465411705, -0.07971170835358893], [0.026807447441335588, -0.04038633305360204], [-0.17818728785032123, 0.12753763641901858]]",density,black,,,1301830,visual,1,[],"['1', '2', '3', '4']",1,2023.2.3,harveyvisual,2.1,[],8,0.75,
0,pause,0.4,None,None,None,0,41,41,41,,,,,,,,,,,,,1301830,visual,1,[],"['1', '2', '3', '4']",1,2023.2.3,harveyvisual,2.1,[],8,0.75,
4,dot,0.3,['dot'],['density'],black,0,42,42,42,,,17.100211143493652,16.80984115600586,17.109954118728638,dot,"[0.06, 0.06, 0.06, 0.08]","[[-0.4116264312708952, 0.16775371224632304], [-0.5618780911112883, -0.04134114392370045], [-0.3363713887364365, -0.04915619770205748], [-0.48212301157369764, -0.2249233832905235]]",density,black,,,1301830,visual,1,[],"['1', '2', '3', '4']",1,2023.2.3,harveyvisual,2.1,[],8,0.75,
0,pause,0.4,None,None,None,0,43,43,43,,,,,,,,,,,,,1301830,visual,1,[],"['1', '2', '3', '4']",1,2023.2.3,harveyvisual,2.1,[],8,0.75,
4,dot,0.3,['dot'],['density'],black,0,44,44,44,,,17.800209999084473,17.509971141815186,17.80982494354248,dot,"[0.1, 0.1, 0.08, 0.06]","[[-0.22711054503220823, -0.5144049053218714], [-0.016307770745122817, -0.5558659767831347], [-0.26432457165568224, -0.2824025039497699], [-0.026303944553407815, -0.34464361634901186]]",density,black,,,1301830,visual,1,[],"['1', '2', '3', '4']",1,2023.2.3,harveyvisual,2.1,[],8,0.75,
0,pause,0.4,None,None,None,0,45,45,45,,,,,,,,,,,,,1301830,visual,1,[],"['1', '2', '3', '4']",1,2023.2.3,harveyvisual,2.1,[],8,0.75,
4,dot,0.3,['dot'],['density'],black,0,46,46,46,,,18.50022315979004,18.209818124771118,18.509763956069946,dot,"[0.1, 0.08, 0.08, 0.1]","[[-0.47693618450386616, -0.1525114564248906], [-0.12413069550496705, 0.03327587270375396], [-0.32964510574757994, -0.012304557788591533], [-0.22851041427491325, -0.22018408257550984]]",density,black,,,1301830,visual,1,[],"['1', '2', '3', '4']",1,2023.2.3,harveyvisual,2.1,[],8,0.75,
0,pause,0.4,None,None,None,0,47,47,47,,,,,,,,,,,,,1301830,visual,1,[],"['1', '2', '3', '4']",1,2023.2.3,harveyvisual,2.1,[],8,0.75,
5,dot,0.3,['dot'],['density'],black,0,48,48,48,,,19.200231075286865,18.909752130508423,19.209793090820312,dot,"[0.08, 0.06, 0.08, 0.08, 0.06]","[[0.27183890960736007, -0.2807898153303064], [0.09520185447546438, -0.14661409162522948], [0.4811798017999712, -0.08799056171856828], [0.2824926782126669, -0.029701986940959574], [0.07325476391384783, 0.10525290151012107]]",density,black,,,1301830,visual,1,[],"['1', '2', '3', '4']",1,2023.2.3,harveyvisual,2.1,[],8,0.75,
0,pause,0.4,None,None,None,0,49,49,49,,,,,,,,,,,,,1301830,visual,1,[],"['1', '2', '3', '4']",1,2023.2.3,harveyvisual,2.1,[],8,0.75,
5,dot,0.3,['dot'],['density'],black,0,50,50,50,,,19.900222063064575,19.609776973724365,19.909768104553223,dot,"[0.1, 0.1, 0.1, 0.08, 0.06]","[[0.36014554898799966, 0.387810422325294], [0.055757472799778995, 0.16941293674392635], [0.2210739480460382, 0.008175952352481365], [0.48495712857242873, 0.07425785546611247], [0.25975240449222103, 0.2092734881649904]]",density,black,,,1301830,visual,1,[],"['1', '2', '3', '4']",1,2023.2.3,harveyvisual,2.1,[],8,0.75,
0,pause,0.4,None,None,None,0,51,51,51,,,,,,,,,,,,,1301830,visual,1,[],"['1', '2', '3', '4']",1,2023.2.3,harveyvisual,2.1,[],8,0.75,
5,dot,0.3,['dot'],['density'],black,0,52,52,52,,,20.600226163864136,20.309734106063843,20.60972809791565,dot,"[0.06, 0.08, 0.06, 0.06, 0.06]","[[-0.0036269740154891753, 0.5431219823242713], [-0.2646325594942043, 0.5073179604697073], [-0.41902475937036154, 0.37311436690984484], [-0.007163214206743488, 0.2887893175302695], [-0.2156098228659233, 0.2684642371109035]]",density,black,,,1301830,visual,1,[],"['1', '2', '3', '4']",1,2023.2.3,harveyvisual,2.1,[],8,0.75,
0,pause,0.4,None,None,None,0,53,53,53,,,,,,,,,,,,,1301830,visual,1,[],"['1', '2', '3', '4']",1,2023.2.3,harveyvisual,2.1,[],8,0.75,
5,dot,0.3,['dot'],['density'],black,0,54,54,54,,,21.30021095275879,21.00969696044922,21.30974006652832,dot,"[0.06, 0.06, 0.08, 0.1, 0.08]","[[0.2447541601906441, 0.3086669061463178], [0.2085849672204031, -0.04267428248465989], [0.44393754570968663, -0.061602228714441105], [0.027125763574429876, 0.05764502161176834], [0.36879828001487897, 0.1310025380577708]]",density,black,,,1301830,visual,1,[],"['1', '2', '3', '4']",1,2023.2.3,harveyvisual,2.1,[],8,0.75,
0,pause,0.4,None,None,None,0,55,55,55,,,,,,,,,,,,,1301830,visual,1,[],"['1', '2', '3', '4']",1,2023.2.3,harveyvisual,2.1,[],8,0.75,
5,dot,0.3,['dot'],['density'],black,0,56,56,56,,,22.000216007232666,21.70987105369568,22.009829998016357,dot,"[0.1, 0.1, 0.1, 0.06, 0.06]","[[0.27183890960736007, -0.2807898153303064], [0.09520185447546438, -0.14661409162522948], [0.4811798017999712, -0.08799056171856828], [0.2824926782126669, -0.029701986940959574], [0.07325476391384783, 0.10525290151012107]]",density,black,,,1301830,visual,1,[],"['1', '2', '3', '4']",1,2023.2.3,harveyvisual,2.1,[],8,0.75,
0,pause,0.4,None,None,None,0,57,57,57,,,,,,,,,,,,,1301830,visual,1,[],"['1', '2', '3', '4']",1,2023.2.3,harveyvisual,2.1,[],8,0.75,
5,dot,0.3,['dot'],['density'],black,0,58,58,58,,,22.700217962265015,22.4098219871521,22.709820985794067,dot,"[0.08, 0.1, 0.06, 0.06, 0.1]","[[0.34746533592570195, 0.16118282603596082], [0.14457128296481445, 0.28865621170929245], [0.4549189851861922, 0.34228556952890804], [0.008483415068308318, 0.44103246018778014], [0.27150044131742485, 0.4621652121832405]]",density,black,,,1301830,visual,1,[],"['1', '2', '3', '4']",1,2023.2.3,harveyvisual,2.1,[],8,0.75,
0,pause,0.4,None,None,None,0,59,59,59,,,,,,,,,,,,,1301830,visual,1,[],"['1', '2', '3', '4']",1,2023.2.3,harveyvisual,2.1,[],8,0.75,
6,dot,0.3,['dot'],['density'],black,0,60,60,60,,,23.400216102600098,23.109806060791016,23.409790992736816,dot,"[0.1, 0.06, 0.06, 0.06, 0.1, 0.08]","[[-0.2094991805307552, 0.08302354111181451], [0.09557258300728075, 0.3458622669714129], [0.22056408800171526, -0.017094369341425636], [0.026601936584830878, 0.1297564650757722], [-0.11681768564656844, 0.2726391152528644], [-0.03570146891163527, -0.09222923444939024]]",density,black,,,1301830,visual,1,[],"['1', '2', '3', '4']",1,2023.2.3,harveyvisual,2.1,[],8,0.75,
0,pause,0.4,None,None,None,0,61,61,61,,,,,,,,,,,,,1301830,visual,1,[],"['1', '2', '3', '4']",1,2023.2.3,harveyvisual,2.1,[],8,0.75,
6,dot,0.3,['dot'],['density'],black,0,62,62,62,,,24.100218057632446,23.809693098068237,24.109771013259888,dot,"[0.06, 0.06, 0.06, 0.06, 0.1, 0.06]","[[-0.25052904509636076, -0.46440103658729176], [-0.12772535636451293, 0.010821502090106766], [-0.031043743050516784, -0.3649555915866845], [-0.3754529733759062, -0.18839395716731677], [0.07378414788444272, -0.15062955699655364], [-0.17220243018048728, -0.20498996683935267]]",density,black,,,1301830,visual,1,[],"['1', '2', '3', '4']",1,2023.2.3,harveyvisual,2.1,[],8,0.75,
0,pause,0.4,None,None,None,0,63,63,63,,,,,,,,,,,,,1301830,visual,1,[],"['1', '2', '3', '4']",1,2023.2.3,harveyvisual,2.1,[],8,0.75,
6,dot,0.3,['dot'],['density'],black,0,64,64,64,,,24.80023217201233,24.509773015975952,24.809643983840942,dot,"[0.08, 0.1, 0.08, 0.06, 0.06, 0.08]","[[0.1344939073868, 0.11682503965153783], [0.2622842826516073, -0.1576809643807538], [0.491422654665352, 0.2653315688189552], [0.5669231994484553, 0.0667155191364867], [0.2299276458131091, 0.29835232047215776], [0.3356420801536577, 0.10517090915368521]]",density,black,,,1301830,visual,1,[],"['1', '2', '3', '4']",1,2023.2.3,harveyvisual,2.1,[],8,0.75,
0,pause,0.4,None,None,None,0,65,65,65,,,,,,,,,,,,,1301830,visual,1,[],"['1', '2', '3', '4']",1,2023.2.3,harveyvisual,2.1,[],8,0.75,
6,dot,0.3,['dot'],['density'],black,0,66,66,66,,,25.500221014022827,25.20965814590454,25.509642124176025,dot,"[0.06, 0.1, 0.1, 0.06, 0.08, 0.1]","[[-0.3078382271761739, 0.4361778186671046], [-0.059169983783578364, 0.44796520308269433], [-0.3209935464877752, 0.22545519901795916], [-0.10826469778565927, 0.24929594343002343], [-0.016554185736113114, 0.06783813438016018], [-0.29360476626160575, 0.00756342739423081]]",density,black,,,1301830,visual,1,[],"['1', '2', '3', '4']",1,2023.2.3,harveyvisual,2.1,[],8,0.75,
0,pause,0.4,None,None,None,0,67,67,67,,,,,,,,,,,,,1301830,visual,1,[],"['1', '2', '3', '4']",1,2023.2.3,harveyvisual,2.1,[],8,0.75,
6,dot,0.3,['dot'],['density'],black,0,68,68,68,,,26.200221061706543,25.909667015075684,26.20959210395813,dot,"[0.1, 0.1, 0.1, 0.1, 0.08, 0.1]","[[-0.24492162854676555, 0.16704436901929823], [-0.3861886513150086, 0.35601694661450933], [-0.48514013682315105, 0.15596888098880124], [-0.5451465436738104, -0.12931683943359434], [-0.11772959853104834, 0.007676420150436517], [-0.35755989064212684, -0.03355234579502648]]",density,black,,,1301830,visual,1,[],"['1', '2', '3', '4']",1,2023.2.3,harveyvisual,2.1,[],8,0.75,
0,pause,0.4,None,None,None,0,69,69,69,,,,,,,,,,,,,1301830,visual,1,[],"['1', '2', '3', '4']",1,2023.2.3,harveyvisual,2.1,[],8,0.75,
6,dot,0.3,['dot'],['density'],black,0,70,70,70,,,26.90023899078369,26.609634160995483,26.909574031829834,dot,"[0.08, 0.08, 0.1, 0.1, 0.08, 0.08]","[[0.23625405956766557, 0.3892633732772463], [0.11760889656980711, -0.0038201085241890706], [0.42882153754783053, 0.07157264481568941], [0.22360409458703237, 0.16865996735680294], [-0.08582952339030024, 0.051003002567710905], [-0.0010028139275050567, 0.23222523166366787]]",density,black,,,1301830,visual,1,[],"['1', '2', '3', '4']",1,2023.2.3,harveyvisual,2.1,[],8,0.75,
0,pause,0.4,None,None,None,0,71,71,71,,,,,,,,,,,,,1301830,visual,1,[],"['1', '2', '3', '4']",1,2023.2.3,harveyvisual,2.1,[],8,0.75,
7,dot,0.3,['dot'],['density'],black,0,72,72,72,,,27.600237131118774,27.309590101242065,27.60959005355835,dot,"[0.08, 0.06, 0.08, 0.08, 0.06, 0.1, 0.06]","[[-0.2822174821233986, 0.002117056236134186], [-0.10673242512413421, 0.4781556216085482], [-0.18432519539246728, 0.19072201575640843], [-0.4524596318479574, 0.13966285650530724], [0.06907010423411483, 0.2912708813513049], [-0.07412436007020941, -0.021022205933558278], [-0.3208835015251209, 0.3986768431743725]]",density,black,,,1301830,visual,1,[],"['1', '2', '3', '4']",1,2023.2.3,harveyvisual,2.1,[],8,0.75,
0,pause,0.4,None,None,None,0,73,73,73,,,,,,,,,,,,,1301830,visual,1,[],"['1', '2', '3', '4']",1,2023.2.3,harveyvisual,2.1,[],8,0.75,
7,dot,0.3,['dot'],['density'],black,0,74,74,74,,,28.30023217201233,28.00959610939026,28.30957007408142,dot,"[0.08, 0.06, 0.08, 0.08, 0.06, 0.06, 0.06]","[[-0.03978284138183809, -0.43963729991580147], [0.2770736023028816, -0.4460091285183096], [0.4264240077257641, -0.26124456405115876], [0.04351789842027954, -0.004572294527936195], [0.08491707485555088, -0.26540219852266356], [0.2274622265833728, -0.10044916879814345], [0.4232844185721205, -0.050742783717769746]]",density,black,,,1301830,visual,1,[],"['1', '2', '3', '4']",1,2023.2.3,harveyvisual,2.1,[],8,0.75,
0,pause,0.4,None,None,None,0,75,75,75,,,,,,,,,,,,,1301830,visual,1,[],"['1', '2', '3', '4']",1,2023.2.3,harveyvisual,2.1,[],8,0.75,
7,dot,0.3,['dot'],['density'],black,0,76,76,76,,,29.00023102760315,28.70956301689148,29.00974702835083,dot,"[0.08, 0.1, 0.1, 0.1, 0.1, 0.06, 0.1]","[[0.36124702795982905, 0.02861074637729004], [0.035495459613383976, -0.03736980990239832], [0.4545067059830119, -0.22475560039862832], [0.21831658066582188, 0.20471036725638603], [0.23621436127430617, -0.13960795011418334], [0.5606656921354746, -0.047865395727918474], [0.5468561378002438, 0.2161657569851178]]",density,black,,,1301830,visual,1,[],"['1', '2', '3', '4']",1,2023.2.3,harveyvisual,2.1,[],8,0.75,
0,pause,0.4,None,None,None,0,77,77,77,,,,,,,,,,,,,1301830,visual,1,[],"['1', '2', '3', '4']",1,2023.2.3,harveyvisual,2.1,[],8,0.75,
7,dot,0.3,['dot'],['density'],black,0,78,78,78,,,29.700217962265015,29.409718990325928,29.70978307723999,dot,"[0.06, 0.06, 0.06, 0.08, 0.06, 0.1, 0.08]","[[0.36124702795982905, 0.02861074637729004], [0.035495459613383976, -0.03736980990239832], [0.4545067059830119, -0.22475560039862832], [0.21831658066582188, 0.20471036725638603], [0.23621436127430617, -0.13960795011418334], [0.5606656921354746, -0.047865395727918474], [0.5468561378002438, 0.2161657569851178]]",density,black,,,1301830,visual,1,[],"['1', '2', '3', '4']",1,2023.2.3,harveyvisual,2.1,[],8,0.75,
0,pause,0.4,None,None,None,0,79,79,79,,,,,,,,,,,,,1301830,visual,1,[],"['1', '2', '3', '4']",1,2023.2.3,harveyvisual,2.1,[],8,0.75,
7,dot,0.3,['dot'],['density'],black,0,80,80,80,,,30.400223970413208,30.109742164611816,30.40960717201233,dot,"[0.06, 0.06, 0.1, 0.06, 0.1, 0.06, 0.06]","[[0.36124702795982905, 0.02861074637729004], [0.035495459613383976, -0.03736980990239832], [0.4545067059830119, -0.22475560039862832], [0.21831658066582188, 0.20471036725638603], [0.23621436127430617, -0.13960795011418334], [0.5606656921354746, -0.047865395727918474], [0.5468561378002438, 0.2161657569851178]]",density,black,,,1301830,visual,1,[],"['1', '2', '3', '4']",1,2023.2.3,harveyvisual,2.1,[],8,0.75,
0,pause,0.4,None,None,None,0,81,81,81,,,,,,,,,,,,,1301830,visual,1,[],"['1', '2', '3', '4']",1,2023.2.3,harveyvisual,2.1,[],8,0.75,
7,dot,0.3,['dot'],['density'],black,0,82,82,82,,,31.100231170654297,30.80959916114807,31.109512090682983,dot,"[0.1, 0.06, 0.08, 0.08, 0.08, 0.1, 0.08]","[[0.373835093542847, 0.13553027784675922], [0.025265531087721685, -0.15487691700731251], [0.38086488534306906, -0.0720131222026176], [0.4315741710459581, -0.28075472739566504], [0.18097069018870113, 0.01647246612045595], [0.1962900518120967, -0.2624101628120604], [0.08955660480178401, 0.2127528718980948]]",density,black,,,1301830,visual,1,[],"['1', '2', '3', '4']",1,2023.2.3,harveyvisual,2.1,[],8,0.75,
0,pause,0.4,None,None,None,0,83,83,83,,,,,,,,,,,,,1301830,visual,1,[],"['1', '2', '3', '4']",1,2023.2.3,harveyvisual,2.1,[],8,0.75,
8,dot,0.3,['dot'],['density'],white,0,84,84,84,,,31.800213098526,31.509582996368408,31.8095760345459,dot,"[0.1, 0.08, 0.06, 0.08, 0.06, 0.06, 0.1, 0.1]","[[0.28112832868380594, 0.3075763237432237], [-0.21381995858864508, 0.197554992839043], [0.14035436555963224, -0.1470740351963634], [-0.04856350071149823, -0.017306043905309515], [0.12070301707556046, 0.11279463428917226], [0.35236156425888765, 0.046198621115284964], [-0.012223412543992913, 0.3265760435025566], [0.11745206869397669, 0.49408919182137495]]",density,white,,,1301830,visual,1,[],"['1', '2', '3', '4']",1,2023.2.3,harveyvisual,2.1,[],8,0.75,
0,pause,0.4,None,None,None,0,85,85,85,,,,,,,,,,,1,32.02956199645996,1301830,visual,1,[],"['1', '2', '3', '4']",1,2023.2.3,harveyvisual,2.1,[],8,0.75,
8,dot,0.3,['dot'],['density'],white,0,86,86,86,,,32.500231981277466,32.20960307121277,32.50946116447449,dot,"[0.1, 0.1, 0.06, 0.08, 0.08, 0.06, 0.1, 0.06]","[[0.17295790489511154, -0.46037743866749825], [0.1416591427765588, 0.05421051799673566], [0.21994266958916148, -0.13656690113679631], [0.3639906379971415, 0.0627265571221228], [0.015481321741344221, -0.13916897583717935], [0.440802488837635, -0.2883976186876931], [0.5157567705321767, -0.08800602901884749], [0.24768837887357187, 0.24424825162618136]]",density,white,,,1301830,visual,1,[],"['1', '2', '3', '4']",1,2023.2.3,harveyvisual,2.1,[],8,0.75,
0,pause,0.4,None,None,None,0,87,87,87,,,,,,,,,,,1,32.646565198898315,1301830,visual,1,[],"['1', '2', '3', '4']",1,2023.2.3,harveyvisual,2.1,[],8,0.75,
8,dot,0.3,['dot'],['density'],black,0,88,88,88,,,33.2002329826355,32.90940499305725,33.2093939781189,dot,"[0.06, 0.1, 0.06, 0.1, 0.08, 0.06, 0.1, 0.06]","[[-0.3290570048964025, 0.45712517183014534], [-0.12351728740192595, 0.19722326774196852], [-0.44617383739254307, -0.0315435053038489], [0.05824565693526591, 0.08769012542188236], [-0.4904255353169048, 0.31423420558286136], [-0.32491150822629034, 0.16696319418744587], [-0.12614658653380179, 0.4043789036591275], [0.10044097339982726, 0.3130264767685494]]",density,black,,,1301830,visual,1,[],"['1', '2', '3', '4']",1,2023.2.3,harveyvisual,2.1,[],8,0.75,
0,pause,0.4,None,None,None,0,89,89,89,,,,,,,,,,,,,1301830,visual,1,[],"['1', '2', '3', '4']",1,2023.2.3,harveyvisual,2.1,[],8,0.75,
8,dot,0.3,['dot'],['density'],black,0,90,90,90,,,33.90022897720337,33.60938310623169,33.90939116477966,dot,"[0.06, 0.1, 0.08, 0.08, 0.1, 0.1, 0.1, 0.06]","[[-0.3290570048964025, 0.45712517183014534], [-0.12351728740192595, 0.19722326774196852], [-0.44617383739254307, -0.0315435053038489], [0.05824565693526591, 0.08769012542188236], [-0.4904255353169048, 0.31423420558286136], [-0.32491150822629034, 0.16696319418744587], [-0.12614658653380179, 0.4043789036591275], [0.10044097339982726, 0.3130264767685494]]",density,black,,,1301830,visual,1,[],"['1', '2', '3', '4']",1,2023.2.3,harveyvisual,2.1,[],8,0.75,
0,pause,0.4,None,None,None,0,91,91,91,,,,,,,,,,,,,1301830,visual,1,[],"['1', '2', '3', '4']",1,2023.2.3,harveyvisual,2.1,[],8,0.75,
8,dot,0.3,['dot'],['density'],white,0,92,92,92,,,34.600213050842285,34.309388160705566,34.60936999320984,dot,"[0.08, 0.08, 0.08, 0.06, 0.06, 0.08, 0.08, 0.06]","[[-0.43120034012996816, -0.3965796075128045], [0.1478983624034229, -0.46770986256388064], [-0.23058307999139557, -0.3238539366063682], [-0.07988642296593639, -0.13993938361429092], [-0.08664795903044427, -0.5418074813242995], [0.11879255589163208, -0.1637425359681226], [-0.09873641234556067, 0.08705286872936738], [-0.025120016651009644, -0.34045580780112095]]",density,white,,,1301830,visual,1,[],"['1', '2', '3', '4']",1,2023.2.3,harveyvisual,2.1,[],8,0.75,
0,pause,0.4,None,None,None,0,93,93,93,,,,,,,,,,,1,34.72282099723816,1301830,visual,1,[],"['1', '2', '3', '4']",1,2023.2.3,harveyvisual,2.1,[],8,0.75,
8,dot,0.3,['dot'],['density'],black,0,94,94,94,,,35.30021810531616,35.0093879699707,35.30934500694275,dot,"[0.06, 0.08, 0.08, 0.06, 0.08, 0.08, 0.06, 0.06]","[[-0.25621621658373334, -0.516505587173681], [-0.1662036889407214, -0.08514196380588028], [-0.18387329975925823, -0.32724781719236296], [0.018951322384734254, -0.28276580262079387], [-0.4257935961758009, -0.11165978892152287], [-0.38337046113926315, -0.34678862335127664], [0.08447884857343574, -0.4920123821830729], [0.02561025798733424, 0.0007844895199748298]]",density,black,,,1301830,visual,1,[],"['1', '2', '3', '4']",1,2023.2.3,harveyvisual,2.1,[],8,0.75,
0,pause,0.4,None,None,None,0,95,95,95,,,,,,,,,,,,,1301830,visual,1,[],"['1', '2', '3', '4']",1,2023.2.3,harveyvisual,2.1,[],8,0.75,
9,dot,0.3,['dot'],['density'],black,0,96,96,96,,,36.00022602081299,35.709365129470825,36.009315967559814,dot,"[0.1, 0.06, 0.1, 0.06, 0.06, 0.08, 0.1, 0.08, 0.06]","[[-0.03413633707233166, 0.539775862693792], [0.03045342777742709, 0.14881397110038386], [0.3968101769942594, 0.3516381959676015], [-0.12464897846505978, 0.27513009849494485], [0.24828272947848068, 0.13372878599656182], [0.1825630446668698, 0.5466865974155928], [-0.40057775338259505, 0.3148646888607764], [0.06988801613907401, -0.06658504348068199], [0.07277149512897427, 0.3699912437376705]]",density,black,,,1301830,visual,1,[],"['1', '2', '3', '4']",1,2023.2.3,harveyvisual,2.1,[],8,0.75,
0,pause,0.4,None,None,None,0,97,97,97,,,,,,,,,,,,,1301830,visual,1,[],"['1', '2', '3', '4']",1,2023.2.3,harveyvisual,2.1,[],8,0.75,
9,dot,0.3,['dot'],['density'],black,0,98,98,98,,,36.70023703575134,36.409319162368774,36.710405111312866,dot,"[0.1, 0.06, 0.1, 0.1, 0.08, 0.1, 0.06, 0.06, 0.1]","[[0.019793807854907846, -0.43234396454466956], [-0.19026732246162045, -0.30921043426246514], [0.04019268118281429, 0.04496242893187172], [-0.3995051790572048, -0.35321755636659735], [-0.3855517065125252, -0.10705750392277943], [0.08372722599267078, -0.1679482296571974], [0.2622756688563642, -0.3928589043728353], [-0.14305193053609555, -0.047108980659819465], [-0.27076529918092873, 0.10825753519043561]]",density,black,,,1301830,visual,1,[],"['1', '2', '3', '4']",1,2023.2.3,harveyvisual,2.1,[],8,0.75,
0,pause,0.4,None,None,None,0,99,99,99,,,,,,,,,,,,,1301830,visual,1,[],"['1', '2', '3', '4']",1,2023.2.3,harveyvisual,2.1,[],8,0.75,
9,dot,0.3,['dot'],['density'],black,0,100,100,100,,,37.400233030319214,37.10946607589722,37.40941095352173,dot,"[0.1, 0.08, 0.06, 0.1, 0.1, 0.06, 0.08, 0.08, 0.06]","[[0.019793807854907846, -0.43234396454466956], [-0.19026732246162045, -0.30921043426246514], [0.04019268118281429, 0.04496242893187172], [-0.3995051790572048, -0.35321755636659735], [-0.3855517065125252, -0.10705750392277943], [0.08372722599267078, -0.1679482296571974], [0.2622756688563642, -0.3928589043728353], [-0.14305193053609555, -0.047108980659819465], [-0.27076529918092873, 0.10825753519043561]]",density,black,,,1301830,visual,1,[],"['1', '2', '3', '4']",1,2023.2.3,harveyvisual,2.1,[],8,0.75,
0,pause,0.4,None,None,None,0,101,101,101,,,,,,,,,,,,,1301830,visual,1,[],"['1', '2', '3', '4']",1,2023.2.3,harveyvisual,2.1,[],8,0.75,
9,dot,0.3,['dot'],['density'],black,0,102,102,102,,,38.100234031677246,37.80930995941162,38.1094069480896,dot,"[0.06, 0.06, 0.08, 0.06, 0.08, 0.1, 0.06, 0.1, 0.06]","[[-0.3974741157875733, -0.3691322615124248], [0.01813275331019438, -0.041305186939584786], [-0.297817964195003, 0.1404435238036691], [-0.24996212712231053, -0.10674501212047392], [-0.45607543705465475, -0.10954340680539053], [-0.5097726394514722, 0.08872958744943038], [-0.16376728557074105, -0.3354799619734228], [-0.07115584905184995, 0.17737469530672276], [-0.4529869372404742, 0.29851616761646654]]",density,black,,,1301830,visual,1,[],"['1', '2', '3', '4']",1,2023.2.3,harveyvisual,2.1,[],8,0.75,
0,pause,0.4,None,None,None,0,103,103,103,,,,,,,,,,,,,1301830,visual,1,[],"['1', '2', '3', '4']",1,2023.2.3,harveyvisual,2.1,[],8,0.75,
9,dot,0.3,['dot'],['density'],black,0,104,104,104,,,38.800217151641846,38.50939416885376,38.809383153915405,dot,"[0.06, 0.06, 0.06, 0.08, 0.06, 0.06, 0.08, 0.08, 0.1]","[[0.38655548767220327, 0.3303110468779764], [-0.15062718332117264, 0.3263612679497012], [0.12850016508903517, 0.5435449351404695], [0.04975739233973968, 0.11256198773833849], [0.05418506391445401, 0.3174451450657875], [0.282644584802279, 0.13382110200906677], [0.4968372747528943, 0.11977440893831985], [-0.17748280977865974, 0.12733825933579754], [-0.16508880216336755, 0.5437291489982663]]",density,black,,,1301830,visual,1,[],"['1', '2', '3', '4']",1,2023.2.3,harveyvisual,2.1,[],8,0.75,
0,pause,0.4,None,None,None,0,105,105,105,,,,,,,,,,,,,1301830,visual,1,[],"['1', '2', '3', '4']",1,2023.2.3,harveyvisual,2.1,[],8,0.75,
9,dot,0.3,['dot'],['density'],black,0,106,106,106,,,39.50023698806763,39.20927810668945,39.509252071380615,dot,"[0.08, 0.08, 0.08, 0.06, 0.08, 0.1, 0.06, 0.08, 0.1]","[[0.26246064217380705, -0.20881461689055444], [-0.05738061480455322, -0.2104867327221427], [-0.15279665209492657, -0.4570696492981838], [-0.25848085101471047, 0.03539482855188907], [0.05438928923437074, -0.041842351158073866], [-0.266438460152573, -0.22510974363943476], [-0.08630847597628627, 0.16925380219028288], [0.1378984379274782, 0.16880467564350782], [0.14927440204233722, -0.41110624343475755]]",density,black,,,1301830,visual,1,[],"['1', '2', '3', '4']",1,2023.2.3,harveyvisual,2.1,[],8,0.75,
0,pause,0.4,None,None,None,0,107,107,107,,,,,,,,,,,,,1301830,visual,1,[],"['1', '2', '3', '4']",1,2023.2.3,harveyvisual,2.1,[],8,0.75,
20,dot,0.3,['dot'],['density'],black,0,108,108,108,,,40.200217962265015,39.92595815658569,40.209264039993286,dot,"[0.1, 0.06, 0.08, 0.08, 0.08, 0.06, 0.08, 0.1, 0.08, 0.06, 0.1, 0.06, 0.1, 0.06, 0.06, 0.06, 0.1, 0.1, 0.1, 0.08]","[[-0.43646002548217766, 0.2668779818626308], [0.40761171478097113, -0.08817543817622941], [-0.40040594118244793, 0.01809060240541943], [0.5119058868662564, 0.2222603541046757], [-0.19539244678663703, 0.4410419997809877], [0.02952066975329115, -0.05619580644569355], [0.14393673992952982, -0.4599621938927124], [-0.2885463459289233, -0.3220236089403865], [-0.2592236989229479, -0.5384536454359994], [0.1824109305965077, 0.20214630597956784], [-0.4782810739665927, -0.36231108263219963], [0.5937714488122153, -0.006408664380652074], [0.046032097437393005, 0.49961528909191133], [-0.2344282412323238, -0.10995582557758182], [0.42460908950002485, -0.4016072364255206], [-0.02485275558367439, -0.5540515744579042], [0.03516582170048732, -0.2616756096229048], [-0.06241862101630502, 0.17077739024376049], [0.2226690651372788, -0.14022561745553574], [0.3561043674625819, 0.39832667299937563]]",density,black,,,1301830,visual,1,[],"['1', '2', '3', '4']",1,2023.2.3,harveyvisual,2.1,[],8,0.75,
0,pause,0.4,None,None,None,0,109,109,109,,,,,,,,,,,,,1301830,visual,1,[],"['1', '2', '3', '4']",1,2023.2.3,harveyvisual,2.1,[],8,0.75,
20,dot,0.3,['dot'],['density'],black,0,110,110,110,,,40.90023899078369,40.62586307525635,40.909165143966675,dot,"[0.1, 0.06, 0.08, 0.1, 0.08, 0.06, 0.1, 0.1, 0.06, 0.08, 0.06, 0.1, 0.06, 0.06, 0.1, 0.06, 0.08, 0.06, 0.06, 0.06]","[[0.06040360282671453, 0.4123667297065269], [-0.5990195594239892, 0.019732048179991607], [-0.33219041960972945, 0.46266280393765513], [-0.12133528529931059, 0.14077908485231583], [0.08882277939553795, -0.17437213359680337], [0.38214100347046864, 0.07690602935579988], [0.5145615131244842, 0.22876975807745653], [-0.1343035844956446, 0.5050206808307028], [-0.1735525940523982, -0.41254625844721493], [-0.25746716853914337, 0.2874289133762866], [-0.4509664295720478, -0.4009419486989653], [0.26795519589705397, -0.33945532797643985], [0.32848018601198237, 0.4400781951443621], [-0.283223605187881, 0.04033672632541396], [0.03787222249778477, -0.5804066812656008], [-0.11093462509545543, -0.2045229081906646], [-0.44491852610170524, 0.19754687960355333], [0.05261079429189042, -0.36178527856060577], [0.2276772687451234, -0.04189788882862522], [0.5835579828934193, -0.09517172075227404]]",density,black,,,1301830,visual,1,[],"['1', '2', '3', '4']",1,2023.2.3,harveyvisual,2.1,[],8,0.75,
0,pause,0.4,None,None,None,0,111,111,111,,,,,,,,,,,,,1301830,visual,1,[],"['1', '2', '3', '4']",1,2023.2.3,harveyvisual,2.1,[],8,0.75,
20,dot,0.3,['dot'],['density'],black,0,112,112,112,,,41.60022306442261,41.32584595680237,41.60913610458374,dot,"[0.06, 0.1, 0.08, 0.06, 0.1, 0.08, 0.06, 0.08, 0.08, 0.06, 0.1, 0.1, 0.08, 0.1, 0.1, 0.1, 0.08, 0.06, 0.08, 0.1]","[[0.06019153844187497, -0.11540989633869791], [0.20040591165362687, 0.1874169305682326], [0.5778651025350955, 0.05674602597043002], [0.35787639333692556, -0.04113025347826593], [-0.26849399566535925, -0.3433306396628449], [-0.1898781925939621, 0.5302504604302294], [0.31398594555824655, -0.38113070277115685], [-0.34953225633249246, -0.14194136412188435], [-0.4200583787135192, 0.40950439804048766], [-0.2782298958290974, 0.11561945554809228], [-0.5556795906554451, 0.12262179340317761], [0.22573718913948448, -0.5606697386170462], [0.10273343122108147, 0.5455013110486362], [-0.5252851374140001, -0.25707668620495705], [-0.16479245265863635, -0.5606819273207257], [0.4751105518367805, 0.3210587504049103], [-0.037244151383913016, 0.2619650685518585], [-0.027707810323498006, -0.4120132605285789], [0.5134242467946925, -0.2227394196825892], [-0.5740781254173917, -0.07136204403681297]]",density,black,,,1301830,visual,1,[],"['1', '2', '3', '4']",1,2023.2.3,harveyvisual,2.1,[],8,0.75,
0,pause,0.4,None,None,None,0,113,113,113,,,,,,,,,,,,,1301830,visual,1,[],"['1', '2', '3', '4']",1,2023.2.3,harveyvisual,2.1,[],8,0.75,
20,dot,0.3,['dot'],['density'],black,0,114,114,114,,,42.30024194717407,42.02581596374512,42.309120178222656,dot,"[0.06, 0.06, 0.06, 0.1, 0.08, 0.08, 0.1, 0.06, 0.08, 0.06, 0.1, 0.08, 0.08, 0.06, 0.08, 0.1, 0.08, 0.06, 0.1, 0.1]","[[-0.3938403919308402, 0.11059928858396573], [0.2594682538714912, 0.4805041570712143], [-0.013226473290211205, 0.2712537439071132], [0.43634098641386754, 0.37528006281254306], [0.36237592851167266, -0.25418041731675256], [0.603063128712186, 0.009199192975636025], [-0.3923529787394109, -0.14983446189034777], [-0.5802840257979904, 0.16141088396633266], [-0.20413528254276048, 0.36450737839344005], [-0.04729776862605484, -0.3987234094784028], [-0.1506087157816859, -0.05683222031642465], [-0.3645611079097172, 0.46710334488695376], [-0.24660474922732262, -0.40217088780718824], [0.13562949632693522, 0.01321217632233851], [-0.576514544210777, -0.07819207806864117], [0.053286440741287744, 0.47143204993241083], [0.27836560537103194, 0.1831315337314965], [0.20577840747236542, -0.44368657462573136], [0.5619100845884154, -0.20314710487701274], [0.3906375852736049, -0.013799852763278109]]",density,black,,,1301830,visual,1,[],"['1', '2', '3', '4']",1,2023.2.3,harveyvisual,2.1,[],8,0.75,
0,pause,0.4,None,None,None,0,115,115,115,,,,,,,,,,,,,1301830,visual,1,[],"['1', '2', '3', '4']",1,2023.2.3,harveyvisual,2.1,[],8,0.75,
20,dot,0.3,['dot'],['density'],black,0,116,116,116,,,43.00022315979004,42.72580599784851,43.00910210609436,dot,"[0.06, 0.06, 0.08, 0.1, 0.1, 0.06, 0.1, 0.08, 0.1, 0.1, 0.1, 0.1, 0.1, 0.06, 0.1, 0.06, 0.08, 0.08, 0.06, 0.06]","[[0.05404639181967241, 0.04042320467788074], [-0.23175438953033245, -0.10801555354970116], [0.4917339149334169, 0.28572493695091716], [-0.5132694569403213, -0.2405529897379214], [0.17722789440960685, 0.2961158643460088], [0.15368368769506724, 0.5755006308304061], [0.04405509613737446, -0.26225379093254625], [-0.5137753402480725, 0.02549606997901016], [-0.12057797232717993, -0.47466003995755396], [0.3797064418839011, -0.14020335992899008], [-0.1998182854062973, 0.2232903298670479], [0.5276200272125972, 0.04081261634584438], [-0.06637113290206498, 0.5141488907066224], [-0.32134043068531826, -0.4679795901038776], [-0.4866891830012696, 0.33523976835748776], [-0.25390359778443283, 0.4535268763430944], [0.24532238393392325, -0.533407671416027], [0.2343183991288994, -0.323606016679658], [0.2888085373590329, 0.1346630723969453], [0.46717704693744844, -0.35201549784997294]]",density,black,,,1301830,visual,1,[],"['1', '2', '3', '4']",1,2023.2.3,harveyvisual,2.1,[],8,0.75,
0,pause,0.4,None,None,None,0,117,117,117,,,,,,,,,,,,,1301830,visual,1,[],"['1', '2', '3', '4']",1,2023.2.3,harveyvisual,2.1,[],8,0.75,
20,dot,0.3,['dot'],['density'],black,0,118,118,118,,,43.70022916793823,43.425766944885254,43.709089040756226,dot,"[0.1, 0.08, 0.08, 0.06, 0.08, 0.06, 0.08, 0.1, 0.08, 0.06, 0.08, 0.06, 0.06, 0.08, 0.1, 0.1, 0.06, 0.1, 0.1, 0.06]","[[0.2266002175245424, 0.4265966509456087], [-0.41657038543555536, 0.19722007785230045], [0.11151873717306982, -0.17685475576344023], [0.5303701513059015, -0.11489684803683275], [0.42727678431622473, 0.053520784506887964], [0.10049592804773633, 0.23019941766105567], [-0.2615065695706176, 0.4821395422466713], [-0.30521227013625934, -0.2616244117768238], [-0.46115127732672856, -0.39053981658009906], [-0.28049855159346937, 0.0187683465337386], [-0.03470833077661395, -0.3811488060377181], [-0.17160212925348406, -0.5423150712294256], [0.33772986339604893, -0.3928501717068261], [-0.050783394254615644, 0.3494144598070118], [-0.5406954996259741, 0.00025427569554387075], [0.30129844228785685, -0.19150075092282443], [0.08876957585953105, -0.5871185110032665], [0.29345860059122486, 0.202928115787554], [-0.037777146697468345, 0.05933634400151311], [0.527841437174522, 0.22046395029608817]]",density,black,,,1301830,visual,1,[],"['1', '2', '3', '4']",1,2023.2.3,harveyvisual,2.1,[],8,0.75,
0,pause,0.4,None,None,None,0,119,119,119,,,,,,,,,,,,,1301830,visual,1,[],"['1', '2', '3', '4']",1,2023.2.3,harveyvisual,2.1,[],8,0.75,
20,dot,0.3,['dot'],['density'],black,0,120,120,120,,,44.40021800994873,44.125739097595215,44.40906810760498,dot,"[0.06, 0.08, 0.1, 0.08, 0.1, 0.08, 0.06, 0.1, 0.08, 0.1, 0.1, 0.1, 0.06, 0.1, 0.1, 0.08, 0.08, 0.06, 0.08, 0.08]","[[-0.42708047402577753, 0.3773495250497], [-0.01920188818182189, 0.4270194437496978], [0.3039547755668326, -0.20142158656640818], [-0.5836672797285721, -0.027129745065813532], [0.17123487412875238, 0.2102738398345434], [0.4875958069079508, 0.2603389681800338], [-0.5187846578651238, 0.15811719380935224], [0.19936391319256475, -0.007585376980621783], [-0.2389166589440675, 0.009202331474558068], [0.5961563826876565, 0.09610048628069509], [0.4864906608112062, -0.3479804255263656], [0.022018927327179805, -0.46902110560324173], [-0.5646255875976746, -0.21775907417564733], [0.2702358816161645, 0.4759958412336184], [-0.10882911834663694, -0.24032102680686612], [-0.0040941749881612255, 0.08653726216587043], [-0.246546327052098, 0.4482037990095282], [-0.31652766950170486, -0.492472224056821], [0.5275439540949508, -0.11954597581355489], [0.22334743436185334, -0.4739473206830102]]",density,black,,,1301830,visual,1,[],"['1', '2', '3', '4']",1,2023.2.3,harveyvisual,2.1,[],8,0.75,
0,pause,0.4,None,None,None,0,121,121,121,,,,,,,,,,,,,1301830,visual,1,[],"['1', '2', '3', '4']",1,2023.2.3,harveyvisual,2.1,[],8,0.75,
20,dot,0.3,['dot'],['density'],black,0,122,122,122,,,45.100234031677246,44.825767993927,45.109079122543335,dot,"[0.06, 0.1, 0.1, 0.08, 0.08, 0.08, 0.06, 0.06, 0.1, 0.06, 0.1, 0.08, 0.08, 0.1, 0.08, 0.08, 0.06, 0.08, 0.1, 0.1]","[[0.3226189300836654, -0.48713282197018887], [0.22121463161737587, -0.11989817718208656], [0.6030235448324611, -0.039462871934921], [-0.1718329011973636, 0.10350982828985844], [-0.14031743424680743, -0.4485661881393913], [0.05285528397831374, 0.05125083525024554], [-0.31070497624268106, -0.13550661301966516], [-0.48440522562412247, -0.2436089457627647], [0.11244735639601289, -0.32946137337758685], [0.3881538054075292, 0.11707634647500498], [-0.36577865965102807, 0.0800352130613336], [-0.5898786423377045, 0.0026772290516016983], [0.1972459703926399, 0.34310306676171876], [-0.3394030527566471, 0.43092114303019646], [0.42164999546403614, -0.19097883644441574], [-0.47707501928498486, 0.25834912032373714], [0.5311827672207, 0.28185349551430483], [0.028597300465354913, 0.48267895356292967], [-0.013328108824544715, -0.5922474416456605], [-0.05805355551802405, -0.16303830003826558]]",density,black,,,1301830,visual,1,[],"['1', '2', '3', '4']",1,2023.2.3,harveyvisual,2.1,[],8,0.75,
0,pause,0.4,None,None,None,0,123,123,123,,,,,,,,,,,,,1301830,visual,1,[],"['1', '2', '3', '4']",1,2023.2.3,harveyvisual,2.1,[],8,0.75,
20,dot,0.3,['dot'],['density'],black,0,124,124,124,,,45.800244092941284,45.52580714225769,45.80905199050903,dot,"[0.1, 0.1, 0.06, 0.08, 0.06, 0.1, 0.06, 0.06, 0.1, 0.06, 0.06, 0.06, 0.08, 0.08, 0.06, 0.08, 0.06, 0.06, 0.1, 0.06]","[[0.06336543136361406, -0.36814989664533637], [-0.1931737955064502, 0.41082911453384463], [0.5966172386733471, 0.06343541518390564], [0.3239276399710814, -0.1511854724639337], [0.35468749598832183, -0.41208267865672765], [0.49176481380655634, 0.2379642681244668], [0.13458766182882997, 0.2894852997597024], [-0.37405791251027787, 0.26273749696823695], [-0.2814729850723335, -0.02854233364149461], [-0.2815497023852372, -0.42480474918609085], [0.23922492742114754, 0.545692487642739], [-0.5952890288501939, 0.037500959994827596], [-0.4654368278669605, -0.1528518855465061], [0.07556036469645266, 0.07090259494898055], [-0.48030912430007, -0.36504346503955754], [-0.04592404046439036, -0.5736570751175312], [0.294041700122166, 0.10718994534984316], [-0.06574557483721688, 0.20486677390884878], [0.02562622506906309, 0.5252796617886089], [0.5241783258060765, -0.2672758060241653]]",density,black,,,1301830,visual,1,[],"['1', '2', '3', '4']",1,2023.2.3,harveyvisual,2.1,[],8,0.75,
0,pause,0.4,None,None,None,0,125,125,125,,,,,,,,,,,,,1301830,visual,1,[],"['1', '2', '3', '4']",1,2023.2.3,harveyvisual,2.1,[],8,0.75,
20,dot,0.3,['dot'],['density'],black,0,126,126,126,,,46.50023913383484,46.225687980651855,46.509011030197144,dot,"[0.06, 0.1, 0.1, 0.1, 0.1, 0.08, 0.06, 0.08, 0.1, 0.1, 0.1, 0.06, 0.06, 0.08, 0.08, 0.1, 0.1, 0.06, 0.08, 0.06]","[[-0.20022553574236635, -0.043690697542382195], [-0.5040261894583429, 0.22584541952946596], [0.5693146422081082, 0.11904350956833282], [0.3909564216051119, -0.39015847988867713], [-0.010506310666413832, 0.28064114070458546], [0.32295431537831665, -0.02788422330513579], [0.36545110844161777, 0.42761816555566845], [-0.32113587784875536, 0.13742792432894002], [-0.07695019034808748, -0.38931510183282425], [-0.23428085328465736, -0.515850450954939], [0.11560919668339997, -0.04019948485955771], [0.1540997257298241, -0.45657977262473115], [0.24935947917935386, 0.15748244481965634], [-0.23917245572783713, 0.36590577709722893], [-0.39379103896074247, -0.3253004300317133], [-0.10359921243296588, 0.560065604209159], [0.0017468403020414192, -0.5831771362454594], [-0.5986972680557405, 0.010718418680195713], [0.5744189611373193, -0.12991907556956145], [0.1779952659899423, 0.3677944040729523]]",density,black,,,1301830,visual,1,[],"['1', '2', '3', '4']",1,2023.2.3,harveyvisual,2.1,[],8,0.75,
0,pause,0.4,None,None,None,0,127,127,127,,,,,,,,,,,,,1301830,visual,1,[],"['1', '2', '3', '4']",1,2023.2.3,harveyvisual,2.1,[],8,0.75,
20,dot,0.3,['dot'],['density'],white,0,128,128,128,,,47.20024108886719,46.92567205429077,47.209031105041504,dot,"[0.06, 0.06, 0.08, 0.06, 0.08, 0.1, 0.08, 0.08, 0.06, 0.06, 0.06, 0.1, 0.08, 0.08, 0.06, 0.06, 0.1, 0.06, 0.1, 0.06]","[[0.5549720235805305, 0.012800001546387413], [0.5030200780708042, 0.24400273094969843], [-0.40705429985444574, -0.17493942977242183], [-0.052184487906399624, 0.41932705406731774], [-0.0024953900919651995, -0.029467333987072797], [-0.1173210986000886, -0.5041103305950904], [-0.14603064119086018, -0.27573623880380577], [0.30199407962436975, 0.022696453541994233], [-0.4309225110220738, 0.33251470086493123], [0.3804308260275504, -0.4202385142918597], [-0.5653740422693211, 0.17862329162334611], [-0.1995145342714323, 0.5600549533835982], [0.2872120817461531, 0.43106530970672297], [-0.21869155239324894, 0.20644503977781448], [0.16729619701477316, -0.13992075798113118], [-0.21461822939442277, -0.0404203381425835], [-0.3310581410935064, -0.3952485433568381], [-0.40252675515267244, 0.030107610660021156], [0.5410306354917053, -0.20107829312455028], [0.15145878561198833, -0.49517523869344554]]",density,white,,,1301830,visual,1,[],"['1', '2', '3', '4']",1,2023.2.3,harveyvisual,2.1,[],8,0.75,
0,pause,0.4,None,None,None,0,129,129,129,,,,,,,,,,,1,47.342427015304565,1301830,visual,1,[],"['1', '2', '3', '4']",1,2023.2.3,harveyvisual,2.1,[],8,0.75,
20,dot,0.3,['dot'],['density'],white,0,130,130,130,,,47.900233030319214,47.62566900253296,47.909075021743774,dot,"[0.06, 0.08, 0.1, 0.06, 0.08, 0.06, 0.06, 0.08, 0.08, 0.1, 0.06, 0.1, 0.1, 0.1, 0.06, 0.08, 0.06, 0.06, 0.1, 0.06]","[[0.1382475711064226, -0.309059618230603], [0.28076098586438636, 0.5142166841777341], [-0.26313981726111907, 0.5263407334358533], [0.054065163096567725, -0.11267515149006019], [-0.6041704260769737, -0.010418562523511591], [0.2950263845351033, 0.015549806585352877], [0.0934494691123473, -0.5463317874972162], [0.37225093639823514, -0.44043790285973916], [-0.4050335018697807, -0.2523427169350202], [-0.06276775083397845, 0.42462741527245396], [0.4626350686511157, 0.2153956315842499], [0.46812444254982843, -0.18066395743023828], [-0.4630351130992456, 0.19384808297245615], [0.5519944755757927, 0.04797045565047159], [0.03858370113462817, 0.1320883190202835], [-0.4106278740580719, 0.3826516609830716], [-0.19159057015755054, 0.050807184176896336], [-0.22151670839856802, -0.3233184265915219], [0.23717415545626885, 0.30012705594060884], [-0.22873223191182906, -0.5502394311165868]]",density,white,,,1301830,visual,1,[],"['1', '2', '3', '4']",1,2023.2.3,harveyvisual,2.1,[],8,0.75,
0,pause,0.4,None,None,None,0,131,131,131,,,,,,,,,,,1,48.02668809890747,1301830,visual,1,[],"['1', '2', '3', '4']",1,2023.2.3,harveyvisual,2.1,[],8,0.75,
20,dot,0.3,['dot'],['density'],black,0,132,132,132,,,48.60021710395813,48.32573199272156,48.608965158462524,dot,"[0.06, 0.06, 0.1, 0.08, 0.1, 0.1, 0.1, 0.08, 0.06, 0.1, 0.08, 0.06, 0.06, 0.1, 0.1, 0.06, 0.1, 0.1, 0.06, 0.08]","[[-0.40052756833899095, -0.05738051874700717], [-0.251968920509722, 0.3872543962360583], [0.3336017336822069, 0.4681082523439233], [-0.19950012732069378, -0.11243116368923711], [0.3681076765158784, -0.35187235733854094], [-0.4488692371565549, -0.3908620454166], [-0.4927741400994293, 0.15033297407105467], [-0.015714887259425492, -0.1966770493743083], [-0.04827441366428675, 0.16402083575393922], [0.5799209760909368, -0.01198900726597621], [0.03463595376966877, 0.48287674358731214], [0.42574339380357495, 0.12572961024710338], [0.2511556740142534, -0.17361750993052122], [-0.16870154577038893, -0.42815396589107757], [0.196326715343783, 0.12694779277222723], [0.13009153065947143, -0.51299130113333], [-0.5391072259774747, -0.20432154209122827], [-0.0595579560523789, -0.5910477353625501], [-0.2762648470705589, 0.19163626395983635], [-0.136047298724223, 0.5654461458933188]]",density,black,,,1301830,visual,1,[],"['1', '2', '3', '4']",1,2023.2.3,harveyvisual,2.1,[],8,0.75,
0,pause,0.4,None,None,None,0,133,133,133,,,,,,,,,,,,,1301830,visual,1,[],"['1', '2', '3', '4']",1,2023.2.3,harveyvisual,2.1,[],8,0.75,
20,dot,0.3,['dot'],['density'],black,0,134,134,134,,,49.30021595954895,49.02565312385559,49.30896306037903,dot,"[0.06, 0.1, 0.08, 0.1, 0.1, 0.1, 0.08, 0.1, 0.08, 0.06, 0.08, 0.06, 0.08, 0.1, 0.06, 0.06, 0.08, 0.1, 0.08, 0.06]","[[-0.3162950476801031, 0.26890879445814464], [0.3546191249223827, -0.22390785355043086], [-0.32963929215662774, 0.012537841698452956], [-0.0737093520521388, 0.17654946561842966], [0.5587229103540269, -0.1151327215761018], [-0.1640938624149454, 0.48548150493937403], [-0.555257747173502, 0.002374220476374339], [-0.4625248923572718, -0.37460044403379344], [0.23790398204009688, -0.3778802548664527], [0.5715495092663888, 0.140383182699508], [0.10928926613704293, 0.03960088740285839], [-0.10623652006092765, -0.5158197388658375], [-0.28805273479450433, -0.21743354628044015], [0.14017737767098915, 0.3210611902670045], [0.3493163676874179, 0.3049398423872525], [0.13662498790754118, 0.5156618895242687], [-0.2656062944668034, -0.4095907477547456], [-0.061686178284545035, -0.1106522140996491], [0.02765081059855612, -0.36876241242350694], [-0.5538971957868766, 0.20686614957345234]]",density,black,,,1301830,visual,1,[],"['1', '2', '3', '4']",1,2023.2.3,harveyvisual,2.1,[],8,0.75,
0,pause,0.4,None,None,None,0,135,135,135,,,,,,,,,,,,,1301830,visual,1,[],"['1', '2', '3', '4']",1,2023.2.3,harveyvisual,2.1,[],8,0.75,
20,dot,0.3,['dot'],['density'],black,0,136,136,136,,,50.00022506713867,49.7256600856781,50.00898599624634,dot,"[0.06, 0.06, 0.08, 0.08, 0.08, 0.08, 0.1, 0.06, 0.08, 0.08, 0.06, 0.06, 0.06, 0.06, 0.08, 0.06, 0.06, 0.06, 0.06, 0.06]","[[0.3500698753608319, 0.014200312900597478], [-0.46642911713612945, 0.31122185236270583], [0.3488489224166551, -0.3477818979519508], [0.3358179039074791, 0.4326820671966076], [-0.5267295542604401, 0.008734822007888554], [-0.40560919727351064, -0.19535635396552348], [0.21237959629415137, -0.49274167656717865], [-0.10372668947627528, 0.2576037453693598], [0.5673367624135356, 0.1858715912998346], [0.1530686132808763, 0.04570527182185935], [-0.3516685099160797, -0.4384760765785162], [-0.05803386217113926, -0.1766483880406512], [0.029741997119560493, 0.4575846178807845], [0.018751562140591593, -0.4339769195594164], [-0.26666263359263026, 0.13750966061502223], [-0.18290672984061584, 0.4483529053509522], [0.5956997149950499, -0.060563390017795954], [-0.12697183407893892, -0.5836339526840024], [0.35144743373552556, 0.20496489351358105], [0.2050225879017149, -0.14939745113899022]]",density,black,,,1301830,visual,1,[],"['1', '2', '3', '4']",1,2023.2.3,harveyvisual,2.1,[],8,0.75,
0,pause,0.4,None,None,None,0,137,137,137,,,,,,,,,,,,,1301830,visual,1,[],"['1', '2', '3', '4']",1,2023.2.3,harveyvisual,2.1,[],8,0.75,
20,dot,0.3,['dot'],['density'],black,0,138,138,138,,,50.70023202896118,50.42560911178589,50.70905804634094,dot,"[0.06, 0.08, 0.1, 0.06, 0.08, 0.1, 0.06, 0.1, 0.08, 0.08, 0.08, 0.1, 0.1, 0.1, 0.08, 0.06, 0.08, 0.06, 0.1, 0.08]","[[-0.4514055416578173, -0.028676020849121686], [0.3692681250744998, -0.10513359940761113], [-0.531650065408218, -0.23038771077592668], [-0.10892389213292314, -0.3774817846414429], [0.11958961659907197, 0.10861109800278623], [0.5960659903958315, 0.07760815580403276], [0.19201051942899994, -0.19130900486538793], [-0.022899305891022848, -0.20212177483649296], [0.24184937281067742, 0.2919933183741704], [-0.40419575046621886, 0.3434156302609575], [-0.30097542861630994, 0.09184957724056741], [0.19020246838172883, -0.43487962342376263], [0.2252967373040835, 0.5477864878415672], [0.5482493903607569, -0.24514751252561207], [-0.5813490054588173, 0.12366319105828785], [0.01353088246018086, 0.5832484680860318], [-0.18382326896217377, 0.44193333210629404], [-0.21260249849471746, -0.18708357789428876], [0.42635218112622886, 0.1994312045321171], [0.04756580967191337, 0.352568246103376]]",density,black,,,1301830,visual,1,[],"['1', '2', '3', '4']",1,2023.2.3,harveyvisual,2.1,[],8,0.75,
0,pause,0.4,None,None,None,0,139,139,139,,,,,,,,,,,,,1301830,visual,1,[],"['1', '2', '3', '4']",1,2023.2.3,harveyvisual,2.1,[],8,0.75,
20,dot,0.3,['dot'],['density'],black,0,140,140,140,,,51.40021896362305,51.12576603889465,51.40902900695801,dot,"[0.08, 0.06, 0.06, 0.06, 0.08, 0.1, 0.06, 0.1, 0.06, 0.08, 0.1, 0.1, 0.08, 0.08, 0.1, 0.1, 0.08, 0.1, 0.1, 0.06]","[[0.3691417084827121, -0.4656990306658761], [0.5636861062920381, 0.19817031104347094], [0.3235879141993545, 0.4365760973682805], [-0.2484466340640838, 0.10621645342535802], [0.045046223644126915, 0.19216734592693785], [-0.5664715290160264, 0.05830869608366582], [0.4891322983818963, -0.15020429777718036], [-0.2509905603074343, -0.4774184030223012], [-0.5753877055200883, -0.16361531359458337], [-0.015594250282733868, -0.28427818367987007], [-0.014423829621951323, 0.507378139982683], [-0.3729909954984837, -0.22317682244452658], [-0.4311094775993759, -0.41123404825624116], [0.07059352657893825, -0.4889431171261616], [-0.46094007852633406, 0.3818820691402872], [0.31517729087733615, 0.1559196577170523], [-0.21847998491692522, 0.5223486306669168], [0.1737166456191157, -0.1627588058104033], [-0.1617954310661795, 0.3357507795288074], [-0.1495823991878809, -0.06551121015611949]]",density,black,,,1301830,visual,1,[],"['1', '2', '3', '4']",1,2023.2.3,harveyvisual,2.1,[],8,0.75,
0,pause,0.4,None,None,None,0,141,141,141,,,,,,,,,,,,,1301830,visual,1,[],"['1', '2', '3', '4']",1,2023.2.3,harveyvisual,2.1,[],8,0.75,
20,dot,0.3,['dot'],['density'],black,0,142,142,142,,,52.1002299785614,51.8255341053009,52.10886311531067,dot,"[0.06, 0.06, 0.1, 0.1, 0.06, 0.1, 0.1, 0.06, 0.06, 0.06, 0.06, 0.08, 0.1, 0.06, 0.08, 0.1, 0.1, 0.06, 0.08, 0.08]","[[0.15836332299257394, 0.22155458021433727], [-0.03924171388062647, -0.4221623626734289], [-0.17718140392874787, 0.5192556418757636], [-0.27196560305816786, -0.47666626685724733], [-0.3890965279255074, -0.29087808969415424], [0.5267712990962626, -0.2690398360959062], [0.29059875472816166, 0.4825662990140248], [-0.19352071935215526, -0.2633132505611849], [-0.27194246658586596, 0.16680097030081942], [0.27993950516217003, -0.44445488805162714], [0.599647999837143, -0.0713520042965127], [-0.370587264387877, 0.4644601322800533], [0.3547582767804297, 0.16153304577615563], [-0.5019765020556561, 0.07161790267281243], [-0.10251004153515508, 0.2959876742049681], [0.20586736701022246, -0.06223567526265672], [-0.0036926473967568985, -0.12400676760964735], [-0.5670766908039456, -0.20589378691417773], [0.47266558336974607, 0.3234535414103011], [-0.32242370479493676, -0.10039751807736153]]",density,black,,,1301830,visual,1,[],"['1', '2', '3', '4']",1,2023.2.3,harveyvisual,2.1,[],8,0.75,
0,pause,0.4,None,None,None,0,143,143,143,,,,,,,,,,,,,1301830,visual,1,[],"['1', '2', '3', '4']",1,2023.2.3,harveyvisual,2.1,[],8,0.75,
20,dot,0.3,['dot'],['density'],black,0,144,144,144,,,52.80021810531616,52.52558517456055,52.80900597572327,dot,"[0.08, 0.06, 0.1, 0.08, 0.1, 0.08, 0.08, 0.08, 0.06, 0.08, 0.1, 0.06, 0.06, 0.08, 0.08, 0.06, 0.06, 0.1, 0.08, 0.1]","[[-0.3537660293346708, 0.36676248187349536], [-0.13636346825672124, 0.5821479550318308], [0.11287022575026273, 0.3384317470051521], [0.5830533769858742, 0.038983790150931896], [-0.11496438440383372, 0.023582698397793256], [-0.17298177202022536, -0.3450935751559131], [-0.3902536456637581, -0.2639758394785409], [0.08405213684892077, -0.4058349383430352], [0.36919069330784715, 0.30314307382732003], [-0.5960905960403905, -0.08894140791249619], [0.1544178341197786, 0.04968649859141072], [0.33604749079840845, -0.196903869455119], [-0.36402092462567537, 0.017963500122373743], [0.14617863135920306, 0.5494664689990391], [-0.084541322416825, -0.5731936189237233], [-0.5479701338645141, 0.19207773353198443], [-0.1948237499586008, 0.2537267306545805], [0.3740151776765105, -0.4165816732347713], [0.5528108217295106, -0.16037147490421877], [0.3950588530935303, 0.10116232145324733]]",density,black,,,1301830,visual,1,[],"['1', '2', '3', '4']",1,2023.2.3,harveyvisual,2.1,[],8,0.75,
0,pause,0.4,None,None,None,0,145,145,145,,,,,,,,,,,,,1301830,visual,1,[],"['1', '2', '3', '4']",1,2023.2.3,harveyvisual,2.1,[],8,0.75,
20,dot,0.3,['dot'],['density'],black,0,146,146,146,,,53.50023007392883,53.22567009925842,53.50898504257202,dot,"[0.08, 0.06, 0.1, 0.1, 0.06, 0.1, 0.1, 0.08, 0.08, 0.08, 0.1, 0.06, 0.08, 0.06, 0.08, 0.1, 0.08, 0.1, 0.1, 0.08]","[[0.4621702508301181, -0.15409887094284033], [0.3746565569270647, 0.22219961563634116], [0.04033740612851189, 0.2924216735966948], [-0.5986836836910466, -0.04739934909020553], [-0.2960221474261487, 0.465035462735818], [0.05825745319340958, -0.3988515346918625], [0.2797926035435483, -0.3310081128396871], [0.19637246173910838, 0.130238753420985], [0.5995094793038119, 0.07935483592190072], [-0.35331877293054853, -0.2451371401846372], [-0.14142702383306827, -0.5717237546196189], [-0.14653656452119285, 0.24439191625845091], [-0.25071920631168293, -0.05828333672059299], [-0.03152831772941678, 0.5467504886295549], [0.15196000874206117, -0.12246831304634687], [-0.22147378636614223, -0.39825653739164957], [0.18924253298205074, 0.4270749606486911], [0.3860923483091001, 0.4462780801376815], [-0.4339511439447906, 0.31931914073592294], [-0.004677835287731025, 0.013798202734663478]]",density,black,,,1301830,visual,1,[],"['1', '2', '3', '4']",1,2023.2.3,harveyvisual,2.1,[],8,0.75,
0,pause,0.4,None,None,None,0,147,147,147,,,,,,,,,,,,,1301830,visual,1,[],"['1', '2', '3', '4']",1,2023.2.3,harveyvisual,2.1,[],8,0.75,
20,dot,0.3,['dot'],['density'],black,0,148,148,148,,,54.2002329826355,53.92565703392029,54.20895314216614,dot,"[0.06, 0.08, 0.1, 0.1, 0.06, 0.1, 0.08, 0.06, 0.06, 0.08, 0.08, 0.1, 0.06, 0.06, 0.06, 0.08, 0.08, 0.08, 0.1, 0.06]","[[0.19913250605916422, 0.10340705707205855], [-0.031439733851076124, 0.3476657991039396], [-0.29230153384010865, 0.4303407966574283], [-0.30347730379850046, -0.2797601122109897], [-0.5218630289193362, 0.28804295040861083], [-0.33201447139159584, 0.02550671964276474], [-0.1453890022514162, 0.1621986351889887], [-0.5959003934495125, -0.05359672022763748], [0.2514763753773829, -0.1847552900096382], [0.3977148791539359, -0.42425099526002075], [0.3060571744009376, 0.46572249989480485], [0.20640906466407882, -0.45121240837355286], [0.47302150714960367, -0.2021538280514638], [-0.5169754253716412, -0.2910237310681474], [-0.07871059778220046, 0.5713873213927614], [-0.08448156309197963, -0.1862882785322838], [0.024734247131410037, -0.36345594117705554], [-0.14940525619394096, -0.5817752487659488], [0.5436962374832078, 0.1635924600699723], [0.6025781734604413, -0.03937214008969359]]",density,black,,,1301830,visual,1,[],"['1', '2', '3', '4']",1,2023.2.3,harveyvisual,2.1,[],8,0.75,
0,pause,0.4,None,None,None,0,149,149,149,,,,,,,,,,,,,1301830,visual,1,[],"['1', '2', '3', '4']",1,2023.2.3,harveyvisual,2.1,[],8,0.75,
20,dot,0.3,['dot'],['density'],black,0,150,150,150,,,54.900251150131226,54.625630140304565,54.908852100372314,dot,"[0.08, 0.06, 0.1, 0.1, 0.1, 0.1, 0.1, 0.1, 0.06, 0.06, 0.08, 0.08, 0.1, 0.1, 0.06, 0.1, 0.1, 0.06, 0.08, 0.1]","[[0.3249907135734408, -0.15487805629145152], [-0.15506541190893408, -0.42761385410595043], [0.46081539693872864, -0.33333319801502914], [-0.05323066709113189, -0.04458914571496819], [-0.11088045055935403, 0.5710289771749205], [0.42500544263502904, 0.07074452586657554], [-0.10281992971349707, 0.1908593859180735], [-0.33594612640004645, -0.305534923715768], [-0.5625683615324304, 0.18721221547325895], [-0.005334084507243597, -0.546329683362335], [0.5901284339816527, -0.12955090686540505], [0.10366611370434342, -0.2076103939152688], [-0.5015964752927343, -0.007639208067103942], [-0.2932288504392854, 0.49322703860964445], [0.20783596611951405, 0.32697335533981975], [-0.25909971428305784, 0.03743176854874397], [0.5001347385533758, 0.3031214581237711], [0.3410538099823075, 0.48783734251691624], [0.19870089038364813, -0.43122574481566545], [0.2287536532379596, 0.03663709107452218]]",density,black,,,1301830,visual,1,[],"['1', '2', '3', '4']",1,2023.2.3,harveyvisual,2.1,[],8,0.75,
0,pause,0.4,None,None,None,0,151,151,151,,,,,,,,,,,,,1301830,visual,1,[],"['1', '2', '3', '4']",1,2023.2.3,harveyvisual,2.1,[],8,0.75,
20,dot,0.3,['dot'],['density'],white,0,152,152,152,,,55.60021996498108,55.325478076934814,55.60897707939148,dot,"[0.06, 0.06, 0.06, 0.06, 0.06, 0.08, 0.06, 0.1, 0.06, 0.08, 0.06, 0.1, 0.06, 0.08, 0.08, 0.1, 0.08, 0.1, 0.1, 0.08]","[[-0.4757888961243446, 0.07442885062466276], [0.3785065865955276, 0.18688689408649178], [-0.5250789965740003, -0.12301037532850026], [-0.0545120933554214, -0.5435013657388723], [-0.21248246702657653, -0.2722456539687327], [0.029256095027848428, -0.2026804336200138], [-0.01173103886439908, 0.3026089080152071], [-0.441141775197236, 0.28315687585002647], [-0.12346474305057648, 0.03881766135135112], [0.235832125197863, -0.2703221354160481], [-0.003151111561810249, 0.5526006479038759], [0.5638919376402077, -0.016806262778747583], [0.30375035765704517, -0.0792220043087935], [-0.22740940449872693, 0.27741891502150384], [-0.35000955321714544, 0.46899451764253025], [0.17937885321088565, 0.19869184488691527], [-0.44963021082905447, -0.3136346548988125], [0.5098225802166397, -0.27726608026210775], [0.18806931855140807, 0.4261205742859401], [0.46883944544320844, 0.38131914204869727]]",density,white,,,1301830,visual,1,[],"['1', '2', '3', '4']",1,2023.2.3,harveyvisual,2.1,[],8,0.75,
0,pause,0.4,None,None,None,0,153,153,153,,,,,,,,,,,1,55.88253116607666,1301830,visual,1,[],"['1', '2', '3', '4']",1,2023.2.3,harveyvisual,2.1,[],8,0.75,
20,dot,0.3,['dot'],['density'],black,0,154,154,154,,,56.300230979919434,56.02559995651245,56.308746099472046,dot,"[0.1, 0.08, 0.1, 0.1, 0.08, 0.08, 0.08, 0.08, 0.1, 0.06, 0.06, 0.06, 0.08, 0.1, 0.06, 0.06, 0.08, 0.06, 0.08, 0.1]","[[0.27359440008048885, -0.34775557248330813], [-0.5598137918386186, 0.04806819079623864], [0.10884177378754967, 0.47134394668144586], [-0.04457945612407366, -0.01102714614594058], [0.5635955401337055, -0.2060024043378443], [0.49068698614502104, 0.22028041556008476], [-0.2533476839623684, 0.4570216970677331], [0.2840052855173165, 0.07206218007007126], [0.042182641818224176, 0.20620940949460098], [0.6051846818864456, 0.005982866254278451], [0.13088763133315828, -0.21366423363386527], [-0.43568226155883016, -0.3053672307447701], [0.05524838620113859, -0.47175218207848857], [-0.14558754507903993, -0.3007224434765055], [-0.30194087869610187, -0.16448789439934175], [-0.18288873532134597, 0.19514868413174258], [-0.46374147935970667, 0.301458583101819], [0.34508532212250953, -0.14088862224599685], [-0.17806406106354955, -0.500048494296863], [0.3362245013203774, 0.37303992519719464]]",density,black,,,1301830,visual,1,[],"['1', '2', '3', '4']",1,2023.2.3,harveyvisual,2.1,[],8,0.75,
0,pause,0.4,None,None,None,0,155,155,155,,,,,,,,,,,,,1301830,visual,1,[],"['1', '2', '3', '4']",1,2023.2.3,harveyvisual,2.1,[],8,0.75,
9,dot,0.3,['dot'],['density'],black,0,156,156,156,,,57.00023913383484,56.70880103111267,57.008968114852905,dot,"[0.06, 0.06, 0.1, 0.1, 0.1, 0.08, 0.08, 0.1, 0.08]","[[0.5633060189111645, -0.020447411670609934], [0.24486306384976717, 0.44476630120442473], [0.18428866344346043, -0.051083701103786204], [0.30165572131442664, 0.2239114093385097], [-0.0017431279865323516, 0.11759053127645673], [0.36864926730470376, 0.029118730319846676], [0.08307425003498874, 0.31712463906399285], [0.26393370779995823, -0.24286541122091637], [0.5109425385251136, 0.2557989077594731]]",density,black,,,1301830,visual,1,[],"['1', '2', '3', '4']",1,2023.2.3,harveyvisual,2.1,[],8,0.75,
0,pause,0.4,None,None,None,0,157,157,157,,,,,,,,,,,,,1301830,visual,1,[],"['1', '2', '3', '4']",1,2023.2.3,harveyvisual,2.1,[],8,0.75,
9,dot,0.3,['dot'],['density'],white,0,158,158,158,,,57.70022511482239,57.40896511077881,57.70897603034973,dot,"[0.06, 0.08, 0.06, 0.06, 0.1, 0.1, 0.08, 0.06, 0.06]","[[0.019793807854907846, -0.43234396454466956], [-0.19026732246162045, -0.30921043426246514], [0.04019268118281429, 0.04496242893187172], [-0.3995051790572048, -0.35321755636659735], [-0.3855517065125252, -0.10705750392277943], [0.08372722599267078, -0.1679482296571974], [0.2622756688563642, -0.3928589043728353], [-0.14305193053609555, -0.047108980659819465], [-0.27076529918092873, 0.10825753519043561]]",density,white,,,1301830,visual,1,[],"['1', '2', '3', '4']",1,2023.2.3,harveyvisual,2.1,[],8,0.75,
0,pause,0.4,None,None,None,0,159,159,159,,,,,,,,,,,1,57.87080502510071,1301830,visual,1,[],"['1', '2', '3', '4']",1,2023.2.3,harveyvisual,2.1,[],8,0.75,
9,dot,0.3,['dot'],['density'],black,0,160,160,160,,,58.4002251625061,58.10899209976196,58.40885305404663,dot,"[0.1, 0.1, 0.1, 0.1, 0.1, 0.1, 0.06, 0.08, 0.08]","[[-0.05049485011715354, 0.3013521193238899], [0.15354596755057998, 0.36785015051376163], [0.22995749783639982, 0.07309138415424772], [0.13460311710395165, -0.18603378415368982], [0.33097739113381164, -0.13822260855557728], [-0.16464148731134703, 0.07190493829483618], [0.521154897315396, -0.007803673430992942], [0.02684304494395013, 0.0018704401699241912], [-0.15545279255173522, -0.15329938800760382]]",density,black,,,1301830,visual,1,[],"['1', '2', '3', '4']",1,2023.2.3,harveyvisual,2.1,[],8,0.75,
0,pause,0.4,None,None,None,0,161,161,161,,,,,,,,,,,,,1301830,visual,1,[],"['1', '2', '3', '4']",1,2023.2.3,harveyvisual,2.1,[],8,0.75,
9,dot,0.3,['dot'],['density'],black,0,162,162,162,,,59.10022497177124,58.80869913101196,59.10883617401123,dot,"[0.08, 0.08, 0.06, 0.06, 0.08, 0.1, 0.1, 0.08, 0.06]","[[0.17250841666444466, -0.5173949811024123], [-0.03744062107829021, -0.3895067986023326], [0.30010350549611725, -0.35742528465303014], [0.33064876224298684, -0.08057424749072183], [-0.16743636965090838, -0.09291053242622109], [0.1226827020066543, -0.24711763375004436], [0.047527772487498496, -0.037432207059122605], [0.20928928941955194, 0.09999474740890861], [-0.30040876562534896, -0.42726910911839744]]",density,black,,,1301830,visual,1,[],"['1', '2', '3', '4']",1,2023.2.3,harveyvisual,2.1,[],8,0.75,
0,pause,0.4,None,None,None,0,163,163,163,,,,,,,,,,,,,1301830,visual,1,[],"['1', '2', '3', '4']",1,2023.2.3,harveyvisual,2.1,[],8,0.75,
9,dot,0.3,['dot'],['density'],black,0,164,164,164,,,59.80022311210632,59.50884008407593,59.826416969299316,dot,"[0.06, 0.08, 0.06, 0.1, 0.08, 0.08, 0.08, 0.06, 0.1]","[[0.050129075631511706, -0.29659829200500587], [0.1522424042566208, -0.02012498145544232], [-0.31773020450764894, 0.09756431981266957], [-0.25388767024787284, -0.20865833148222632], [-0.06549152868915667, -0.10253084504872755], [-0.047012852932693645, 0.11741599898337682], [0.26526013051082903, -0.18996189821299347], [0.2442588296558726, 0.17404051307925203], [0.053323608967773835, 0.34462047536600726]]",density,black,,,1301830,visual,1,[],"['1', '2', '3', '4']",1,2023.2.3,harveyvisual,2.1,[],8,0.75,
0,pause,0.4,None,None,None,0,165,165,165,,,,,,,,,,,,,1301830,visual,1,[],"['1', '2', '3', '4']",1,2023.2.3,harveyvisual,2.1,[],8,0.75,
9,dot,0.3,['dot'],['density'],black,0,166,166,166,,,60.50024199485779,60.20883917808533,60.50884509086609,dot,"[0.08, 0.06, 0.08, 0.1, 0.1, 0.1, 0.06, 0.06, 0.1]","[[0.11766436913102363, -0.04327704920019282], [0.17973489876850246, -0.2957558932143311], [0.4322853556796634, 0.1292829237047714], [-0.0348924626991882, -0.2091692004054023], [0.511593351462966, -0.2715393032181878], [0.39631341359825684, -0.10388811790353111], [0.1759041025424718, 0.35783279634564974], [-0.11077337801993212, 0.08002505665429639], [0.1915495233696259, 0.15329463501335125]]",density,black,,,1301830,visual,1,[],"['1', '2', '3', '4']",1,2023.2.3,harveyvisual,2.1,[],8,0.75,
0,pause,0.4,None,None,None,0,167,167,167,,,,,,,,,,,,,1301830,visual,1,[],"['1', '2', '3', '4']",1,2023.2.3,harveyvisual,2.1,[],8,0.75,
8,dot,0.3,['dot'],['density'],black,0,168,168,168,,,61.200222969055176,60.90884709358215,61.20884895324707,dot,"[0.1, 0.1, 0.1, 0.06, 0.08, 0.08, 0.1, 0.1]","[[-0.17382250058115215, 0.008030820220576582], [-0.5561520679887834, 0.09064024109159684], [-0.2322770524578434, -0.18818443710846813], [-0.41357291590276396, -0.2905316508268561], [-0.37423053416790164, -0.04064357687765813], [-0.014699175284411378, 0.15059198662288528], [-0.015485985535575739, -0.1348843831724925], [-0.36639977644872057, 0.228205681233079]]",density,black,,,1301830,visual,1,[],"['1', '2', '3', '4']",1,2023.2.3,harveyvisual,2.1,[],8,0.75,
0,pause,0.4,None,None,None,0,169,169,169,,,,,,,,,,,,,1301830,visual,1,[],"['1', '2', '3', '4']",1,2023.2.3,harveyvisual,2.1,[],8,0.75,
8,dot,0.3,['dot'],['density'],black,0,170,170,170,,,61.90024209022522,61.60888695716858,61.90884494781494,dot,"[0.1, 0.06, 0.08, 0.1, 0.1, 0.1, 0.1, 0.06]","[[0.12411109391386341, -0.5343823995123961], [-0.21238427398525783, -0.3197389486612228], [-0.06551876445787266, 0.032183079599910736], [0.22034046694826517, 0.05676208929132721], [0.31747551588691986, -0.13046885784073625], [0.01834943727978222, -0.34316474661021057], [0.10776215616131694, -0.12386070969881222], [-0.2386971922539417, -0.09256206635527232]]",density,black,,,1301830,visual,1,[],"['1', '2', '3', '4']",1,2023.2.3,harveyvisual,2.1,[],8,0.75,
0,pause,0.4,None,None,None,0,171,171,171,,,,,,,,,,,,,1301830,visual,1,[],"['1', '2', '3', '4']",1,2023.2.3,harveyvisual,2.1,[],8,0.75,
8,dot,0.3,['dot'],['density'],black,0,172,172,172,,,62.60024404525757,62.30875611305237,62.60863494873047,dot,"[0.06, 0.1, 0.08, 0.06, 0.06, 0.1, 0.1, 0.08]","[[-0.3265204970111284, 0.22652760434067618], [0.11129643684023392, 0.07926950251467085], [0.07893474341784651, 0.4315681374945237], [-0.2000017914838315, -0.08445279674287073], [-0.29956068591909263, 0.4664910923320479], [-0.09828291121522204, 0.1483319570086381], [0.07400994184747142, -0.11883630301138211], [-0.12650192453358844, 0.35264367728062257]]",density,black,,,1301830,visual,1,[],"['1', '2', '3', '4']",1,2023.2.3,harveyvisual,2.1,[],8,0.75,
0,pause,0.4,None,None,None,0,173,173,173,,,,,,,,,,,,,1301830,visual,1,[],"['1', '2', '3', '4']",1,2023.2.3,harveyvisual,2.1,[],8,0.75,
8,dot,0.3,['dot'],['density'],black,0,174,174,174,,,63.30023217201233,63.00875401496887,63.30872297286987,dot,"[0.06, 0.08, 0.08, 0.1, 0.08, 0.1, 0.06, 0.1]","[[-0.21605400050023119, -0.36806604112140096], [-0.4331556331222778, 0.1336594927324191], [-0.3157474098875971, -0.1371073420352747], [-0.10064365538588134, -0.10053754910436148], [0.10862445751928086, -0.04115753002163663], [-0.19663983546434133, 0.09424647547905109], [-0.5379272585723496, -0.06117038891009633], [0.023355790718173546, -0.2955553217846553]]",density,black,,,1301830,visual,1,[],"['1', '2', '3', '4']",1,2023.2.3,harveyvisual,2.1,[],8,0.75,
0,pause,0.4,None,None,None,0,175,175,175,,,,,,,,,,,,,1301830,visual,1,[],"['1', '2', '3', '4']",1,2023.2.3,harveyvisual,2.1,[],8,0.75,
8,dot,0.3,['dot'],['density'],white,0,176,176,176,,,64.00022411346436,63.708564043045044,64.00859498977661,dot,"[0.1, 0.06, 0.1, 0.08, 0.1, 0.08, 0.1, 0.06]","[[0.28112832868380594, 0.3075763237432237], [-0.21381995858864508, 0.197554992839043], [0.14035436555963224, -0.1470740351963634], [-0.04856350071149823, -0.017306043905309515], [0.12070301707556046, 0.11279463428917226], [0.35236156425888765, 0.046198621115284964], [-0.012223412543992913, 0.3265760435025566], [0.11745206869397669, 0.49408919182137495]]",density,white,,,1301830,visual,1,[],"['1', '2', '3', '4']",1,2023.2.3,harveyvisual,2.1,[],8,0.75,
0,pause,0.4,None,None,None,0,177,177,177,,,,,,,,,,,1,64.23646807670593,1301830,visual,1,[],"['1', '2', '3', '4']",1,2023.2.3,harveyvisual,2.1,[],8,0.75,
8,dot,0.3,['dot'],['density'],black,0,178,178,178,,,64.70022797584534,64.40856099128723,64.70850110054016,dot,"[0.06, 0.08, 0.08, 0.06, 0.06, 0.08, 0.06, 0.06]","[[-0.13470540342303577, 0.06408260861786476], [-0.32633744656496655, 0.15045505181492372], [-0.2908673593763413, -0.0762007135190446], [-0.5368971138264618, 0.18470905249118252], [0.055331558945424124, 0.1732254888039505], [-0.30909967543404826, 0.3845911877556102], [-0.0777863596696305, 0.41921053595603236], [0.03181857584637903, -0.08967320215721851]]",density,black,,,1301830,visual,1,[],"['1', '2', '3', '4']",1,2023.2.3,harveyvisual,2.1,[],8,0.75,
0,pause,0.4,None,None,None,0,179,179,179,,,,,,,,,,,,,1301830,visual,1,[],"['1', '2', '3', '4']",1,2023.2.3,harveyvisual,2.1,[],8,0.75,
7,dot,0.3,['dot'],['density'],black,0,180,180,180,,,65.4002411365509,65.10850310325623,65.40853214263916,dot,"[0.1, 0.08, 0.08, 0.08, 0.08, 0.1, 0.08]","[[0.13823229125104186, -0.11287424625882309], [-0.082914425993103, 0.43156227464827385], [0.30107400633957315, 0.2583336012722512], [-0.1103107855725706, 0.20298726112520996], [0.37862923877470095, 0.05664428164281185], [0.10057609128089995, 0.3089177590539603], [0.1009283971288976, 0.1061295027106774]]",density,black,,,1301830,visual,1,[],"['1', '2', '3', '4']",1,2023.2.3,harveyvisual,2.1,[],8,0.75,
0,pause,0.4,None,None,None,0,181,181,181,,,,,,,,,,,,,1301830,visual,1,[],"['1', '2', '3', '4']",1,2023.2.3,harveyvisual,2.1,[],8,0.75,
7,dot,0.3,['dot'],['density'],white,0,182,182,182,,,66.10021996498108,65.80850005149841,66.10849905014038,dot,"[0.1, 0.06, 0.06, 0.06, 0.06, 0.1, 0.06]","[[0.373835093542847, 0.13553027784675922], [0.025265531087721685, -0.15487691700731251], [0.38086488534306906, -0.0720131222026176], [0.4315741710459581, -0.28075472739566504], [0.18097069018870113, 0.01647246612045595], [0.1962900518120967, -0.2624101628120604], [0.08955660480178401, 0.2127528718980948]]",density,white,,,1301830,visual,1,[],"['1', '2', '3', '4']",1,2023.2.3,harveyvisual,2.1,[],8,0.75,
0,pause,0.4,None,None,None,0,183,183,183,,,,,,,,,,,1,66.22773599624634,1301830,visual,1,[],"['1', '2', '3', '4']",1,2023.2.3,harveyvisual,2.1,[],8,0.75,
7,dot,0.3,['dot'],['density'],black,0,184,184,184,,,66.80022716522217,66.50847601890564,66.80845499038696,dot,"[0.08, 0.08, 0.08, 0.1, 0.08, 0.1, 0.08]","[[-0.0015444251822213466, 0.17452400993182896], [-0.3864233363803332, 0.3856338194384884], [-0.45841970572989144, 0.11901701190004808], [-0.23552014845846486, 0.11986313412455778], [-0.06694767956243396, -0.029831379541550785], [-0.3576154478026905, -0.11072010138878656], [-0.17113735677840214, 0.37123035181888253]]",density,black,,,1301830,visual,1,[],"['1', '2', '3', '4']",1,2023.2.3,harveyvisual,2.1,[],8,0.75,
0,pause,0.4,None,None,None,0,185,185,185,,,,,,,,,,,,,1301830,visual,1,[],"['1', '2', '3', '4']",1,2023.2.3,harveyvisual,2.1,[],8,0.75,
7,dot,0.3,['dot'],['density'],black,0,186,186,186,,,67.50024700164795,67.20845699310303,67.50843715667725,dot,"[0.08, 0.06, 0.06, 0.1, 0.06, 0.1, 0.08]","[[-0.4069355390488937, 0.37207368581823036], [-0.24593577727054447, 0.19917396778247878], [-0.42360727833657225, -0.08003411738888748], [-0.22269992972584096, -0.007913174381400552], [-0.5458110461780458, 0.2006057762678532], [-0.12767295506375728, 0.3689678629588407], [-0.26313434255033313, 0.5223746060296944]]",density,black,,,1301830,visual,1,[],"['1', '2', '3', '4']",1,2023.2.3,harveyvisual,2.1,[],8,0.75,
0,pause,0.4,None,None,None,0,187,187,187,,,,,,,,,,,,,1301830,visual,1,[],"['1', '2', '3', '4']",1,2023.2.3,harveyvisual,2.1,[],8,0.75,
7,dot,0.3,['dot'],['density'],black,0,188,188,188,,,68.20023202896118,67.90846395492554,68.20847606658936,dot,"[0.1, 0.08, 0.1, 0.06, 0.08, 0.08, 0.06]","[[-0.23895008888738212, 0.05027357720500052], [0.04847041368780161, 0.3376116924566045], [0.007425979130163878, -0.07582657330311053], [-0.16109724709992976, 0.33554312732420544], [-0.17199436159673825, -0.1887904434853683], [0.1858169564317131, 0.14031933770952934], [-0.038655615351801086, 0.15226176997737048]]",density,black,,,1301830,visual,1,[],"['1', '2', '3', '4']",1,2023.2.3,harveyvisual,2.1,[],8,0.75,
0,pause,0.4,None,None,None,0,189,189,189,,,,,,,,,,,,,1301830,visual,1,[],"['1', '2', '3', '4']",1,2023.2.3,harveyvisual,2.1,[],8,0.75,
7,dot,0.3,['dot'],['density'],black,0,190,190,190,,,68.90023994445801,68.60850596427917,68.90849709510803,dot,"[0.08, 0.08, 0.08, 0.08, 0.1, 0.08, 0.06]","[[0.12902113605384963, -0.35167066519854956], [0.3838909825822851, -0.05572740120406059], [-0.02857767273637445, 0.1549795872955612], [0.19333287999408408, 0.10698923431715611], [-0.08146847087507005, -0.06064403559207536], [0.18020694687254563, -0.15550905334431223], [-0.07225335190945896, -0.28606481362007624]]",density,black,,,1301830,visual,1,[],"['1', '2', '3', '4']",1,2023.2.3,harveyvisual,2.1,[],8,0.75,
0,pause,0.4,None,None,None,0,191,191,191,,,,,,,,,,,,,1301830,visual,1,[],"['1', '2', '3', '4']",1,2023.2.3,harveyvisual,2.1,[],8,0.75,
6,dot,0.3,['dot'],['density'],black,0,192,192,192,,,69.60021996498108,69.30841207504272,69.60840797424316,dot,"[0.06, 0.1, 0.08, 0.06, 0.06, 0.08]","[[0.23041567882598732, 0.45619944218456715], [0.5278859611842325, 0.18245830030246968], [0.08738225171760033, 0.1578384040678088], [0.20561463112105705, -0.03996865664556224], [0.3021721310554224, 0.21718230064421146], [0.4273755636869532, 0.38341374408431883]]",density,black,,,1301830,visual,1,[],"['1', '2', '3', '4']",1,2023.2.3,harveyvisual,2.1,[],8,0.75,
0,pause,0.4,None,None,None,0,193,193,193,,,,,,,,,,,,,1301830,visual,1,[],"['1', '2', '3', '4']",1,2023.2.3,harveyvisual,2.1,[],8,0.75,
6,dot,0.3,['dot'],['density'],black,0,194,194,194,,,70.30022716522217,70.00838303565979,70.30837798118591,dot,"[0.08, 0.08, 0.08, 0.1, 0.08, 0.08]","[[-0.24492162854676555, 0.16704436901929823], [-0.3861886513150086, 0.35601694661450933], [-0.48514013682315105, 0.15596888098880124], [-0.5451465436738104, -0.12931683943359434], [-0.11772959853104834, 0.007676420150436517], [-0.35755989064212684, -0.03355234579502648]]",density,black,,,1301830,visual,1,[],"['1', '2', '3', '4']",1,2023.2.3,harveyvisual,2.1,[],8,0.75,
0,pause,0.4,None,None,None,0,195,195,195,,,,,,,,,,,,,1301830,visual,1,[],"['1', '2', '3', '4']",1,2023.2.3,harveyvisual,2.1,[],8,0.75,
6,dot,0.3,['dot'],['density'],black,0,196,196,196,,,71.00023198127747,70.70839715003967,71.0083601474762,dot,"[0.06, 0.1, 0.06, 0.08, 0.06, 0.08]","[[-0.36874454135919904, -0.07559312273534534], [-0.010504004432700158, -0.20559114413973084], [-0.17044584652251332, 0.17221059634863578], [-0.26251446752681207, -0.3074850979938877], [0.06633568674208327, -0.020893677029436595], [-0.1538914639536258, -0.02772778393149798]]",density,black,,,1301830,visual,1,[],"['1', '2', '3', '4']",1,2023.2.3,harveyvisual,2.1,[],8,0.75,
0,pause,0.4,None,None,None,0,197,197,197,,,,,,,,,,,,,1301830,visual,1,[],"['1', '2', '3', '4']",1,2023.2.3,harveyvisual,2.1,[],8,0.75,
6,dot,0.3,['dot'],['density'],black,0,198,198,198,,,71.70022296905518,71.4084119796753,71.70841097831726,dot,"[0.06, 0.06, 0.06, 0.06, 0.06, 0.06]","[[0.1442800129286608, -0.025670240792647715], [-0.253335145558221, 0.06312541807928282], [0.15340240856287354, 0.2410349392962658], [-0.1639657784688781, 0.25075335361279655], [-0.07910231793701084, -0.12784096878077061], [-0.011661193723423325, 0.11361106492824657]]",density,black,,,1301830,visual,1,[],"['1', '2', '3', '4']",1,2023.2.3,harveyvisual,2.1,[],8,0.75,
0,pause,0.4,None,None,None,0,199,199,199,,,,,,,,,,,,,1301830,visual,1,[],"['1', '2', '3', '4']",1,2023.2.3,harveyvisual,2.1,[],8,0.75,
6,dot,0.3,['dot'],['density'],black,0,200,200,200,,,72.40024614334106,72.1083300113678,72.40930604934692,dot,"[0.06, 0.1, 0.08, 0.1, 0.06, 0.1]","[[-0.36874454135919904, -0.07559312273534534], [-0.010504004432700158, -0.20559114413973084], [-0.17044584652251332, 0.17221059634863578], [-0.26251446752681207, -0.3074850979938877], [0.06633568674208327, -0.020893677029436595], [-0.1538914639536258, -0.02772778393149798]]",density,black,,,1301830,visual,1,[],"['1', '2', '3', '4']",1,2023.2.3,harveyvisual,2.1,[],8,0.75,
0,pause,0.4,None,None,None,0,201,201,201,,,,,,,,,,,,,1301830,visual,1,[],"['1', '2', '3', '4']",1,2023.2.3,harveyvisual,2.1,[],8,0.75,
6,dot,0.3,['dot'],['density'],black,0,202,202,202,,,73.10023713111877,72.80829405784607,73.10828614234924,dot,"[0.1, 0.1, 0.06, 0.06, 0.06, 0.06]","[[-0.560843418842529, -0.11752527585456686], [-0.31277608783648175, 0.04003545118838376], [-0.18207900664359264, -0.3652956678781814], [-0.41442909117718774, -0.4038021739217259], [-0.14446849917993246, -0.07035639226176245], [-0.3420415871796019, -0.1631057353810994]]",density,black,,,1301830,visual,1,[],"['1', '2', '3', '4']",1,2023.2.3,harveyvisual,2.1,[],8,0.75,
0,pause,0.4,None,None,None,0,203,203,203,,,,,,,,,,,,,1301830,visual,1,[],"['1', '2', '3', '4']",1,2023.2.3,harveyvisual,2.1,[],8,0.75,
5,dot,0.3,['dot'],['density'],white,0,204,204,204,,,73.80023908615112,73.50828409194946,73.80827498435974,dot,"[0.1, 0.08, 0.06, 0.08, 0.06]","[[0.33660852042816714, -0.448935078303268], [0.16237328695183198, -0.028906365321866932], [0.003149504206933677, -0.1844463225559013], [0.4065340125681681, -0.22407981263326276], [0.20027486954239768, -0.2346061295568129]]",density,white,,,1301830,visual,1,[],"['1', '2', '3', '4']",1,2023.2.3,harveyvisual,2.1,[],8,0.75,
0,pause,0.4,None,None,None,0,205,205,205,,,,,,,,,,,1,73.90065717697144,1301830,visual,1,[],"['1', '2', '3', '4']",1,2023.2.3,harveyvisual,2.1,[],8,0.75,
5,dot,0.3,['dot'],['density'],black,0,206,206,206,,,74.50024509429932,74.208261013031,74.50828409194946,dot,"[0.1, 0.1, 0.06, 0.06, 0.08]","[[0.36014554898799966, 0.387810422325294], [0.055757472799778995, 0.16941293674392635], [0.2210739480460382, 0.008175952352481365], [0.48495712857242873, 0.07425785546611247], [0.25975240449222103, 0.2092734881649904]]",density,black,,,1301830,visual,1,[],"['1', '2', '3', '4']",1,2023.2.3,harveyvisual,2.1,[],8,0.75,
0,pause,0.4,None,None,None,0,207,207,207,,,,,,,,,,,,,1301830,visual,1,[],"['1', '2', '3', '4']",1,2023.2.3,harveyvisual,2.1,[],8,0.75,
5,dot,0.3,['dot'],['density'],black,0,208,208,208,,,75.20022916793823,74.9082760810852,75.20826697349548,dot,"[0.08, 0.1, 0.06, 0.06, 0.1]","[[0.2447541601906441, 0.3086669061463178], [0.2085849672204031, -0.04267428248465989], [0.44393754570968663, -0.061602228714441105], [0.027125763574429876, 0.05764502161176834], [0.36879828001487897, 0.1310025380577708]]",density,black,,,1301830,visual,1,[],"['1', '2', '3', '4']",1,2023.2.3,harveyvisual,2.1,[],8,0.75,
0,pause,0.4,None,None,None,0,209,209,209,,,,,,,,,,,,,1301830,visual,1,[],"['1', '2', '3', '4']",1,2023.2.3,harveyvisual,2.1,[],8,0.75,
5,dot,0.3,['dot'],['density'],black,0,210,210,210,,,75.90023517608643,75.60828113555908,75.90840101242065,dot,"[0.1, 0.08, 0.08, 0.1, 0.08]","[[-0.11834215492801986, 0.412508379109845], [0.31881799646300274, 0.30859303438359803], [-0.06368743078099719, 0.10105058071702504], [0.1133485112468387, 0.46262203184429457], [0.11957051434631445, 0.24197418837926052]]",density,black,,,1301830,visual,1,[],"['1', '2', '3', '4']",1,2023.2.3,harveyvisual,2.1,[],8,0.75,
0,pause,0.4,None,None,None,0,211,211,211,,,,,,,,,,,,,1301830,visual,1,[],"['1', '2', '3', '4']",1,2023.2.3,harveyvisual,2.1,[],8,0.75,
5,dot,0.3,['dot'],['density'],black,0,212,212,212,,,76.60023903846741,76.30841302871704,76.60836100578308,dot,"[0.08, 0.1, 0.1, 0.08, 0.06]","[[-0.2338402938730933, 0.15846616122991625], [-0.3229678957369872, -0.0901175890533356], [-0.5034912146055804, 0.021834460539281654], [-0.23914892391179104, -0.28496604153387733], [-0.10132718886958789, -0.1172648190903725]]",density,black,,,1301830,visual,1,[],"['1', '2', '3', '4']",1,2023.2.3,harveyvisual,2.1,[],8,0.75,
0,pause,0.4,None,None,None,0,213,213,213,,,,,,,,,,,,,1301830,visual,1,[],"['1', '2', '3', '4']",1,2023.2.3,harveyvisual,2.1,[],8,0.75,
5,dot,0.3,['dot'],['density'],black,0,214,214,214,,,77.30024099349976,77.00834798812866,77.30821800231934,dot,"[0.06, 0.1, 0.1, 0.08, 0.1]","[[0.36014554898799966, 0.387810422325294], [0.055757472799778995, 0.16941293674392635], [0.2210739480460382, 0.008175952352481365], [0.48495712857242873, 0.07425785546611247], [0.25975240449222103, 0.2092734881649904]]",density,black,,,1301830,visual,1,[],"['1', '2', '3', '4']",1,2023.2.3,harveyvisual,2.1,[],8,0.75,
0,pause,0.4,None,None,None,0,215,215,215,,,,,,,,,,,,,1301830,visual,1,[],"['1', '2', '3', '4']",1,2023.2.3,harveyvisual,2.1,[],8,0.75,
4,dot,0.3,['dot'],['density'],white,0,216,216,216,,,78.00022315979004,77.70834517478943,78.00832414627075,dot,"[0.06, 0.08, 0.06, 0.1]","[[0.37520814465037905, -0.4432880181017862], [0.4692830223283075, -0.19655799526205012], [0.3063896805601884, -0.036788685454167226], [0.2471196723673293, -0.2344474043623998]]",density,white,,,1301830,visual,1,[],"['1', '2', '3', '4']",1,2023.2.3,harveyvisual,2.1,[],8,0.75,
0,pause,0.4,None,None,None,0,217,217,217,,,,,,,,,,,1,78.18924808502197,1301830,visual,1,[],"['1', '2', '3', '4']",1,2023.2.3,harveyvisual,2.1,[],8,0.75,
4,dot,0.3,['dot'],['density'],black,0,218,218,218,,,78.70022106170654,78.40830516815186,78.70814299583435,dot,"[0.1, 0.06, 0.06, 0.06]","[[-0.045256114861740894, 0.2798656300268403], [-0.02131053084637037, 0.4849425601475732], [0.17666180860848907, 0.34430389164600056], [0.0747630441556118, 0.10387908342824508]]",density,black,,,1301830,visual,1,[],"['1', '2', '3', '4']",1,2023.2.3,harveyvisual,2.1,[],8,0.75,
0,pause,0.4,None,None,None,0,219,219,219,,,,,,,,,,,,,1301830,visual,1,[],"['1', '2', '3', '4']",1,2023.2.3,harveyvisual,2.1,[],8,0.75,
4,dot,0.3,['dot'],['density'],black,0,220,220,220,,,79.40022301673889,79.10819602012634,79.4082989692688,dot,"[0.06, 0.1, 0.06, 0.08]","[[0.010836700166572746, 0.3385055392368038], [-0.21755291078517647, 0.23172276430217797], [0.04881011250022837, 0.13413393103699342], [-0.16894730197854985, 0.4434327172909165]]",density,black,,,1301830,visual,1,[],"['1', '2', '3', '4']",1,2023.2.3,harveyvisual,2.1,[],8,0.75,
0,pause,0.4,None,None,None,0,221,221,221,,,,,,,,,,,,,1301830,visual,1,[],"['1', '2', '3', '4']",1,2023.2.3,harveyvisual,2.1,[],8,0.75,
4,dot,0.3,['dot'],['density'],black,0,222,222,222,,,80.10023903846741,79.80829095840454,80.1082661151886,dot,"[0.1, 0.06, 0.1, 0.08]","[[0.3510671072586959, 0.39105757673094776], [0.13754249634966464, 0.24690230999823115], [0.2791454519284172, 0.028997379515453933], [0.42442503262497266, 0.18132357243737673]]",density,black,,,1301830,visual,1,[],"['1', '2', '3', '4']",1,2023.2.3,harveyvisual,2.1,[],8,0.75,
0,pause,0.4,None,None,None,0,223,223,223,,,,,,,,,,,,,1301830,visual,1,[],"['1', '2', '3', '4']",1,2023.2.3,harveyvisual,2.1,[],8,0.75,
4,dot,0.3,['dot'],['density'],black,0,224,224,224,,,80.8002381324768,80.50810599327087,80.80815005302429,dot,"[0.06, 0.06, 0.08, 0.1]","[[0.17852470546651972, -0.2012438881607824], [-0.031034799765910746, -0.12466087783573923], [0.008996399474264666, -0.3229379719524122], [0.15114343287780646, 0.03986859122442722]]",density,black,,,1301830,visual,1,[],"['1', '2', '3', '4']",1,2023.2.3,harveyvisual,2.1,[],8,0.75,
0,pause,0.4,None,None,None,0,225,225,225,,,,,,,,,,,,,1301830,visual,1,[],"['1', '2', '3', '4']",1,2023.2.3,harveyvisual,2.1,[],8,0.75,
4,dot,0.3,['dot'],['density'],black,0,226,226,226,,,81.500244140625,81.20807003974915,81.50809407234192,dot,"[0.06, 0.1, 0.06, 0.1]","[[0.28769160010247724, 0.4706884012140322], [0.03735362687931127, 0.4645781312677133], [0.33102019499247487, 0.1847810932959147], [0.1685132699603264, 0.30497059043407926]]",density,black,,,1301830,visual,1,[],"['1', '2', '3', '4']",1,2023.2.3,harveyvisual,2.1,[],8,0.75,
0,pause,0.4,None,None,None,0,227,227,227,,,,,,,,,,,,,1301830,visual,1,[],"['1', '2', '3', '4']",1,2023.2.3,harveyvisual,2.1,[],8,0.75,
3,dot,0.3,['dot'],['density'],black,0,228,228,228,,,82.20024013519287,81.90808010101318,82.20806217193604,dot,"[0.06, 0.08, 0.1]","[[-0.5599668940784417, -0.1503624274944763], [-0.33715825845103314, -0.1742393560729378], [-0.447658281307079, 0.035586458508876644]]",density,black,,,1301830,visual,1,[],"['1', '2', '3', '4']",1,2023.2.3,harveyvisual,2.1,[],8,0.75,
0,pause,0.4,None,None,None,0,229,229,229,,,,,,,,,,,,,1301830,visual,1,[],"['1', '2', '3', '4']",1,2023.2.3,harveyvisual,2.1,[],8,0.75,
3,dot,0.3,['dot'],['density'],black,0,230,230,230,,,82.90024304389954,82.60812306404114,82.9080240726471,dot,"[0.06, 0.06, 0.08]","[[-0.15674404860239688, -0.25078459247658497], [0.006578924124220241, -0.41324131210186005], [0.06959682433872849, -0.20549031443856539]]",density,black,,,1301830,visual,1,[],"['1', '2', '3', '4']",1,2023.2.3,harveyvisual,2.1,[],8,0.75,
0,pause,0.4,None,None,None,0,231,231,231,,,,,,,,,,,,,1301830,visual,1,[],"['1', '2', '3', '4']",1,2023.2.3,harveyvisual,2.1,[],8,0.75,
3,dot,0.3,['dot'],['density'],black,0,232,232,232,,,83.60022616386414,83.30804109573364,83.60800814628601,dot,"[0.1, 0.06, 0.08]","[[0.4290032298944087, 0.1407520187648592], [0.22848299553954127, 0.06362144779139585], [0.3595680574788582, -0.09433362503040832]]",density,black,,,1301830,visual,1,[],"['1', '2', '3', '4']",1,2023.2.3,harveyvisual,2.1,[],8,0.75,
0,pause,0.4,None,None,None,0,233,233,233,,,,,,,,,,,,,1301830,visual,1,[],"['1', '2', '3', '4']",1,2023.2.3,harveyvisual,2.1,[],8,0.75,
3,dot,0.3,['dot'],['density'],black,0,234,234,234,,,84.30024695396423,84.00799512863159,84.30797910690308,dot,"[0.08, 0.06, 0.08]","[[0.1555504186016049, 0.15532406847092056], [-0.0680535881648269, 0.26220909641571793], [0.08533315121688807, 0.39122308779032533]]",density,black,,,1301830,visual,1,[],"['1', '2', '3', '4']",1,2023.2.3,harveyvisual,2.1,[],8,0.75,
0,pause,0.4,None,None,None,0,235,235,235,,,,,,,,,,,,,1301830,visual,1,[],"['1', '2', '3', '4']",1,2023.2.3,harveyvisual,2.1,[],8,0.75,
3,dot,0.3,['dot'],['density'],black,0,236,236,236,,,85.00023317337036,84.70804405212402,85.00819897651672,dot,"[0.08, 0.08, 0.06]","[[0.13574725429899362, -0.5423283227425341], [-0.036793286563257144, -0.3768814925557267], [0.16175487704753985, -0.3348017255345844]]",density,black,,,1301830,visual,1,[],"['1', '2', '3', '4']",1,2023.2.3,harveyvisual,2.1,[],8,0.75,
0,pause,0.4,None,None,None,0,237,237,237,,,,,,,,,,,,,1301830,visual,1,[],"['1', '2', '3', '4']",1,2023.2.3,harveyvisual,2.1,[],8,0.75,
3,dot,0.3,['dot'],['density'],black,0,238,238,238,,,85.70022511482239,85.40824604034424,85.70821595191956,dot,"[0.08, 0.1, 0.1]","[[-0.3391924794566746, 0.43027756448319565], [-0.33080415183405026, 0.2112686575961512], [-0.14277619127331137, 0.29962579604826906]]",density,black,,,1301830,visual,1,[],"['1', '2', '3', '4']",1,2023.2.3,harveyvisual,2.1,[],8,0.75,
0,pause,0.4,None,None,None,0,239,239,239,,,,,,,,,,,,,1301830,visual,1,[],"['1', '2', '3', '4']",1,2023.2.3,harveyvisual,2.1,[],8,0.75,
2,dot,0.3,['dot'],['density'],black,0,240,240,240,,,86.40024399757385,86.1081030368805,86.40810513496399,dot,"[0.06, 0.08]","[[-0.40295961353468523, -0.33947470962363085], [-0.23663605411983973, -0.22749761394439932]]",density,black,,,1301830,visual,1,[],"['1', '2', '3', '4']",1,2023.2.3,harveyvisual,2.1,[],8,0.75,
0,pause,0.4,None,None,None,0,241,241,241,,,,,,,,,,,,,1301830,visual,1,[],"['1', '2', '3', '4']",1,2023.2.3,harveyvisual,2.1,[],8,0.75,
2,dot,0.3,['dot'],['density'],black,0,242,242,242,,,87.10024499893188,86.80799412727356,87.1080801486969,dot,"[0.08, 0.06]","[[-0.22226122312079244, -0.00806926593831646], [-0.023245446524914906, -0.037240983575548024]]",density,black,,,1301830,visual,1,[],"['1', '2', '3', '4']",1,2023.2.3,harveyvisual,2.1,[],8,0.75,
0,pause,0.4,None,None,None,0,243,243,243,,,,,,,,,,,,,1301830,visual,1,[],"['1', '2', '3', '4']",1,2023.2.3,harveyvisual,2.1,[],8,0.75,
2,dot,0.3,['dot'],['density'],black,0,244,244,244,,,87.80023097991943,87.50796794891357,87.80792617797852,dot,"[0.06, 0.1]","[[0.28379985726396956, 0.19228106150028407], [0.10160376615595414, 0.2763535177041957]]",density,black,,,1301830,visual,1,[],"['1', '2', '3', '4']",1,2023.2.3,harveyvisual,2.1,[],8,0.75,
0,pause,0.4,None,None,None,0,245,245,245,,,,,,,,,,,,,1301830,visual,1,[],"['1', '2', '3', '4']",1,2023.2.3,harveyvisual,2.1,[],8,0.75,
2,dot,0.3,['dot'],['density'],black,0,246,246,246,,,88.50024008750916,88.20795917510986,88.50809216499329,dot,"[0.1, 0.06]","[[0.4162662019019998, 0.09129510669171749], [0.33420900269466314, 0.27427456354974017]]",density,black,,,1301830,visual,1,[],"['1', '2', '3', '4']",1,2023.2.3,harveyvisual,2.1,[],8,0.75,
0,pause,0.4,None,None,None,0,247,247,247,,,,,,,,,,,,,1301830,visual,1,[],"['1', '2', '3', '4']",1,2023.2.3,harveyvisual,2.1,[],8,0.75,
2,dot,0.3,['dot'],['density'],black,0,248,248,248,,,89.20024609565735,88.90790009498596,89.2078709602356,dot,"[0.1, 0.1]","[[0.28379985726396956, 0.19228106150028407], [0.10160376615595414, 0.2763535177041957]]",density,black,,,1301830,visual,1,[],"['1', '2', '3', '4']",1,2023.2.3,harveyvisual,2.1,[],8,0.75,
0,pause,0.4,None,None,None,0,249,249,249,,,,,,,,,,,,,1301830,visual,1,[],"['1', '2', '3', '4']",1,2023.2.3,harveyvisual,2.1,[],8,0.75,
2,dot,0.3,['dot'],['density'],black,0,250,250,250,,,89.90024709701538,89.60787200927734,89.90785217285156,dot,"[0.1, 0.1]","[[0.5590929928249944, 0.05901985638302875], [0.5065513741473344, -0.13409141480534237]]",density,black,,,1301830,visual,1,[],"['1', '2', '3', '4']",1,2023.2.3,harveyvisual,2.1,[],8,0.75,
0,pause,0.4,None,None,None,0,251,251,251,,,,,,,,,,,,,1301830,visual,1,[],"['1', '2', '3', '4']",1,2023.2.3,harveyvisual,2.1,[],8,0.75,
1,dot,0.3,['dot'],['density'],white,0,252,252,252,,,90.6002471446991,90.30782699584961,90.60784101486206,dot,[0.08],"[0.00661777001411412, 0.39634766145863237]",density,white,,,1301830,visual,1,[],"['1', '2', '3', '4']",1,2023.2.3,harveyvisual,2.1,[],8,0.75,
0,pause,0.4,None,None,None,0,253,253,253,,,,,,,,,,,1,90.69772911071777,1301830,visual,1,[],"['1', '2', '3', '4']",1,2023.2.3,harveyvisual,2.1,[],8,0.75,
1,dot,0.3,['dot'],['density'],white,0,254,254,254,,,91.30022597312927,91.007817029953,91.30783915519714,dot,[0.06],"[-0.00037526000000685745, -0.027921386894572527]",density,white,,,1301830,visual,1,[],"['1', '2', '3', '4']",1,2023.2.3,harveyvisual,2.1,[],8,0.75,
0,pause,0.4,None,None,None,0,255,255,255,,,,,,,,,,,1,91.32982897758484,1301830,visual,1,[],"['1', '2', '3', '4']",1,2023.2.3,harveyvisual,2.1,[],8,0.75,
1,dot,0.3,['dot'],['density'],white,0,256,256,256,,,92.00022411346436,91.70779609680176,92.00771307945251,dot,[0.06],"[0.15956500649880873, 0.2640393008039057]",density,white,,,1301830,visual,1,[],"['1', '2', '3', '4']",1,2023.2.3,harveyvisual,2.1,[],8,0.75,
0,pause,0.4,None,None,None,0,257,257,257,,,,,,,,,,,1,91.98986911773682,1301830,visual,1,[],"['1', '2', '3', '4']",1,2023.2.3,harveyvisual,2.1,[],8,0.75,
1,dot,0.3,['dot'],['density'],black,0,258,258,258,,,92.70023798942566,92.40778112411499,92.70769715309143,dot,[0.1],"[-0.06064478149429028, 0.10204082006191012]",density,black,,,1301830,visual,1,[],"['1', '2', '3', '4']",1,2023.2.3,harveyvisual,2.1,[],8,0.75,
0,pause,0.4,None,None,None,0,259,259,259,,,,,,,,,,,,,1301830,visual,1,[],"['1', '2', '3', '4']",1,2023.2.3,harveyvisual,2.1,[],8,0.75,
1,dot,0.3,['dot'],['density'],black,0,260,260,260,,,93.40024614334106,93.10775113105774,93.40926599502563,dot,[0.08],"[0.075024325262877, 0.28946834799837856]",density,black,,,1301830,visual,1,[],"['1', '2', '3', '4']",1,2023.2.3,harveyvisual,2.1,[],8,0.75,
0,pause,0.4,None,None,None,0,261,261,261,,,,,,,,,,,,,1301830,visual,1,[],"['1', '2', '3', '4']",1,2023.2.3,harveyvisual,2.1,[],8,0.75,
1,dot,0.3,['dot'],['density'],black,0,262,262,262,,,94.10023713111877,93.80773496627808,94.10784316062927,dot,[0.06],"[-0.31757534052014, 0.30709612076893067]",density,black,,,1301830,visual,1,[],"['1', '2', '3', '4']",1,2023.2.3,harveyvisual,2.1,[],8,0.75,
0,pause,0.4,None,None,None,0,263,263,263,,,,,,,,,,,,,1301830,visual,1,[],"['1', '2', '3', '4']",1,2023.2.3,harveyvisual,2.1,[],8,0.75,
20,dot,0.3,['dot'],['density'],black,0,264,264,264,,,94.8002381324768,94.5244300365448,94.82441115379333,dot,"[0.08, 0.08, 0.08, 0.08, 0.06, 0.1, 0.06, 0.08, 0.08, 0.1, 0.08, 0.08, 0.06, 0.1, 0.06, 0.1, 0.06, 0.06, 0.08, 0.08]","[[-0.3773613643749452, -0.13238757899549358], [0.4848108021223746, -0.35791623252415433], [-0.0737898099329185, -0.3417507862860023], [0.12591373809121642, 0.17247639967590989], [0.4527465430618588, 0.006824827415211454], [0.14302445135206343, -0.11854477084885828], [-0.03652415920321217, 0.06922278922564284], [0.4648919891071438, 0.37194727532379507], [-0.15367208696623363, 0.35605261779209507], [0.06557289270459243, 0.39861171241597926], [-0.15010253969374987, -0.09540053034761287], [-0.3953925662543637, 0.17951231903866077], [0.1859269434443419, -0.43846856132483836], [-0.5773062283850767, 0.08189321838121916], [-0.3533316305802944, -0.3473192280705186], [0.5590924109729215, -0.15865631648515716], [-0.41118824508434504, 0.4002367909183848], [0.5703294758536496, 0.15991507473797406], [-0.5683767776318386, -0.1742638359315151], [-0.1815339697434989, -0.537070696120378]]",density,black,,,1301830,visual,1,[],"['1', '2', '3', '4']",1,2023.2.3,harveyvisual,2.1,[],8,0.75,
0,pause,0.4,None,None,None,0,265,265,265,,,,,,,,,,,,,1301830,visual,1,[],"['1', '2', '3', '4']",1,2023.2.3,harveyvisual,2.1,[],8,0.75,
20,dot,0.3,['dot'],['density'],black,0,266,266,266,,,95.50024914741516,95.22440600395203,95.52438807487488,dot,"[0.1, 0.08, 0.08, 0.08, 0.08, 0.1, 0.1, 0.06, 0.06, 0.1, 0.08, 0.06, 0.1, 0.08, 0.06, 0.08, 0.08, 0.08, 0.08, 0.1]","[[0.31535573183302845, -0.1964623707375011], [-0.34159985712497654, 0.48030989229904447], [-0.19739996997740494, -0.19588180229071261], [0.5238215821312427, -0.058768514742395084], [0.43983090537315006, 0.23971752243214883], [0.28393903008875643, 0.43811076874865973], [-0.09259971252925081, 0.2765649153369969], [-0.5352337197422886, 0.10395549676976962], [-0.40481403925967857, -0.34232733838581364], [-0.40772837318631083, -0.11078119545983472], [-0.07677014352417577, 0.49031823414534415], [0.14306482500953832, -0.4084949953518363], [-0.16972107989256846, -0.437828375312212], [0.050489242195548734, -0.08866711378774217], [0.13284154587233277, 0.17139182970541156], [0.4110539079506995, -0.3741449464927036], [-0.41625814178966614, 0.27034301766422886], [-0.25363196970509383, 0.0883137989946251], [0.10509970883200548, 0.5511460477229299], [-0.02545014185661265, -0.30190538109315096]]",density,black,,,1301830,visual,1,[],"['1', '2', '3', '4']",1,2023.2.3,harveyvisual,2.1,[],8,0.75,
