num,mod,duration,shape,ll_cond,colors,.thisRepN,.thisTrialN,.thisN,.thisIndex,thisRow.t,notes,raw_global_time,t_start,t_stop,shapes,size,pos,cond,color,button,RT,participant,session,starting_run,left button (match/odd),right button (non-match/even),samples_per_block,psychopy version,expName,offset,audio,number_runs,radius,
1,dot,0.3,['dot'],['density'],black,0,0,0,0,,,2.4002280235290527,2.1148171424865723,2.414797067642212,dot,[0.08],"[0.14557363600905707, -0.03994760510263185]",density,black,,,1301830,visual,1,[],"['1', '2', '3', '4']",1,2023.2.3,harveyvisual,2.1,[],8,0.75,
0,pause,0.4,None,None,None,0,1,1,1,,,,,,,,,,,,,1301830,visual,1,[],"['1', '2', '3', '4']",1,2023.2.3,harveyvisual,2.1,[],8,0.75,
1,dot,0.3,['dot'],['density'],black,0,2,2,2,,,3.100208044052124,2.7981059551239014,3.115460157394409,dot,[0.06],"[-0.045934412585722416, -0.12236734128406912]",density,black,,,1301830,visual,1,[],"['1', '2', '3', '4']",1,2023.2.3,harveyvisual,2.1,[],8,0.75,
0,pause,0.4,None,None,None,0,3,3,3,,,,,,,,,,,,,1301830,visual,1,[],"['1', '2', '3', '4']",1,2023.2.3,harveyvisual,2.1,[],8,0.75,
1,dot,0.3,['dot'],['density'],black,0,4,4,4,,,3.8002049922943115,3.5155110359191895,3.8156111240386963,dot,[0.06],"[0.43730911014729085, 0.38068286015665653]",density,black,,,1301830,visual,1,[],"['1', '2', '3', '4']",1,2023.2.3,harveyvisual,2.1,[],8,0.75,
0,pause,0.4,None,None,None,0,5,5,5,,,,,,,,,,,,,1301830,visual,1,[],"['1', '2', '3', '4']",1,2023.2.3,harveyvisual,2.1,[],8,0.75,
1,dot,0.3,['dot'],['density'],black,0,6,6,6,,,4.500226974487305,4.2156031131744385,4.5155651569366455,dot,[0.06],"[0.25023401086931774, -0.3984124620602511]",density,black,,,1301830,visual,1,[],"['1', '2', '3', '4']",1,2023.2.3,harveyvisual,2.1,[],8,0.75,
0,pause,0.4,None,None,None,0,7,7,7,,,,,,,,,,,,,1301830,visual,1,[],"['1', '2', '3', '4']",1,2023.2.3,harveyvisual,2.1,[],8,0.75,
1,dot,0.3,['dot'],['density'],black,0,8,8,8,,,5.200210094451904,4.915227174758911,5.215559959411621,dot,[0.08],"[0.01430498756481247, 0.36429701967127975]",density,black,,,1301830,visual,1,[],"['1', '2', '3', '4']",1,2023.2.3,harveyvisual,2.1,[],8,0.75,
0,pause,0.4,None,None,None,0,9,9,9,,,,,,,,,,,,,1301830,visual,1,[],"['1', '2', '3', '4']",1,2023.2.3,harveyvisual,2.1,[],8,0.75,
1,dot,0.3,['dot'],['density'],black,0,10,10,10,,,5.900206089019775,5.617624998092651,5.917618036270142,dot,[0.08],"[-0.22364231775977078, 0.4637426405669522]",density,black,,,1301830,visual,1,[],"['1', '2', '3', '4']",1,2023.2.3,harveyvisual,2.1,[],8,0.75,
0,pause,0.4,None,None,None,0,11,11,11,,,,,,,,,,,,,1301830,visual,1,[],"['1', '2', '3', '4']",1,2023.2.3,harveyvisual,2.1,[],8,0.75,
2,dot,0.3,['dot'],['density'],black,0,12,12,12,,,6.600223064422607,6.317640066146851,6.61761999130249,dot,"[0.1, 0.1]","[[0.21195259569903124, -0.4986433684978455], [0.023877440871594643, -0.42921284787985464]]",density,black,,,1301830,visual,1,[],"['1', '2', '3', '4']",1,2023.2.3,harveyvisual,2.1,[],8,0.75,
0,pause,0.4,None,None,None,0,13,13,13,,,,,,,,,,,,,1301830,visual,1,[],"['1', '2', '3', '4']",1,2023.2.3,harveyvisual,2.1,[],8,0.75,
2,dot,0.3,['dot'],['density'],black,0,14,14,14,,,7.300206184387207,7.0174500942230225,7.317461013793945,dot,"[0.1, 0.08]","[[-0.16440981108753766, 0.5378091218652469], [-0.08422838651173449, 0.35445914222875186]]",density,black,,,1301830,visual,1,[],"['1', '2', '3', '4']",1,2023.2.3,harveyvisual,2.1,[],8,0.75,
0,pause,0.4,None,None,None,0,15,15,15,,,,,,,,,,,,,1301830,visual,1,[],"['1', '2', '3', '4']",1,2023.2.3,harveyvisual,2.1,[],8,0.75,
2,dot,0.3,['dot'],['density'],black,0,16,16,16,,,8.000218152999878,7.717424154281616,8.017414093017578,dot,"[0.06, 0.1]","[[0.002249876020969301, 0.20442088447143333], [-0.056293345030126195, 0.39599742374220376]]",density,black,,,1301830,visual,1,[],"['1', '2', '3', '4']",1,2023.2.3,harveyvisual,2.1,[],8,0.75,
0,pause,0.4,None,None,None,0,17,17,17,,,,,,,,,,,,,1301830,visual,1,[],"['1', '2', '3', '4']",1,2023.2.3,harveyvisual,2.1,[],8,0.75,
2,dot,0.3,['dot'],['density'],black,0,18,18,18,,,8.70021104812622,8.417407035827637,8.717370986938477,dot,"[0.06, 0.08]","[[0.1851205616289071, -0.3624876981064337], [0.3405923022038234, -0.23608025195482504]]",density,black,,,1301830,visual,1,[],"['1', '2', '3', '4']",1,2023.2.3,harveyvisual,2.1,[],8,0.75,
0,pause,0.4,None,None,None,0,19,19,19,,,,,,,,,,,,,1301830,visual,1,[],"['1', '2', '3', '4']",1,2023.2.3,harveyvisual,2.1,[],8,0.75,
2,dot,0.3,['dot'],['density'],black,0,20,20,20,,,9.400225162506104,9.11736798286438,9.417366981506348,dot,"[0.06, 0.1]","[[-0.21141336561075566, 0.4273762957479495], [-0.1407142259739198, 0.23984948612333498]]",density,black,,,1301830,visual,1,[],"['1', '2', '3', '4']",1,2023.2.3,harveyvisual,2.1,[],8,0.75,
0,pause,0.4,None,None,None,0,21,21,21,,,,,,,,,,,,,1301830,visual,1,[],"['1', '2', '3', '4']",1,2023.2.3,harveyvisual,2.1,[],8,0.75,
2,dot,0.3,['dot'],['density'],black,0,22,22,22,,,10.100207090377808,9.817350149154663,10.117366075515747,dot,"[0.08, 0.06]","[[0.2713647219188039, -0.029235290058335472], [0.46697437826705046, 0.014145112521712659]]",density,black,,,1301830,visual,1,[],"['1', '2', '3', '4']",1,2023.2.3,harveyvisual,2.1,[],8,0.75,
0,pause,0.4,None,None,None,0,23,23,23,,,,,,,,,,,,,1301830,visual,1,[],"['1', '2', '3', '4']",1,2023.2.3,harveyvisual,2.1,[],8,0.75,
3,dot,0.3,['dot'],['density'],black,0,24,24,24,,,10.800223112106323,10.517383098602295,10.817361116409302,dot,"[0.1, 0.1, 0.1]","[[0.348550694073714, -0.26372109460002424], [0.5073713069625243, -0.14206826334288786], [0.3419709386041379, 0.005891602819957491]]",density,black,,,1301830,visual,1,[],"['1', '2', '3', '4']",1,2023.2.3,harveyvisual,2.1,[],8,0.75,
0,pause,0.4,None,None,None,0,25,25,25,,,,,,,,,,,,,1301830,visual,1,[],"['1', '2', '3', '4']",1,2023.2.3,harveyvisual,2.1,[],8,0.75,
3,dot,0.3,['dot'],['density'],black,0,26,26,26,,,11.500203132629395,11.21732497215271,11.517297983169556,dot,"[0.1, 0.08, 0.06]","[[0.06695044750400271, -0.4036822973150869], [0.2898428615912539, -0.43752325319744867], [0.2484486434572057, -0.2241911098289173]]",density,black,,,1301830,visual,1,[],"['1', '2', '3', '4']",1,2023.2.3,harveyvisual,2.1,[],8,0.75,
0,pause,0.4,None,None,None,0,27,27,27,,,,,,,,,,,,,1301830,visual,1,[],"['1', '2', '3', '4']",1,2023.2.3,harveyvisual,2.1,[],8,0.75,
3,dot,0.3,['dot'],['density'],black,0,28,28,28,,,12.20022702217102,11.917327165603638,12.217316150665283,dot,"[0.08, 0.08, 0.1]","[[-0.5649268285189266, -0.02945458741690218], [-0.36332336008090005, 0.05160617148840915], [-0.5004673786076542, 0.20230308468415367]]",density,black,,,1301830,visual,1,[],"['1', '2', '3', '4']",1,2023.2.3,harveyvisual,2.1,[],8,0.75,
0,pause,0.4,None,None,None,0,29,29,29,,,,,,,,,,,,,1301830,visual,1,[],"['1', '2', '3', '4']",1,2023.2.3,harveyvisual,2.1,[],8,0.75,
3,dot,0.3,['dot'],['density'],black,0,30,30,30,,,12.900202989578247,12.61733102798462,12.917464017868042,dot,"[0.1, 0.06, 0.08]","[[0.11213305146232053, -0.07893917948794166], [0.05639720131197772, -0.2966044022377523], [-0.1031859716129837, -0.13437008874356654]]",density,black,,,1301830,visual,1,[],"['1', '2', '3', '4']",1,2023.2.3,harveyvisual,2.1,[],8,0.75,
0,pause,0.4,None,None,None,0,31,31,31,,,,,,,,,,,,,1301830,visual,1,[],"['1', '2', '3', '4']",1,2023.2.3,harveyvisual,2.1,[],8,0.75,
3,dot,0.3,['dot'],['density'],black,0,32,32,32,,,13.600208044052124,13.3174569606781,13.617475032806396,dot,"[0.08, 0.1, 0.06]","[[0.11213305146232053, -0.07893917948794166], [0.05639720131197772, -0.2966044022377523], [-0.1031859716129837, -0.13437008874356654]]",density,black,,,1301830,visual,1,[],"['1', '2', '3', '4']",1,2023.2.3,harveyvisual,2.1,[],8,0.75,
0,pause,0.4,None,None,None,0,33,33,33,,,,,,,,,,,,,1301830,visual,1,[],"['1', '2', '3', '4']",1,2023.2.3,harveyvisual,2.1,[],8,0.75,
3,dot,0.3,['dot'],['density'],black,0,34,34,34,,,14.300225019454956,14.017465114593506,14.317471981048584,dot,"[0.06, 0.1, 0.08]","[[-0.021384933427115945, -0.26055744462645497], [0.16478637362895734, -0.404980755917603], [-0.025077849445719256, -0.48190209473619267]]",density,black,,,1301830,visual,1,[],"['1', '2', '3', '4']",1,2023.2.3,harveyvisual,2.1,[],8,0.75,
0,pause,0.4,None,None,None,0,35,35,35,,,,,,,,,,,,,1301830,visual,1,[],"['1', '2', '3', '4']",1,2023.2.3,harveyvisual,2.1,[],8,0.75,
4,dot,0.3,['dot'],['density'],black,0,36,36,36,,,15.000205039978027,14.717487096786499,15.017484188079834,dot,"[0.06, 0.08, 0.1, 0.1]","[[-0.3130108772186628, 0.4658633188731559], [0.06875292536802097, 0.3619778545149697], [-0.12928423743784842, 0.28835211797578114], [-0.08764786508193922, 0.5151731075523892]]",density,black,,,1301830,visual,1,[],"['1', '2', '3', '4']",1,2023.2.3,harveyvisual,2.1,[],8,0.75,
0,pause,0.4,None,None,None,0,37,37,37,,,,,,,,,,,,,1301830,visual,1,[],"['1', '2', '3', '4']",1,2023.2.3,harveyvisual,2.1,[],8,0.75,
4,dot,0.3,['dot'],['density'],black,0,38,38,38,,,15.70021104812622,15.417376041412354,15.717369079589844,dot,"[0.06, 0.08, 0.1, 0.06]","[[0.012521055699324385, 0.11356654047594222], [0.23234191260135498, 0.08597184236642744], [-0.1711309036876675, 0.020891973622313913], [0.11376048882462075, -0.09104804463782627]]",density,black,,,1301830,visual,1,[],"['1', '2', '3', '4']",1,2023.2.3,harveyvisual,2.1,[],8,0.75,
0,pause,0.4,None,None,None,0,39,39,39,,,,,,,,,,,,,1301830,visual,1,[],"['1', '2', '3', '4']",1,2023.2.3,harveyvisual,2.1,[],8,0.75,
4,dot,0.3,['dot'],['density'],black,0,40,40,40,,,16.400213956832886,16.117375135421753,16.417330980300903,dot,"[0.06, 0.08, 0.06, 0.06]","[[-0.42715721775789556, -0.3806885655784049], [-0.5104054706627589, -0.18016651458941194], [-0.409412055521987, 0.008153849732111747], [-0.2456709064377862, -0.21492281530681134]]",density,black,,,1301830,visual,1,[],"['1', '2', '3', '4']",1,2023.2.3,harveyvisual,2.1,[],8,0.75,
0,pause,0.4,None,None,None,0,41,41,41,,,,,,,,,,,,,1301830,visual,1,[],"['1', '2', '3', '4']",1,2023.2.3,harveyvisual,2.1,[],8,0.75,
4,dot,0.3,['dot'],['density'],black,0,42,42,42,,,17.10022807121277,16.817326068878174,17.117300987243652,dot,"[0.08, 0.1, 0.1, 0.06]","[[0.06241226843583792, -0.3147100539198924], [0.2553405417111816, -0.24584579293690137], [0.0027514156828475403, -0.09786489187307437], [0.1660279615748852, 0.026007470517245626]]",density,black,,,1301830,visual,1,[],"['1', '2', '3', '4']",1,2023.2.3,harveyvisual,2.1,[],8,0.75,
0,pause,0.4,None,None,None,0,43,43,43,,,,,,,,,,,,,1301830,visual,1,[],"['1', '2', '3', '4']",1,2023.2.3,harveyvisual,2.1,[],8,0.75,
4,dot,0.3,['dot'],['density'],black,0,44,44,44,,,17.80022406578064,17.517317056655884,17.817315101623535,dot,"[0.08, 0.1, 0.06, 0.1]","[[-0.1807894278345534, -0.050693892368996955], [-0.03778933673514029, -0.29773510453537966], [0.0747201162679791, -0.1287424711559737], [-0.02241484737224569, 0.07404475448468936]]",density,black,,,1301830,visual,1,[],"['1', '2', '3', '4']",1,2023.2.3,harveyvisual,2.1,[],8,0.75,
0,pause,0.4,None,None,None,0,45,45,45,,,,,,,,,,,,,1301830,visual,1,[],"['1', '2', '3', '4']",1,2023.2.3,harveyvisual,2.1,[],8,0.75,
4,dot,0.3,['dot'],['density'],black,0,46,46,46,,,18.500221967697144,18.217281103134155,18.517292976379395,dot,"[0.08, 0.06, 0.06, 0.06]","[[-0.2516773625496151, -0.30151264897341506], [-0.16747001932966935, -0.11477707456203952], [0.007305472957725734, -0.4586877449884055], [0.017540980065453668, -0.20354321808263612]]",density,black,,,1301830,visual,1,[],"['1', '2', '3', '4']",1,2023.2.3,harveyvisual,2.1,[],8,0.75,
0,pause,0.4,None,None,None,0,47,47,47,,,,,,,,,,,,,1301830,visual,1,[],"['1', '2', '3', '4']",1,2023.2.3,harveyvisual,2.1,[],8,0.75,
5,dot,0.3,['dot'],['density'],black,0,48,48,48,,,19.200210094451904,18.917129039764404,19.217103958129883,dot,"[0.08, 0.1, 0.1, 0.1, 0.08]","[[0.10558973120531606, -0.20428866875977839], [-0.0893225412758366, 0.16524926947551877], [-0.05793580974794309, -0.07826743033729393], [0.11130747138107101, 0.10875249109580729], [0.28035132100960686, -0.09064984251937742]]",density,black,,,1301830,visual,1,[],"['1', '2', '3', '4']",1,2023.2.3,harveyvisual,2.1,[],8,0.75,
0,pause,0.4,None,None,None,0,49,49,49,,,,,,,,,,,,,1301830,visual,1,[],"['1', '2', '3', '4']",1,2023.2.3,harveyvisual,2.1,[],8,0.75,
5,dot,0.3,['dot'],['density'],black,0,50,50,50,,,19.900207996368408,19.61709213256836,19.917073965072632,dot,"[0.06, 0.1, 0.06, 0.1, 0.08]","[[-0.2338402938730933, 0.15846616122991625], [-0.3229678957369872, -0.0901175890533356], [-0.5034912146055804, 0.021834460539281654], [-0.23914892391179104, -0.28496604153387733], [-0.10132718886958789, -0.1172648190903725]]",density,black,,,1301830,visual,1,[],"['1', '2', '3', '4']",1,2023.2.3,harveyvisual,2.1,[],8,0.75,
0,pause,0.4,None,None,None,0,51,51,51,,,,,,,,,,,,,1301830,visual,1,[],"['1', '2', '3', '4']",1,2023.2.3,harveyvisual,2.1,[],8,0.75,
5,dot,0.3,['dot'],['density'],black,0,52,52,52,,,20.600205183029175,20.317070960998535,20.617051124572754,dot,"[0.08, 0.06, 0.06, 0.06, 0.1]","[[0.10558973120531606, -0.20428866875977839], [-0.0893225412758366, 0.16524926947551877], [-0.05793580974794309, -0.07826743033729393], [0.11130747138107101, 0.10875249109580729], [0.28035132100960686, -0.09064984251937742]]",density,black,,,1301830,visual,1,[],"['1', '2', '3', '4']",1,2023.2.3,harveyvisual,2.1,[],8,0.75,
0,pause,0.4,None,None,None,0,53,53,53,,,,,,,,,,,,,1301830,visual,1,[],"['1', '2', '3', '4']",1,2023.2.3,harveyvisual,2.1,[],8,0.75,
5,dot,0.3,['dot'],['density'],white,0,54,54,54,,,21.300207138061523,21.0170841217041,21.31703209877014,dot,"[0.1, 0.06, 0.08, 0.08, 0.08]","[[-0.13250041589442924, 0.4634743177333449], [-0.03625216126902591, 0.28212032656479163], [0.10864293512180892, 0.5244886061775208], [-0.2806491611955352, 0.29160063440784684], [-0.17458602784440078, 0.11997474961663163]]",density,white,,,1301830,visual,1,[],"['1', '2', '3', '4']",1,2023.2.3,harveyvisual,2.1,[],8,0.75,
0,pause,0.4,None,None,None,0,55,55,55,,,,,,,,,,,1,21.415462017059326,1301830,visual,1,[],"['1', '2', '3', '4']",1,2023.2.3,harveyvisual,2.1,[],8,0.75,
5,dot,0.3,['dot'],['density'],black,0,56,56,56,,,22.000209093093872,21.717045068740845,22.017027139663696,dot,"[0.08, 0.1, 0.06, 0.08, 0.06]","[[-0.10197385386246118, 0.24760023034087644], [-0.014646448823952617, 0.47519555304773536], [-0.21360058910662874, 0.441350445979826], [-0.3878570731713836, 0.20534708698022924], [-0.24187982362067023, 0.06730525069120082]]",density,black,,,1301830,visual,1,[],"['1', '2', '3', '4']",1,2023.2.3,harveyvisual,2.1,[],8,0.75,
0,pause,0.4,None,None,None,0,57,57,57,,,,,,,,,,,,,1301830,visual,1,[],"['1', '2', '3', '4']",1,2023.2.3,harveyvisual,2.1,[],8,0.75,
5,dot,0.3,['dot'],['density'],black,0,58,58,58,,,22.700220108032227,22.41702699661255,22.71703314781189,dot,"[0.06, 0.1, 0.06, 0.06, 0.08]","[[0.08548847697718086, 0.4135790235028826], [-0.012611048966726563, 0.22662400259503446], [0.27435170057987585, 0.4853016025774898], [-0.23063129862993442, 0.3109017384705433], [-0.11887524344887646, 0.49040580377695175]]",density,black,,,1301830,visual,1,[],"['1', '2', '3', '4']",1,2023.2.3,harveyvisual,2.1,[],8,0.75,
0,pause,0.4,None,None,None,0,59,59,59,,,,,,,,,,,,,1301830,visual,1,[],"['1', '2', '3', '4']",1,2023.2.3,harveyvisual,2.1,[],8,0.75,
6,dot,0.3,['dot'],['density'],white,0,60,60,60,,,23.40020513534546,23.11700201034546,23.416980028152466,dot,"[0.08, 0.06, 0.08, 0.08, 0.08, 0.08]","[[-0.36874454135919904, -0.07559312273534534], [-0.010504004432700158, -0.20559114413973084], [-0.17044584652251332, 0.17221059634863578], [-0.26251446752681207, -0.3074850979938877], [0.06633568674208327, -0.020893677029436595], [-0.1538914639536258, -0.02772778393149798]]",density,white,,,1301830,visual,1,[],"['1', '2', '3', '4']",1,2023.2.3,harveyvisual,2.1,[],8,0.75,
0,pause,0.4,None,None,None,0,61,61,61,,,,,,,,,,,1,23.532744884490967,1301830,visual,1,[],"['1', '2', '3', '4']",1,2023.2.3,harveyvisual,2.1,[],8,0.75,
6,dot,0.3,['dot'],['density'],white,0,62,62,62,,,24.100205183029175,23.817016124725342,24.117000102996826,dot,"[0.1, 0.08, 0.06, 0.06, 0.08, 0.1]","[[0.1442800129286608, -0.025670240792647715], [-0.253335145558221, 0.06312541807928282], [0.15340240856287354, 0.2410349392962658], [-0.1639657784688781, 0.25075335361279655], [-0.07910231793701084, -0.12784096878077061], [-0.011661193723423325, 0.11361106492824657]]",density,white,,,1301830,visual,1,[],"['1', '2', '3', '4']",1,2023.2.3,harveyvisual,2.1,[],8,0.75,
0,pause,0.4,None,None,None,0,63,63,63,,,,,,,,,,,1,24.168943881988525,1301830,visual,1,[],"['1', '2', '3', '4']",1,2023.2.3,harveyvisual,2.1,[],8,0.75,
6,dot,0.3,['dot'],['density'],black,0,64,64,64,,,24.800212144851685,24.516955137252808,24.816956043243408,dot,"[0.1, 0.1, 0.1, 0.1, 0.06, 0.08]","[[-0.24492162854676555, 0.16704436901929823], [-0.3861886513150086, 0.35601694661450933], [-0.48514013682315105, 0.15596888098880124], [-0.5451465436738104, -0.12931683943359434], [-0.11772959853104834, 0.007676420150436517], [-0.35755989064212684, -0.03355234579502648]]",density,black,,,1301830,visual,1,[],"['1', '2', '3', '4']",1,2023.2.3,harveyvisual,2.1,[],8,0.75,
0,pause,0.4,None,None,None,0,65,65,65,,,,,,,,,,,,,1301830,visual,1,[],"['1', '2', '3', '4']",1,2023.2.3,harveyvisual,2.1,[],8,0.75,
6,dot,0.3,['dot'],['density'],black,0,66,66,66,,,25.500224113464355,25.216938972473145,25.516918182373047,dot,"[0.08, 0.1, 0.06, 0.06, 0.08, 0.1]","[[0.500827999951601, -0.23304028533624072], [0.20916386845998064, 0.08030245107060778], [0.27809793757338463, -0.1905950399710685], [0.08327260932553728, -0.13599284299194644], [0.16768982653485215, -0.38480252821003114], [0.4174962964646186, 0.01069632702004041]]",density,black,,,1301830,visual,1,[],"['1', '2', '3', '4']",1,2023.2.3,harveyvisual,2.1,[],8,0.75,
0,pause,0.4,None,None,None,0,67,67,67,,,,,,,,,,,,,1301830,visual,1,[],"['1', '2', '3', '4']",1,2023.2.3,harveyvisual,2.1,[],8,0.75,
6,dot,0.3,['dot'],['density'],black,0,68,68,68,,,26.200216054916382,25.91693615913391,26.21701407432556,dot,"[0.06, 0.1, 0.06, 0.08, 0.1, 0.06]","[[0.1382403832049451, 0.0462086450304607], [-0.07534018949214154, -0.3274433807795599], [0.3332171610134826, -0.14895102818546319], [0.22614943412716124, -0.3322834867125916], [-0.0756450994425101, -0.005640117700353421], [0.0938048843888254, -0.16909843217532775]]",density,black,,,1301830,visual,1,[],"['1', '2', '3', '4']",1,2023.2.3,harveyvisual,2.1,[],8,0.75,
0,pause,0.4,None,None,None,0,69,69,69,,,,,,,,,,,,,1301830,visual,1,[],"['1', '2', '3', '4']",1,2023.2.3,harveyvisual,2.1,[],8,0.75,
6,dot,0.3,['dot'],['density'],black,0,70,70,70,,,26.900220155715942,26.616902112960815,26.916908025741577,dot,"[0.08, 0.1, 0.08, 0.1, 0.08, 0.08]","[[-0.36874454135919904, -0.07559312273534534], [-0.010504004432700158, -0.20559114413973084], [-0.17044584652251332, 0.17221059634863578], [-0.26251446752681207, -0.3074850979938877], [0.06633568674208327, -0.020893677029436595], [-0.1538914639536258, -0.02772778393149798]]",density,black,,,1301830,visual,1,[],"['1', '2', '3', '4']",1,2023.2.3,harveyvisual,2.1,[],8,0.75,
0,pause,0.4,None,None,None,0,71,71,71,,,,,,,,,,,,,1301830,visual,1,[],"['1', '2', '3', '4']",1,2023.2.3,harveyvisual,2.1,[],8,0.75,
7,dot,0.3,['dot'],['density'],black,0,72,72,72,,,27.600223064422607,27.316884994506836,27.616880178451538,dot,"[0.08, 0.1, 0.06, 0.08, 0.08, 0.06, 0.06]","[[0.43636558899465056, -0.019888822856555858], [0.3422654810486562, -0.28596623187093184], [0.19265053263460555, -0.4439876245838232], [0.13726272111749335, -0.2453614523272762], [0.002381890354708078, -0.04768315945896726], [0.5336827108411983, -0.21507725682246784], [0.22437755209563529, -0.002563521851875305]]",density,black,,,1301830,visual,1,[],"['1', '2', '3', '4']",1,2023.2.3,harveyvisual,2.1,[],8,0.75,
0,pause,0.4,None,None,None,0,73,73,73,,,,,,,,,,,,,1301830,visual,1,[],"['1', '2', '3', '4']",1,2023.2.3,harveyvisual,2.1,[],8,0.75,
7,dot,0.3,['dot'],['density'],white,0,74,74,74,,,28.300225019454956,28.016873121261597,28.316887140274048,dot,"[0.1, 0.06, 0.1, 0.08, 0.06, 0.08, 0.06]","[[0.3350011905151264, 0.09255159473130091], [-0.07424962927914175, -0.2643067362759337], [-0.0068732696698998825, 0.04948606721470151], [0.12855319879406235, -0.3381192636220083], [0.11551090787938859, 0.24000211478775196], [0.3415900712266813, -0.1269386107563701], [0.14228147320501944, -0.08533637750285226]]",density,white,,,1301830,visual,1,[],"['1', '2', '3', '4']",1,2023.2.3,harveyvisual,2.1,[],8,0.75,
0,pause,0.4,None,None,None,0,75,75,75,,,,,,,,,,,1,28.507375955581665,1301830,visual,1,[],"['1', '2', '3', '4']",1,2023.2.3,harveyvisual,2.1,[],8,0.75,
7,dot,0.3,['dot'],['density'],black,0,76,76,76,,,29.00022006034851,28.71689009666443,29.016914129257202,dot,"[0.06, 0.06, 0.06, 0.1, 0.06, 0.06, 0.06]","[[0.3474653327129969, -0.31878285251617694], [0.04167069501601444, -0.04495125607964222], [-0.05005146056072613, -0.501422524998621], [-0.11295401278341419, -0.30095052262615135], [0.08710344590613708, -0.2932726077696002], [0.25592372840254046, -0.13825923460737455], [-0.15770825932276006, -0.07757053521742455]]",density,black,,,1301830,visual,1,[],"['1', '2', '3', '4']",1,2023.2.3,harveyvisual,2.1,[],8,0.75,
0,pause,0.4,None,None,None,0,77,77,77,,,,,,,,,,,,,1301830,visual,1,[],"['1', '2', '3', '4']",1,2023.2.3,harveyvisual,2.1,[],8,0.75,
7,dot,0.3,['dot'],['density'],black,0,78,78,78,,,29.70022201538086,29.41683316230774,29.71681499481201,dot,"[0.1, 0.08, 0.06, 0.06, 0.08, 0.1, 0.06]","[[-0.4260259763687212, 0.0015611622021723967], [-0.003169876971998007, 0.13415651360788267], [-0.2586764037849864, 0.4417783913692737], [-0.4397986643511286, 0.306274470342183], [-0.0069778791964768315, 0.3653924841843964], [-0.25662591460159173, 0.21046748777052526], [-0.17930648864359452, 0.007725268650954965]]",density,black,,,1301830,visual,1,[],"['1', '2', '3', '4']",1,2023.2.3,harveyvisual,2.1,[],8,0.75,
0,pause,0.4,None,None,None,0,79,79,79,,,,,,,,,,,,,1301830,visual,1,[],"['1', '2', '3', '4']",1,2023.2.3,harveyvisual,2.1,[],8,0.75,
7,dot,0.3,['dot'],['density'],black,0,80,80,80,,,30.400207996368408,30.1169331073761,30.416840076446533,dot,"[0.1, 0.1, 0.1, 0.1, 0.1, 0.06, 0.1]","[[0.3899189512010899, -0.40728696153528776], [0.20392863561369634, -0.3305625840210526], [0.31626985815109576, 0.13567824844623666], [0.5017338684339655, -0.028549680114735937], [0.11648855723187378, -0.1078833072829627], [0.07041138378868489, 0.08730219371944997], [0.32910598476010167, -0.13660711058181768]]",density,black,,,1301830,visual,1,[],"['1', '2', '3', '4']",1,2023.2.3,harveyvisual,2.1,[],8,0.75,
0,pause,0.4,None,None,None,0,81,81,81,,,,,,,,,,,,,1301830,visual,1,[],"['1', '2', '3', '4']",1,2023.2.3,harveyvisual,2.1,[],8,0.75,
7,dot,0.3,['dot'],['density'],black,0,82,82,82,,,31.100205183029175,30.816806077957153,31.1169171333313,dot,"[0.08, 0.1, 0.08, 0.08, 0.08, 0.08, 0.1]","[[0.2037857981676222, -0.1815971672986122], [0.4890839798603071, 0.25295445478885614], [0.1294833597440532, 0.050421522491765555], [0.5249724357971474, 0.014331621614536631], [0.4084294087299191, -0.1546943519977724], [0.31356179590401956, 0.13415696527685209], [-0.016262925640377804, -0.1588315022511765]]",density,black,,,1301830,visual,1,[],"['1', '2', '3', '4']",1,2023.2.3,harveyvisual,2.1,[],8,0.75,
0,pause,0.4,None,None,None,0,83,83,83,,,,,,,,,,,,,1301830,visual,1,[],"['1', '2', '3', '4']",1,2023.2.3,harveyvisual,2.1,[],8,0.75,
8,dot,0.3,['dot'],['density'],black,0,84,84,84,,,31.80021595954895,31.516783952713013,31.81675910949707,dot,"[0.06, 0.08, 0.08, 0.1, 0.06, 0.06, 0.08, 0.06]","[[-0.24177141476747963, 0.37227001522147646], [0.022885153928237218, 0.26973630011126315], [-0.028424808126663318, 0.474031493095366], [-0.14677856605916886, 0.1510981622513803], [-0.33541894344674456, 0.07730913931898181], [0.10840621230513336, 0.04997884008138209], [0.30094222783758756, 0.17024461371702543], [-0.056701880949321645, -0.08542646800774611]]",density,black,,,1301830,visual,1,[],"['1', '2', '3', '4']",1,2023.2.3,harveyvisual,2.1,[],8,0.75,
0,pause,0.4,None,None,None,0,85,85,85,,,,,,,,,,,,,1301830,visual,1,[],"['1', '2', '3', '4']",1,2023.2.3,harveyvisual,2.1,[],8,0.75,
8,dot,0.3,['dot'],['density'],black,0,86,86,86,,,32.5002281665802,32.21676301956177,32.51676797866821,dot,"[0.08, 0.1, 0.1, 0.06, 0.1, 0.08, 0.08, 0.08]","[[0.016639406518403475, -0.10031965053970064], [-0.49734137941811546, 0.023312718056099104], [0.03171158295547566, 0.2028207856397581], [-0.3777108616291506, 0.18827317115199685], [-0.2734124440264558, -0.20525012861841768], [-0.1742574757978524, 0.04093824739900491], [-0.17815403785603903, 0.26205888083036905], [-0.2502819750276768, 0.4804358206127844]]",density,black,,,1301830,visual,1,[],"['1', '2', '3', '4']",1,2023.2.3,harveyvisual,2.1,[],8,0.75,
0,pause,0.4,None,None,None,0,87,87,87,,,,,,,,,,,,,1301830,visual,1,[],"['1', '2', '3', '4']",1,2023.2.3,harveyvisual,2.1,[],8,0.75,
8,dot,0.3,['dot'],['density'],black,0,88,88,88,,,33.200234174728394,32.91678500175476,33.21677207946777,dot,"[0.1, 0.1, 0.06, 0.06, 0.06, 0.1, 0.08, 0.1]","[[-0.43120034012996816, -0.3965796075128045], [0.1478983624034229, -0.46770986256388064], [-0.23058307999139557, -0.3238539366063682], [-0.07988642296593639, -0.13993938361429092], [-0.08664795903044427, -0.5418074813242995], [0.11879255589163208, -0.1637425359681226], [-0.09873641234556067, 0.08705286872936738], [-0.025120016651009644, -0.34045580780112095]]",density,black,,,1301830,visual,1,[],"['1', '2', '3', '4']",1,2023.2.3,harveyvisual,2.1,[],8,0.75,
0,pause,0.4,None,None,None,0,89,89,89,,,,,,,,,,,,,1301830,visual,1,[],"['1', '2', '3', '4']",1,2023.2.3,harveyvisual,2.1,[],8,0.75,
8,dot,0.3,['dot'],['density'],black,0,90,90,90,,,33.900206089019775,33.61670112609863,33.916687965393066,dot,"[0.08, 0.08, 0.08, 0.1, 0.1, 0.08, 0.06, 0.08]","[[-0.19427332908310624, 0.44975086906229733], [-0.40583056883657587, 0.41268852933836647], [-0.1064323235824443, 0.09134240931295125], [0.037438273390647224, 0.2873761216870531], [-0.27580465694358225, 0.2567900319995576], [0.047234249799456944, 0.4983172858691376], [0.15563182967593078, 0.1192504703698398], [-0.32834908909536226, -0.014402300111889832]]",density,black,,,1301830,visual,1,[],"['1', '2', '3', '4']",1,2023.2.3,harveyvisual,2.1,[],8,0.75,
0,pause,0.4,None,None,None,0,91,91,91,,,,,,,,,,,,,1301830,visual,1,[],"['1', '2', '3', '4']",1,2023.2.3,harveyvisual,2.1,[],8,0.75,
8,dot,0.3,['dot'],['density'],black,0,92,92,92,,,34.6002299785614,34.31669211387634,34.61668014526367,dot,"[0.08, 0.1, 0.06, 0.1, 0.06, 0.1, 0.1, 0.1]","[[-0.16499387414028463, -0.418455346753131], [0.031011941373623824, -0.006148034068666969], [-0.4150712424924157, -0.28668557629476243], [-0.199054958380199, -0.21375968732837633], [-0.4870789535587041, 0.00515905815181239], [-0.198479811208303, 0.006815000109153054], [-0.3273741662815474, 0.19008037141614484], [0.04340096687518584, -0.25044408321713213]]",density,black,,,1301830,visual,1,[],"['1', '2', '3', '4']",1,2023.2.3,harveyvisual,2.1,[],8,0.75,
0,pause,0.4,None,None,None,0,93,93,93,,,,,,,,,,,,,1301830,visual,1,[],"['1', '2', '3', '4']",1,2023.2.3,harveyvisual,2.1,[],8,0.75,
8,dot,0.3,['dot'],['density'],black,0,94,94,94,,,35.30022406578064,35.016672134399414,35.31664800643921,dot,"[0.08, 0.06, 0.06, 0.06, 0.1, 0.06, 0.1, 0.08]","[[0.29210958841889567, 0.026991922891258572], [0.03093533645276146, 0.3258936230244337], [-0.13014708308220477, 0.20110385145229231], [0.463805327987396, 0.2670013362689149], [0.17887675575806267, 0.48912385903522404], [0.2495142025194702, 0.28253247413027655], [0.03200252102949923, -0.1932501096446728], [0.04457092617056691, 0.07668709382136672]]",density,black,,,1301830,visual,1,[],"['1', '2', '3', '4']",1,2023.2.3,harveyvisual,2.1,[],8,0.75,
0,pause,0.4,None,None,None,0,95,95,95,,,,,,,,,,,,,1301830,visual,1,[],"['1', '2', '3', '4']",1,2023.2.3,harveyvisual,2.1,[],8,0.75,
9,dot,0.3,['dot'],['density'],black,0,96,96,96,,,36.00021195411682,35.71671104431152,36.01668405532837,dot,"[0.06, 0.1, 0.1, 0.06, 0.08, 0.06, 0.06, 0.06, 0.1]","[[0.43694394638140777, -0.3313910020207278], [-0.12671083892604185, -0.2904925475365486], [0.20104083284362928, 0.10806727359081147], [0.1376754545064979, -0.09924520624161907], [0.19021248837847174, -0.31516489548878085], [0.3653456942078643, -0.09076399745187974], [0.1403131072824284, -0.5562242851951704], [-0.005445667935095978, 0.0898710966384087], [-0.11923067905189093, -0.07827803450029165]]",density,black,,,1301830,visual,1,[],"['1', '2', '3', '4']",1,2023.2.3,harveyvisual,2.1,[],8,0.75,
0,pause,0.4,None,None,None,0,97,97,97,,,,,,,,,,,,,1301830,visual,1,[],"['1', '2', '3', '4']",1,2023.2.3,harveyvisual,2.1,[],8,0.75,
9,dot,0.3,['dot'],['density'],black,0,98,98,98,,,36.70022916793823,36.416680097579956,36.71671509742737,dot,"[0.06, 0.06, 0.08, 0.08, 0.08, 0.08, 0.1, 0.1, 0.06]","[[0.11766436913102363, -0.04327704920019282], [0.17973489876850246, -0.2957558932143311], [0.4322853556796634, 0.1292829237047714], [-0.0348924626991882, -0.2091692004054023], [0.511593351462966, -0.2715393032181878], [0.39631341359825684, -0.10388811790353111], [0.1759041025424718, 0.35783279634564974], [-0.11077337801993212, 0.08002505665429639], [0.1915495233696259, 0.15329463501335125]]",density,black,,,1301830,visual,1,[],"['1', '2', '3', '4']",1,2023.2.3,harveyvisual,2.1,[],8,0.75,
0,pause,0.4,None,None,None,0,99,99,99,,,,,,,,,,,,,1301830,visual,1,[],"['1', '2', '3', '4']",1,2023.2.3,harveyvisual,2.1,[],8,0.75,
9,dot,0.3,['dot'],['density'],white,0,100,100,100,,,37.40022110939026,37.11685395240784,37.416821002960205,dot,"[0.06, 0.08, 0.06, 0.1, 0.1, 0.08, 0.08, 0.1, 0.1]","[[-0.01550530976013749, -0.4685693709261764], [-0.18673980358629047, -0.03677939788938074], [-0.492500386343057, -0.31631588298646995], [-0.31211872613566405, -0.49615226168915794], [-0.29213402726227655, -0.2779210730957987], [-0.48141959868665407, -0.11483975315711048], [0.2805727548720413, -0.20550850813502752], [-0.0662162642732561, -0.2200496541038322], [0.06776853683421198, -0.046300179137656175]]",density,white,,,1301830,visual,1,[],"['1', '2', '3', '4']",1,2023.2.3,harveyvisual,2.1,[],8,0.75,
0,pause,0.4,None,None,None,0,101,101,101,,,,,,,,,,,1,37.70465588569641,1301830,visual,1,[],"['1', '2', '3', '4']",1,2023.2.3,harveyvisual,2.1,[],8,0.75,
9,dot,0.3,['dot'],['density'],black,0,102,102,102,,,38.10021114349365,37.81685209274292,38.116816997528076,dot,"[0.06, 0.08, 0.1, 0.08, 0.06, 0.06, 0.08, 0.1, 0.1]","[[-0.08830733675648182, -0.32541118850070216], [0.2573655446525002, -0.0029570100823114536], [0.27547652153196345, -0.34332263321768475], [-0.10322368112243578, -0.12113330350182801], [-0.09512634339583304, 0.07974184968350245], [0.1087639633701519, -0.14934854126711464], [-0.2976800736237512, -0.022953619774800198], [0.014308470788770018, -0.5004438889851849], [-0.3557422450128242, -0.24953541402881954]]",density,black,,,1301830,visual,1,[],"['1', '2', '3', '4']",1,2023.2.3,harveyvisual,2.1,[],8,0.75,
0,pause,0.4,None,None,None,0,103,103,103,,,,,,,,,,,,,1301830,visual,1,[],"['1', '2', '3', '4']",1,2023.2.3,harveyvisual,2.1,[],8,0.75,
9,dot,0.3,['dot'],['density'],white,0,104,104,104,,,38.800213098526,38.51681995391846,38.81683301925659,dot,"[0.06, 0.1, 0.1, 0.1, 0.08, 0.1, 0.06, 0.1, 0.08]","[[-0.39546702852536103, 0.05887767166707298], [0.0019437857506851024, 0.07006750722115952], [0.08809400946991845, -0.15083790972035777], [-0.35358057288562594, -0.14123029179452673], [-0.18893042820243505, -0.004761820558363635], [-0.16054322822148615, -0.2701644482013472], [-0.3593088451216199, 0.2649120528395154], [-0.09346394646241396, -0.4621051997984888], [-0.5526246027455071, -0.11781718335669726]]",density,white,,,1301830,visual,1,[],"['1', '2', '3', '4']",1,2023.2.3,harveyvisual,2.1,[],8,0.75,
0,pause,0.4,None,None,None,0,105,105,105,,,,,,,,,,,1,38.8818519115448,1301830,visual,1,[],"['1', '2', '3', '4']",1,2023.2.3,harveyvisual,2.1,[],8,0.75,
9,dot,0.3,['dot'],['density'],black,0,106,106,106,,,39.50023007392883,39.21673917770386,39.51672911643982,dot,"[0.08, 0.1, 0.08, 0.1, 0.08, 0.08, 0.08, 0.06, 0.06]","[[0.27429149071172837, 0.34251676390746333], [0.46797507249945486, 0.005491811463162166], [0.21235580877939833, 0.08757146436558581], [0.046223583492975936, 0.2932249054251131], [0.07051592556679111, -0.0704922843318231], [0.30438918969270623, -0.13028831600800136], [0.11534598117609637, 0.5236829685630697], [-0.06673610159464062, 0.12515255452502297], [-0.14439101605953233, -0.1332028051536465]]",density,black,,,1301830,visual,1,[],"['1', '2', '3', '4']",1,2023.2.3,harveyvisual,2.1,[],8,0.75,
0,pause,0.4,None,None,None,0,107,107,107,,,,,,,,,,,,,1301830,visual,1,[],"['1', '2', '3', '4']",1,2023.2.3,harveyvisual,2.1,[],8,0.75,
20,dot,0.3,['dot'],['density'],white,0,108,108,108,,,40.2002170085907,39.916728019714355,40.21669411659241,dot,"[0.1, 0.1, 0.06, 0.1, 0.06, 0.1, 0.06, 0.1, 0.08, 0.06, 0.08, 0.08, 0.1, 0.1, 0.08, 0.1, 0.06, 0.1, 0.08, 0.08]","[[-0.556266108296713, -0.0796872530506024], [-0.31444597174022443, -0.2042521691812096], [0.3696223873582791, -0.2383105596784927], [0.02767113073395977, 0.17328231982707132], [0.35228454275662047, 0.2500757584912581], [-0.07480673859678022, -0.13265514396950456], [-0.005732166981220366, 0.4229979945596226], [0.5881568189990979, -0.06606999832654527], [0.12549120407441983, -0.34703534835030025], [-0.21417512447669418, 0.19451221480101444], [-0.4445619989615513, -0.4096434638544804], [0.26041390621580085, 0.005586573037724807], [0.29725861006761767, -0.4400187523439641], [-0.11149140255259798, -0.5572284538457429], [-0.453784348837983, 0.30451008752125175], [-0.13448338761317075, -0.3419006620059891], [-0.28983926968811113, 0.5279871260554719], [0.5632847626014409, 0.14268552841830195], [0.22966371479758774, 0.4868854054177161], [-0.2222342015683786, -0.008633976916790687]]",density,white,,,1301830,visual,1,[],"['1', '2', '3', '4']",1,2023.2.3,harveyvisual,2.1,[],8,0.75,
0,pause,0.4,None,None,None,0,109,109,109,,,,,,,,,,,1,40.309847831726074,1301830,visual,1,[],"['1', '2', '3', '4']",1,2023.2.3,harveyvisual,2.1,[],8,0.75,
20,dot,0.3,['dot'],['density'],black,0,110,110,110,,,40.90021109580994,40.61672902107239,40.9167001247406,dot,"[0.1, 0.06, 0.06, 0.06, 0.06, 0.06, 0.06, 0.08, 0.06, 0.1, 0.1, 0.06, 0.06, 0.08, 0.1, 0.06, 0.06, 0.06, 0.06, 0.06]","[[-0.4344859469870297, 0.18049130545676556], [-0.5823616866787419, 0.026440679115965204], [0.49198111580067094, -0.16772543729037706], [-0.25490135557555593, -0.131637674224153], [-0.04415104347192933, 0.34308452619473895], [-0.06452433884662878, -0.37916903645583233], [-0.06361163333368425, 0.027533464210140135], [0.05253732764030705, 0.5532379992188585], [-0.21588228959448108, -0.5571804487569846], [0.19592443435194717, 0.30655019355608826], [0.28353732367172213, -0.10492375155860234], [-0.2775729455291657, 0.4377046904254769], [0.4418745818690556, 0.40956916698908075], [0.1031992151170773, 0.1318625918164954], [0.5313128445680434, 0.04512788319073546], [0.42419883078779674, -0.43014464951569753], [0.2116231923046058, -0.40258899263624653], [-0.35735595664012537, -0.372200116663106], [0.33328320799212763, 0.14584552327339262], [-0.5227052581665818, -0.23212176206338575]]",density,black,,,1301830,visual,1,[],"['1', '2', '3', '4']",1,2023.2.3,harveyvisual,2.1,[],8,0.75,
0,pause,0.4,None,None,None,0,111,111,111,,,,,,,,,,,,,1301830,visual,1,[],"['1', '2', '3', '4']",1,2023.2.3,harveyvisual,2.1,[],8,0.75,
20,dot,0.3,['dot'],['density'],black,0,112,112,112,,,41.600213050842285,41.31655502319336,41.61658716201782,dot,"[0.1, 0.06, 0.1, 0.08, 0.1, 0.08, 0.06, 0.08, 0.08, 0.06, 0.08, 0.08, 0.1, 0.08, 0.1, 0.1, 0.1, 0.06, 0.06, 0.1]","[[-0.023546633053832755, 0.10077787589046727], [-0.3773419015508589, -0.3321348547895986], [-0.12466766714480099, 0.3586497348087998], [-0.5076092758522107, -0.08104892778840639], [-0.17604426474497514, -0.017531747675735176], [0.009140494557176138, 0.5681326408138149], [-0.4726864624704308, 0.3287986797432181], [0.2299801160593452, -0.3191286636582774], [-0.20955309454098392, 0.18049684247729425], [-0.015749074931772022, -0.4909819110394874], [-0.22667201786746238, 0.5479363801080946], [0.4078429301091794, 0.015163704634275021], [0.4951236847459509, 0.27762123837213504], [-0.11903340881104268, -0.25276538012072464], [0.46706079051830585, -0.20686752415314863], [0.1168258920419819, 0.4000408923463188], [0.5986398480475049, -0.06468491869383351], [0.36013385940088705, 0.4620748758329735], [0.1986436568800084, 0.10051224365348832], [0.08861212291549403, -0.08491369802772197]]",density,black,,,1301830,visual,1,[],"['1', '2', '3', '4']",1,2023.2.3,harveyvisual,2.1,[],8,0.75,
0,pause,0.4,None,None,None,0,113,113,113,,,,,,,,,,,,,1301830,visual,1,[],"['1', '2', '3', '4']",1,2023.2.3,harveyvisual,2.1,[],8,0.75,
20,dot,0.3,['dot'],['density'],black,0,114,114,114,,,42.30023217201233,42.01653718948364,42.31669902801514,dot,"[0.06, 0.06, 0.08, 0.06, 0.1, 0.1, 0.1, 0.08, 0.06, 0.08, 0.08, 0.08, 0.06, 0.08, 0.06, 0.06, 0.1, 0.08, 0.1, 0.1]","[[0.14292891338014335, -0.250260344691461], [-0.2764291917039613, -0.1228380272050979], [-0.4818667169525168, 0.29413829895639493], [0.32611963420933876, 0.4902808428338652], [-0.5997786656159073, 0.04300792985159811], [-0.09238660695572642, 0.45495854595643137], [-0.2822577543214801, 0.479103915048518], [0.3481202285342928, 0.18912539488519764], [0.43447398444407226, -0.16649844734008734], [-0.23195985317667256, 0.12613935316189395], [0.17564472513357465, 0.04358556142756631], [-0.06857874536255693, -0.3237916803876921], [0.3900959153903043, -0.3567160288563298], [0.1686631738560569, -0.5109297846884635], [0.07420055842859896, 0.577688507354527], [0.5994079116877468, 0.0036451930434329427], [-0.4926782573285601, -0.20842727962066954], [-0.42906500282201376, -0.4233940922738761], [-0.2153805602220369, -0.5012307178567565], [0.19823891557423767, 0.3311066706429642]]",density,black,,,1301830,visual,1,[],"['1', '2', '3', '4']",1,2023.2.3,harveyvisual,2.1,[],8,0.75,
0,pause,0.4,None,None,None,0,115,115,115,,,,,,,,,,,,,1301830,visual,1,[],"['1', '2', '3', '4']",1,2023.2.3,harveyvisual,2.1,[],8,0.75,
20,dot,0.3,['dot'],['density'],black,0,116,116,116,,,43.00023007392883,42.716708183288574,43.01661205291748,dot,"[0.08, 0.08, 0.1, 0.08, 0.06, 0.08, 0.1, 0.1, 0.06, 0.06, 0.08, 0.06, 0.06, 0.1, 0.08, 0.1, 0.08, 0.1, 0.06, 0.1]","[[0.22304471469898557, 0.09200523743806888], [-0.4505858233309264, -0.34855924090674006], [0.018476569865530146, 0.2897366401928505], [0.5645825210493024, -0.159997278707251], [-0.45381279541072395, -0.10719658327973597], [-0.07015560144997357, -0.5358968843146714], [-0.21010743146511074, 0.1883003435251559], [-0.044525621081172195, -0.08972262719710655], [0.5101919407799506, 0.273790680503084], [-0.4130780519250021, 0.37195563833066697], [0.2091305012369491, 0.49356808638473526], [0.2473333233434306, -0.4182274053638996], [-0.6039858273752118, 0.019322319462533946], [0.5884798061290951, 0.0505863825079339], [-0.015945522954764813, 0.6013294491136612], [0.09933833819790083, -0.24625210288428234], [-0.16026153630541368, -0.36170102615402555], [-0.2690464234536979, -0.04265223709374044], [0.24653192083951392, 0.2924995664908634], [-0.2010956622248805, 0.4153534834914393]]",density,black,,,1301830,visual,1,[],"['1', '2', '3', '4']",1,2023.2.3,harveyvisual,2.1,[],8,0.75,
0,pause,0.4,None,None,None,0,117,117,117,,,,,,,,,,,,,1301830,visual,1,[],"['1', '2', '3', '4']",1,2023.2.3,harveyvisual,2.1,[],8,0.75,
20,dot,0.3,['dot'],['density'],black,0,118,118,118,,,43.700215101242065,43.41659212112427,43.71658802032471,dot,"[0.08, 0.08, 0.08, 0.06, 0.08, 0.1, 0.1, 0.08, 0.08, 0.06, 0.06, 0.06, 0.1, 0.1, 0.08, 0.08, 0.1, 0.06, 0.1, 0.08]","[[-0.2497580349523102, 0.0951070304168391], [-0.4638599669800988, -0.24667801380701068], [0.24109101851771775, -0.3098924893625288], [0.018044562196780745, -0.371196454540399], [-0.27324468129944296, -0.46126103775710564], [-0.27721569681860386, -0.1542646948808407], [-0.5912726791668336, 0.03394336772780629], [0.5226644616787514, 0.2465723896245514], [0.027966561315041494, 0.49656426617673743], [0.21086397140632074, -0.0561351383659926], [0.5870037768392077, -0.14368697553934465], [0.011887255886636305, 0.19741659520755828], [-0.17082658754520108, 0.34948191550337004], [0.29160962107458954, 0.4414740331513901], [-0.5301991539998263, 0.268004126631408], [0.4857164550555918, 0.04850347720229775], [0.45834898902491383, -0.32155088690305733], [-0.07123418785344937, -0.19935711209436568], [0.19721927371817838, 0.14622973774172743], [-0.07154904291440056, -0.006506511561204187]]",density,black,,,1301830,visual,1,[],"['1', '2', '3', '4']",1,2023.2.3,harveyvisual,2.1,[],8,0.75,
0,pause,0.4,None,None,None,0,119,119,119,,,,,,,,,,,,,1301830,visual,1,[],"['1', '2', '3', '4']",1,2023.2.3,harveyvisual,2.1,[],8,0.75,
20,dot,0.3,['dot'],['density'],black,0,120,120,120,,,44.40024209022522,44.11659216880798,44.41644310951233,dot,"[0.06, 0.08, 0.08, 0.1, 0.08, 0.06, 0.08, 0.1, 0.06, 0.1, 0.1, 0.1, 0.08, 0.1, 0.1, 0.1, 0.1, 0.08, 0.06, 0.06]","[[0.37213649999683085, -0.463874582953487], [-0.5531009525797047, -0.15216893896209988], [0.14599275290755687, 0.2937523846510093], [0.3710244433281982, -0.12204119901408672], [-0.4157489979089114, 0.07193431384436233], [0.5965568820021124, 0.09425712400223527], [-0.409362689036593, -0.29686088417221346], [0.09769262811160129, -0.27464203195182907], [-0.4561618385286477, 0.3366915827166601], [-0.26547501519293343, 0.33270509956395844], [-0.24300203195881742, -0.4743169709862255], [0.21618434986041501, 0.5280185330742544], [0.4291404962302897, 0.22053759484267987], [-0.1645428161074723, -0.08167358557479609], [-0.0815065870297238, -0.5750867156734971], [-0.2207321779166342, 0.1339859449170795], [-0.1012147998455899, 0.461695785703792], [-0.03206245213710435, 0.10195643598204007], [0.13858387740996436, 0.0017112070612497199], [0.5940397698218268, -0.10249377586302155]]",density,black,,,1301830,visual,1,[],"['1', '2', '3', '4']",1,2023.2.3,harveyvisual,2.1,[],8,0.75,
0,pause,0.4,None,None,None,0,121,121,121,,,,,,,,,,,,,1301830,visual,1,[],"['1', '2', '3', '4']",1,2023.2.3,harveyvisual,2.1,[],8,0.75,
20,dot,0.3,['dot'],['density'],black,0,122,122,122,,,45.100208044052124,44.816457986831665,45.11644005775452,dot,"[0.06, 0.1, 0.06, 0.08, 0.06, 0.08, 0.06, 0.1, 0.06, 0.1, 0.06, 0.08, 0.1, 0.08, 0.1, 0.08, 0.1, 0.06, 0.06, 0.06]","[[0.11773089343752186, -0.43617505595675776], [-0.14763089349827113, -0.4776628368946797], [0.22325024009576033, 0.4942970367331887], [-0.15940512370112536, 0.47403185916369617], [-0.24767163792879937, 0.1617094111604731], [-0.30856394467476644, -0.1202277810304726], [0.5204408328404829, -0.24539111125681534], [-0.49583288959845156, 0.14067500764571383], [0.06666075677071182, 0.30160925961202645], [0.24058850423019962, -0.14995080070845812], [0.5593496035229267, 0.12145461343315445], [0.37882372519150675, -0.42243514639668744], [0.034348155848043405, -0.15048889397278042], [-0.3757938329600169, -0.3186275919340673], [0.24823485757141783, 0.14653929008903122], [-0.1836523357578949, -0.2855545952639076], [0.3922491864580885, 0.36428251330954975], [-0.4987539533535278, -0.1485826849888783], [-0.02842436335749532, 0.06428835930919141], [0.3845743204245258, 0.0071801959227158485]]",density,black,,,1301830,visual,1,[],"['1', '2', '3', '4']",1,2023.2.3,harveyvisual,2.1,[],8,0.75,
0,pause,0.4,None,None,None,0,123,123,123,,,,,,,,,,,,,1301830,visual,1,[],"['1', '2', '3', '4']",1,2023.2.3,harveyvisual,2.1,[],8,0.75,
20,dot,0.3,['dot'],['density'],black,0,124,124,124,,,45.80023407936096,45.51643204689026,45.81639814376831,dot,"[0.08, 0.06, 0.06, 0.06, 0.08, 0.06, 0.1, 0.06, 0.1, 0.08, 0.08, 0.08, 0.08, 0.08, 0.06, 0.1, 0.1, 0.1, 0.06, 0.08]","[[0.06490772236863318, 0.4678996284307725], [-0.4163493847068703, -0.3208506748937658], [-0.08710949574534033, -0.12943849130011686], [0.1268343599225048, -0.009483159600549351], [-0.5548765747362622, 0.20843577310066874], [-0.31104819761361935, 0.30489523178126043], [-0.23879840421032594, -0.5141486109870756], [0.594550758358034, -0.00016348915241956585], [-0.057289807553045136, 0.2562994841040389], [0.4172187406330955, -0.3233473318846513], [-0.032556664823476855, -0.43506849402437064], [0.15646917884952838, 0.2611936839078869], [-0.2771911529004942, 0.044616484480168195], [0.4306431565114003, 0.36596087739470656], [0.1948159699310894, -0.39384703051416753], [-0.47885727243781573, -0.011891967465200881], [0.08830946020455033, -0.5813795159655548], [0.33915987984555984, -0.09055396799225207], [-0.12789200568070536, 0.4761811517998662], [-0.20954624954827122, -0.30813592286736224]]",density,black,,,1301830,visual,1,[],"['1', '2', '3', '4']",1,2023.2.3,harveyvisual,2.1,[],8,0.75,
0,pause,0.4,None,None,None,0,125,125,125,,,,,,,,,,,,,1301830,visual,1,[],"['1', '2', '3', '4']",1,2023.2.3,harveyvisual,2.1,[],8,0.75,
20,dot,0.3,['dot'],['density'],black,0,126,126,126,,,46.500231981277466,46.21638107299805,46.51637101173401,dot,"[0.08, 0.08, 0.1, 0.08, 0.08, 0.06, 0.08, 0.08, 0.1, 0.06, 0.06, 0.1, 0.06, 0.1, 0.1, 0.08, 0.08, 0.1, 0.1, 0.06]","[[-0.17901471492907484, -0.059158520195126796], [-0.28525398220589515, 0.1870445409792606], [-0.05191210673046798, -0.36778274031688885], [-0.31540877472857237, -0.49711143886301185], [0.006384276020714896, 0.11251552058217473], [0.4881626793635182, 0.26972760601042245], [0.01452788412635797, 0.3153881685204166], [-0.45644600368210553, -0.019528333903821415], [0.3486689695607823, 0.10354684820305587], [0.0747498940326099, -0.5519194083443583], [0.2511338145980696, -0.21820819307917622], [-0.5063628614437788, 0.3081389084541288], [-0.5094883348008509, -0.2697743899072362], [0.4228735556443498, -0.3584363872782241], [0.5891827498854582, -0.12796663393398588], [0.19870221976240676, 0.37587516684016664], [0.22629837267525232, -0.4115408200542938], [0.09541845462566467, 0.5577183331197513], [-0.23779602095259172, 0.5410787367236295], [0.05981522582230181, -0.2049089534026744]]",density,black,,,1301830,visual,1,[],"['1', '2', '3', '4']",1,2023.2.3,harveyvisual,2.1,[],8,0.75,
0,pause,0.4,None,None,None,0,127,127,127,,,,,,,,,,,,,1301830,visual,1,[],"['1', '2', '3', '4']",1,2023.2.3,harveyvisual,2.1,[],8,0.75,
20,dot,0.3,['dot'],['density'],black,0,128,128,128,,,47.200217962265015,46.91636514663696,47.21635913848877,dot,"[0.06, 0.06, 0.06, 0.08, 0.06, 0.06, 0.1, 0.06, 0.1, 0.06, 0.1, 0.06, 0.08, 0.06, 0.08, 0.06, 0.1, 0.06, 0.06, 0.08]","[[0.46127181266930084, 0.3630137165293627], [-0.3897206702651113, 0.006632898771694484], [-0.1160676468539304, 0.20736635222540578], [-0.2810733806985735, 0.36044891794279843], [0.06998610067374622, -0.13504839107154015], [-0.6042551481668811, 0.02309783337254702], [-0.11296175142234538, -0.3333041109397813], [0.561260130616878, -0.16785912778614262], [0.1558876527572155, 0.3157264060992917], [0.08862870851970728, 0.577631306604924], [0.2969544441071734, -0.3194774389613856], [-0.4881572610661507, 0.28973102495505443], [-0.37296202678991064, -0.47480019979162474], [-0.3805380086579755, -0.2661223446129135], [0.42610139539008596, -0.021473168562324563], [0.28287812050486905, 0.11815866913481576], [-0.19815598080721492, -0.0911797510339793], [0.10207953359836874, -0.4555660844760896], [-0.09038568474353093, 0.44955485345292157], [-0.0997371270702131, -0.5842131709601558]]",density,black,,,1301830,visual,1,[],"['1', '2', '3', '4']",1,2023.2.3,harveyvisual,2.1,[],8,0.75,
0,pause,0.4,None,None,None,0,129,129,129,,,,,,,,,,,,,1301830,visual,1,[],"['1', '2', '3', '4']",1,2023.2.3,harveyvisual,2.1,[],8,0.75,
20,dot,0.3,['dot'],['density'],black,0,130,130,130,,,47.900213956832886,47.616350173950195,47.916344165802,dot,"[0.06, 0.08, 0.08, 0.1, 0.08, 0.1, 0.1, 0.08, 0.08, 0.1, 0.06, 0.1, 0.06, 0.08, 0.1, 0.1, 0.08, 0.1, 0.08, 0.1]","[[0.541230343909301, -0.054366449290152274], [0.5201588722955252, 0.2356183597357454], [-0.48875184755782697, 0.1086638141017483], [-0.11941591999800727, 0.04500074366036022], [0.09441745143163316, -0.30772056903716694], [0.13715417165701693, 0.5766073088837845], [-0.35503212911946214, -0.4375443070100568], [-0.02939055139458402, -0.47349991032180816], [-0.43493442964238993, 0.36944332757505], [0.09286060460220624, -0.06139942896597306], [-0.2640240116760583, -0.17625374431214186], [-0.26294088725304476, 0.26638959595390277], [0.2657018278266894, -0.5044781284025919], [0.4806239959891966, -0.24233095742573726], [0.31861717461804817, -0.029872243579599167], [0.320965024933337, 0.16570338692944364], [0.033652924436164855, 0.3245246332557221], [0.3919215432647306, 0.39007738623985594], [-0.5632085526482036, -0.11400777383174866], [-0.07512727662585306, 0.4911000429219303]]",density,black,,,1301830,visual,1,[],"['1', '2', '3', '4']",1,2023.2.3,harveyvisual,2.1,[],8,0.75,
0,pause,0.4,None,None,None,0,131,131,131,,,,,,,,,,,,,1301830,visual,1,[],"['1', '2', '3', '4']",1,2023.2.3,harveyvisual,2.1,[],8,0.75,
20,dot,0.3,['dot'],['density'],black,0,132,132,132,,,48.60021901130676,48.31632614135742,48.616369009017944,dot,"[0.1, 0.1, 0.06, 0.06, 0.08, 0.08, 0.1, 0.06, 0.1, 0.1, 0.1, 0.08, 0.06, 0.06, 0.06, 0.08, 0.08, 0.06, 0.08, 0.08]","[[-0.31561019012482305, 0.4782484879990012], [-0.014864078085931487, 0.17798680876824224], [0.107073023845903, 0.34031983705776847], [0.5314238700827744, 0.2868685026382889], [-0.04616073181731706, 0.5524298168376514], [-0.42819864244499994, 0.24893632669733629], [0.12628758168973697, -0.05801084855509808], [-0.13686097631273492, -0.20595439707515956], [0.2729199712373629, -0.31414148716241064], [-0.44852430610241834, -0.0796103113984617], [-0.5442848095391579, -0.24904584033629634], [0.1566681617860487, -0.5683703596302516], [-0.10406579957188533, -0.41741279761767813], [0.5235035860241551, -0.1701157057124915], [0.455154094601279, 0.033582875804662016], [-0.5927344742826418, 0.04663944571134941], [-0.28311013775438304, 0.0961499542303641], [0.23912333455087076, 0.14478014127482475], [-0.31218646348321827, -0.39095481521044106], [0.34809304765272775, 0.3880080693316219]]",density,black,,,1301830,visual,1,[],"['1', '2', '3', '4']",1,2023.2.3,harveyvisual,2.1,[],8,0.75,
0,pause,0.4,None,None,None,0,133,133,133,,,,,,,,,,,,,1301830,visual,1,[],"['1', '2', '3', '4']",1,2023.2.3,harveyvisual,2.1,[],8,0.75,
20,dot,0.3,['dot'],['density'],black,0,134,134,134,,,49.300213098526,49.01633810997009,49.31633496284485,dot,"[0.1, 0.1, 0.06, 0.06, 0.06, 0.1, 0.06, 0.06, 0.08, 0.06, 0.08, 0.08, 0.06, 0.08, 0.06, 0.08, 0.08, 0.06, 0.1, 0.06]","[[-0.12953275119856084, 0.13500383949501638], [0.2605444764967464, 0.15964125877896074], [0.01923568332857517, -0.1811177333565706], [-0.46882092481233967, 0.15814388214252628], [0.38017031040635807, -0.3757916504518708], [-0.48140990020943153, -0.26194310864440945], [0.5932618763732279, -0.07508613055815888], [-0.2715752435570401, 0.3457685844999159], [0.5076826761413168, 0.20429208397293108], [0.07086751964311166, 0.17661654943733662], [-0.05663721772412478, 0.42459559150870274], [0.1943409053403794, -0.019939688696412716], [0.2946862226825677, 0.3856564623761183], [-0.17926414960125098, -0.4324521931442675], [-0.17201913885085202, -0.1750598722943531], [0.20486314466698086, -0.4977635012408029], [-0.3918068960366524, -0.0880040774972064], [0.2391374428464782, -0.24345526248418825], [0.1721989195302419, 0.5766811551863764], [-0.5810112968985005, -0.006200732884687532]]",density,black,,,1301830,visual,1,[],"['1', '2', '3', '4']",1,2023.2.3,harveyvisual,2.1,[],8,0.75,
0,pause,0.4,None,None,None,0,135,135,135,,,,,,,,,,,,,1301830,visual,1,[],"['1', '2', '3', '4']",1,2023.2.3,harveyvisual,2.1,[],8,0.75,
20,dot,0.3,['dot'],['density'],black,0,136,136,136,,,50.000235080718994,49.71633815765381,50.01632118225098,dot,"[0.1, 0.1, 0.08, 0.06, 0.1, 0.08, 0.08, 0.08, 0.1, 0.08, 0.08, 0.1, 0.06, 0.08, 0.08, 0.08, 0.06, 0.06, 0.1, 0.1]","[[-0.207609883609919, -0.27929723342564716], [-0.5086752180183103, -0.014354432847210608], [0.5942505962329544, -0.11419482078449229], [-0.27036962210172777, 0.05941870120914994], [-0.05213032476686008, 0.010558119033204916], [0.43258567419356775, -0.32255840921171103], [0.2068161542151672, -0.04385952735283649], [0.22652257754814353, 0.3554562042666596], [0.4488634997505375, 0.2253331160060918], [-0.052665524972345, -0.5576132093799789], [0.1782515189380134, -0.5020220263924908], [-0.20435698937277536, 0.5517063751627052], [-0.20658495360612572, 0.28196140417307247], [0.1621643582782667, 0.5770059351620133], [0.12402239180527641, 0.1827122692944605], [-0.4276513559846853, -0.3900276836193997], [-0.5480267949961866, 0.24075167634011801], [0.12099127897567064, -0.2506510559594464], [-0.38468664573796607, 0.46017890798967853], [0.3924462346706198, 0.022016812015880127]]",density,black,,,1301830,visual,1,[],"['1', '2', '3', '4']",1,2023.2.3,harveyvisual,2.1,[],8,0.75,
0,pause,0.4,None,None,None,0,137,137,137,,,,,,,,,,,,,1301830,visual,1,[],"['1', '2', '3', '4']",1,2023.2.3,harveyvisual,2.1,[],8,0.75,
20,dot,0.3,['dot'],['density'],black,0,138,138,138,,,50.700234174728394,50.41630697250366,50.71631407737732,dot,"[0.1, 0.08, 0.06, 0.06, 0.06, 0.06, 0.08, 0.06, 0.06, 0.1, 0.06, 0.08, 0.06, 0.08, 0.06, 0.1, 0.1, 0.08, 0.08, 0.1]","[[0.4820650477267535, 0.1752161379832014], [-0.5104199974294406, -0.010303422943344132], [0.09090502093976638, -0.40501927096327917], [0.049484019270985224, -0.06946613678065983], [-0.41515888491959996, -0.3234020823845334], [0.08058798385610355, 0.32889093313584017], [0.49596704101891376, -0.030381588720766683], [0.49903025563219583, -0.3177103412744651], [0.14973708227860394, 0.12435203968663477], [-0.2817708101060924, 0.22902542106819523], [-0.16860248503109798, -0.3752345005065263], [0.2469991441397228, -0.06644715570166787], [-0.014580244679837318, 0.5064162367576822], [-0.4730761095531134, 0.19942772465697306], [-0.24069810042070316, 0.04197143518914237], [-0.11613220419199377, -0.1660648399862319], [0.3006238818982897, 0.3709473890258004], [-0.12641524468535037, 0.34107013515266493], [-0.3316592103853097, -0.13023286245854176], [0.25954887143950645, -0.31477417554300413]]",density,black,,,1301830,visual,1,[],"['1', '2', '3', '4']",1,2023.2.3,harveyvisual,2.1,[],8,0.75,
0,pause,0.4,None,None,None,0,139,139,139,,,,,,,,,,,,,1301830,visual,1,[],"['1', '2', '3', '4']",1,2023.2.3,harveyvisual,2.1,[],8,0.75,
20,dot,0.3,['dot'],['density'],black,0,140,140,140,,,51.40022802352905,51.11626100540161,51.41637706756592,dot,"[0.06, 0.1, 0.1, 0.06, 0.1, 0.1, 0.08, 0.08, 0.06, 0.08, 0.1, 0.1, 0.08, 0.1, 0.08, 0.06, 0.06, 0.08, 0.08, 0.06]","[[0.4647713494840685, -0.35588422847104306], [-0.5514248597736023, -0.10862477047244454], [0.05772897732800619, 0.567645568237819], [0.09809513891525001, 0.020496794370819527], [0.5913035231682139, 0.08238946819151541], [0.28808525621927294, 0.09469242325374438], [-0.08994058807502237, -0.46230928575926356], [-0.31535158999295027, 0.06103686976666245], [-0.34678120401903456, -0.412170738746987], [0.1775191699536851, -0.3540747930216963], [-0.30004494828830314, -0.15462803965555477], [-0.09775477337789928, 0.09356040649750919], [-0.1405307581578658, 0.5603694948300637], [-0.4553462007408222, 0.25306692525101937], [-0.2098374862231036, 0.26075277432269284], [0.2782351779445662, 0.36783689890769944], [-0.005231633390082924, -0.2177743190603028], [0.4517869831434914, 0.26309876505996416], [0.0026587289337607345, 0.32296958324090985], [0.08217213285054004, -0.5658215921463391]]",density,black,,,1301830,visual,1,[],"['1', '2', '3', '4']",1,2023.2.3,harveyvisual,2.1,[],8,0.75,
0,pause,0.4,None,None,None,0,141,141,141,,,,,,,,,,,,,1301830,visual,1,[],"['1', '2', '3', '4']",1,2023.2.3,harveyvisual,2.1,[],8,0.75,
20,dot,0.3,['dot'],['density'],black,0,142,142,142,,,52.100237131118774,51.816275119781494,52.116353034973145,dot,"[0.1, 0.08, 0.1, 0.08, 0.1, 0.06, 0.06, 0.1, 0.1, 0.08, 0.1, 0.08, 0.06, 0.08, 0.1, 0.08, 0.1, 0.1, 0.08, 0.08]","[[-0.4910610582772787, 0.18360165089506675], [-0.46901446026991034, -0.20488592589416815], [-0.4000144299597034, -0.009517197716136572], [0.020954758722921074, 0.057263885606860354], [-0.040684382097086136, 0.5098744672757002], [0.3792830898984345, 0.19709972159598865], [0.44234305830254195, -0.19183926951251054], [-0.17504187039102348, 0.21337068506885515], [0.412725253732085, -0.40956534805777983], [0.16251136348736672, -0.5565537642779079], [0.22563811722734695, -0.3754373431623278], [-0.3095864407792289, -0.3815277155824325], [0.264985439072413, 0.5330797734450015], [-0.09995620910370118, -0.5843984019881489], [-0.18206987735558156, -0.12692320619082526], [0.5881935061290834, 0.059160279733555726], [-0.3097317109207184, 0.5094078266759084], [0.035400263063398496, -0.2359727411735269], [0.22991017242320122, -0.04841428508423351], [-0.11822410099966091, -0.3615553587778899]]",density,black,,,1301830,visual,1,[],"['1', '2', '3', '4']",1,2023.2.3,harveyvisual,2.1,[],8,0.75,
0,pause,0.4,None,None,None,0,143,143,143,,,,,,,,,,,,,1301830,visual,1,[],"['1', '2', '3', '4']",1,2023.2.3,harveyvisual,2.1,[],8,0.75,
20,dot,0.3,['dot'],['density'],black,0,144,144,144,,,52.800225019454956,52.516348123550415,52.81619596481323,dot,"[0.08, 0.08, 0.06, 0.06, 0.1, 0.08, 0.1, 0.06, 0.08, 0.06, 0.06, 0.06, 0.1, 0.08, 0.06, 0.06, 0.06, 0.08, 0.08, 0.06]","[[0.39463590689303596, -0.1869218787685969], [-0.31897126078741106, -0.19663217443625797], [-0.42938699152106574, 0.3624334884047776], [-0.17023852704576187, 0.4864121345554182], [0.5933047265135049, 0.06421191644735838], [-0.5434602979984138, -0.233252048256353], [-0.06325029428571471, -0.4039601970676464], [0.16606393576432998, -0.03260685264312768], [0.3133086493095758, 0.34785283792290655], [0.37850449378318085, -0.42301834145048495], [-0.26702451263889887, -0.43102754281729705], [0.1366607742836996, 0.4220621985927413], [-0.31169575709162417, 0.20180106022860544], [-0.045147666078984794, 0.19244339711097502], [-0.14518841381483122, -0.022883847521571132], [-0.5866613103363183, -0.005046812202920636], [0.130032951195459, -0.5134366773200844], [0.15740341371475408, -0.23414115551397124], [-0.07564969759707185, -0.2133883065821922], [0.33686208402720397, 0.13106840251477858]]",density,black,,,1301830,visual,1,[],"['1', '2', '3', '4']",1,2023.2.3,harveyvisual,2.1,[],8,0.75,
0,pause,0.4,None,None,None,0,145,145,145,,,,,,,,,,,,,1301830,visual,1,[],"['1', '2', '3', '4']",1,2023.2.3,harveyvisual,2.1,[],8,0.75,
20,dot,0.3,['dot'],['density'],black,0,146,146,146,,,53.50024199485779,53.216192960739136,53.516348123550415,dot,"[0.1, 0.08, 0.1, 0.1, 0.06, 0.08, 0.1, 0.08, 0.08, 0.06, 0.08, 0.08, 0.06, 0.06, 0.08, 0.06, 0.06, 0.08, 0.06, 0.08]","[[-0.5189013012479657, 0.07018733514653186], [-0.2067021594234889, 0.3003246192421727], [-0.5841649225543705, -0.12197277147037354], [0.35087237960877704, 0.0747092810193562], [0.5601608357869742, 0.1033899026738187], [0.1852798471273558, -0.2719106659432619], [0.3460900096379853, -0.4950354305914159], [0.43337611840905177, 0.37700543166128936], [-0.21213757137666817, 0.04171464513735079], [0.04187302146060046, 0.338184231899079], [0.3261979298697638, -0.12836635057306145], [-0.037193574424010944, -0.368450262531671], [-0.32560687115968556, -0.3704677562087487], [-0.4034103867051178, 0.25212436541472755], [0.15769349485193485, -0.46843697739796974], [0.26177888693575746, 0.29371954658383526], [-0.32478979388296997, 0.4791949806741541], [-0.03994506233458306, 0.13936565232538367], [0.04745008169754272, -0.04574692807545644], [0.5729656474610348, -0.13649407962115892]]",density,black,,,1301830,visual,1,[],"['1', '2', '3', '4']",1,2023.2.3,harveyvisual,2.1,[],8,0.75,
0,pause,0.4,None,None,None,0,147,147,147,,,,,,,,,,,,,1301830,visual,1,[],"['1', '2', '3', '4']",1,2023.2.3,harveyvisual,2.1,[],8,0.75,
20,dot,0.3,['dot'],['density'],black,0,148,148,148,,,54.200226068496704,53.916319131851196,54.21630311012268,dot,"[0.08, 0.06, 0.08, 0.08, 0.08, 0.06, 0.08, 0.1, 0.1, 0.1, 0.08, 0.08, 0.08, 0.1, 0.06, 0.06, 0.08, 0.06, 0.06, 0.1]","[[0.3136937768647543, 0.11664843863991714], [0.1262572882536528, 0.19449442248704496], [-0.48551742811284493, 0.17080232341547907], [-0.181813811724227, 0.18858002225514148], [-0.4202814786672314, -0.16405590451425545], [0.37941473506184276, 0.3761780787878584], [-0.600005154724316, -0.039334174423482936], [-0.18430382906363435, -0.1786870191297002], [0.5353100162547432, -0.16339603251279117], [0.24715348936687553, -0.12930739754239962], [-0.2992883897050166, -0.44202039671663684], [0.5430685070693057, 0.1776556922350106], [0.1020678072672978, 0.39305246502998137], [0.053884184986924266, -0.10602912135287701], [-0.0728819164916461, -0.558571719104786], [0.23893838222635466, -0.4137108908291587], [-0.3176088750096809, 0.036027779474279154], [-0.33282899808124816, 0.3477077907212893], [-0.10041794223629008, 0.5753690226041843], [-0.05309996788383542, -0.368088430662714]]",density,black,,,1301830,visual,1,[],"['1', '2', '3', '4']",1,2023.2.3,harveyvisual,2.1,[],8,0.75,
0,pause,0.4,None,None,None,0,149,149,149,,,,,,,,,,,,,1301830,visual,1,[],"['1', '2', '3', '4']",1,2023.2.3,harveyvisual,2.1,[],8,0.75,
20,dot,0.3,['dot'],['density'],black,0,150,150,150,,,54.90022301673889,54.61633515357971,54.91627502441406,dot,"[0.1, 0.1, 0.06, 0.06, 0.1, 0.06, 0.1, 0.08, 0.1, 0.1, 0.06, 0.06, 0.06, 0.08, 0.08, 0.08, 0.06, 0.08, 0.1, 0.1]","[[0.09737146725090073, 0.33985391728508796], [-0.16509430061688585, 0.18046194306507024], [-0.32975248741622476, -0.495627086006343], [-0.12522827855121382, -0.4856903871235151], [0.3817962731776594, 0.4301746159088249], [-0.12827138194860743, 0.5338316644587172], [0.415519034555638, -0.21756581310438997], [0.025430105310933926, -0.3605733035058433], [-0.434661326201769, 0.09695411760980477], [-0.3371605966209037, -0.26168505215941174], [0.1463473195536129, 0.08165354430224059], [0.3580604143514019, 0.06245256803868088], [0.27135349258100117, 0.2564792130424597], [-0.22432181642487437, -0.05817550227442392], [0.17325828202985027, -0.49755786944715286], [0.22041540599261, -0.15202298319223495], [0.5454840393220862, 0.1276734108121586], [-0.5269980770587657, -0.20047558955230035], [-0.43973416062621956, 0.4110026288511187], [0.19963875748960258, 0.551811057237305]]",density,black,,,1301830,visual,1,[],"['1', '2', '3', '4']",1,2023.2.3,harveyvisual,2.1,[],8,0.75,
0,pause,0.4,None,None,None,0,151,151,151,,,,,,,,,,,,,1301830,visual,1,[],"['1', '2', '3', '4']",1,2023.2.3,harveyvisual,2.1,[],8,0.75,
20,dot,0.3,['dot'],['density'],black,0,152,152,152,,,55.600237131118774,55.31627297401428,55.61626696586609,dot,"[0.08, 0.08, 0.06, 0.1, 0.06, 0.08, 0.1, 0.1, 0.08, 0.1, 0.06, 0.1, 0.1, 0.1, 0.08, 0.06, 0.06, 0.08, 0.1, 0.1]","[[0.18198203040002603, -0.37127124267120964], [0.2705000643182156, -0.14325638808731722], [-0.38707901110353865, -0.08229922826436697], [-0.4563616581346712, 0.0997362543896172], [-0.09278733115817517, 0.47947750823310464], [-0.17769121764069695, 0.21785036850452155], [-0.2447727976949664, -0.2580830551954227], [0.5791184477082766, -0.05358606081561017], [0.060666472137915206, 0.19194218208274771], [-0.07469325929168702, -0.12423885846635613], [-0.019836598508109482, -0.48951388588830835], [-0.4263036090587904, 0.3604499993891908], [0.45596155699048635, -0.31887444066014], [0.2528414173217658, 0.16749969430457068], [0.30331138079942466, 0.4554728152343027], [-0.3785109312445971, -0.4369283420987453], [-0.4831223357316313, -0.25294922842255174], [0.43104493542165534, 0.08384627764289326], [0.5039063178143456, 0.3022964123660656], [0.11610017075744938, 0.5876603488102079]]",density,black,,,1301830,visual,1,[],"['1', '2', '3', '4']",1,2023.2.3,harveyvisual,2.1,[],8,0.75,
0,pause,0.4,None,None,None,0,153,153,153,,,,,,,,,,,,,1301830,visual,1,[],"['1', '2', '3', '4']",1,2023.2.3,harveyvisual,2.1,[],8,0.75,
20,dot,0.3,['dot'],['density'],black,0,154,154,154,,,56.300217151641846,56.01607608795166,56.316118001937866,dot,"[0.08, 0.08, 0.06, 0.06, 0.08, 0.08, 0.08, 0.1, 0.08, 0.06, 0.08, 0.06, 0.08, 0.08, 0.06, 0.1, 0.1, 0.08, 0.08, 0.06]","[[0.3398141337949241, 0.010441774399766457], [-0.3367059744574044, 0.3855464637996313], [0.49708932369928294, 0.34227660560942896], [-0.1914458341649271, -0.4682608787005637], [-0.4516462465719022, -0.038021901437927], [0.43815392427423594, -0.28413172034636913], [0.05036390156964077, 0.24277606190391232], [-0.3156006076751341, 0.17169772669611594], [-0.21659042409269652, -0.1871543748592251], [0.2588413143193856, 0.5417507813937308], [-0.11313721601351845, 0.39358974841654737], [0.5743599466436872, -0.0925288793981371], [-0.019614425627741183, -0.21159267036298735], [-0.05592699883533936, 0.5817943703569558], [0.2604577684010614, -0.5051827115141538], [-0.5639802229499165, 0.17082989183570355], [0.2541525505137877, -0.233774434384949], [-0.017340391814939293, -0.5777232905890186], [0.11391544291321842, -0.06112009150717579], [-0.5315923756119262, -0.2467456099989815]]",density,black,,,1301830,visual,1,[],"['1', '2', '3', '4']",1,2023.2.3,harveyvisual,2.1,[],8,0.75,
0,pause,0.4,None,None,None,0,155,155,155,,,,,,,,,,,,,1301830,visual,1,[],"['1', '2', '3', '4']",1,2023.2.3,harveyvisual,2.1,[],8,0.75,
9,dot,0.3,['dot'],['density'],black,0,156,156,156,,,57.0002281665802,56.716108083724976,57.01609516143799,dot,"[0.1, 0.06, 0.08, 0.08, 0.08, 0.06, 0.08, 0.06, 0.08]","[[-0.05049485011715354, 0.3013521193238899], [0.15354596755057998, 0.36785015051376163], [0.22995749783639982, 0.07309138415424772], [0.13460311710395165, -0.18603378415368982], [0.33097739113381164, -0.13822260855557728], [-0.16464148731134703, 0.07190493829483618], [0.521154897315396, -0.007803673430992942], [0.02684304494395013, 0.0018704401699241912], [-0.15545279255173522, -0.15329938800760382]]",density,black,,,1301830,visual,1,[],"['1', '2', '3', '4']",1,2023.2.3,harveyvisual,2.1,[],8,0.75,
0,pause,0.4,None,None,None,0,157,157,157,,,,,,,,,,,,,1301830,visual,1,[],"['1', '2', '3', '4']",1,2023.2.3,harveyvisual,2.1,[],8,0.75,
9,dot,0.3,['dot'],['density'],black,0,158,158,158,,,57.7002170085907,57.41622805595398,57.71621513366699,dot,"[0.06, 0.1, 0.08, 0.08, 0.08, 0.08, 0.08, 0.08, 0.1]","[[0.4433726728065019, 0.22320554513198193], [0.1026133663954636, -0.050786049565613584], [0.20022034484770485, 0.4412403735117007], [0.45250313802570796, 0.010227273383000257], [0.037500571895399265, 0.24935285809920393], [0.23874579090912346, 0.11348512554989887], [0.25013734113836505, -0.23502010549412247], [0.4599692436892986, -0.2536974682823114], [0.04694731086691962, -0.2548367103293993]]",density,black,,,1301830,visual,1,[],"['1', '2', '3', '4']",1,2023.2.3,harveyvisual,2.1,[],8,0.75,
0,pause,0.4,None,None,None,0,159,159,159,,,,,,,,,,,,,1301830,visual,1,[],"['1', '2', '3', '4']",1,2023.2.3,harveyvisual,2.1,[],8,0.75,
9,dot,0.3,['dot'],['density'],black,0,160,160,160,,,58.400222063064575,58.11621117591858,58.41618514060974,dot,"[0.06, 0.06, 0.08, 0.1, 0.06, 0.06, 0.1, 0.08, 0.1]","[[-0.08830733675648182, -0.32541118850070216], [0.2573655446525002, -0.0029570100823114536], [0.27547652153196345, -0.34332263321768475], [-0.10322368112243578, -0.12113330350182801], [-0.09512634339583304, 0.07974184968350245], [0.1087639633701519, -0.14934854126711464], [-0.2976800736237512, -0.022953619774800198], [0.014308470788770018, -0.5004438889851849], [-0.3557422450128242, -0.24953541402881954]]",density,black,,,1301830,visual,1,[],"['1', '2', '3', '4']",1,2023.2.3,harveyvisual,2.1,[],8,0.75,
0,pause,0.4,None,None,None,0,161,161,161,,,,,,,,,,,,,1301830,visual,1,[],"['1', '2', '3', '4']",1,2023.2.3,harveyvisual,2.1,[],8,0.75,
9,dot,0.3,['dot'],['density'],white,0,162,162,162,,,59.100244998931885,58.81605100631714,59.116081953048706,dot,"[0.08, 0.06, 0.08, 0.1, 0.08, 0.1, 0.1, 0.1, 0.1]","[[0.4907720478217397, -0.04420899316542184], [0.34945142516086164, 0.15252383324094793], [0.5574461082468273, 0.19132091369540322], [0.27860246559707486, -0.040271372914082004], [0.05137088633600719, 0.3166781443626957], [0.3859483744724672, 0.35594746641407654], [0.08124150308634055, -0.11830714188255424], [-0.07254784919135501, 0.1430213671552253], [0.33979531306265204, -0.26214422422440126]]",density,white,,,1301830,visual,1,[],"['1', '2', '3', '4']",1,2023.2.3,harveyvisual,2.1,[],8,0.75,
0,pause,0.4,None,None,None,0,163,163,163,,,,,,,,,,,1,59.32011699676514,1301830,visual,1,[],"['1', '2', '3', '4']",1,2023.2.3,harveyvisual,2.1,[],8,0.75,
9,dot,0.3,['dot'],['density'],black,0,164,164,164,,,59.800235986709595,59.51603102684021,59.816007137298584,dot,"[0.06, 0.1, 0.06, 0.06, 0.06, 0.06, 0.08, 0.08, 0.1]","[[-0.08858128315591524, -0.3480052213079807], [0.37291707470974605, -0.0809562497479422], [-0.04311872097798103, 0.23152249840731254], [0.1734412630875083, -0.16491363602164627], [-0.024044713080900382, -0.04824256513196188], [0.126438571592319, 0.09122014985587756], [-0.2168202887682383, 0.11190421567656858], [-0.23215605484234547, -0.20356583507002532], [0.291417597339289, 0.24351333182926893]]",density,black,,,1301830,visual,1,[],"['1', '2', '3', '4']",1,2023.2.3,harveyvisual,2.1,[],8,0.75,
0,pause,0.4,None,None,None,0,165,165,165,,,,,,,,,,,,,1301830,visual,1,[],"['1', '2', '3', '4']",1,2023.2.3,harveyvisual,2.1,[],8,0.75,
9,dot,0.3,['dot'],['density'],black,0,166,166,166,,,60.50023603439331,60.21600103378296,60.5159809589386,dot,"[0.08, 0.1, 0.1, 0.08, 0.08, 0.1, 0.1, 0.1, 0.08]","[[-0.25982930089867384, 0.41046177320377714], [0.2391912210628672, 0.4152301159030731], [-0.011899047454085643, 0.5103750441914148], [0.15826907621474634, 0.20577518054892585], [-0.29033424199965224, 0.2058356795488901], [-0.056026696670660174, 0.08152775180209879], [-0.32571421803823364, -0.002973879155612714], [0.39820859476685, 0.29236875228581105], [-0.06367065787951752, 0.28966088639372295]]",density,black,,,1301830,visual,1,[],"['1', '2', '3', '4']",1,2023.2.3,harveyvisual,2.1,[],8,0.75,
0,pause,0.4,None,None,None,0,167,167,167,,,,,,,,,,,,,1301830,visual,1,[],"['1', '2', '3', '4']",1,2023.2.3,harveyvisual,2.1,[],8,0.75,
8,dot,0.3,['dot'],['density'],black,0,168,168,168,,,61.200239181518555,60.91594696044922,61.21596002578735,dot,"[0.06, 0.1, 0.1, 0.06, 0.06, 0.08, 0.08, 0.08]","[[0.28112832868380594, 0.3075763237432237], [-0.21381995858864508, 0.197554992839043], [0.14035436555963224, -0.1470740351963634], [-0.04856350071149823, -0.017306043905309515], [0.12070301707556046, 0.11279463428917226], [0.35236156425888765, 0.046198621115284964], [-0.012223412543992913, 0.3265760435025566], [0.11745206869397669, 0.49408919182137495]]",density,black,,,1301830,visual,1,[],"['1', '2', '3', '4']",1,2023.2.3,harveyvisual,2.1,[],8,0.75,
0,pause,0.4,None,None,None,0,169,169,169,,,,,,,,,,,,,1301830,visual,1,[],"['1', '2', '3', '4']",1,2023.2.3,harveyvisual,2.1,[],8,0.75,
8,dot,0.3,['dot'],['density'],white,0,170,170,170,,,61.90022015571594,61.61594104766846,61.915935039520264,dot,"[0.06, 0.06, 0.1, 0.06, 0.1, 0.1, 0.06, 0.06]","[[-0.17382250058115215, 0.008030820220576582], [-0.5561520679887834, 0.09064024109159684], [-0.2322770524578434, -0.18818443710846813], [-0.41357291590276396, -0.2905316508268561], [-0.37423053416790164, -0.04064357687765813], [-0.014699175284411378, 0.15059198662288528], [-0.015485985535575739, -0.1348843831724925], [-0.36639977644872057, 0.228205681233079]]",density,white,,,1301830,visual,1,[],"['1', '2', '3', '4']",1,2023.2.3,harveyvisual,2.1,[],8,0.75,
0,pause,0.4,None,None,None,0,171,171,171,,,,,,,,,,,1,62.03943681716919,1301830,visual,1,[],"['1', '2', '3', '4']",1,2023.2.3,harveyvisual,2.1,[],8,0.75,
8,dot,0.3,['dot'],['density'],black,0,172,172,172,,,62.60023307800293,62.31591296195984,62.615890979766846,dot,"[0.1, 0.06, 0.08, 0.06, 0.1, 0.1, 0.06, 0.06]","[[0.4578461037593053, -0.0425280984807614], [0.3105081462658962, -0.253400778181943], [0.5107466611240274, 0.18303335057259504], [0.05013881804369301, 0.21472050036076742], [0.11913774150617627, -0.046477809882714556], [0.3069987493408211, 0.11186211070896974], [0.10261508471656716, -0.25482825738733483], [-0.08881417545548334, 0.035709595317019026]]",density,black,,,1301830,visual,1,[],"['1', '2', '3', '4']",1,2023.2.3,harveyvisual,2.1,[],8,0.75,
0,pause,0.4,None,None,None,0,173,173,173,,,,,,,,,,,,,1301830,visual,1,[],"['1', '2', '3', '4']",1,2023.2.3,harveyvisual,2.1,[],8,0.75,
8,dot,0.3,['dot'],['density'],black,0,174,174,174,,,63.30021810531616,63.01591396331787,63.315906047821045,dot,"[0.1, 0.06, 0.06, 0.08, 0.08, 0.1, 0.1, 0.1]","[[0.4578461037593053, -0.0425280984807614], [0.3105081462658962, -0.253400778181943], [0.5107466611240274, 0.18303335057259504], [0.05013881804369301, 0.21472050036076742], [0.11913774150617627, -0.046477809882714556], [0.3069987493408211, 0.11186211070896974], [0.10261508471656716, -0.25482825738733483], [-0.08881417545548334, 0.035709595317019026]]",density,black,,,1301830,visual,1,[],"['1', '2', '3', '4']",1,2023.2.3,harveyvisual,2.1,[],8,0.75,
0,pause,0.4,None,None,None,0,175,175,175,,,,,,,,,,,,,1301830,visual,1,[],"['1', '2', '3', '4']",1,2023.2.3,harveyvisual,2.1,[],8,0.75,
8,dot,0.3,['dot'],['density'],black,0,176,176,176,,,64.00021696090698,63.71597504615784,64.01590013504028,dot,"[0.1, 0.08, 0.1, 0.1, 0.08, 0.08, 0.06, 0.06]","[[-0.4639556696772753, 0.10472599959088454], [-0.22970357876872852, 0.24758381400794424], [-0.060094057158436125, -0.14613975383200573], [-0.022569829209962654, 0.2677975872319761], [-0.3077859326170116, -0.10488986274105515], [-0.16040535020917, 0.031608708128470005], [-0.5175577931920246, -0.20517812764611504], [0.1194024413118107, 0.007837779916585986]]",density,black,,,1301830,visual,1,[],"['1', '2', '3', '4']",1,2023.2.3,harveyvisual,2.1,[],8,0.75,
0,pause,0.4,None,None,None,0,177,177,177,,,,,,,,,,,,,1301830,visual,1,[],"['1', '2', '3', '4']",1,2023.2.3,harveyvisual,2.1,[],8,0.75,
8,dot,0.3,['dot'],['density'],black,0,178,178,178,,,64.7002170085907,64.41589117050171,64.71588110923767,dot,"[0.08, 0.1, 0.1, 0.08, 0.06, 0.1, 0.1, 0.06]","[[-0.3167478768396544, -0.2124469325344782], [0.11150510454677101, -0.25361932254341324], [0.17657050060311263, -0.496926349220185], [0.20833757931744315, -0.0002320808252021913], [-0.0015234955214533466, 0.034722119540356526], [-0.10690598217119997, -0.19846612199298916], [0.32498422138424443, -0.23444872628509345], [-0.054741640541526956, -0.4230750989992696]]",density,black,,,1301830,visual,1,[],"['1', '2', '3', '4']",1,2023.2.3,harveyvisual,2.1,[],8,0.75,
0,pause,0.4,None,None,None,0,179,179,179,,,,,,,,,,,,,1301830,visual,1,[],"['1', '2', '3', '4']",1,2023.2.3,harveyvisual,2.1,[],8,0.75,
7,dot,0.3,['dot'],['density'],black,0,180,180,180,,,65.40022802352905,65.11589813232422,65.41588115692139,dot,"[0.1, 0.06, 0.1, 0.06, 0.08, 0.08, 0.08]","[[-0.15204905838880944, -0.5333107186751418], [-0.1519936835116667, -0.2986813487337615], [0.3123805602017952, -0.370842296180838], [-0.04397638837772695, -0.01669328424437847], [0.11716920447009348, -0.14912816843546053], [0.1067198166566748, -0.5553575834591685], [0.04038917577175449, -0.3541606866516689]]",density,black,,,1301830,visual,1,[],"['1', '2', '3', '4']",1,2023.2.3,harveyvisual,2.1,[],8,0.75,
0,pause,0.4,None,None,None,0,181,181,181,,,,,,,,,,,,,1301830,visual,1,[],"['1', '2', '3', '4']",1,2023.2.3,harveyvisual,2.1,[],8,0.75,
7,dot,0.3,['dot'],['density'],black,0,182,182,182,,,66.10021209716797,65.81583213806152,66.11581516265869,dot,"[0.06, 0.1, 0.1, 0.08, 0.06, 0.1, 0.1]","[[-0.1639205104410485, 0.5375336320852997], [0.13665370749938832, 0.21910895384688228], [-0.33778978147358674, 0.04597826141406851], [-0.2268593015261854, 0.22000868921510455], [-0.39586497221419475, 0.3389169711393182], [-0.023188047053822363, 0.08417042442854547], [-0.025005414605345992, 0.38521147685537843]]",density,black,,,1301830,visual,1,[],"['1', '2', '3', '4']",1,2023.2.3,harveyvisual,2.1,[],8,0.75,
0,pause,0.4,None,None,None,0,183,183,183,,,,,,,,,,,,,1301830,visual,1,[],"['1', '2', '3', '4']",1,2023.2.3,harveyvisual,2.1,[],8,0.75,
7,dot,0.3,['dot'],['density'],white,0,184,184,184,,,66.80023002624512,66.5158760547638,66.81589698791504,dot,"[0.08, 0.08, 0.08, 0.08, 0.08, 0.06, 0.08]","[[-0.137089699111686, -0.0603537150230737], [-0.5113647139476066, -0.13847335204066147], [-0.15813839015967857, -0.36469710156031643], [-0.2936616210719107, -0.2141411575526577], [-0.32787652212665946, 0.04250548396893007], [0.004093135922799089, -0.22788394746255153], [-0.17456170860443615, 0.20133573380951708]]",density,white,,,1301830,visual,1,[],"['1', '2', '3', '4']",1,2023.2.3,harveyvisual,2.1,[],8,0.75,
0,pause,0.4,None,None,None,0,185,185,185,,,,,,,,,,,1,67.04437899589539,1301830,visual,1,[],"['1', '2', '3', '4']",1,2023.2.3,harveyvisual,2.1,[],8,0.75,
7,dot,0.3,['dot'],['density'],black,0,186,186,186,,,67.50024104118347,67.21582913398743,67.51589012145996,dot,"[0.08, 0.1, 0.06, 0.08, 0.06, 0.1, 0.1]","[[0.19245168201499255, -0.1876960705048169], [-0.3381443552002159, -0.23329338142126996], [-0.10497405195571721, -0.20200038512761503], [-0.19215049966389516, -0.01485034356210763], [-0.14804808022624072, 0.20187381879058183], [0.049390412829639754, -0.0077734514623590935], [0.08212821656350888, 0.19234027401595055]]",density,black,,,1301830,visual,1,[],"['1', '2', '3', '4']",1,2023.2.3,harveyvisual,2.1,[],8,0.75,
0,pause,0.4,None,None,None,0,187,187,187,,,,,,,,,,,,,1301830,visual,1,[],"['1', '2', '3', '4']",1,2023.2.3,harveyvisual,2.1,[],8,0.75,
7,dot,0.3,['dot'],['density'],black,0,188,188,188,,,68.20023798942566,67.91582608222961,68.21577215194702,dot,"[0.06, 0.1, 0.06, 0.1, 0.08, 0.08, 0.08]","[[-0.3616029487054454, 0.4456424486886853], [-0.1496406170718537, 0.08450683720449656], [-0.4229793897960434, 0.19545916586121675], [-0.050735401720141765, 0.4582308035931027], [-0.23416009772798219, 0.28880413379285297], [0.00916417092529717, 0.20866532064640267], [0.0895043828575618, 0.020292244516940467]]",density,black,,,1301830,visual,1,[],"['1', '2', '3', '4']",1,2023.2.3,harveyvisual,2.1,[],8,0.75,
0,pause,0.4,None,None,None,0,189,189,189,,,,,,,,,,,,,1301830,visual,1,[],"['1', '2', '3', '4']",1,2023.2.3,harveyvisual,2.1,[],8,0.75,
7,dot,0.3,['dot'],['density'],black,0,190,190,190,,,68.90023899078369,68.61576199531555,68.91574597358704,dot,"[0.06, 0.08, 0.1, 0.1, 0.06, 0.08, 0.06]","[[0.23608374802607182, -0.42864299173344095], [-0.09209027036414452, -0.12416238309953632], [0.2788105912293623, 0.0033410667889120396], [0.04539289310230788, 0.08875296613859053], [0.036272769320452085, -0.32980830156280494], [-0.23317126701056543, -0.2895908304292693], [0.15392952834370008, -0.16140965755482034]]",density,black,,,1301830,visual,1,[],"['1', '2', '3', '4']",1,2023.2.3,harveyvisual,2.1,[],8,0.75,
0,pause,0.4,None,None,None,0,191,191,191,,,,,,,,,,,,,1301830,visual,1,[],"['1', '2', '3', '4']",1,2023.2.3,harveyvisual,2.1,[],8,0.75,
6,dot,0.3,['dot'],['density'],black,0,192,192,192,,,69.60023713111877,69.31574010848999,69.61573314666748,dot,"[0.1, 0.06, 0.1, 0.08, 0.06, 0.06]","[[0.404576257273406, 0.0700140295133255], [0.16236872381874318, -0.0021128728600973284], [0.5529541989122894, -0.15659614737169442], [0.13702497511457395, -0.2589057080071786], [0.36740063964394665, -0.3636528069500345], [0.3132750905084481, -0.159771579268986]]",density,black,,,1301830,visual,1,[],"['1', '2', '3', '4']",1,2023.2.3,harveyvisual,2.1,[],8,0.75,
0,pause,0.4,None,None,None,0,193,193,193,,,,,,,,,,,,,1301830,visual,1,[],"['1', '2', '3', '4']",1,2023.2.3,harveyvisual,2.1,[],8,0.75,
6,dot,0.3,['dot'],['density'],black,0,194,194,194,,,70.30021715164185,70.01575207710266,70.31575608253479,dot,"[0.06, 0.1, 0.06, 0.06, 0.1, 0.1]","[[-0.24492162854676555, 0.16704436901929823], [-0.3861886513150086, 0.35601694661450933], [-0.48514013682315105, 0.15596888098880124], [-0.5451465436738104, -0.12931683943359434], [-0.11772959853104834, 0.007676420150436517], [-0.35755989064212684, -0.03355234579502648]]",density,black,,,1301830,visual,1,[],"['1', '2', '3', '4']",1,2023.2.3,harveyvisual,2.1,[],8,0.75,
0,pause,0.4,None,None,None,0,195,195,195,,,,,,,,,,,,,1301830,visual,1,[],"['1', '2', '3', '4']",1,2023.2.3,harveyvisual,2.1,[],8,0.75,
6,dot,0.3,['dot'],['density'],black,0,196,196,196,,,71.00023698806763,70.71574711799622,71.01567196846008,dot,"[0.1, 0.06, 0.08, 0.1, 0.1, 0.1]","[[0.3299424372810393, 0.4114780133894161], [0.051944887288218326, -0.03233758374135307], [0.4337222981537534, -0.07578498258626121], [0.10477943773033714, 0.1703675017914044], [0.3400878522727408, 0.20016066552806494], [0.2510029109880425, 0.01747244452819591]]",density,black,,,1301830,visual,1,[],"['1', '2', '3', '4']",1,2023.2.3,harveyvisual,2.1,[],8,0.75,
0,pause,0.4,None,None,None,0,197,197,197,,,,,,,,,,,,,1301830,visual,1,[],"['1', '2', '3', '4']",1,2023.2.3,harveyvisual,2.1,[],8,0.75,
6,dot,0.3,['dot'],['density'],black,0,198,198,198,,,71.70023703575134,71.41582012176514,71.71583008766174,dot,"[0.08, 0.06, 0.1, 0.08, 0.06, 0.08]","[[0.26568550625605564, -0.48823100126060537], [0.030589778490880962, -0.34307155488476027], [0.2920158589989485, -0.005481777194348812], [0.4969139129819881, -0.3034402107212153], [0.2924968692334099, -0.2393606426967254], [0.09404279540557291, -0.1505005030192783]]",density,black,,,1301830,visual,1,[],"['1', '2', '3', '4']",1,2023.2.3,harveyvisual,2.1,[],8,0.75,
0,pause,0.4,None,None,None,0,199,199,199,,,,,,,,,,,,,1301830,visual,1,[],"['1', '2', '3', '4']",1,2023.2.3,harveyvisual,2.1,[],8,0.75,
6,dot,0.3,['dot'],['density'],black,0,200,200,200,,,72.40021395683289,72.11581897735596,72.41567611694336,dot,"[0.06, 0.06, 0.1, 0.08, 0.1, 0.1]","[[0.404576257273406, 0.0700140295133255], [0.16236872381874318, -0.0021128728600973284], [0.5529541989122894, -0.15659614737169442], [0.13702497511457395, -0.2589057080071786], [0.36740063964394665, -0.3636528069500345], [0.3132750905084481, -0.159771579268986]]",density,black,,,1301830,visual,1,[],"['1', '2', '3', '4']",1,2023.2.3,harveyvisual,2.1,[],8,0.75,
0,pause,0.4,None,None,None,0,201,201,201,,,,,,,,,,,,,1301830,visual,1,[],"['1', '2', '3', '4']",1,2023.2.3,harveyvisual,2.1,[],8,0.75,
6,dot,0.3,['dot'],['density'],black,0,202,202,202,,,73.10021901130676,72.81580018997192,73.11579298973083,dot,"[0.06, 0.08, 0.1, 0.08, 0.1, 0.1]","[[-0.36904347190091025, 0.2789229011504548], [-0.01038079434194998, 0.053649704929766846], [-0.08735338951653393, 0.578282782753283], [5.153534382930422e-05, 0.38446941554394387], [-0.22753401468201206, 0.43210907521897474], [-0.14647282530567177, 0.24517240432070728]]",density,black,,,1301830,visual,1,[],"['1', '2', '3', '4']",1,2023.2.3,harveyvisual,2.1,[],8,0.75,
0,pause,0.4,None,None,None,0,203,203,203,,,,,,,,,,,,,1301830,visual,1,[],"['1', '2', '3', '4']",1,2023.2.3,harveyvisual,2.1,[],8,0.75,
5,dot,0.3,['dot'],['density'],black,0,204,204,204,,,73.80023407936096,73.5156421661377,73.81570601463318,dot,"[0.08, 0.06, 0.06, 0.1, 0.1]","[[-0.07969108163070573, 0.258241044050758], [-0.3301768112222262, 0.22562982972330062], [-0.16453040906828167, -0.1622271318141552], [-0.21753854086321037, 0.04365873274764029], [0.030347216865940038, 0.07834852794011457]]",density,black,,,1301830,visual,1,[],"['1', '2', '3', '4']",1,2023.2.3,harveyvisual,2.1,[],8,0.75,
0,pause,0.4,None,None,None,0,205,205,205,,,,,,,,,,,,,1301830,visual,1,[],"['1', '2', '3', '4']",1,2023.2.3,harveyvisual,2.1,[],8,0.75,
5,dot,0.3,['dot'],['density'],black,0,206,206,206,,,74.500235080719,74.21567296981812,74.51557397842407,dot,"[0.06, 0.08, 0.08, 0.1, 0.1]","[[-0.3593586909609717, -0.014123405231526708], [-0.016214713675271986, 0.25764317450247104], [-0.14180258575993823, 0.0328893580167688], [-0.4739301778776912, 0.15719809156630632], [-0.2718601341595813, 0.23222304362681612]]",density,black,,,1301830,visual,1,[],"['1', '2', '3', '4']",1,2023.2.3,harveyvisual,2.1,[],8,0.75,
0,pause,0.4,None,None,None,0,207,207,207,,,,,,,,,,,,,1301830,visual,1,[],"['1', '2', '3', '4']",1,2023.2.3,harveyvisual,2.1,[],8,0.75,
5,dot,0.3,['dot'],['density'],black,0,208,208,208,,,75.20022010803223,74.9155900478363,75.2155749797821,dot,"[0.1, 0.08, 0.1, 0.1, 0.06]","[[-0.5348211864270219, -0.08335004612931018], [-0.428892633085643, 0.14758700623805307], [-0.3277098387322906, -0.27887202276080253], [-0.29687101947458117, -0.03792463078145938], [-0.23363771935579355, 0.21194794904782605]]",density,black,,,1301830,visual,1,[],"['1', '2', '3', '4']",1,2023.2.3,harveyvisual,2.1,[],8,0.75,
0,pause,0.4,None,None,None,0,209,209,209,,,,,,,,,,,,,1301830,visual,1,[],"['1', '2', '3', '4']",1,2023.2.3,harveyvisual,2.1,[],8,0.75,
5,dot,0.3,['dot'],['density'],black,0,210,210,210,,,75.90023612976074,75.61555600166321,75.91557312011719,dot,"[0.06, 0.06, 0.06, 0.1, 0.1]","[[0.10558973120531606, -0.20428866875977839], [-0.0893225412758366, 0.16524926947551877], [-0.05793580974794309, -0.07826743033729393], [0.11130747138107101, 0.10875249109580729], [0.28035132100960686, -0.09064984251937742]]",density,black,,,1301830,visual,1,[],"['1', '2', '3', '4']",1,2023.2.3,harveyvisual,2.1,[],8,0.75,
0,pause,0.4,None,None,None,0,211,211,211,,,,,,,,,,,,,1301830,visual,1,[],"['1', '2', '3', '4']",1,2023.2.3,harveyvisual,2.1,[],8,0.75,
5,dot,0.3,['dot'],['density'],black,0,212,212,212,,,76.60023403167725,76.31560397148132,76.61554312705994,dot,"[0.06, 0.1, 0.08, 0.08, 0.1]","[[-0.28680504698685855, -0.37141287089520275], [-0.07941991320777259, -0.3100284666993168], [0.1333965094747872, -0.32231728701695306], [-0.16725551142864267, -0.07802884766317453], [0.04399369704041987, -0.09756099317031844]]",density,black,,,1301830,visual,1,[],"['1', '2', '3', '4']",1,2023.2.3,harveyvisual,2.1,[],8,0.75,
0,pause,0.4,None,None,None,0,213,213,213,,,,,,,,,,,,,1301830,visual,1,[],"['1', '2', '3', '4']",1,2023.2.3,harveyvisual,2.1,[],8,0.75,
5,dot,0.3,['dot'],['density'],black,0,214,214,214,,,77.30022311210632,77.015545129776,77.31554698944092,dot,"[0.06, 0.08, 0.06, 0.1, 0.06]","[[0.11182935554897071, 0.3084500478813638], [0.20284409002608467, 0.5199666233992849], [0.31882748915707354, 0.1252782162051447], [0.39083404861423326, 0.3494221689807338], [0.1196046891632849, 0.10173499350566408]]",density,black,,,1301830,visual,1,[],"['1', '2', '3', '4']",1,2023.2.3,harveyvisual,2.1,[],8,0.75,
0,pause,0.4,None,None,None,0,215,215,215,,,,,,,,,,,,,1301830,visual,1,[],"['1', '2', '3', '4']",1,2023.2.3,harveyvisual,2.1,[],8,0.75,
4,dot,0.3,['dot'],['density'],black,0,216,216,216,,,78.00024318695068,77.71557307243347,78.01554203033447,dot,"[0.06, 0.08, 0.08, 0.08]","[[0.06326389353998313, -0.3457479010937814], [-0.07512051392095552, -0.02196355495157639], [0.09410934090401228, -0.14113260442523076], [-0.13717358852421138, -0.29916566844175635]]",density,black,,,1301830,visual,1,[],"['1', '2', '3', '4']",1,2023.2.3,harveyvisual,2.1,[],8,0.75,
0,pause,0.4,None,None,None,0,217,217,217,,,,,,,,,,,,,1301830,visual,1,[],"['1', '2', '3', '4']",1,2023.2.3,harveyvisual,2.1,[],8,0.75,
4,dot,0.3,['dot'],['density'],white,0,218,218,218,,,78.70022010803223,78.41549611091614,78.71548318862915,dot,"[0.08, 0.1, 0.06, 0.06]","[[0.3225849294362846, -0.13157286681700714], [0.2615083713376798, -0.38790318245483907], [0.48399895238698887, -0.2981397300552969], [0.514252162939949, -0.043630752066028525]]",density,white,,,1301830,visual,1,[],"['1', '2', '3', '4']",1,2023.2.3,harveyvisual,2.1,[],8,0.75,
0,pause,0.4,None,None,None,0,219,219,219,,,,,,,,,,,1,78.86956095695496,1301830,visual,1,[],"['1', '2', '3', '4']",1,2023.2.3,harveyvisual,2.1,[],8,0.75,
4,dot,0.3,['dot'],['density'],black,0,220,220,220,,,79.40023803710938,79.11565208435059,79.41565418243408,dot,"[0.08, 0.06, 0.1, 0.1]","[[-0.22375678750486633, 0.16938766720995918], [-0.03438308412182927, 0.2632029670309489], [0.15312837370161694, 0.1265605786946886], [-0.035433382102469414, 0.014828983441921377]]",density,black,,,1301830,visual,1,[],"['1', '2', '3', '4']",1,2023.2.3,harveyvisual,2.1,[],8,0.75,
0,pause,0.4,None,None,None,0,221,221,221,,,,,,,,,,,,,1301830,visual,1,[],"['1', '2', '3', '4']",1,2023.2.3,harveyvisual,2.1,[],8,0.75,
4,dot,0.3,['dot'],['density'],white,0,222,222,222,,,80.1002311706543,79.81563901901245,80.11545205116272,dot,"[0.08, 0.08, 0.1, 0.06]","[[-0.264878088602857, 0.22906395790450432], [0.07239228809704809, 0.2615492699427171], [0.10034738543262733, 0.4676118263175188], [-0.09637524959065707, 0.3769302803343899]]",density,white,,,1301830,visual,1,[],"['1', '2', '3', '4']",1,2023.2.3,harveyvisual,2.1,[],8,0.75,
0,pause,0.4,None,None,None,0,223,223,223,,,,,,,,,,,1,80.20385885238647,1301830,visual,1,[],"['1', '2', '3', '4']",1,2023.2.3,harveyvisual,2.1,[],8,0.75,
4,dot,0.3,['dot'],['density'],black,0,224,224,224,,,80.8002200126648,80.51548600196838,80.81545400619507,dot,"[0.08, 0.08, 0.06, 0.1]","[[-0.045256114861740894, 0.2798656300268403], [-0.02131053084637037, 0.4849425601475732], [0.17666180860848907, 0.34430389164600056], [0.0747630441556118, 0.10387908342824508]]",density,black,,,1301830,visual,1,[],"['1', '2', '3', '4']",1,2023.2.3,harveyvisual,2.1,[],8,0.75,
0,pause,0.4,None,None,None,0,225,225,225,,,,,,,,,,,,,1301830,visual,1,[],"['1', '2', '3', '4']",1,2023.2.3,harveyvisual,2.1,[],8,0.75,
4,dot,0.3,['dot'],['density'],black,0,226,226,226,,,81.50022196769714,81.21547317504883,81.51543307304382,dot,"[0.06, 0.08, 0.06, 0.08]","[[0.3225849294362846, -0.13157286681700714], [0.2615083713376798, -0.38790318245483907], [0.48399895238698887, -0.2981397300552969], [0.514252162939949, -0.043630752066028525]]",density,black,,,1301830,visual,1,[],"['1', '2', '3', '4']",1,2023.2.3,harveyvisual,2.1,[],8,0.75,
0,pause,0.4,None,None,None,0,227,227,227,,,,,,,,,,,,,1301830,visual,1,[],"['1', '2', '3', '4']",1,2023.2.3,harveyvisual,2.1,[],8,0.75,
3,dot,0.3,['dot'],['density'],black,0,228,228,228,,,82.20023202896118,81.91545104980469,82.2155351638794,dot,"[0.08, 0.08, 0.08]","[[0.4995185571857965, 0.14229679706320136], [0.2944600495073675, 0.23335097983198633], [0.330752226915583, 0.0299241169750933]]",density,black,,,1301830,visual,1,[],"['1', '2', '3', '4']",1,2023.2.3,harveyvisual,2.1,[],8,0.75,
0,pause,0.4,None,None,None,0,229,229,229,,,,,,,,,,,,,1301830,visual,1,[],"['1', '2', '3', '4']",1,2023.2.3,harveyvisual,2.1,[],8,0.75,
3,dot,0.3,['dot'],['density'],white,0,230,230,230,,,82.90021514892578,82.61553597450256,82.91551113128662,dot,"[0.1, 0.1, 0.08]","[[0.1555504186016049, 0.15532406847092056], [-0.0680535881648269, 0.26220909641571793], [0.08533315121688807, 0.39122308779032533]]",density,white,,,1301830,visual,1,[],"['1', '2', '3', '4']",1,2023.2.3,harveyvisual,2.1,[],8,0.75,
0,pause,0.4,None,None,None,0,231,231,231,,,,,,,,,,,1,83.00424480438232,1301830,visual,1,[],"['1', '2', '3', '4']",1,2023.2.3,harveyvisual,2.1,[],8,0.75,
3,dot,0.3,['dot'],['density'],black,0,232,232,232,,,83.60022807121277,83.31551218032837,83.61549711227417,dot,"[0.08, 0.1, 0.06]","[[-0.10589639487257244, 0.35295021258352427], [0.12780035046084517, 0.3479378296372768], [0.013663645537612555, 0.51889388118174]]",density,black,,,1301830,visual,1,[],"['1', '2', '3', '4']",1,2023.2.3,harveyvisual,2.1,[],8,0.75,
0,pause,0.4,None,None,None,0,233,233,233,,,,,,,,,,,,,1301830,visual,1,[],"['1', '2', '3', '4']",1,2023.2.3,harveyvisual,2.1,[],8,0.75,
3,dot,0.3,['dot'],['density'],black,0,234,234,234,,,84.30023312568665,84.01539516448975,84.3153829574585,dot,"[0.08, 0.08, 0.1]","[[-0.3082868261871679, -0.3137599619928766], [-0.14816041357862977, -0.19371393562593295], [-0.35304767783039576, -0.10610354059871957]]",density,black,,,1301830,visual,1,[],"['1', '2', '3', '4']",1,2023.2.3,harveyvisual,2.1,[],8,0.75,
0,pause,0.4,None,None,None,0,235,235,235,,,,,,,,,,,,,1301830,visual,1,[],"['1', '2', '3', '4']",1,2023.2.3,harveyvisual,2.1,[],8,0.75,
3,dot,0.3,['dot'],['density'],black,0,236,236,236,,,85.0002269744873,84.71538615226746,85.01537704467773,dot,"[0.06, 0.06, 0.08]","[[-0.5081709494874314, 0.1572673197774781], [-0.37009835501087307, 0.006965763417246156], [-0.5707172634768017, -0.07177594851347295]]",density,black,,,1301830,visual,1,[],"['1', '2', '3', '4']",1,2023.2.3,harveyvisual,2.1,[],8,0.75,
0,pause,0.4,None,None,None,0,237,237,237,,,,,,,,,,,,,1301830,visual,1,[],"['1', '2', '3', '4']",1,2023.2.3,harveyvisual,2.1,[],8,0.75,
3,dot,0.3,['dot'],['density'],black,0,238,238,238,,,85.7002420425415,85.41548800468445,85.71544408798218,dot,"[0.08, 0.06, 0.06]","[[-0.05604225559701161, -0.5082314702914299], [0.10137377066920354, -0.3837858820064252], [-0.12802807887251882, -0.3142638921214105]]",density,black,,,1301830,visual,1,[],"['1', '2', '3', '4']",1,2023.2.3,harveyvisual,2.1,[],8,0.75,
0,pause,0.4,None,None,None,0,239,239,239,,,,,,,,,,,,,1301830,visual,1,[],"['1', '2', '3', '4']",1,2023.2.3,harveyvisual,2.1,[],8,0.75,
2,dot,0.3,['dot'],['density'],black,0,240,240,240,,,86.40022802352905,86.1154420375824,86.41528797149658,dot,"[0.06, 0.08]","[[0.3054529246123127, 0.4455278178545299], [0.3548458028228903, 0.2510588499170468]]",density,black,,,1301830,visual,1,[],"['1', '2', '3', '4']",1,2023.2.3,harveyvisual,2.1,[],8,0.75,
0,pause,0.4,None,None,None,0,241,241,241,,,,,,,,,,,,,1301830,visual,1,[],"['1', '2', '3', '4']",1,2023.2.3,harveyvisual,2.1,[],8,0.75,
2,dot,0.3,['dot'],['density'],black,0,242,242,242,,,87.10023617744446,86.81530213356018,87.1154351234436,dot,"[0.06, 0.08]","[[0.28379985726396956, 0.19228106150028407], [0.10160376615595414, 0.2763535177041957]]",density,black,,,1301830,visual,1,[],"['1', '2', '3', '4']",1,2023.2.3,harveyvisual,2.1,[],8,0.75,
0,pause,0.4,None,None,None,0,243,243,243,,,,,,,,,,,,,1301830,visual,1,[],"['1', '2', '3', '4']",1,2023.2.3,harveyvisual,2.1,[],8,0.75,
2,dot,0.3,['dot'],['density'],black,0,244,244,244,,,87.80021810531616,87.5152940750122,87.8152539730072,dot,"[0.1, 0.06]","[[0.1851205616289071, -0.3624876981064337], [0.3405923022038234, -0.23608025195482504]]",density,black,,,1301830,visual,1,[],"['1', '2', '3', '4']",1,2023.2.3,harveyvisual,2.1,[],8,0.75,
0,pause,0.4,None,None,None,0,245,245,245,,,,,,,,,,,,,1301830,visual,1,[],"['1', '2', '3', '4']",1,2023.2.3,harveyvisual,2.1,[],8,0.75,
2,dot,0.3,['dot'],['density'],black,0,246,246,246,,,88.50021815299988,88.21520209312439,88.51525807380676,dot,"[0.06, 0.1]","[[0.06661886780735636, -0.3109770134588511], [-0.03502229105109153, -0.4833380692870097]]",density,black,,,1301830,visual,1,[],"['1', '2', '3', '4']",1,2023.2.3,harveyvisual,2.1,[],8,0.75,
0,pause,0.4,None,None,None,0,247,247,247,,,,,,,,,,,,,1301830,visual,1,[],"['1', '2', '3', '4']",1,2023.2.3,harveyvisual,2.1,[],8,0.75,
2,dot,0.3,['dot'],['density'],black,0,248,248,248,,,89.20024108886719,88.91518211364746,89.21518301963806,dot,"[0.06, 0.08]","[[0.5159928458027473, 0.13749655768121952], [0.38343727829172375, 0.28833164788761484]]",density,black,,,1301830,visual,1,[],"['1', '2', '3', '4']",1,2023.2.3,harveyvisual,2.1,[],8,0.75,
0,pause,0.4,None,None,None,0,249,249,249,,,,,,,,,,,,,1301830,visual,1,[],"['1', '2', '3', '4']",1,2023.2.3,harveyvisual,2.1,[],8,0.75,
2,dot,0.3,['dot'],['density'],black,0,250,250,250,,,89.90022206306458,89.61523008346558,89.9152159690857,dot,"[0.06, 0.06]","[[-0.4579128382498026, -0.013317831223324628], [-0.28624676016543393, -0.11681778735554697]]",density,black,,,1301830,visual,1,[],"['1', '2', '3', '4']",1,2023.2.3,harveyvisual,2.1,[],8,0.75,
0,pause,0.4,None,None,None,0,251,251,251,,,,,,,,,,,,,1301830,visual,1,[],"['1', '2', '3', '4']",1,2023.2.3,harveyvisual,2.1,[],8,0.75,
1,dot,0.3,['dot'],['density'],black,0,252,252,252,,,90.60022902488708,90.31515502929688,90.6151831150055,dot,[0.08],"[-0.045934412585722416, -0.12236734128406912]",density,black,,,1301830,visual,1,[],"['1', '2', '3', '4']",1,2023.2.3,harveyvisual,2.1,[],8,0.75,
0,pause,0.4,None,None,None,0,253,253,253,,,,,,,,,,,,,1301830,visual,1,[],"['1', '2', '3', '4']",1,2023.2.3,harveyvisual,2.1,[],8,0.75,
1,dot,0.3,['dot'],['density'],black,0,254,254,254,,,91.30024003982544,91.01514005661011,91.31511902809143,dot,[0.1],"[-0.43105706563061386, -0.18359692062194616]",density,black,,,1301830,visual,1,[],"['1', '2', '3', '4']",1,2023.2.3,harveyvisual,2.1,[],8,0.75,
0,pause,0.4,None,None,None,0,255,255,255,,,,,,,,,,,,,1301830,visual,1,[],"['1', '2', '3', '4']",1,2023.2.3,harveyvisual,2.1,[],8,0.75,
1,dot,0.3,['dot'],['density'],black,0,256,256,256,,,92.000244140625,91.7151231765747,92.01510214805603,dot,[0.1],"[-0.045934412585722416, -0.12236734128406912]",density,black,,,1301830,visual,1,[],"['1', '2', '3', '4']",1,2023.2.3,harveyvisual,2.1,[],8,0.75,
0,pause,0.4,None,None,None,0,257,257,257,,,,,,,,,,,,,1301830,visual,1,[],"['1', '2', '3', '4']",1,2023.2.3,harveyvisual,2.1,[],8,0.75,
1,dot,0.3,['dot'],['density'],black,0,258,258,258,,,92.70023798942566,92.41509103775024,92.71508407592773,dot,[0.1],"[0.0956549371127339, 0.09579573331985794]",density,black,,,1301830,visual,1,[],"['1', '2', '3', '4']",1,2023.2.3,harveyvisual,2.1,[],8,0.75,
0,pause,0.4,None,None,None,0,259,259,259,,,,,,,,,,,,,1301830,visual,1,[],"['1', '2', '3', '4']",1,2023.2.3,harveyvisual,2.1,[],8,0.75,
1,dot,0.3,['dot'],['density'],black,0,260,260,260,,,93.40023303031921,93.11512303352356,93.41509699821472,dot,[0.1],"[-0.2532192430475575, -0.5275431624831907]",density,black,,,1301830,visual,1,[],"['1', '2', '3', '4']",1,2023.2.3,harveyvisual,2.1,[],8,0.75,
0,pause,0.4,None,None,None,0,261,261,261,,,,,,,,,,,,,1301830,visual,1,[],"['1', '2', '3', '4']",1,2023.2.3,harveyvisual,2.1,[],8,0.75,
1,dot,0.3,['dot'],['density'],black,0,262,262,262,,,94.10023617744446,93.81510496139526,94.11508011817932,dot,[0.06],"[-0.2532192430475575, -0.5275431624831907]",density,black,,,1301830,visual,1,[],"['1', '2', '3', '4']",1,2023.2.3,harveyvisual,2.1,[],8,0.75,
0,pause,0.4,None,None,None,0,263,263,263,,,,,,,,,,,,,1301830,visual,1,[],"['1', '2', '3', '4']",1,2023.2.3,harveyvisual,2.1,[],8,0.75,
20,dot,0.3,['dot'],['density'],black,0,264,264,264,,,94.80023407936096,94.51504707336426,94.8150281906128,dot,"[0.06, 0.06, 0.06, 0.06, 0.1, 0.06, 0.1, 0.06, 0.06, 0.08, 0.1, 0.06, 0.08, 0.08, 0.06, 0.1, 0.06, 0.08, 0.08, 0.1]","[[0.18036581958574638, 0.14305910957327173], [0.40764610074609087, 0.3123041512842528], [-0.14298636095500883, -0.2384468474844489], [-0.34086066118635033, 0.4402478222237246], [-0.48058260258101915, -0.19291693638107268], [0.31488948558471397, -0.28185026052295986], [-0.08958326084035073, 0.04189473885921613], [-0.09320177394501994, 0.39245243333900715], [-0.4590509598001691, 0.1402959946470479], [-0.27495787231023827, -0.4490568924694104], [0.267995247288223, -0.4691295632982518], [0.410444156981986, -0.06898605396298735], [0.24887324448427273, 0.5150712150773721], [0.18997260211417555, -0.1319265535095231], [0.5704251924618248, 0.09639975258985875], [0.5124743268606325, -0.27937172799818794], [-0.008013749932812564, 0.6051894671148219], [-0.6043805966322434, -0.003917894221850942], [0.018185502868505288, -0.41699528539251474], [-0.06017943845311058, -0.6018880579588554]]",density,black,,,1301830,visual,1,[],"['1', '2', '3', '4']",1,2023.2.3,harveyvisual,2.1,[],8,0.75,
0,pause,0.4,None,None,None,0,265,265,265,,,,,,,,,,,,,1301830,visual,1,[],"['1', '2', '3', '4']",1,2023.2.3,harveyvisual,2.1,[],8,0.75,
20,dot,0.3,['dot'],['density'],black,0,266,266,266,,,95.500235080719,95.21510815620422,95.5151150226593,dot,"[0.08, 0.08, 0.08, 0.08, 0.06, 0.06, 0.08, 0.06, 0.08, 0.1, 0.06, 0.08, 0.1, 0.08, 0.08, 0.06, 0.06, 0.1, 0.06, 0.06]","[[0.5223707506704692, -0.16742892179832652], [-0.2834600942756187, 0.14663078179759736], [0.3840406103369708, 0.35954360038366673], [0.06761064660142302, -0.18143728113297153], [0.15817363165344767, 0.12547699775316223], [-0.32819574181260663, 0.3935517890240545], [-0.1485617957810501, -0.25000644260362476], [-0.09709317187851008, 0.34978612027269096], [0.06784185785456964, -0.5878132834625132], [-0.4939926955271307, 0.13803119895889515], [-0.019289767062399155, 0.5465950211309822], [-0.2453722977096311, -0.43091815336430306], [-0.39099046347081207, -0.23716791464637124], [0.3236509260130176, 0.017753841189808384], [0.5406705536155844, 0.14690917519403063], [0.0012537873017833823, -0.39851796778863663], [-0.5966012648030165, -0.08578539214693809], [-0.07283280907287237, 0.06649888061677112], [0.24883993983508357, -0.48273470402694313], [0.4167551480394579, -0.3912092074885403]]",density,black,,,1301830,visual,1,[],"['1', '2', '3', '4']",1,2023.2.3,harveyvisual,2.1,[],8,0.75,
