num,mod,duration,shape,ll_cond,colors,.thisRepN,.thisTrialN,.thisN,.thisIndex,thisRow.t,notes,raw_global_time,t_start,t_stop,shapes,size,pos,cond,color,button,RT,participant,session,starting_run,left button (match/odd),right button (non-match/even),samples_per_block,psychopy version,expName,offset,audio,number_runs,radius,
1,dot,0.3,['dot'],['density'],black,0,0,0,0,,,2.400207042694092,2.1123859882354736,2.412255048751831,dot,[0.06],"[0.14557363600905707, -0.03994760510263185]",density,black,,,1301830,visual,8,[],"['1', '2', '3', '4']",1,2023.2.3,harveyvisual,2.1,[],8,0.75,
0,pause,0.4,None,None,None,0,1,1,1,,,,,,,,,,,,,1301830,visual,8,[],"['1', '2', '3', '4']",1,2023.2.3,harveyvisual,2.1,[],8,0.75,
1,dot,0.3,['dot'],['density'],black,0,2,2,2,,,3.100206136703491,2.8122451305389404,3.1122310161590576,dot,[0.1],"[0.5363314188299194, -0.14809861569100125]",density,black,,,1301830,visual,8,[],"['1', '2', '3', '4']",1,2023.2.3,harveyvisual,2.1,[],8,0.75,
0,pause,0.4,None,None,None,0,3,3,3,,,,,,,,,,,,,1301830,visual,8,[],"['1', '2', '3', '4']",1,2023.2.3,harveyvisual,2.1,[],8,0.75,
1,dot,0.3,['dot'],['density'],black,0,4,4,4,,,3.8002281188964844,3.512237071990967,3.812221050262451,dot,[0.08],"[0.46628601751002285, 0.12197617226191985]",density,black,,,1301830,visual,8,[],"['1', '2', '3', '4']",1,2023.2.3,harveyvisual,2.1,[],8,0.75,
0,pause,0.4,None,None,None,0,5,5,5,,,,,,,,,,,,,1301830,visual,8,[],"['1', '2', '3', '4']",1,2023.2.3,harveyvisual,2.1,[],8,0.75,
1,dot,0.3,['dot'],['density'],black,0,6,6,6,,,4.500211954116821,4.212263107299805,4.5122010707855225,dot,[0.06],"[-0.0300711363278092, -0.16168860719337894]",density,black,,,1301830,visual,8,[],"['1', '2', '3', '4']",1,2023.2.3,harveyvisual,2.1,[],8,0.75,
0,pause,0.4,None,None,None,0,7,7,7,,,,,,,,,,,,,1301830,visual,8,[],"['1', '2', '3', '4']",1,2023.2.3,harveyvisual,2.1,[],8,0.75,
1,dot,0.3,['dot'],['density'],black,0,8,8,8,,,5.200217008590698,4.912195920944214,5.2121851444244385,dot,[0.06],"[-0.3678067964802796, -0.3513177213804687]",density,black,,,1301830,visual,8,[],"['1', '2', '3', '4']",1,2023.2.3,harveyvisual,2.1,[],8,0.75,
0,pause,0.4,None,None,None,0,9,9,9,,,,,,,,,,,,,1301830,visual,8,[],"['1', '2', '3', '4']",1,2023.2.3,harveyvisual,2.1,[],8,0.75,
1,dot,0.3,['dot'],['density'],white,0,10,10,10,,,5.900207042694092,5.612198114395142,5.9121739864349365,dot,[0.06],"[0.0038807231877187303, -0.2777732366953785]",density,white,,,1301830,visual,8,[],"['1', '2', '3', '4']",1,2023.2.3,harveyvisual,2.1,[],8,0.75,
0,pause,0.4,None,None,None,0,11,11,11,,,,,,,,,,,1,5.5657639503479,1301830,visual,8,[],"['1', '2', '3', '4']",1,2023.2.3,harveyvisual,2.1,[],8,0.75,
2,dot,0.3,['dot'],['density'],black,0,12,12,12,,,6.600219011306763,6.312156915664673,6.612149000167847,dot,"[0.08, 0.08]","[[0.3054529246123127, 0.4455278178545299], [0.3548458028228903, 0.2510588499170468]]",density,black,,,1301830,visual,8,[],"['1', '2', '3', '4']",1,2023.2.3,harveyvisual,2.1,[],8,0.75,
0,pause,0.4,None,None,None,0,13,13,13,,,,,,,,,,,,,1301830,visual,8,[],"['1', '2', '3', '4']",1,2023.2.3,harveyvisual,2.1,[],8,0.75,
2,dot,0.3,['dot'],['density'],black,0,14,14,14,,,7.300215005874634,7.012115001678467,7.312134027481079,dot,"[0.06, 0.1]","[[-0.1809096912417549, 0.4542701565657042], [0.018526046348631375, 0.4698330185089162]]",density,black,,,1301830,visual,8,[],"['1', '2', '3', '4']",1,2023.2.3,harveyvisual,2.1,[],8,0.75,
0,pause,0.4,None,None,None,0,15,15,15,,,,,,,,,,,,,1301830,visual,8,[],"['1', '2', '3', '4']",1,2023.2.3,harveyvisual,2.1,[],8,0.75,
2,dot,0.3,['dot'],['density'],black,0,16,16,16,,,8.000214099884033,7.712183952331543,8.012176036834717,dot,"[0.08, 0.06]","[[-0.22897676209827808, 0.468650264003531], [-0.0598036877009514, 0.5760211786176329]]",density,black,,,1301830,visual,8,[],"['1', '2', '3', '4']",1,2023.2.3,harveyvisual,2.1,[],8,0.75,
0,pause,0.4,None,None,None,0,17,17,17,,,,,,,,,,,,,1301830,visual,8,[],"['1', '2', '3', '4']",1,2023.2.3,harveyvisual,2.1,[],8,0.75,
2,dot,0.3,['dot'],['density'],black,0,18,18,18,,,8.700225114822388,8.412153959274292,8.712182998657227,dot,"[0.08, 0.08]","[[-0.020654750029313704, 0.3891656546739414], [-0.0007759068931318763, 0.19000611836641118]]",density,black,,,1301830,visual,8,[],"['1', '2', '3', '4']",1,2023.2.3,harveyvisual,2.1,[],8,0.75,
0,pause,0.4,None,None,None,0,19,19,19,,,,,,,,,,,,,1301830,visual,8,[],"['1', '2', '3', '4']",1,2023.2.3,harveyvisual,2.1,[],8,0.75,
2,dot,0.3,['dot'],['density'],black,0,20,20,20,,,9.400229930877686,9.112051010131836,9.412078142166138,dot,"[0.06, 0.1]","[[-0.19482721327365293, -0.5079820576301489], [-0.36119809377872014, -0.396546877814361]]",density,black,,,1301830,visual,8,[],"['1', '2', '3', '4']",1,2023.2.3,harveyvisual,2.1,[],8,0.75,
0,pause,0.4,None,None,None,0,21,21,21,,,,,,,,,,,,,1301830,visual,8,[],"['1', '2', '3', '4']",1,2023.2.3,harveyvisual,2.1,[],8,0.75,
2,dot,0.3,['dot'],['density'],black,0,22,22,22,,,10.100229978561401,9.812068939208984,10.112026929855347,dot,"[0.08, 0.06]","[[0.29932439847351855, -0.2783039550742582], [0.14276117392638485, -0.15345139110726028]]",density,black,,,1301830,visual,8,[],"['1', '2', '3', '4']",1,2023.2.3,harveyvisual,2.1,[],8,0.75,
0,pause,0.4,None,None,None,0,23,23,23,,,,,,,,,,,,,1301830,visual,8,[],"['1', '2', '3', '4']",1,2023.2.3,harveyvisual,2.1,[],8,0.75,
3,dot,0.3,['dot'],['density'],black,0,24,24,24,,,10.8002290725708,10.512099027633667,10.812170028686523,dot,"[0.1, 0.1, 0.1]","[[-0.5599668940784417, -0.1503624274944763], [-0.33715825845103314, -0.1742393560729378], [-0.447658281307079, 0.035586458508876644]]",density,black,,,1301830,visual,8,[],"['1', '2', '3', '4']",1,2023.2.3,harveyvisual,2.1,[],8,0.75,
0,pause,0.4,None,None,None,0,25,25,25,,,,,,,,,,,,,1301830,visual,8,[],"['1', '2', '3', '4']",1,2023.2.3,harveyvisual,2.1,[],8,0.75,
3,dot,0.3,['dot'],['density'],black,0,26,26,26,,,11.500230073928833,11.212162971496582,11.5120210647583,dot,"[0.08, 0.08, 0.06]","[[0.35100391059830643, -0.4491085892346253], [0.13011513135189492, -0.5590284990295896], [0.16905753934955023, -0.35714526366544236]]",density,black,,,1301830,visual,8,[],"['1', '2', '3', '4']",1,2023.2.3,harveyvisual,2.1,[],8,0.75,
0,pause,0.4,None,None,None,0,27,27,27,,,,,,,,,,,,,1301830,visual,8,[],"['1', '2', '3', '4']",1,2023.2.3,harveyvisual,2.1,[],8,0.75,
3,dot,0.3,['dot'],['density'],black,0,28,28,28,,,12.200212001800537,11.91215205192566,12.212132930755615,dot,"[0.06, 0.06, 0.1]","[[0.5383732683216915, 0.24050044654635605], [0.337973319445641, 0.36292363064724675], [0.3422154310588786, 0.14570949010333048]]",density,black,,,1301830,visual,8,[],"['1', '2', '3', '4']",1,2023.2.3,harveyvisual,2.1,[],8,0.75,
0,pause,0.4,None,None,None,0,29,29,29,,,,,,,,,,,,,1301830,visual,8,[],"['1', '2', '3', '4']",1,2023.2.3,harveyvisual,2.1,[],8,0.75,
3,dot,0.3,['dot'],['density'],black,0,30,30,30,,,12.900207042694092,12.611999034881592,12.911991119384766,dot,"[0.06, 0.06, 0.06]","[[0.11213305146232053, -0.07893917948794166], [0.05639720131197772, -0.2966044022377523], [-0.1031859716129837, -0.13437008874356654]]",density,black,,,1301830,visual,8,[],"['1', '2', '3', '4']",1,2023.2.3,harveyvisual,2.1,[],8,0.75,
0,pause,0.4,None,None,None,0,31,31,31,,,,,,,,,,,,,1301830,visual,8,[],"['1', '2', '3', '4']",1,2023.2.3,harveyvisual,2.1,[],8,0.75,
3,dot,0.3,['dot'],['density'],black,0,32,32,32,,,13.600225925445557,13.312165021896362,13.612097978591919,dot,"[0.06, 0.06, 0.1]","[[0.48628142840140876, 0.1515230430224543], [0.28796188866220057, 0.19625725416133796], [0.3371406364253883, -0.002661880310138811]]",density,black,,,1301830,visual,8,[],"['1', '2', '3', '4']",1,2023.2.3,harveyvisual,2.1,[],8,0.75,
0,pause,0.4,None,None,None,0,33,33,33,,,,,,,,,,,,,1301830,visual,8,[],"['1', '2', '3', '4']",1,2023.2.3,harveyvisual,2.1,[],8,0.75,
3,dot,0.3,['dot'],['density'],black,0,34,34,34,,,14.300205945968628,14.012017011642456,14.312078952789307,dot,"[0.06, 0.06, 0.1]","[[-0.476501853024302, 0.3110516410681161], [-0.26865065753742645, 0.4732574608261889], [-0.2772428868380306, 0.2516539537451065]]",density,black,,,1301830,visual,8,[],"['1', '2', '3', '4']",1,2023.2.3,harveyvisual,2.1,[],8,0.75,
0,pause,0.4,None,None,None,0,35,35,35,,,,,,,,,,,,,1301830,visual,8,[],"['1', '2', '3', '4']",1,2023.2.3,harveyvisual,2.1,[],8,0.75,
4,dot,0.3,['dot'],['density'],black,0,36,36,36,,,15.00021505355835,14.711939096450806,15.011935949325562,dot,"[0.1, 0.1, 0.08, 0.1]","[[0.08172100217045614, 0.5402562525463245], [-0.024891988969352973, 0.31595276793208527], [-0.14685316472848742, 0.5184788481920529], [-0.2646655063210597, 0.3159281349431851]]",density,black,,,1301830,visual,8,[],"['1', '2', '3', '4']",1,2023.2.3,harveyvisual,2.1,[],8,0.75,
0,pause,0.4,None,None,None,0,37,37,37,,,,,,,,,,,,,1301830,visual,8,[],"['1', '2', '3', '4']",1,2023.2.3,harveyvisual,2.1,[],8,0.75,
4,dot,0.3,['dot'],['density'],black,0,38,38,38,,,15.700205087661743,15.412114143371582,15.712054014205933,dot,"[0.08, 0.1, 0.1, 0.06]","[[0.08172100217045614, 0.5402562525463245], [-0.024891988969352973, 0.31595276793208527], [-0.14685316472848742, 0.5184788481920529], [-0.2646655063210597, 0.3159281349431851]]",density,black,,,1301830,visual,8,[],"['1', '2', '3', '4']",1,2023.2.3,harveyvisual,2.1,[],8,0.75,
0,pause,0.4,None,None,None,0,39,39,39,,,,,,,,,,,,,1301830,visual,8,[],"['1', '2', '3', '4']",1,2023.2.3,harveyvisual,2.1,[],8,0.75,
4,dot,0.3,['dot'],['density'],black,0,40,40,40,,,16.40023112297058,16.11192297935486,16.411900997161865,dot,"[0.06, 0.06, 0.08, 0.06]","[[-0.24231220575667195, -0.22966258239168486], [-0.5136420973432148, -0.13696856920477488], [-0.4300726721285167, 0.13088957628356482], [-0.3148289313469241, -0.03851715211982174]]",density,black,,,1301830,visual,8,[],"['1', '2', '3', '4']",1,2023.2.3,harveyvisual,2.1,[],8,0.75,
0,pause,0.4,None,None,None,0,41,41,41,,,,,,,,,,,,,1301830,visual,8,[],"['1', '2', '3', '4']",1,2023.2.3,harveyvisual,2.1,[],8,0.75,
4,dot,0.3,['dot'],['density'],black,0,42,42,42,,,17.100208044052124,16.811890125274658,17.111841917037964,dot,"[0.06, 0.06, 0.1, 0.1]","[[-0.0389916918612136, -0.388752419995929], [-0.2709884701808293, -0.36873671266769453], [0.09349318837137091, -0.23801008290575854], [-0.09100040788429245, -0.11490803606521542]]",density,black,,,1301830,visual,8,[],"['1', '2', '3', '4']",1,2023.2.3,harveyvisual,2.1,[],8,0.75,
0,pause,0.4,None,None,None,0,43,43,43,,,,,,,,,,,,,1301830,visual,8,[],"['1', '2', '3', '4']",1,2023.2.3,harveyvisual,2.1,[],8,0.75,
4,dot,0.3,['dot'],['density'],black,0,44,44,44,,,17.800209999084473,17.511873960494995,17.81186294555664,dot,"[0.08, 0.08, 0.06, 0.06]","[[-0.47693618450386616, -0.1525114564248906], [-0.12413069550496705, 0.03327587270375396], [-0.32964510574757994, -0.012304557788591533], [-0.22851041427491325, -0.22018408257550984]]",density,black,,,1301830,visual,8,[],"['1', '2', '3', '4']",1,2023.2.3,harveyvisual,2.1,[],8,0.75,
0,pause,0.4,None,None,None,0,45,45,45,,,,,,,,,,,,,1301830,visual,8,[],"['1', '2', '3', '4']",1,2023.2.3,harveyvisual,2.1,[],8,0.75,
4,dot,0.3,['dot'],['density'],black,0,46,46,46,,,18.500212907791138,18.211820125579834,18.511845111846924,dot,"[0.08, 0.1, 0.08, 0.1]","[[0.0004228548582206217, 0.4437421379736539], [0.24572762857664815, 0.2260868474052859], [0.007756854070108054, 0.1846819218217072], [0.22099789303306372, 0.4278063517398125]]",density,black,,,1301830,visual,8,[],"['1', '2', '3', '4']",1,2023.2.3,harveyvisual,2.1,[],8,0.75,
0,pause,0.4,None,None,None,0,47,47,47,,,,,,,,,,,,,1301830,visual,8,[],"['1', '2', '3', '4']",1,2023.2.3,harveyvisual,2.1,[],8,0.75,
5,dot,0.3,['dot'],['density'],black,0,48,48,48,,,19.200215101242065,18.911885023117065,19.211791038513184,dot,"[0.08, 0.08, 0.1, 0.08, 0.08]","[[0.10558973120531606, -0.20428866875977839], [-0.0893225412758366, 0.16524926947551877], [-0.05793580974794309, -0.07826743033729393], [0.11130747138107101, 0.10875249109580729], [0.28035132100960686, -0.09064984251937742]]",density,black,,,1301830,visual,8,[],"['1', '2', '3', '4']",1,2023.2.3,harveyvisual,2.1,[],8,0.75,
0,pause,0.4,None,None,None,0,49,49,49,,,,,,,,,,,,,1301830,visual,8,[],"['1', '2', '3', '4']",1,2023.2.3,harveyvisual,2.1,[],8,0.75,
5,dot,0.3,['dot'],['density'],white,0,50,50,50,,,19.900224924087524,19.61195397377014,19.911940097808838,dot,"[0.08, 0.06, 0.08, 0.1, 0.06]","[[-0.47409275164437775, -0.17842554437930905], [-0.28800513042966097, -0.4059597382025641], [-0.20075697267214665, 0.008887320625593834], [-0.2708677629513771, -0.1868162154653106], [-0.0886924353013077, -0.2820475711339636]]",density,white,,,1301830,visual,8,[],"['1', '2', '3', '4']",1,2023.2.3,harveyvisual,2.1,[],8,0.75,
0,pause,0.4,None,None,None,0,51,51,51,,,,,,,,,,,,,1301830,visual,8,[],"['1', '2', '3', '4']",1,2023.2.3,harveyvisual,2.1,[],8,0.75,
5,dot,0.3,['dot'],['density'],black,0,52,52,52,,,20.600227117538452,20.311954021453857,20.611786127090454,dot,"[0.06, 0.1, 0.06, 0.1, 0.1]","[[0.34746533592570195, 0.16118282603596082], [0.14457128296481445, 0.28865621170929245], [0.4549189851861922, 0.34228556952890804], [0.008483415068308318, 0.44103246018778014], [0.27150044131742485, 0.4621652121832405]]",density,black,,,1301830,visual,8,[],"['1', '2', '3', '4']",1,2023.2.3,harveyvisual,2.1,[],8,0.75,
0,pause,0.4,None,None,None,0,53,53,53,,,,,,,,,,,,,1301830,visual,8,[],"['1', '2', '3', '4']",1,2023.2.3,harveyvisual,2.1,[],8,0.75,
5,dot,0.3,['dot'],['density'],black,0,54,54,54,,,21.300218105316162,21.011779069900513,21.311954021453857,dot,"[0.06, 0.1, 0.08, 0.08, 0.06]","[[-0.19096480170835262, 0.2202776521134577], [0.009488999043989208, 0.5721548226574139], [0.16477125949827795, 0.3732973518003487], [0.07476286221063107, 0.1476230553836633], [-0.051949696108355745, 0.36609537475325354]]",density,black,,,1301830,visual,8,[],"['1', '2', '3', '4']",1,2023.2.3,harveyvisual,2.1,[],8,0.75,
0,pause,0.4,None,None,None,0,55,55,55,,,,,,,,,,,,,1301830,visual,8,[],"['1', '2', '3', '4']",1,2023.2.3,harveyvisual,2.1,[],8,0.75,
5,dot,0.3,['dot'],['density'],black,0,56,56,56,,,22.00021195411682,21.712021112442017,22.01196312904358,dot,"[0.06, 0.06, 0.06, 0.06, 0.1]","[[-0.18510638544872327, 0.41559840932892733], [-0.057175862535637494, 0.18304904272057057], [0.24003340414173915, 0.43371676657957026], [0.006490958465160464, 0.4770521622163581], [0.13658455045585424, 0.2476502540597336]]",density,black,,,1301830,visual,8,[],"['1', '2', '3', '4']",1,2023.2.3,harveyvisual,2.1,[],8,0.75,
0,pause,0.4,None,None,None,0,57,57,57,,,,,,,,,,,,,1301830,visual,8,[],"['1', '2', '3', '4']",1,2023.2.3,harveyvisual,2.1,[],8,0.75,
5,dot,0.3,['dot'],['density'],black,0,58,58,58,,,22.700223922729492,22.41179895401001,22.71173405647278,dot,"[0.08, 0.06, 0.08, 0.1, 0.08]","[[-0.006164932418690097, -0.4528126201229341], [-0.1681524682570009, -0.11721653268637569], [-0.1959903964051736, -0.3710708837277218], [0.03544926667602863, -0.1302589477940128], [0.16830580561999814, -0.32298356607012285]]",density,black,,,1301830,visual,8,[],"['1', '2', '3', '4']",1,2023.2.3,harveyvisual,2.1,[],8,0.75,
0,pause,0.4,None,None,None,0,59,59,59,,,,,,,,,,,,,1301830,visual,8,[],"['1', '2', '3', '4']",1,2023.2.3,harveyvisual,2.1,[],8,0.75,
6,dot,0.3,['dot'],['density'],black,0,60,60,60,,,23.40021800994873,23.111799955368042,23.411713123321533,dot,"[0.08, 0.06, 0.08, 0.06, 0.06, 0.1]","[[0.1442800129286608, -0.025670240792647715], [-0.253335145558221, 0.06312541807928282], [0.15340240856287354, 0.2410349392962658], [-0.1639657784688781, 0.25075335361279655], [-0.07910231793701084, -0.12784096878077061], [-0.011661193723423325, 0.11361106492824657]]",density,black,,,1301830,visual,8,[],"['1', '2', '3', '4']",1,2023.2.3,harveyvisual,2.1,[],8,0.75,
0,pause,0.4,None,None,None,0,61,61,61,,,,,,,,,,,,,1301830,visual,8,[],"['1', '2', '3', '4']",1,2023.2.3,harveyvisual,2.1,[],8,0.75,
6,dot,0.3,['dot'],['density'],black,0,62,62,62,,,24.10021996498108,23.811705112457275,24.11167311668396,dot,"[0.1, 0.08, 0.08, 0.06, 0.06, 0.06]","[[0.21259181929123794, -0.28356491423097735], [0.48303195854319764, 0.06048455888335473], [0.22913681079270962, 0.07473613686017411], [0.4939377514137012, -0.2837040300549214], [0.055643620130747785, -0.14290468481535015], [0.3711413815128542, -0.10952979375652658]]",density,black,,,1301830,visual,8,[],"['1', '2', '3', '4']",1,2023.2.3,harveyvisual,2.1,[],8,0.75,
0,pause,0.4,None,None,None,0,63,63,63,,,,,,,,,,,,,1301830,visual,8,[],"['1', '2', '3', '4']",1,2023.2.3,harveyvisual,2.1,[],8,0.75,
6,dot,0.3,['dot'],['density'],black,0,64,64,64,,,24.800209045410156,24.51182794570923,24.811681985855103,dot,"[0.1, 0.1, 0.1, 0.08, 0.08, 0.1]","[[0.21259181929123794, -0.28356491423097735], [0.48303195854319764, 0.06048455888335473], [0.22913681079270962, 0.07473613686017411], [0.4939377514137012, -0.2837040300549214], [0.055643620130747785, -0.14290468481535015], [0.3711413815128542, -0.10952979375652658]]",density,black,,,1301830,visual,8,[],"['1', '2', '3', '4']",1,2023.2.3,harveyvisual,2.1,[],8,0.75,
0,pause,0.4,None,None,None,0,65,65,65,,,,,,,,,,,,,1301830,visual,8,[],"['1', '2', '3', '4']",1,2023.2.3,harveyvisual,2.1,[],8,0.75,
6,dot,0.3,['dot'],['density'],black,0,66,66,66,,,25.500226974487305,25.21163511276245,25.51166296005249,dot,"[0.08, 0.08, 0.08, 0.06, 0.08, 0.06]","[[0.20407874700173578, -0.003607462636592132], [0.19900023894327637, 0.3924983297162132], [0.3038969651674081, 0.19297037853131338], [-0.03476334221878716, -0.0007504963676470482], [-0.04769005191199877, 0.33834827157296915], [0.0832402191747092, 0.1716866405281877]]",density,black,,,1301830,visual,8,[],"['1', '2', '3', '4']",1,2023.2.3,harveyvisual,2.1,[],8,0.75,
0,pause,0.4,None,None,None,0,67,67,67,,,,,,,,,,,,,1301830,visual,8,[],"['1', '2', '3', '4']",1,2023.2.3,harveyvisual,2.1,[],8,0.75,
6,dot,0.3,['dot'],['density'],black,0,68,68,68,,,26.20022201538086,25.911654949188232,26.21161198616028,dot,"[0.1, 0.06, 0.06, 0.06, 0.06, 0.08]","[[-0.3075905201299059, -0.4396409988488083], [-0.19740249700094745, -0.17714391351551703], [0.053731853964380204, -0.5240815929277938], [0.045148855841778586, -0.17580561296456876], [0.17596231810730836, -0.3386358025171148], [-0.08995737585576556, -0.36423659604885134]]",density,black,,,1301830,visual,8,[],"['1', '2', '3', '4']",1,2023.2.3,harveyvisual,2.1,[],8,0.75,
0,pause,0.4,None,None,None,0,69,69,69,,,,,,,,,,,,,1301830,visual,8,[],"['1', '2', '3', '4']",1,2023.2.3,harveyvisual,2.1,[],8,0.75,
6,dot,0.3,['dot'],['density'],white,0,70,70,70,,,26.900211095809937,26.61177396774292,26.911631107330322,dot,"[0.08, 0.06, 0.08, 0.1, 0.1, 0.06]","[[0.23625405956766557, 0.3892633732772463], [0.11760889656980711, -0.0038201085241890706], [0.42882153754783053, 0.07157264481568941], [0.22360409458703237, 0.16865996735680294], [-0.08582952339030024, 0.051003002567710905], [-0.0010028139275050567, 0.23222523166366787]]",density,white,,,1301830,visual,8,[],"['1', '2', '3', '4']",1,2023.2.3,harveyvisual,2.1,[],8,0.75,
0,pause,0.4,None,None,None,0,71,71,71,,,,,,,,,,,1,26.5314199924469,1301830,visual,8,[],"['1', '2', '3', '4']",1,2023.2.3,harveyvisual,2.1,[],8,0.75,
7,dot,0.3,['dot'],['density'],black,0,72,72,72,,,27.600224018096924,27.311674118041992,27.611732006072998,dot,"[0.08, 0.08, 0.1, 0.06, 0.08, 0.1, 0.08]","[[0.14162553822338392, 0.3850374027840034], [0.14862566890709045, -0.11120959689479885], [0.39332636479883865, 0.3869926518090174], [0.40462455387813373, -0.12110830933676162], [0.23143806607869288, 0.12402376181071403], [0.031443448417621304, 0.15083815177969048], [0.4360523150463376, 0.1818515773867412]]",density,black,,,1301830,visual,8,[],"['1', '2', '3', '4']",1,2023.2.3,harveyvisual,2.1,[],8,0.75,
0,pause,0.4,None,None,None,0,73,73,73,,,,,,,,,,,,,1301830,visual,8,[],"['1', '2', '3', '4']",1,2023.2.3,harveyvisual,2.1,[],8,0.75,
7,dot,0.3,['dot'],['density'],black,0,74,74,74,,,28.30022096633911,28.011600017547607,28.31159210205078,dot,"[0.1, 0.08, 0.1, 0.08, 0.1, 0.06, 0.06]","[[-0.16635260996794698, 0.28084462036912], [-0.40218122969076125, -0.17991686156932815], [-0.0845402480451966, 0.09445086570213204], [-0.12722724135381816, -0.176029296145206], [-0.3668576348978093, 0.24153552923633032], [-0.5374975881789634, 0.10465170418994485], [-0.31219932221879926, 0.029177302383891702]]",density,black,,,1301830,visual,8,[],"['1', '2', '3', '4']",1,2023.2.3,harveyvisual,2.1,[],8,0.75,
0,pause,0.4,None,None,None,0,75,75,75,,,,,,,,,,,,,1301830,visual,8,[],"['1', '2', '3', '4']",1,2023.2.3,harveyvisual,2.1,[],8,0.75,
7,dot,0.3,['dot'],['density'],black,0,76,76,76,,,29.00022006034851,28.711710929870605,29.0116970539093,dot,"[0.06, 0.06, 0.06, 0.1, 0.08, 0.1, 0.08]","[[-0.2822174821233986, 0.002117056236134186], [-0.10673242512413421, 0.4781556216085482], [-0.18432519539246728, 0.19072201575640843], [-0.4524596318479574, 0.13966285650530724], [0.06907010423411483, 0.2912708813513049], [-0.07412436007020941, -0.021022205933558278], [-0.3208835015251209, 0.3986768431743725]]",density,black,,,1301830,visual,8,[],"['1', '2', '3', '4']",1,2023.2.3,harveyvisual,2.1,[],8,0.75,
0,pause,0.4,None,None,None,0,77,77,77,,,,,,,,,,,,,1301830,visual,8,[],"['1', '2', '3', '4']",1,2023.2.3,harveyvisual,2.1,[],8,0.75,
7,dot,0.3,['dot'],['density'],white,0,78,78,78,,,29.700227975845337,29.41168999671936,29.71154808998108,dot,"[0.06, 0.1, 0.1, 0.1, 0.1, 0.06, 0.1]","[[-0.1639205104410485, 0.5375336320852997], [0.13665370749938832, 0.21910895384688228], [-0.33778978147358674, 0.04597826141406851], [-0.2268593015261854, 0.22000868921510455], [-0.39586497221419475, 0.3389169711393182], [-0.023188047053822363, 0.08417042442854547], [-0.025005414605345992, 0.38521147685537843]]",density,white,,,1301830,visual,8,[],"['1', '2', '3', '4']",1,2023.2.3,harveyvisual,2.1,[],8,0.75,
0,pause,0.4,None,None,None,0,79,79,79,,,,,,,,,,,1,29.397695779800415,1301830,visual,8,[],"['1', '2', '3', '4']",1,2023.2.3,harveyvisual,2.1,[],8,0.75,
7,dot,0.3,['dot'],['density'],black,0,80,80,80,,,30.40023398399353,30.111529111862183,30.41162109375,dot,"[0.06, 0.06, 0.08, 0.06, 0.08, 0.06, 0.1]","[[-0.39883248072855915, 0.30823732592088265], [-0.041341486549100435, 0.2390478988097413], [-0.013495537319202725, 0.5211111720540192], [-0.2415889716500472, 0.10795059447242317], [-0.023803066389735523, 0.02076064871433158], [0.14387498046506175, 0.3548008600093999], [-0.24331877599120405, 0.46521846842164205]]",density,black,,,1301830,visual,8,[],"['1', '2', '3', '4']",1,2023.2.3,harveyvisual,2.1,[],8,0.75,
0,pause,0.4,None,None,None,0,81,81,81,,,,,,,,,,,,,1301830,visual,8,[],"['1', '2', '3', '4']",1,2023.2.3,harveyvisual,2.1,[],8,0.75,
7,dot,0.3,['dot'],['density'],black,0,82,82,82,,,31.10021710395813,30.811527967453003,31.11151099205017,dot,"[0.08, 0.1, 0.08, 0.08, 0.08, 0.06, 0.1]","[[-0.3025445156539714, -0.42280529123536587], [0.12162933753582021, -0.2851722644810181], [-0.2753205641105948, -0.038672864930592576], [-0.4202189534315163, -0.18742991959605093], [-0.15636117447925973, -0.27217203193286355], [-0.09967880665522989, -0.47242523529006747], [-0.06261398545311019, -0.08879309989794046]]",density,black,,,1301830,visual,8,[],"['1', '2', '3', '4']",1,2023.2.3,harveyvisual,2.1,[],8,0.75,
0,pause,0.4,None,None,None,0,83,83,83,,,,,,,,,,,,,1301830,visual,8,[],"['1', '2', '3', '4']",1,2023.2.3,harveyvisual,2.1,[],8,0.75,
8,dot,0.3,['dot'],['density'],black,0,84,84,84,,,31.800218105316162,31.51148295402527,31.811625003814697,dot,"[0.08, 0.08, 0.06, 0.1, 0.06, 0.08, 0.1, 0.1]","[[-0.4462313073918426, 0.10595449025715867], [0.022923871415176152, 0.06290918987699953], [-0.12461589820496316, 0.4830175517012745], [-0.29730306390741434, 0.2752084497958106], [-0.2195410516364439, 0.056871795648565045], [0.008916049516666445, 0.2907399105306955], [-0.08256048209355603, -0.11638226771844133], [-0.4106304257826301, -0.09222594144079917]]",density,black,,,1301830,visual,8,[],"['1', '2', '3', '4']",1,2023.2.3,harveyvisual,2.1,[],8,0.75,
0,pause,0.4,None,None,None,0,85,85,85,,,,,,,,,,,,,1301830,visual,8,[],"['1', '2', '3', '4']",1,2023.2.3,harveyvisual,2.1,[],8,0.75,
8,dot,0.3,['dot'],['density'],black,0,86,86,86,,,32.50023007392883,32.21146011352539,32.51148796081543,dot,"[0.06, 0.06, 0.1, 0.1, 0.06, 0.08, 0.08, 0.08]","[[-0.43120034012996816, -0.3965796075128045], [0.1478983624034229, -0.46770986256388064], [-0.23058307999139557, -0.3238539366063682], [-0.07988642296593639, -0.13993938361429092], [-0.08664795903044427, -0.5418074813242995], [0.11879255589163208, -0.1637425359681226], [-0.09873641234556067, 0.08705286872936738], [-0.025120016651009644, -0.34045580780112095]]",density,black,,,1301830,visual,8,[],"['1', '2', '3', '4']",1,2023.2.3,harveyvisual,2.1,[],8,0.75,
0,pause,0.4,None,None,None,0,87,87,87,,,,,,,,,,,,,1301830,visual,8,[],"['1', '2', '3', '4']",1,2023.2.3,harveyvisual,2.1,[],8,0.75,
8,dot,0.3,['dot'],['density'],black,0,88,88,88,,,33.20021295547485,32.91147994995117,33.211426973342896,dot,"[0.1, 0.08, 0.08, 0.1, 0.1, 0.06, 0.08, 0.1]","[[0.15461278376755175, 0.017690045563684864], [0.4404146441246234, 0.21813023399178458], [0.05487595867990863, 0.4084021637362207], [-0.13585566436679766, 0.08658391491112073], [0.3753260993018466, -0.0029057217730488138], [0.24206240898487613, 0.3367355195829085], [0.06992318211572668, 0.2078151862649802], [0.2541279777615451, -0.17357647893213385]]",density,black,,,1301830,visual,8,[],"['1', '2', '3', '4']",1,2023.2.3,harveyvisual,2.1,[],8,0.75,
0,pause,0.4,None,None,None,0,89,89,89,,,,,,,,,,,,,1301830,visual,8,[],"['1', '2', '3', '4']",1,2023.2.3,harveyvisual,2.1,[],8,0.75,
8,dot,0.3,['dot'],['density'],black,0,90,90,90,,,33.90022110939026,33.61145091056824,33.911449909210205,dot,"[0.06, 0.08, 0.08, 0.06, 0.1, 0.06, 0.08, 0.1]","[[-0.0012777187897950197, 0.3966007492927722], [-0.28447363834021117, 0.3159852715582059], [0.19942587273623266, 0.5530929527666414], [0.21318140018031628, 0.35154814550636243], [0.2022184519229619, 0.1402347591191321], [-0.03399167273692697, 0.18426518172063944], [0.09045107803968953, -0.0428478536761596], [-0.13826990130262626, -0.021750669296841257]]",density,black,,,1301830,visual,8,[],"['1', '2', '3', '4']",1,2023.2.3,harveyvisual,2.1,[],8,0.75,
0,pause,0.4,None,None,None,0,91,91,91,,,,,,,,,,,,,1301830,visual,8,[],"['1', '2', '3', '4']",1,2023.2.3,harveyvisual,2.1,[],8,0.75,
8,dot,0.3,['dot'],['density'],black,0,92,92,92,,,34.60022592544556,34.311408042907715,34.61143207550049,dot,"[0.08, 0.08, 0.1, 0.08, 0.08, 0.06, 0.06, 0.08]","[[0.32983457944800887, -0.09988122376634187], [0.002544499336209532, 0.05447162498302279], [0.49322357980250997, 0.04173156098678792], [0.3398992085464782, -0.3241559212022164], [0.12656458423521935, -0.36323236959635974], [0.5072737450674915, -0.19500703868861743], [0.06482113683766944, -0.1422911224505784], [0.25865538318477954, 0.20042726536108785]]",density,black,,,1301830,visual,8,[],"['1', '2', '3', '4']",1,2023.2.3,harveyvisual,2.1,[],8,0.75,
0,pause,0.4,None,None,None,0,93,93,93,,,,,,,,,,,,,1301830,visual,8,[],"['1', '2', '3', '4']",1,2023.2.3,harveyvisual,2.1,[],8,0.75,
8,dot,0.3,['dot'],['density'],black,0,94,94,94,,,35.30023694038391,35.01143193244934,35.311376094818115,dot,"[0.06, 0.06, 0.06, 0.1, 0.06, 0.08, 0.06, 0.06]","[[0.2695774744445919, -0.006239189610034271], [0.562582848369008, 0.10338967896652898], [0.24075709842543627, 0.2415297589697605], [0.16944247952526825, 0.43473569867318385], [0.009973801462114143, 0.2622623098226203], [0.4378981685404615, 0.30984992123658367], [0.345623627049791, -0.19390063473497438], [0.01218861403819752, 6.35764658527089e-05]]",density,black,,,1301830,visual,8,[],"['1', '2', '3', '4']",1,2023.2.3,harveyvisual,2.1,[],8,0.75,
0,pause,0.4,None,None,None,0,95,95,95,,,,,,,,,,,,,1301830,visual,8,[],"['1', '2', '3', '4']",1,2023.2.3,harveyvisual,2.1,[],8,0.75,
9,dot,0.3,['dot'],['density'],black,0,96,96,96,,,36.00023412704468,35.71145796775818,36.011399030685425,dot,"[0.1, 0.1, 0.06, 0.1, 0.1, 0.06, 0.06, 0.06, 0.06]","[[0.1897356465634014, 0.5279682873488559], [0.32378874068874214, 0.21764355715549547], [-0.02258392144612686, 0.1538672511300514], [0.18768343673053406, 0.06258281167321837], [0.4001161654736714, 0.031858124591620046], [0.03700916369328307, 0.37047593331345124], [0.18810723797826276, -0.14148750743097815], [-0.1502435433980558, -0.03059561201510329], [-0.21808568641731116, 0.28352793851031305]]",density,black,,,1301830,visual,8,[],"['1', '2', '3', '4']",1,2023.2.3,harveyvisual,2.1,[],8,0.75,
0,pause,0.4,None,None,None,0,97,97,97,,,,,,,,,,,,,1301830,visual,8,[],"['1', '2', '3', '4']",1,2023.2.3,harveyvisual,2.1,[],8,0.75,
9,dot,0.3,['dot'],['density'],black,0,98,98,98,,,36.70021295547485,36.41135001182556,36.71138310432434,dot,"[0.08, 0.06, 0.1, 0.1, 0.1, 0.1, 0.1, 0.06, 0.08]","[[0.22829877875946783, -0.39640994854570016], [0.3366371496270161, 0.05839125036393789], [-0.11436045239834208, -0.12024221759915668], [-0.02100147820737577, -0.3824026009196371], [0.08479146627654295, 0.024089629435920912], [0.16206374850784472, -0.16075841177209507], [0.38495438842944835, -0.24810596019115372], [-0.23418047716532614, 0.09565997955556291], [0.2111996426858246, 0.23215637940447356]]",density,black,,,1301830,visual,8,[],"['1', '2', '3', '4']",1,2023.2.3,harveyvisual,2.1,[],8,0.75,
0,pause,0.4,None,None,None,0,99,99,99,,,,,,,,,,,,,1301830,visual,8,[],"['1', '2', '3', '4']",1,2023.2.3,harveyvisual,2.1,[],8,0.75,
9,dot,0.3,['dot'],['density'],white,0,100,100,100,,,37.400213956832886,37.111392974853516,37.411324977874756,dot,"[0.1, 0.06, 0.1, 0.06, 0.08, 0.1, 0.1, 0.1, 0.08]","[[-0.03413633707233166, 0.539775862693792], [0.03045342777742709, 0.14881397110038386], [0.3968101769942594, 0.3516381959676015], [-0.12464897846505978, 0.27513009849494485], [0.24828272947848068, 0.13372878599656182], [0.1825630446668698, 0.5466865974155928], [-0.40057775338259505, 0.3148646888607764], [0.06988801613907401, -0.06658504348068199], [0.07277149512897427, 0.3699912437376705]]",density,white,,,1301830,visual,8,[],"['1', '2', '3', '4']",1,2023.2.3,harveyvisual,2.1,[],8,0.75,
0,pause,0.4,None,None,None,0,101,101,101,,,,,,,,,,,1,37.018661975860596,1301830,visual,8,[],"['1', '2', '3', '4']",1,2023.2.3,harveyvisual,2.1,[],8,0.75,
9,dot,0.3,['dot'],['density'],black,0,102,102,102,,,38.100234031677246,37.81141209602356,38.111351013183594,dot,"[0.1, 0.1, 0.08, 0.1, 0.06, 0.08, 0.08, 0.08, 0.1]","[[-0.08830733675648182, -0.32541118850070216], [0.2573655446525002, -0.0029570100823114536], [0.27547652153196345, -0.34332263321768475], [-0.10322368112243578, -0.12113330350182801], [-0.09512634339583304, 0.07974184968350245], [0.1087639633701519, -0.14934854126711464], [-0.2976800736237512, -0.022953619774800198], [0.014308470788770018, -0.5004438889851849], [-0.3557422450128242, -0.24953541402881954]]",density,black,,,1301830,visual,8,[],"['1', '2', '3', '4']",1,2023.2.3,harveyvisual,2.1,[],8,0.75,
0,pause,0.4,None,None,None,0,103,103,103,,,,,,,,,,,,,1301830,visual,8,[],"['1', '2', '3', '4']",1,2023.2.3,harveyvisual,2.1,[],8,0.75,
9,dot,0.3,['dot'],['density'],black,0,104,104,104,,,38.80020999908447,38.51180601119995,38.81220006942749,dot,"[0.06, 0.1, 0.08, 0.06, 0.08, 0.06, 0.08, 0.06, 0.1]","[[-0.08858128315591524, -0.3480052213079807], [0.37291707470974605, -0.0809562497479422], [-0.04311872097798103, 0.23152249840731254], [0.1734412630875083, -0.16491363602164627], [-0.024044713080900382, -0.04824256513196188], [0.126438571592319, 0.09122014985587756], [-0.2168202887682383, 0.11190421567656858], [-0.23215605484234547, -0.20356583507002532], [0.291417597339289, 0.24351333182926893]]",density,black,,,1301830,visual,8,[],"['1', '2', '3', '4']",1,2023.2.3,harveyvisual,2.1,[],8,0.75,
0,pause,0.4,None,None,None,0,105,105,105,,,,,,,,,,,,,1301830,visual,8,[],"['1', '2', '3', '4']",1,2023.2.3,harveyvisual,2.1,[],8,0.75,
9,dot,0.3,['dot'],['density'],black,0,106,106,106,,,39.50022101402283,39.21179008483887,39.51184892654419,dot,"[0.08, 0.06, 0.08, 0.08, 0.06, 0.1, 0.1, 0.1, 0.1]","[[-0.15654783233563613, 0.5456880468186037], [-0.24757731968740795, 0.34117179271889175], [0.237608115185398, 0.5379153628426676], [0.0469559873873498, 0.0609843963705915], [0.17872629641391088, 0.30721368784738284], [-0.014663874177430473, 0.385293302856951], [-0.1034840675008618, 0.1993866575147459], [0.37552485507684036, 0.26074226948317425], [-0.1631567374159006, -0.0021534685146951615]]",density,black,,,1301830,visual,8,[],"['1', '2', '3', '4']",1,2023.2.3,harveyvisual,2.1,[],8,0.75,
0,pause,0.4,None,None,None,0,107,107,107,,,,,,,,,,,,,1301830,visual,8,[],"['1', '2', '3', '4']",1,2023.2.3,harveyvisual,2.1,[],8,0.75,
20,dot,0.3,['dot'],['density'],black,0,108,108,108,,,40.20021390914917,39.91197896003723,40.211755990982056,dot,"[0.08, 0.1, 0.08, 0.08, 0.1, 0.1, 0.08, 0.08, 0.1, 0.1, 0.08, 0.08, 0.06, 0.1, 0.1, 0.1, 0.08, 0.08, 0.08, 0.08]","[[0.3077334278819175, -0.43460108499017014], [-0.08417506599975721, -0.13540164974210384], [-0.32836757885081297, -0.2772496730464111], [-0.47898503710961793, 0.028283625136829027], [0.0006450538950424356, -0.4683060268947472], [0.164799937325544, 0.25624233558954657], [-0.5732921653294817, -0.13747033405681558], [-0.31305794963070677, 0.21653290018711469], [0.5718584710737428, 0.08720416046293647], [0.4530741532430561, 0.30364648846201026], [0.26095413740160556, 0.4486315990729126], [0.31557797885852823, 0.038833431955680564], [-0.0434311508537657, 0.13206421890080833], [-0.29017833968860685, 0.012452471133855059], [-0.1818774884087117, 0.44095830851340334], [0.06175259825100998, 0.5617979253119275], [0.5000631562108558, -0.09781292509227771], [0.1233405960907209, -0.3140339653318517], [0.07356679882173212, -0.0176909513467306], [-0.3189933816895061, -0.509950196742616]]",density,black,,,1301830,visual,8,[],"['1', '2', '3', '4']",1,2023.2.3,harveyvisual,2.1,[],8,0.75,
0,pause,0.4,None,None,None,0,109,109,109,,,,,,,,,,,,,1301830,visual,8,[],"['1', '2', '3', '4']",1,2023.2.3,harveyvisual,2.1,[],8,0.75,
20,dot,0.3,['dot'],['density'],black,0,110,110,110,,,40.900213956832886,40.611812114715576,40.914103984832764,dot,"[0.06, 0.1, 0.1, 0.1, 0.08, 0.08, 0.08, 0.08, 0.06, 0.06, 0.06, 0.1, 0.08, 0.06, 0.08, 0.06, 0.08, 0.1, 0.1, 0.06]","[[0.3046531697883059, 0.06275281474032757], [-0.34911326097823087, 0.17430481975439477], [-0.13950952067675632, -0.38292579752790334], [-0.46028188661522706, 0.3395171479588832], [-0.3722619979595385, -0.2289790548174132], [-0.17641342520918396, 0.42214211037120764], [0.09838739429567933, -0.37138209972781366], [0.3054089858058535, -0.2892209808350453], [0.2159895245184429, 0.36252988285092647], [-0.0608165927042561, -0.04704872403343252], [-0.582090984136684, 0.10523152437385064], [0.005328653451743159, 0.22537069231889184], [0.14996616461458123, -0.11420896641368744], [-0.004966981363501488, -0.566578046238252], [-0.5879538931372581, -0.13964116272444235], [0.5987680250160216, -0.03712307747841027], [0.5667091348251737, 0.1602211053466229], [0.5475960524869156, -0.2281564301193028], [0.4287212291477359, 0.3289805416945], [0.09999473222997224, 0.5476871247580946]]",density,black,,,1301830,visual,8,[],"['1', '2', '3', '4']",1,2023.2.3,harveyvisual,2.1,[],8,0.75,
0,pause,0.4,None,None,None,0,111,111,111,,,,,,,,,,,,,1301830,visual,8,[],"['1', '2', '3', '4']",1,2023.2.3,harveyvisual,2.1,[],8,0.75,
20,dot,0.3,['dot'],['density'],black,0,112,112,112,,,41.60023093223572,41.31406092643738,41.61410903930664,dot,"[0.1, 0.1, 0.08, 0.08, 0.1, 0.1, 0.1, 0.06, 0.08, 0.08, 0.1, 0.08, 0.1, 0.06, 0.08, 0.06, 0.06, 0.06, 0.1, 0.08]","[[-0.47633700332469175, -0.03303287386075904], [0.23536259276075977, 0.04055129701706184], [0.18526543279850738, 0.3682475263581789], [0.46626201045241966, 0.1384031511438243], [0.11133788335122197, -0.2652193967504064], [-0.00950847870518401, -0.5928972376222151], [0.24947776666162624, -0.4864769951528446], [-0.5068628006029983, -0.23670534874685234], [-0.18052642249995093, 0.5520492012854084], [-0.09342170337304334, 0.20010866441615704], [-0.4087498076552837, 0.21910029683422066], [0.46749731166454966, -0.09536706601882478], [0.43726163169320464, 0.366593363235654], [-0.1583596506723291, -0.13207823298833404], [-0.2273084271517159, -0.5191950319201543], [-0.3019799115042085, -0.32534675960185466], [0.12779254850764954, 0.5666098531427348], [0.31902044650054384, -0.2239133295819662], [0.4771988884951729, -0.3343359743089647], [-0.002499947121233914, -3.2238519388938514e-05]]",density,black,,,1301830,visual,8,[],"['1', '2', '3', '4']",1,2023.2.3,harveyvisual,2.1,[],8,0.75,
0,pause,0.4,None,None,None,0,113,113,113,,,,,,,,,,,,,1301830,visual,8,[],"['1', '2', '3', '4']",1,2023.2.3,harveyvisual,2.1,[],8,0.75,
20,dot,0.3,['dot'],['density'],black,0,114,114,114,,,42.30021691322327,42.01413106918335,42.3140389919281,dot,"[0.08, 0.1, 0.06, 0.06, 0.08, 0.08, 0.06, 0.06, 0.06, 0.06, 0.1, 0.08, 0.08, 0.1, 0.06, 0.06, 0.06, 0.06, 0.08, 0.08]","[[-0.051108728890636335, 0.040524176677878554], [-0.4912572941491345, -0.18441909999892256], [0.22914966211608734, -0.5349670154485188], [0.04422885335079774, 0.3208441411379668], [0.0793366493052623, -0.30945049549067477], [0.5360137282887113, -0.09306120746306565], [0.1548022570896297, 0.5380415116087357], [0.3923517406495034, 0.16711235428145593], [0.26877102156263977, 0.3478314506859067], [-0.4351015518572744, 0.0154470612040426], [-0.1609560326959032, -0.43345107162188473], [-8.412994696582743e-05, -0.5738610460127331], [-0.20097696891229738, 0.39267251419914195], [0.2877107476705124, -0.30133045028934846], [-0.3242946555356028, 0.23739994910046291], [0.2169428521621356, 0.005096314397592061], [-0.5297361610165368, 0.20546251399715154], [-0.06775610586024139, -0.18935811991861512], [0.5015192328740737, -0.2931638850170989], [-0.2997629594986919, -0.2291479161537417]]",density,black,,,1301830,visual,8,[],"['1', '2', '3', '4']",1,2023.2.3,harveyvisual,2.1,[],8,0.75,
0,pause,0.4,None,None,None,0,115,115,115,,,,,,,,,,,,,1301830,visual,8,[],"['1', '2', '3', '4']",1,2023.2.3,harveyvisual,2.1,[],8,0.75,
20,dot,0.3,['dot'],['density'],black,0,116,116,116,,,43.000216007232666,42.71406006813049,43.014050006866455,dot,"[0.08, 0.06, 0.1, 0.06, 0.06, 0.1, 0.06, 0.06, 0.08, 0.08, 0.06, 0.06, 0.1, 0.1, 0.06, 0.1, 0.08, 0.06, 0.08, 0.08]","[[0.10333772255473173, 0.19348163530353535], [-0.22222689029535797, -0.00010407273095680569], [-0.5383521960862774, 0.1704201097834065], [0.5526873703595311, 0.04729946441685595], [0.20545501798498045, -0.16221972340630353], [-0.3182821115848767, 0.33009761253410386], [0.45424674865708126, 0.26361223326910865], [0.20107507141592096, 0.551782134488094], [-0.5274321794519656, -0.2095856955446206], [0.2389958997328725, -0.4718922682467475], [-0.006934302653641478, -0.2257057985411287], [-0.4519814306585025, -0.38434872588857005], [0.34609504760479326, 0.0967996564818519], [-0.1378129394921877, -0.4149242120582879], [0.4081996765991672, -0.08707047730055156], [-0.006746324422398864, 0.030081922292732877], [0.354162328682454, -0.2987170917402412], [-0.06157826162793589, 0.39464263352566964], [-0.021493350485274565, -0.5676381041432992], [0.2404860069652539, 0.3415630550673401]]",density,black,,,1301830,visual,8,[],"['1', '2', '3', '4']",1,2023.2.3,harveyvisual,2.1,[],8,0.75,
0,pause,0.4,None,None,None,0,117,117,117,,,,,,,,,,,,,1301830,visual,8,[],"['1', '2', '3', '4']",1,2023.2.3,harveyvisual,2.1,[],8,0.75,
20,dot,0.3,['dot'],['density'],black,0,118,118,118,,,43.70021891593933,43.41401410102844,43.71403503417969,dot,"[0.06, 0.08, 0.08, 0.08, 0.06, 0.06, 0.1, 0.06, 0.1, 0.1, 0.08, 0.1, 0.1, 0.08, 0.08, 0.06, 0.08, 0.08, 0.1, 0.1]","[[0.18664140320738742, 0.40131120181510227], [-0.014113308178423045, 0.3747130889834964], [0.03829000690348794, -0.4511610839995248], [0.18739786935088099, 0.19639743025935208], [-0.21166797811662907, 0.06624686677412739], [-0.49175254600593876, -0.002180134753457963], [-0.3143619509345219, -0.4336099624804828], [0.4384147768456751, 0.22005812139338826], [-0.3067882027228779, -0.22941417798991487], [-0.5413769637461141, 0.2223647001783564], [-0.10154107037039029, -0.08976916865520623], [0.5653842440685802, -0.19692767802451297], [0.3709910851116084, -0.1643321784694431], [-0.397263629742043, 0.353451254610394], [0.5974030888607432, -0.006704569132181662], [0.24011517689265482, -0.027055329936061634], [-0.19349821969326875, 0.3018516723043907], [0.06344344654384593, 0.5805016203361897], [-0.11654552791890382, -0.32598843425832347], [0.0743155226583162, -0.17017468958679488]]",density,black,,,1301830,visual,8,[],"['1', '2', '3', '4']",1,2023.2.3,harveyvisual,2.1,[],8,0.75,
0,pause,0.4,None,None,None,0,119,119,119,,,,,,,,,,,,,1301830,visual,8,[],"['1', '2', '3', '4']",1,2023.2.3,harveyvisual,2.1,[],8,0.75,
20,dot,0.3,['dot'],['density'],black,0,120,120,120,,,44.40023994445801,44.11404204368591,44.41401505470276,dot,"[0.06, 0.06, 0.08, 0.1, 0.06, 0.1, 0.1, 0.1, 0.08, 0.1, 0.1, 0.1, 0.06, 0.08, 0.06, 0.08, 0.08, 0.08, 0.1, 0.06]","[[0.6028770302011307, -0.047148698047358294], [0.10672257453980627, -0.10706675741453386], [0.0334564718872451, -0.5426050233292603], [-0.0352898370336705, 0.06654027970933507], [-0.3781460095989866, -0.1302166639368636], [0.2965581232368626, 0.0695620609401224], [0.4899328983391088, 0.34409938779428006], [0.12916226407106146, 0.3217548831535203], [-0.09934378100238195, -0.40058039923421884], [0.5010065804579683, 0.1268416737130892], [-0.2845901409362574, -0.4793228708290987], [-0.5476738840107094, 0.18178409506978987], [-0.5829207492586558, -0.13437678389938315], [-0.15985007966190473, 0.26572233396579537], [-0.1530091146264334, 0.4955829909543191], [0.287830832606622, 0.48362223957621886], [0.4515410751303367, -0.34562389299890695], [0.26168256175300564, -0.4041155496074379], [-0.1733257171347768, -0.11595934299958716], [-0.3123599697808984, 0.10895985358859228]]",density,black,,,1301830,visual,8,[],"['1', '2', '3', '4']",1,2023.2.3,harveyvisual,2.1,[],8,0.75,
0,pause,0.4,None,None,None,0,121,121,121,,,,,,,,,,,,,1301830,visual,8,[],"['1', '2', '3', '4']",1,2023.2.3,harveyvisual,2.1,[],8,0.75,
20,dot,0.3,['dot'],['density'],black,0,122,122,122,,,45.1002299785614,44.814008951187134,45.11398911476135,dot,"[0.06, 0.06, 0.08, 0.1, 0.06, 0.08, 0.08, 0.08, 0.06, 0.06, 0.06, 0.1, 0.08, 0.1, 0.06, 0.1, 0.08, 0.06, 0.06, 0.08]","[[-0.2803365430667255, -0.4492610722741093], [0.5444318639489844, -0.09865720429983321], [-0.16084475029861056, -0.179349014464883], [0.08555787798439252, 0.47828428801264866], [-0.3364583085638968, 0.2662740228062743], [0.25700178531010476, -0.3894302115839459], [0.5658671186701506, 0.18051020200569454], [-0.5886500358442388, -0.07334684571690454], [-0.5790855262543113, 0.16472122369329512], [0.026318793658913653, -0.21892862947422254], [0.38838798418402143, 0.37879237864815674], [-0.20766368902080878, 0.06007864368399396], [0.15226552270917515, 0.2853329758681198], [-0.0945762184125597, -0.3987725917479469], [0.33320881181693507, -0.16685635616816735], [0.1511257955428853, 0.06569470695512847], [-0.35227112442265895, -0.15559978832539623], [-0.18229875213940222, 0.5456787772397684], [0.08872396573531383, -0.5986323995084883], [-0.3830529499998737, 0.4637735808188046]]",density,black,,,1301830,visual,8,[],"['1', '2', '3', '4']",1,2023.2.3,harveyvisual,2.1,[],8,0.75,
0,pause,0.4,None,None,None,0,123,123,123,,,,,,,,,,,,,1301830,visual,8,[],"['1', '2', '3', '4']",1,2023.2.3,harveyvisual,2.1,[],8,0.75,
20,dot,0.3,['dot'],['density'],black,0,124,124,124,,,45.80023407936096,45.513957023620605,45.81397294998169,dot,"[0.06, 0.06, 0.1, 0.08, 0.08, 0.08, 0.1, 0.06, 0.1, 0.1, 0.06, 0.08, 0.1, 0.08, 0.06, 0.06, 0.06, 0.08, 0.1, 0.06]","[[0.34776170473936974, 0.3882489249109918], [0.43221463190662035, -0.08159903074119562], [-0.08449350466763639, -0.5862398994348094], [-0.03963445735637494, 0.4857792928486857], [0.17234615785145935, -0.34561112315968257], [-0.2290604850092125, 0.46791320867654307], [0.20753136593013244, 0.14989622275169867], [-0.5619376415105544, -0.14498640360536325], [-0.08122403135683587, -0.2611614292339651], [-0.30202682343766507, -0.16071873625671834], [-0.45742955283095554, 0.12898001385404867], [0.3974870735414183, -0.3250995357375569], [0.5508460295678105, 0.1966908675395339], [-0.4530308505643173, 0.3353817989429283], [0.19982996020153587, -0.15087529789365922], [-0.3844042109522055, -0.45871624618045914], [0.23409673928423957, 0.5474958162219319], [0.11705519977837808, -0.5746693786661711], [-0.10424930843674785, 0.3038404459227686], [0.049329074566787035, 0.014885407255662675]]",density,black,,,1301830,visual,8,[],"['1', '2', '3', '4']",1,2023.2.3,harveyvisual,2.1,[],8,0.75,
0,pause,0.4,None,None,None,0,125,125,125,,,,,,,,,,,,,1301830,visual,8,[],"['1', '2', '3', '4']",1,2023.2.3,harveyvisual,2.1,[],8,0.75,
20,dot,0.3,['dot'],['density'],black,0,126,126,126,,,46.50022292137146,46.21394395828247,46.513965129852295,dot,"[0.08, 0.1, 0.1, 0.08, 0.1, 0.08, 0.08, 0.06, 0.08, 0.08, 0.06, 0.1, 0.06, 0.08, 0.08, 0.06, 0.1, 0.06, 0.06, 0.08]","[[-0.16259321829636325, -0.4058646681332929], [-0.27728165303914243, 0.2994037496558384], [-0.05546835175580189, -0.19419306123267338], [-0.25454022194331527, -0.18035821423015314], [-0.4825115308569044, 0.035152457592236175], [0.38982137781756687, 0.33868989221947765], [0.2725475640474311, -0.4982342468393867], [0.456563189759741, -0.008178088453180687], [0.122744438394633, -0.04762959530369071], [0.15967892605201017, -0.28670935850586815], [-0.39436707026208295, -0.4549085652821978], [0.0537427696609547, -0.47555268052523536], [-0.5796132041878532, -0.13969956995135482], [-0.23992082194838155, 0.500134667603618], [-0.07701624670098606, 0.25144408702578613], [-0.00977314749448499, 0.5030641172385818], [0.15158226966643118, 0.37142917320929814], [-0.2598555261999928, 0.03937955690553807], [-0.48812791627251606, 0.30731819052485526], [0.42861693116836175, -0.2078377232933714]]",density,black,,,1301830,visual,8,[],"['1', '2', '3', '4']",1,2023.2.3,harveyvisual,2.1,[],8,0.75,
0,pause,0.4,None,None,None,0,127,127,127,,,,,,,,,,,,,1301830,visual,8,[],"['1', '2', '3', '4']",1,2023.2.3,harveyvisual,2.1,[],8,0.75,
20,dot,0.3,['dot'],['density'],black,0,128,128,128,,,47.20021104812622,46.913952112197876,47.21391201019287,dot,"[0.06, 0.06, 0.08, 0.1, 0.06, 0.08, 0.08, 0.1, 0.1, 0.1, 0.1, 0.06, 0.06, 0.1, 0.08, 0.06, 0.08, 0.06, 0.08, 0.1]","[[0.04973220692470559, -0.549960309974587], [0.520219725192476, -0.2605283430162553], [-0.426071022449092, 0.16135369045064718], [-0.14644587343563115, 0.39668413418847737], [-0.26704812570980696, -0.5004022842412927], [0.4653355918955656, 0.1891369315540744], [0.17930088148127776, -0.022344176258498383], [0.27484900390551903, 0.22312128564061506], [-0.23283527415856964, -0.18104395392120598], [-0.4674908462987305, -0.1531250638160139], [0.4493852807723714, -0.05500611659386684], [-0.07039871248297414, 0.10941855468488759], [0.055884473345098495, -0.3075717828177711], [0.11779440533471586, 0.5551718183195634], [0.05443261190936277, 0.3375986849748499], [-0.477838234994655, -0.34815834748893715], [-0.389662886809211, 0.45798916439005555], [0.2963847696040536, -0.33023473503962664], [-0.14643158552640811, 0.5862563322973676], [0.4414911955595896, 0.38599796692003246]]",density,black,,,1301830,visual,8,[],"['1', '2', '3', '4']",1,2023.2.3,harveyvisual,2.1,[],8,0.75,
0,pause,0.4,None,None,None,0,129,129,129,,,,,,,,,,,,,1301830,visual,8,[],"['1', '2', '3', '4']",1,2023.2.3,harveyvisual,2.1,[],8,0.75,
20,dot,0.3,['dot'],['density'],black,0,130,130,130,,,47.900229930877686,47.613933086395264,47.91392493247986,dot,"[0.1, 0.1, 0.1, 0.1, 0.08, 0.06, 0.08, 0.06, 0.06, 0.06, 0.06, 0.08, 0.1, 0.1, 0.1, 0.08, 0.08, 0.06, 0.1, 0.08]","[[0.05088614619616272, 0.335766088813782], [0.1046202414176729, -0.06925172471525265], [0.33371063888125163, -0.3944311348069713], [-0.14646190386351238, 0.08922395636359415], [0.5595827461591402, -0.13228250590743726], [0.028208241658726818, 0.5696353531933125], [-0.20202715635207152, 0.32378583190750165], [0.3421719921960604, 0.2618580893618484], [0.31287476660846425, 0.025822500045782015], [-0.40569754696846516, 0.24893045639745964], [-0.009712873319808857, -0.33808641845420406], [-0.2690538365023689, 0.5029359935407418], [0.5947159486134895, 0.09258574807469103], [-0.4423803190074099, -0.271644795374275], [-0.49392136033493733, 0.04566240023894125], [-0.2808153079563905, -0.09704605092167379], [0.36971419169710507, -0.19520530027004118], [-0.21746095050689057, -0.3616863586567117], [-0.055218617463291486, -0.5524267053370101], [0.23261065342058063, 0.46225136653912513]]",density,black,,,1301830,visual,8,[],"['1', '2', '3', '4']",1,2023.2.3,harveyvisual,2.1,[],8,0.75,
0,pause,0.4,None,None,None,0,131,131,131,,,,,,,,,,,,,1301830,visual,8,[],"['1', '2', '3', '4']",1,2023.2.3,harveyvisual,2.1,[],8,0.75,
20,dot,0.3,['dot'],['density'],black,0,132,132,132,,,48.600237131118774,48.31388711929321,48.61390995979309,dot,"[0.06, 0.08, 0.06, 0.08, 0.06, 0.06, 0.06, 0.1, 0.1, 0.06, 0.08, 0.06, 0.1, 0.08, 0.1, 0.06, 0.06, 0.08, 0.06, 0.08]","[[0.015818548281689826, -0.5299127250354988], [0.41627840195380406, 0.4197757401949673], [-0.3719529276161929, -0.3614265857268345], [0.6040923631370717, 0.036297574634728824], [0.4446704987250333, -0.36284548004302], [0.09672406337341954, 0.5732825314141002], [-0.050339371137848477, 0.3680171063335773], [-0.6050493173242358, 0.01423666733240609], [0.22773982721384278, -0.09267301876065248], [-0.0010467144282357843, 0.010426751548150759], [0.17147344597779568, 0.2958092750466874], [-0.4220102303722755, 0.3002715770786689], [-0.2410537668921443, -0.020470864397047372], [0.09911933423636532, -0.25969092500493296], [0.23398077419638752, -0.4176487814158818], [-0.2793439351533673, 0.5139219577981584], [-0.11124156701903992, -0.2837512133380447], [0.4955888091834467, 0.2359885949730277], [-0.4249875030640489, 0.07361969445034966], [-0.5458881839275548, -0.21932974446976333]]",density,black,,,1301830,visual,8,[],"['1', '2', '3', '4']",1,2023.2.3,harveyvisual,2.1,[],8,0.75,
0,pause,0.4,None,None,None,0,133,133,133,,,,,,,,,,,,,1301830,visual,8,[],"['1', '2', '3', '4']",1,2023.2.3,harveyvisual,2.1,[],8,0.75,
20,dot,0.3,['dot'],['density'],black,0,134,134,134,,,49.300225019454956,49.013895988464355,49.31386208534241,dot,"[0.1, 0.08, 0.1, 0.06, 0.06, 0.06, 0.06, 0.08, 0.08, 0.06, 0.08, 0.06, 0.1, 0.08, 0.08, 0.1, 0.08, 0.06, 0.1, 0.1]","[[0.4960286598384106, 0.24834441389972695], [-0.32180719657835805, 0.010554838833634284], [-0.5832851666586569, -0.08461502725277109], [0.05026464396696717, -0.0718444273895067], [0.11311160481772742, 0.22703335349065668], [0.15962002060555647, -0.5649199176910762], [-0.3437139247230501, 0.31975862612964806], [0.05458158711821903, 0.5835566220300691], [0.22735018676741459, 0.44106024343533523], [-0.18933905389752853, -0.1984960877757848], [0.48448684142345966, -0.32365020995530913], [0.6031356367627575, -0.0035610982814766393], [0.42245995834901506, -0.08213303063196592], [-0.20606051276495657, 0.4939760702323883], [0.2745343446614661, -0.30101486660760357], [-0.5320506750718048, 0.17572928070614735], [-0.45563165976423603, -0.36308841755520793], [-0.2692261054637695, -0.4347061240316114], [-0.08595646750745012, 0.22650251281540623], [0.23752606996107917, 0.0821615118011142]]",density,black,,,1301830,visual,8,[],"['1', '2', '3', '4']",1,2023.2.3,harveyvisual,2.1,[],8,0.75,
0,pause,0.4,None,None,None,0,135,135,135,,,,,,,,,,,,,1301830,visual,8,[],"['1', '2', '3', '4']",1,2023.2.3,harveyvisual,2.1,[],8,0.75,
20,dot,0.3,['dot'],['density'],black,0,136,136,136,,,50.00022506713867,49.71387696266174,50.01387310028076,dot,"[0.06, 0.08, 0.1, 0.08, 0.06, 0.06, 0.06, 0.06, 0.06, 0.1, 0.1, 0.1, 0.1, 0.1, 0.08, 0.08, 0.1, 0.08, 0.1, 0.1]","[[-0.05139331506219147, -0.39671395822599165], [0.13629104734430664, 0.2673094746163708], [0.37150262651563737, -0.41830236187694514], [-0.48657163085680477, 0.3423533347510367], [0.15840864826221113, -0.3540202120695861], [-0.5710713854527866, 0.026029984858949695], [-0.2015314498543247, 0.24436130102618592], [-0.3513032285204268, -0.010719031346085595], [-0.5141378222940447, -0.26521620894625325], [0.502731242029815, 0.017468955091775484], [0.04789114814336404, 0.5954722621659699], [-0.31579249727592973, -0.39695762535637047], [0.2702882986885391, 0.43032034147019127], [0.5676397773002931, 0.20181763941970665], [0.195120836050095, 0.07135563476981643], [-0.19647012856008433, 0.4734870487898043], [0.5716542873875347, -0.1898517431816876], [-0.024346586871105358, 0.3865041346077004], [0.322205783142542, -0.07997176487012381], [0.04317416059056056, -0.1211472389500759]]",density,black,,,1301830,visual,8,[],"['1', '2', '3', '4']",1,2023.2.3,harveyvisual,2.1,[],8,0.75,
0,pause,0.4,None,None,None,0,137,137,137,,,,,,,,,,,,,1301830,visual,8,[],"['1', '2', '3', '4']",1,2023.2.3,harveyvisual,2.1,[],8,0.75,
20,dot,0.3,['dot'],['density'],black,0,138,138,138,,,50.700231075286865,50.41383194923401,50.71385598182678,dot,"[0.06, 0.06, 0.1, 0.08, 0.1, 0.1, 0.08, 0.08, 0.1, 0.06, 0.06, 0.1, 0.1, 0.08, 0.1, 0.06, 0.08, 0.06, 0.06, 0.06]","[[-0.12727959020738921, -0.43701581695950487], [-0.4455234348964935, 0.30734662949103736], [-0.1408154684388015, -0.0382053139196481], [0.15099844485454372, 0.4259650959741019], [0.12698489687130987, -0.1408702440396089], [0.5098047860506573, -0.2384670587469061], [0.3885124269930902, 0.19416932399304243], [0.5929091329837383, 0.05786197592395308], [0.3107690528104532, -0.4166791501792449], [-0.05231151630285924, 0.24093533273787693], [-0.40973749350062283, -0.36401669369939804], [-0.34031206597710095, 0.04697166719944024], [-0.5596647458955301, -0.2082379507368268], [-0.5897634979240497, 0.12121841059262534], [-0.24682554986382932, 0.2713891032213518], [-0.08783970425530918, 0.4794515424334971], [0.3630676711844373, -0.051991293557319684], [-0.290223907945882, 0.4859615311985518], [0.057710716376872084, -0.5035659815872735], [0.1910580557697127, 0.19851611888369658]]",density,black,,,1301830,visual,8,[],"['1', '2', '3', '4']",1,2023.2.3,harveyvisual,2.1,[],8,0.75,
0,pause,0.4,None,None,None,0,139,139,139,,,,,,,,,,,,,1301830,visual,8,[],"['1', '2', '3', '4']",1,2023.2.3,harveyvisual,2.1,[],8,0.75,
20,dot,0.3,['dot'],['density'],black,0,140,140,140,,,51.40022397041321,51.11385202407837,51.413841009140015,dot,"[0.06, 0.08, 0.1, 0.08, 0.08, 0.06, 0.08, 0.06, 0.08, 0.1, 0.06, 0.1, 0.1, 0.06, 0.06, 0.06, 0.1, 0.06, 0.06, 0.1]","[[-0.5164652589929868, 0.04950371843066581], [0.45803493027291, 0.03730008648191102], [0.26666739067270784, 0.20030049531200378], [-0.0856693345201116, -0.1674321891749686], [-0.35522697081799176, -0.4328886323753347], [0.2616134479073441, -0.08254916694244152], [-0.15718785769856125, 0.31196040928156366], [0.5884282559239006, -0.10371151362782746], [-0.18996293212230309, 0.0832929969156001], [0.17000135788995552, -0.35963976119445606], [0.35057414147654387, 0.44561179066774237], [0.10510938419568172, 0.061565892450342274], [0.1220050277165593, -0.5472373966229589], [0.039292800946110096, 0.4950400299105191], [0.4250706335330222, -0.2687485753441541], [0.5294281231781263, 0.22136951108067432], [-0.37006431927282235, -0.17581658792293692], [-0.3356217614548224, 0.4065671540282587], [-0.5674681293218832, -0.14079536385868396], [-0.08736964317244, -0.5622653234046023]]",density,black,,,1301830,visual,8,[],"['1', '2', '3', '4']",1,2023.2.3,harveyvisual,2.1,[],8,0.75,
0,pause,0.4,None,None,None,0,141,141,141,,,,,,,,,,,,,1301830,visual,8,[],"['1', '2', '3', '4']",1,2023.2.3,harveyvisual,2.1,[],8,0.75,
20,dot,0.3,['dot'],['density'],black,0,142,142,142,,,52.10023808479309,51.813838958740234,52.11381411552429,dot,"[0.1, 0.06, 0.06, 0.1, 0.06, 0.06, 0.08, 0.08, 0.08, 0.06, 0.06, 0.08, 0.1, 0.1, 0.1, 0.1, 0.08, 0.1, 0.08, 0.1]","[[0.3764298219126835, -0.10941539480510293], [-0.43566235492354455, -0.05356327337889999], [-0.44344592822547446, -0.36703769868749847], [0.026913198029479335, 0.5767454186128645], [0.006238666360331324, -0.36570828829324087], [0.578341569188671, 0.1401939477306538], [-0.14555007240068768, 0.22929452066794376], [-0.3674587598278255, 0.3461915422802886], [0.21045223178260675, 0.24990737817236208], [-0.2711437675658378, -0.16991675381158788], [0.37196487775462106, -0.39548873767190773], [0.0676919760175484, -0.5462905636524973], [0.21590669011027352, -0.005070365450317249], [0.5509438686905553, -0.2395864217001367], [0.0003173114574743785, 0.07376312119263173], [-0.12079762129400523, -0.5213146132905703], [0.3093178546455606, 0.4787053399533079], [-0.5794673897663137, 0.09387868223475573], [0.1932498926476095, -0.30645702942977626], [-0.21765667716425924, 0.4916302914423043]]",density,black,,,1301830,visual,8,[],"['1', '2', '3', '4']",1,2023.2.3,harveyvisual,2.1,[],8,0.75,
0,pause,0.4,None,None,None,0,143,143,143,,,,,,,,,,,,,1301830,visual,8,[],"['1', '2', '3', '4']",1,2023.2.3,harveyvisual,2.1,[],8,0.75,
20,dot,0.3,['dot'],['density'],black,0,144,144,144,,,52.80023503303528,52.51378512382507,52.813805103302,dot,"[0.1, 0.08, 0.08, 0.1, 0.06, 0.1, 0.06, 0.06, 0.08, 0.06, 0.1, 0.08, 0.06, 0.06, 0.08, 0.08, 0.06, 0.08, 0.08, 0.1]","[[-0.19958137232757617, -0.25599368866057237], [0.19543165391686435, 0.5237762732271735], [0.010029178897167923, -0.3910947253707038], [0.009942538607359719, -0.017638785682386415], [-0.16673818453500228, 0.4686790856089419], [0.5664693206003638, 0.15061154674647967], [-0.5271231171497038, 0.1983459677459381], [0.22880274192714878, -0.45644278827416485], [0.5696048124463028, -0.1368991296999682], [-0.47166160086957654, -0.204134057646628], [0.3539970204888606, 0.27729760837384776], [-0.3985418347752636, 0.0388734956642916], [0.3899600762761998, -0.2619235839486317], [-0.4481448927371966, -0.3968652460720469], [0.2244046569002941, 0.13714400619443834], [-0.3373826104474875, 0.2324152246652017], [-0.2164243475753514, -0.48502313860543983], [0.20738308765697877, -0.10057804678363552], [0.04280470050333074, -0.5933319819999427], [-0.18035346808214653, 0.04217970604782684]]",density,black,,,1301830,visual,8,[],"['1', '2', '3', '4']",1,2023.2.3,harveyvisual,2.1,[],8,0.75,
0,pause,0.4,None,None,None,0,145,145,145,,,,,,,,,,,,,1301830,visual,8,[],"['1', '2', '3', '4']",1,2023.2.3,harveyvisual,2.1,[],8,0.75,
20,dot,0.3,['dot'],['density'],black,0,146,146,146,,,53.500219106674194,53.213839054107666,53.51374411582947,dot,"[0.1, 0.1, 0.1, 0.06, 0.08, 0.06, 0.1, 0.06, 0.06, 0.06, 0.06, 0.1, 0.06, 0.1, 0.06, 0.08, 0.1, 0.1, 0.1, 0.06]","[[-0.13963258040950793, -0.4480867592680621], [0.02784604680903302, 0.39469796859664263], [0.4915257501242959, 0.029833549847847973], [0.3252876491287332, -0.30121292436477953], [-0.03667601858515923, -0.17848934587770365], [-0.5957837548737942, -0.04637986759201412], [0.26392913318682387, 0.3242373977628935], [-0.4314596786931916, 0.3712249557010993], [-0.0002566403979015197, 0.1409922374878635], [-0.28651907920405545, -0.28979148483369394], [0.5297757268019617, -0.15961332907594075], [0.07816613940231387, -0.40690392713502777], [0.16676742628939956, -0.11735936904308036], [-0.19988353275373544, 0.06383539032365215], [-0.19170494509911828, 0.36905849284643144], [-0.5181833103740933, -0.2493763562861362], [-0.5559563544950674, 0.20184756645658813], [0.32308043308678613, -0.4989144151225368], [0.21416788477699178, 0.13730095084235783], [0.5329415684574365, 0.23270837907058683]]",density,black,,,1301830,visual,8,[],"['1', '2', '3', '4']",1,2023.2.3,harveyvisual,2.1,[],8,0.75,
0,pause,0.4,None,None,None,0,147,147,147,,,,,,,,,,,,,1301830,visual,8,[],"['1', '2', '3', '4']",1,2023.2.3,harveyvisual,2.1,[],8,0.75,
20,dot,0.3,['dot'],['density'],black,0,148,148,148,,,54.20021891593933,53.91377401351929,54.21373391151428,dot,"[0.1, 0.06, 0.1, 0.1, 0.06, 0.1, 0.1, 0.06, 0.06, 0.1, 0.06, 0.06, 0.1, 0.08, 0.08, 0.1, 0.06, 0.1, 0.08, 0.06]","[[-0.39141082160252294, -0.3535076943906382], [-0.0695078741602203, 0.26610925697535015], [0.3399342367468031, 0.27243186502272465], [-0.13166985604685572, -0.39778709032313364], [-0.5797785499900991, -0.028911312825349644], [-0.2963901893540442, 0.1721672537428719], [0.3666539861790902, -0.31874536290815314], [-0.013919308930026908, -0.24366389181510156], [0.2920349057911503, -0.009380088459154057], [-0.07519976262273598, 0.5707696671662944], [0.11456552342395787, -0.5369904922554972], [-0.07801161732600503, -0.032803670108245586], [-0.21474834850083635, 0.40958875862710065], [0.577063278046596, -0.11579213855692154], [-0.5169150866819597, 0.16476904288419997], [0.12915182677022274, 0.3973829322689465], [0.10847856834530323, -0.0833863156932384], [0.6000582171540841, 0.07727996948893634], [0.5417234834758436, 0.2640234582623516], [0.3097258432573319, 0.5124966964117146]]",density,black,,,1301830,visual,8,[],"['1', '2', '3', '4']",1,2023.2.3,harveyvisual,2.1,[],8,0.75,
0,pause,0.4,None,None,None,0,149,149,149,,,,,,,,,,,,,1301830,visual,8,[],"['1', '2', '3', '4']",1,2023.2.3,harveyvisual,2.1,[],8,0.75,
20,dot,0.3,['dot'],['density'],black,0,150,150,150,,,54.90023994445801,54.6137580871582,54.91375207901001,dot,"[0.06, 0.06, 0.06, 0.1, 0.1, 0.06, 0.1, 0.06, 0.06, 0.1, 0.1, 0.1, 0.06, 0.1, 0.1, 0.08, 0.06, 0.06, 0.1, 0.06]","[[-0.1608813765835697, 0.3437735895531123], [0.38362541666657723, 0.2602491115077559], [-0.049446564205690935, 0.5302779096698278], [-0.5210683492657306, 0.05233069205456575], [0.5503144550328986, 0.16733879320209494], [-0.3412677514480013, 0.2395964142594164], [-0.03450462942372734, -0.2947807692087067], [0.03763091486230197, -0.0044795213877467654], [-0.21689325456524972, -0.03365771706273568], [-0.36911803873934657, -0.2429000152264534], [0.1390542233087132, -0.4163073447466009], [0.5385522160628674, -0.07537708787086345], [-0.19631656756206117, -0.5015960137476231], [0.3277099366253725, 0.48357807631857674], [0.2678309986169757, -0.18083491342119928], [0.136425378942847, 0.4614451383523811], [0.4770055091004549, -0.32601355793397085], [-0.5634904404644818, -0.15646183085493442], [0.017779202665921923, 0.27873845011476184], [-0.40891693041190935, 0.4172252519680445]]",density,black,,,1301830,visual,8,[],"['1', '2', '3', '4']",1,2023.2.3,harveyvisual,2.1,[],8,0.75,
0,pause,0.4,None,None,None,0,151,151,151,,,,,,,,,,,,,1301830,visual,8,[],"['1', '2', '3', '4']",1,2023.2.3,harveyvisual,2.1,[],8,0.75,
20,dot,0.3,['dot'],['density'],black,0,152,152,152,,,55.60021901130676,55.31370210647583,55.6137330532074,dot,"[0.08, 0.1, 0.08, 0.1, 0.1, 0.08, 0.06, 0.08, 0.06, 0.08, 0.08, 0.1, 0.1, 0.06, 0.08, 0.08, 0.1, 0.06, 0.1, 0.08]","[[0.20145856223074776, 0.5234217192613845], [0.25467593298070434, -0.5349376741712323], [-0.1874568859911347, -0.5308255574437929], [-0.3521677875069952, -0.4076972257459792], [-0.5954239168409751, 0.016067430507331004], [-0.47982132648316167, 0.2813794564106179], [0.07076184455928147, -0.4290309282147906], [0.24502767144193083, -0.10854140193804379], [-0.33279403278103314, 0.09072703736617871], [0.5378610741205129, -0.24135477953177512], [-0.08198065455421721, 0.3678887563176224], [-0.043082292181260695, 0.1327069187048482], [0.05655863625802626, -0.03310298849731952], [-0.5220889574639191, -0.18492971254834648], [0.4478219357479304, 0.05718283708334704], [-0.30339662443164134, -0.21815968696050697], [0.4599135355008187, 0.36657817275723864], [0.39915346449438516, -0.3835048582341057], [0.14827812978048371, 0.2558423692953631], [-0.30021046004665236, 0.3541586847829271]]",density,black,,,1301830,visual,8,[],"['1', '2', '3', '4']",1,2023.2.3,harveyvisual,2.1,[],8,0.75,
0,pause,0.4,None,None,None,0,153,153,153,,,,,,,,,,,,,1301830,visual,8,[],"['1', '2', '3', '4']",1,2023.2.3,harveyvisual,2.1,[],8,0.75,
20,dot,0.3,['dot'],['density'],black,0,154,154,154,,,56.300220012664795,56.0137140750885,56.313682079315186,dot,"[0.08, 0.08, 0.08, 0.08, 0.08, 0.1, 0.06, 0.1, 0.08, 0.1, 0.08, 0.06, 0.06, 0.1, 0.08, 0.1, 0.06, 0.1, 0.1, 0.08]","[[0.5894930618813837, -0.11538823280827465], [0.45804330150559946, 0.18692264763251565], [0.005830966003642191, 0.11027060325184979], [-0.008293165556538917, 0.3298694442068214], [-0.543534061510704, 0.02686902886921222], [-0.23715967253401044, -0.36538750680608373], [0.3413712491087042, 0.0030524756527974817], [-0.09553741386713932, -0.0587288275548038], [-0.39692925841454263, 0.40748866604051937], [0.09922598974827335, -0.15660883568485084], [0.1750050105819454, 0.5450292463781988], [-0.25925116539586335, 0.24525125656451718], [-0.3720958568954879, -0.1288034131485043], [0.3998038930512692, -0.18583379892625618], [0.23539661856953364, -0.39142328512426217], [0.21798824694798136, 0.33976158595976336], [-0.49639973009300786, 0.23360037370772024], [-0.046838588231661316, 0.5868978153695019], [-0.17963739651368082, 0.4368780283212249], [0.12090715396825458, -0.5867346146236978]]",density,black,,,1301830,visual,8,[],"['1', '2', '3', '4']",1,2023.2.3,harveyvisual,2.1,[],8,0.75,
0,pause,0.4,None,None,None,0,155,155,155,,,,,,,,,,,,,1301830,visual,8,[],"['1', '2', '3', '4']",1,2023.2.3,harveyvisual,2.1,[],8,0.75,
9,dot,0.3,['dot'],['density'],white,0,156,156,156,,,57.00022602081299,56.71370506286621,57.01368713378906,dot,"[0.1, 0.1, 0.08, 0.06, 0.1, 0.1, 0.08, 0.08, 0.08]","[[-0.23139737267821464, 0.4582894628988488], [-0.22563640623437264, 0.09161215191469056], [0.08653997658409265, 0.18408404769425912], [-0.34134765149242685, 0.2795210921938051], [-0.45752590330905135, 0.08752711185150099], [-0.035040587470716034, -0.07657027701648178], [-0.27120713465948276, -0.1309343981320133], [-0.3537313425617488, -0.374673418779248], [-0.09309732942360581, 0.2754840453600595]]",density,white,,,1301830,visual,8,[],"['1', '2', '3', '4']",1,2023.2.3,harveyvisual,2.1,[],8,0.75,
0,pause,0.4,None,None,None,0,157,157,157,,,,,,,,,,,1,56.707074880599976,1301830,visual,8,[],"['1', '2', '3', '4']",1,2023.2.3,harveyvisual,2.1,[],8,0.75,
9,dot,0.3,['dot'],['density'],white,0,158,158,158,,,57.70022892951965,57.41365098953247,57.7136709690094,dot,"[0.08, 0.06, 0.08, 0.1, 0.1, 0.06, 0.08, 0.1, 0.08]","[[0.17250841666444466, -0.5173949811024123], [-0.03744062107829021, -0.3895067986023326], [0.30010350549611725, -0.35742528465303014], [0.33064876224298684, -0.08057424749072183], [-0.16743636965090838, -0.09291053242622109], [0.1226827020066543, -0.24711763375004436], [0.047527772487498496, -0.037432207059122605], [0.20928928941955194, 0.09999474740890861], [-0.30040876562534896, -0.42726910911839744]]",density,white,,,1301830,visual,8,[],"['1', '2', '3', '4']",1,2023.2.3,harveyvisual,2.1,[],8,0.75,
0,pause,0.4,None,None,None,0,159,159,159,,,,,,,,,,,1,57.32115292549133,1301830,visual,8,[],"['1', '2', '3', '4']",1,2023.2.3,harveyvisual,2.1,[],8,0.75,
9,dot,0.3,['dot'],['density'],black,0,160,160,160,,,58.400217056274414,58.1136679649353,58.41364097595215,dot,"[0.1, 0.08, 0.1, 0.06, 0.1, 0.1, 0.1, 0.1, 0.1]","[[0.17250841666444466, -0.5173949811024123], [-0.03744062107829021, -0.3895067986023326], [0.30010350549611725, -0.35742528465303014], [0.33064876224298684, -0.08057424749072183], [-0.16743636965090838, -0.09291053242622109], [0.1226827020066543, -0.24711763375004436], [0.047527772487498496, -0.037432207059122605], [0.20928928941955194, 0.09999474740890861], [-0.30040876562534896, -0.42726910911839744]]",density,black,,,1301830,visual,8,[],"['1', '2', '3', '4']",1,2023.2.3,harveyvisual,2.1,[],8,0.75,
0,pause,0.4,None,None,None,0,161,161,161,,,,,,,,,,,,,1301830,visual,8,[],"['1', '2', '3', '4']",1,2023.2.3,harveyvisual,2.1,[],8,0.75,
9,dot,0.3,['dot'],['density'],black,0,162,162,162,,,59.100224018096924,58.81371307373047,59.113641023635864,dot,"[0.06, 0.08, 0.08, 0.06, 0.1, 0.08, 0.1, 0.1, 0.06]","[[-0.011980588702785358, -0.14271344386551676], [-0.15345504415890063, -0.3599837049237609], [0.2909474261289129, -0.3591516282942406], [0.16239073734315843, -0.5386624114967425], [0.2227638828830022, -0.11271380419745088], [0.06426208015886789, 0.04859175461581491], [-0.3648571389210414, -0.3413683676300365], [0.3831858227582706, 0.019718563726728144], [0.06479696894599615, -0.3534524636945761]]",density,black,,,1301830,visual,8,[],"['1', '2', '3', '4']",1,2023.2.3,harveyvisual,2.1,[],8,0.75,
0,pause,0.4,None,None,None,0,163,163,163,,,,,,,,,,,,,1301830,visual,8,[],"['1', '2', '3', '4']",1,2023.2.3,harveyvisual,2.1,[],8,0.75,
9,dot,0.3,['dot'],['density'],black,0,164,164,164,,,59.80021691322327,59.513607025146484,59.81362199783325,dot,"[0.1, 0.06, 0.1, 0.1, 0.1, 0.1, 0.08, 0.08, 0.08]","[[-0.03971785412685378, -0.013307253576883936], [-0.1795931736998084, 0.3973594317450326], [-0.3834375522639881, 0.20263766925149762], [-0.17272229141218848, -0.19949677387464254], [-0.5360333538572699, -0.009032368777402771], [-0.28286279854376034, -0.008232758075431683], [0.17411699897949384, -0.08382665075843401], [-0.16068367208365952, 0.1786486522774764], [0.029814794500374706, 0.34001547930781484]]",density,black,,,1301830,visual,8,[],"['1', '2', '3', '4']",1,2023.2.3,harveyvisual,2.1,[],8,0.75,
0,pause,0.4,None,None,None,0,165,165,165,,,,,,,,,,,,,1301830,visual,8,[],"['1', '2', '3', '4']",1,2023.2.3,harveyvisual,2.1,[],8,0.75,
9,dot,0.3,['dot'],['density'],black,0,166,166,166,,,60.50021696090698,60.213622093200684,60.513575077056885,dot,"[0.08, 0.06, 0.1, 0.08, 0.06, 0.08, 0.1, 0.06, 0.1]","[[-0.5242180236495622, 0.2097960018926228], [-0.2671382220306689, 0.3003190330968159], [-0.06183693718886379, 0.22592490829479475], [-0.2001015593906042, -0.14641750634996328], [-0.09246193223873551, 0.43765994221656135], [-0.29330373087767303, 0.05285487614136386], [0.007094383220706952, 0.008748553761596398], [0.1465325421295601, 0.294910430799518], [0.04425292235957525, -0.2230758375085622]]",density,black,,,1301830,visual,8,[],"['1', '2', '3', '4']",1,2023.2.3,harveyvisual,2.1,[],8,0.75,
0,pause,0.4,None,None,None,0,167,167,167,,,,,,,,,,,,,1301830,visual,8,[],"['1', '2', '3', '4']",1,2023.2.3,harveyvisual,2.1,[],8,0.75,
8,dot,0.3,['dot'],['density'],black,0,168,168,168,,,61.20022106170654,60.91364908218384,61.21357297897339,dot,"[0.06, 0.08, 0.06, 0.08, 0.1, 0.1, 0.08, 0.08]","[[-0.3869743371455666, 0.15388434217336297], [0.11424038932868294, 0.18734519769139274], [-0.06602262913525138, -0.20199883598953133], [-0.13221522482970946, 0.16661696891490863], [-0.2408224703751142, -0.03724946932993881], [-0.01219752370661542, -0.004327099574405561], [-0.20345141844285677, 0.44978546357431476], [0.2450906497331586, -0.012808503174003826]]",density,black,,,1301830,visual,8,[],"['1', '2', '3', '4']",1,2023.2.3,harveyvisual,2.1,[],8,0.75,
0,pause,0.4,None,None,None,0,169,169,169,,,,,,,,,,,,,1301830,visual,8,[],"['1', '2', '3', '4']",1,2023.2.3,harveyvisual,2.1,[],8,0.75,
8,dot,0.3,['dot'],['density'],black,0,170,170,170,,,61.900222063064575,61.61358308792114,61.91358494758606,dot,"[0.06, 0.1, 0.06, 0.08, 0.08, 0.1, 0.1, 0.1]","[[0.28112832868380594, 0.3075763237432237], [-0.21381995858864508, 0.197554992839043], [0.14035436555963224, -0.1470740351963634], [-0.04856350071149823, -0.017306043905309515], [0.12070301707556046, 0.11279463428917226], [0.35236156425888765, 0.046198621115284964], [-0.012223412543992913, 0.3265760435025566], [0.11745206869397669, 0.49408919182137495]]",density,black,,,1301830,visual,8,[],"['1', '2', '3', '4']",1,2023.2.3,harveyvisual,2.1,[],8,0.75,
0,pause,0.4,None,None,None,0,171,171,171,,,,,,,,,,,,,1301830,visual,8,[],"['1', '2', '3', '4']",1,2023.2.3,harveyvisual,2.1,[],8,0.75,
8,dot,0.3,['dot'],['density'],black,0,172,172,172,,,62.60022211074829,62.31352710723877,62.6135470867157,dot,"[0.1, 0.1, 0.1, 0.06, 0.06, 0.1, 0.08, 0.08]","[[-0.3290570048964025, 0.45712517183014534], [-0.12351728740192595, 0.19722326774196852], [-0.44617383739254307, -0.0315435053038489], [0.05824565693526591, 0.08769012542188236], [-0.4904255353169048, 0.31423420558286136], [-0.32491150822629034, 0.16696319418744587], [-0.12614658653380179, 0.4043789036591275], [0.10044097339982726, 0.3130264767685494]]",density,black,,,1301830,visual,8,[],"['1', '2', '3', '4']",1,2023.2.3,harveyvisual,2.1,[],8,0.75,
0,pause,0.4,None,None,None,0,173,173,173,,,,,,,,,,,,,1301830,visual,8,[],"['1', '2', '3', '4']",1,2023.2.3,harveyvisual,2.1,[],8,0.75,
8,dot,0.3,['dot'],['density'],black,0,174,174,174,,,63.300230979919434,63.013598918914795,63.31350898742676,dot,"[0.06, 0.1, 0.1, 0.1, 0.08, 0.08, 0.1, 0.06]","[[0.4578461037593053, -0.0425280984807614], [0.3105081462658962, -0.253400778181943], [0.5107466611240274, 0.18303335057259504], [0.05013881804369301, 0.21472050036076742], [0.11913774150617627, -0.046477809882714556], [0.3069987493408211, 0.11186211070896974], [0.10261508471656716, -0.25482825738733483], [-0.08881417545548334, 0.035709595317019026]]",density,black,,,1301830,visual,8,[],"['1', '2', '3', '4']",1,2023.2.3,harveyvisual,2.1,[],8,0.75,
0,pause,0.4,None,None,None,0,175,175,175,,,,,,,,,,,,,1301830,visual,8,[],"['1', '2', '3', '4']",1,2023.2.3,harveyvisual,2.1,[],8,0.75,
8,dot,0.3,['dot'],['density'],black,0,176,176,176,,,64.00023412704468,63.71354913711548,64.01353693008423,dot,"[0.1, 0.06, 0.06, 0.06, 0.08, 0.08, 0.08, 0.06]","[[-0.16499387414028463, -0.418455346753131], [0.031011941373623824, -0.006148034068666969], [-0.4150712424924157, -0.28668557629476243], [-0.199054958380199, -0.21375968732837633], [-0.4870789535587041, 0.00515905815181239], [-0.198479811208303, 0.006815000109153054], [-0.3273741662815474, 0.19008037141614484], [0.04340096687518584, -0.25044408321713213]]",density,black,,,1301830,visual,8,[],"['1', '2', '3', '4']",1,2023.2.3,harveyvisual,2.1,[],8,0.75,
0,pause,0.4,None,None,None,0,177,177,177,,,,,,,,,,,,,1301830,visual,8,[],"['1', '2', '3', '4']",1,2023.2.3,harveyvisual,2.1,[],8,0.75,
8,dot,0.3,['dot'],['density'],black,0,178,178,178,,,64.70023512840271,64.41347193717957,64.7134919166565,dot,"[0.1, 0.1, 0.06, 0.08, 0.1, 0.06, 0.06, 0.06]","[[0.4107983822504989, -0.04783789354839145], [-0.06954892783911702, 0.20421019801840873], [0.19287329246680035, -0.23674413065931216], [-0.04658255687897442, -0.27568538913083557], [0.19478566210173015, -0.00965484605936359], [-0.04069516991009335, -0.04900998707948758], [0.17921022995035232, 0.2044367826380957], [-0.22871454517575843, 0.05025111546696341]]",density,black,,,1301830,visual,8,[],"['1', '2', '3', '4']",1,2023.2.3,harveyvisual,2.1,[],8,0.75,
0,pause,0.4,None,None,None,0,179,179,179,,,,,,,,,,,,,1301830,visual,8,[],"['1', '2', '3', '4']",1,2023.2.3,harveyvisual,2.1,[],8,0.75,
7,dot,0.3,['dot'],['density'],white,0,180,180,180,,,65.40024209022522,65.11349296569824,65.41344904899597,dot,"[0.08, 0.06, 0.08, 0.06, 0.08, 0.1, 0.08]","[[-0.27819289690075527, 0.2483046813246476], [-0.5592260237138849, -0.07980801324287977], [-0.026637344717372308, -0.10521889364121585], [-0.16909952645659185, 0.05101222878256789], [-0.21868546305501066, -0.16482274839932262], [-0.3689572500107929, 0.03738969849335829], [-0.49227831811218986, 0.2063327632277477]]",density,white,,,1301830,visual,8,[],"['1', '2', '3', '4']",1,2023.2.3,harveyvisual,2.1,[],8,0.75,
0,pause,0.4,None,None,None,0,181,181,181,,,,,,,,,,,1,65.10710883140564,1301830,visual,8,[],"['1', '2', '3', '4']",1,2023.2.3,harveyvisual,2.1,[],8,0.75,
7,dot,0.3,['dot'],['density'],black,0,182,182,182,,,66.10022497177124,65.81347298622131,66.11346697807312,dot,"[0.06, 0.06, 0.1, 0.1, 0.06, 0.1, 0.08]","[[0.12902113605384963, -0.35167066519854956], [0.3838909825822851, -0.05572740120406059], [-0.02857767273637445, 0.1549795872955612], [0.19333287999408408, 0.10698923431715611], [-0.08146847087507005, -0.06064403559207536], [0.18020694687254563, -0.15550905334431223], [-0.07225335190945896, -0.28606481362007624]]",density,black,,,1301830,visual,8,[],"['1', '2', '3', '4']",1,2023.2.3,harveyvisual,2.1,[],8,0.75,
0,pause,0.4,None,None,None,0,183,183,183,,,,,,,,,,,,,1301830,visual,8,[],"['1', '2', '3', '4']",1,2023.2.3,harveyvisual,2.1,[],8,0.75,
7,dot,0.3,['dot'],['density'],black,0,184,184,184,,,66.80023002624512,66.51343107223511,66.81358599662781,dot,"[0.1, 0.08, 0.1, 0.06, 0.06, 0.06, 0.08]","[[-0.16635260996794698, 0.28084462036912], [-0.40218122969076125, -0.17991686156932815], [-0.0845402480451966, 0.09445086570213204], [-0.12722724135381816, -0.176029296145206], [-0.3668576348978093, 0.24153552923633032], [-0.5374975881789634, 0.10465170418994485], [-0.31219932221879926, 0.029177302383891702]]",density,black,,,1301830,visual,8,[],"['1', '2', '3', '4']",1,2023.2.3,harveyvisual,2.1,[],8,0.75,
0,pause,0.4,None,None,None,0,185,185,185,,,,,,,,,,,,,1301830,visual,8,[],"['1', '2', '3', '4']",1,2023.2.3,harveyvisual,2.1,[],8,0.75,
7,dot,0.3,['dot'],['density'],black,0,186,186,186,,,67.50024509429932,67.21343398094177,67.51338911056519,dot,"[0.06, 0.1, 0.08, 0.06, 0.1, 0.06, 0.08]","[[-0.4260259763687212, 0.0015611622021723967], [-0.003169876971998007, 0.13415651360788267], [-0.2586764037849864, 0.4417783913692737], [-0.4397986643511286, 0.306274470342183], [-0.0069778791964768315, 0.3653924841843964], [-0.25662591460159173, 0.21046748777052526], [-0.17930648864359452, 0.007725268650954965]]",density,black,,,1301830,visual,8,[],"['1', '2', '3', '4']",1,2023.2.3,harveyvisual,2.1,[],8,0.75,
0,pause,0.4,None,None,None,0,187,187,187,,,,,,,,,,,,,1301830,visual,8,[],"['1', '2', '3', '4']",1,2023.2.3,harveyvisual,2.1,[],8,0.75,
7,dot,0.3,['dot'],['density'],black,0,188,188,188,,,68.20024108886719,67.91342401504517,68.2134051322937,dot,"[0.1, 0.06, 0.1, 0.08, 0.1, 0.08, 0.08]","[[-0.16635260996794698, 0.28084462036912], [-0.40218122969076125, -0.17991686156932815], [-0.0845402480451966, 0.09445086570213204], [-0.12722724135381816, -0.176029296145206], [-0.3668576348978093, 0.24153552923633032], [-0.5374975881789634, 0.10465170418994485], [-0.31219932221879926, 0.029177302383891702]]",density,black,,,1301830,visual,8,[],"['1', '2', '3', '4']",1,2023.2.3,harveyvisual,2.1,[],8,0.75,
0,pause,0.4,None,None,None,0,189,189,189,,,,,,,,,,,,,1301830,visual,8,[],"['1', '2', '3', '4']",1,2023.2.3,harveyvisual,2.1,[],8,0.75,
7,dot,0.3,['dot'],['density'],black,0,190,190,190,,,68.9002411365509,68.61336302757263,68.91338610649109,dot,"[0.06, 0.08, 0.06, 0.08, 0.08, 0.06, 0.06]","[[-0.39883248072855915, 0.30823732592088265], [-0.041341486549100435, 0.2390478988097413], [-0.013495537319202725, 0.5211111720540192], [-0.2415889716500472, 0.10795059447242317], [-0.023803066389735523, 0.02076064871433158], [0.14387498046506175, 0.3548008600093999], [-0.24331877599120405, 0.46521846842164205]]",density,black,,,1301830,visual,8,[],"['1', '2', '3', '4']",1,2023.2.3,harveyvisual,2.1,[],8,0.75,
0,pause,0.4,None,None,None,0,191,191,191,,,,,,,,,,,,,1301830,visual,8,[],"['1', '2', '3', '4']",1,2023.2.3,harveyvisual,2.1,[],8,0.75,
6,dot,0.3,['dot'],['density'],white,0,192,192,192,,,69.60023903846741,69.31335401535034,69.61337399482727,dot,"[0.06, 0.1, 0.06, 0.1, 0.1, 0.08]","[[0.3299424372810393, 0.4114780133894161], [0.051944887288218326, -0.03233758374135307], [0.4337222981537534, -0.07578498258626121], [0.10477943773033714, 0.1703675017914044], [0.3400878522727408, 0.20016066552806494], [0.2510029109880425, 0.01747244452819591]]",density,white,,,1301830,visual,8,[],"['1', '2', '3', '4']",1,2023.2.3,harveyvisual,2.1,[],8,0.75,
0,pause,0.4,None,None,None,0,193,193,193,,,,,,,,,,,1,69.25159692764282,1301830,visual,8,[],"['1', '2', '3', '4']",1,2023.2.3,harveyvisual,2.1,[],8,0.75,
6,dot,0.3,['dot'],['density'],black,0,194,194,194,,,70.3002200126648,70.01335906982422,70.31332206726074,dot,"[0.06, 0.06, 0.1, 0.1, 0.1, 0.06]","[[0.21259181929123794, -0.28356491423097735], [0.48303195854319764, 0.06048455888335473], [0.22913681079270962, 0.07473613686017411], [0.4939377514137012, -0.2837040300549214], [0.055643620130747785, -0.14290468481535015], [0.3711413815128542, -0.10952979375652658]]",density,black,,,1301830,visual,8,[],"['1', '2', '3', '4']",1,2023.2.3,harveyvisual,2.1,[],8,0.75,
0,pause,0.4,None,None,None,0,195,195,195,,,,,,,,,,,,,1301830,visual,8,[],"['1', '2', '3', '4']",1,2023.2.3,harveyvisual,2.1,[],8,0.75,
6,dot,0.3,['dot'],['density'],black,0,196,196,196,,,71.00023198127747,70.71338200569153,71.01334309577942,dot,"[0.08, 0.08, 0.1, 0.06, 0.06, 0.1]","[[0.1344939073868, 0.11682503965153783], [0.2622842826516073, -0.1576809643807538], [0.491422654665352, 0.2653315688189552], [0.5669231994484553, 0.0667155191364867], [0.2299276458131091, 0.29835232047215776], [0.3356420801536577, 0.10517090915368521]]",density,black,,,1301830,visual,8,[],"['1', '2', '3', '4']",1,2023.2.3,harveyvisual,2.1,[],8,0.75,
0,pause,0.4,None,None,None,0,197,197,197,,,,,,,,,,,,,1301830,visual,8,[],"['1', '2', '3', '4']",1,2023.2.3,harveyvisual,2.1,[],8,0.75,
6,dot,0.3,['dot'],['density'],black,0,198,198,198,,,71.70024299621582,71.41328811645508,71.71331810951233,dot,"[0.1, 0.1, 0.1, 0.1, 0.08, 0.06]","[[-0.560843418842529, -0.11752527585456686], [-0.31277608783648175, 0.04003545118838376], [-0.18207900664359264, -0.3652956678781814], [-0.41442909117718774, -0.4038021739217259], [-0.14446849917993246, -0.07035639226176245], [-0.3420415871796019, -0.1631057353810994]]",density,black,,,1301830,visual,8,[],"['1', '2', '3', '4']",1,2023.2.3,harveyvisual,2.1,[],8,0.75,
0,pause,0.4,None,None,None,0,199,199,199,,,,,,,,,,,,,1301830,visual,8,[],"['1', '2', '3', '4']",1,2023.2.3,harveyvisual,2.1,[],8,0.75,
6,dot,0.3,['dot'],['density'],black,0,200,200,200,,,72.40022993087769,72.11332297325134,72.4132649898529,dot,"[0.06, 0.06, 0.08, 0.08, 0.08, 0.1]","[[-0.3078382271761739, 0.4361778186671046], [-0.059169983783578364, 0.44796520308269433], [-0.3209935464877752, 0.22545519901795916], [-0.10826469778565927, 0.24929594343002343], [-0.016554185736113114, 0.06783813438016018], [-0.29360476626160575, 0.00756342739423081]]",density,black,,,1301830,visual,8,[],"['1', '2', '3', '4']",1,2023.2.3,harveyvisual,2.1,[],8,0.75,
0,pause,0.4,None,None,None,0,201,201,201,,,,,,,,,,,,,1301830,visual,8,[],"['1', '2', '3', '4']",1,2023.2.3,harveyvisual,2.1,[],8,0.75,
6,dot,0.3,['dot'],['density'],white,0,202,202,202,,,73.10023498535156,72.81329798698425,73.11328196525574,dot,"[0.1, 0.1, 0.06, 0.08, 0.1, 0.06]","[[-0.24492162854676555, 0.16704436901929823], [-0.3861886513150086, 0.35601694661450933], [-0.48514013682315105, 0.15596888098880124], [-0.5451465436738104, -0.12931683943359434], [-0.11772959853104834, 0.007676420150436517], [-0.35755989064212684, -0.03355234579502648]]",density,white,,,1301830,visual,8,[],"['1', '2', '3', '4']",1,2023.2.3,harveyvisual,2.1,[],8,0.75,
0,pause,0.4,None,None,None,0,203,203,203,,,,,,,,,,,1,72.7610719203949,1301830,visual,8,[],"['1', '2', '3', '4']",1,2023.2.3,harveyvisual,2.1,[],8,0.75,
5,dot,0.3,['dot'],['density'],black,0,204,204,204,,,73.80023503303528,73.51325297355652,73.81327390670776,dot,"[0.06, 0.06, 0.1, 0.06, 0.08]","[[-0.13250041589442924, 0.4634743177333449], [-0.03625216126902591, 0.28212032656479163], [0.10864293512180892, 0.5244886061775208], [-0.2806491611955352, 0.29160063440784684], [-0.17458602784440078, 0.11997474961663163]]",density,black,,,1301830,visual,8,[],"['1', '2', '3', '4']",1,2023.2.3,harveyvisual,2.1,[],8,0.75,
0,pause,0.4,None,None,None,0,205,205,205,,,,,,,,,,,,,1301830,visual,8,[],"['1', '2', '3', '4']",1,2023.2.3,harveyvisual,2.1,[],8,0.75,
5,dot,0.3,['dot'],['density'],black,0,206,206,206,,,74.50022006034851,74.21325612068176,74.51320910453796,dot,"[0.1, 0.1, 0.08, 0.08, 0.08]","[[-0.006164932418690097, -0.4528126201229341], [-0.1681524682570009, -0.11721653268637569], [-0.1959903964051736, -0.3710708837277218], [0.03544926667602863, -0.1302589477940128], [0.16830580561999814, -0.32298356607012285]]",density,black,,,1301830,visual,8,[],"['1', '2', '3', '4']",1,2023.2.3,harveyvisual,2.1,[],8,0.75,
0,pause,0.4,None,None,None,0,207,207,207,,,,,,,,,,,,,1301830,visual,8,[],"['1', '2', '3', '4']",1,2023.2.3,harveyvisual,2.1,[],8,0.75,
5,dot,0.3,['dot'],['density'],white,0,208,208,208,,,75.2002170085907,74.91322898864746,75.21343302726746,dot,"[0.1, 0.06, 0.08, 0.06, 0.08]","[[0.4409169755572007, 0.017856988789309493], [0.10933872532765951, -0.20637645515835812], [0.27728831588229885, 0.198954967346464], [0.3100556643305453, -0.16532657838491105], [0.11148968869271939, 0.006469487304542018]]",density,white,,,1301830,visual,8,[],"['1', '2', '3', '4']",1,2023.2.3,harveyvisual,2.1,[],8,0.75,
0,pause,0.4,None,None,None,0,209,209,209,,,,,,,,,,,1,74.836345911026,1301830,visual,8,[],"['1', '2', '3', '4']",1,2023.2.3,harveyvisual,2.1,[],8,0.75,
5,dot,0.3,['dot'],['density'],black,0,210,210,210,,,75.90022492408752,75.613440990448,75.91320610046387,dot,"[0.08, 0.1, 0.1, 0.06, 0.08]","[[-0.47409275164437775, -0.17842554437930905], [-0.28800513042966097, -0.4059597382025641], [-0.20075697267214665, 0.008887320625593834], [-0.2708677629513771, -0.1868162154653106], [-0.0886924353013077, -0.2820475711339636]]",density,black,,,1301830,visual,8,[],"['1', '2', '3', '4']",1,2023.2.3,harveyvisual,2.1,[],8,0.75,
0,pause,0.4,None,None,None,0,211,211,211,,,,,,,,,,,,,1301830,visual,8,[],"['1', '2', '3', '4']",1,2023.2.3,harveyvisual,2.1,[],8,0.75,
5,dot,0.3,['dot'],['density'],black,0,212,212,212,,,76.60022497177124,76.31343603134155,76.6132071018219,dot,"[0.08, 0.06, 0.08, 0.1, 0.06]","[[0.10558973120531606, -0.20428866875977839], [-0.0893225412758366, 0.16524926947551877], [-0.05793580974794309, -0.07826743033729393], [0.11130747138107101, 0.10875249109580729], [0.28035132100960686, -0.09064984251937742]]",density,black,,,1301830,visual,8,[],"['1', '2', '3', '4']",1,2023.2.3,harveyvisual,2.1,[],8,0.75,
0,pause,0.4,None,None,None,0,213,213,213,,,,,,,,,,,,,1301830,visual,8,[],"['1', '2', '3', '4']",1,2023.2.3,harveyvisual,2.1,[],8,0.75,
5,dot,0.3,['dot'],['density'],black,0,214,214,214,,,77.30024194717407,77.01319694519043,77.31333804130554,dot,"[0.08, 0.1, 0.06, 0.1, 0.1]","[[-0.07969108163070573, 0.258241044050758], [-0.3301768112222262, 0.22562982972330062], [-0.16453040906828167, -0.1622271318141552], [-0.21753854086321037, 0.04365873274764029], [0.030347216865940038, 0.07834852794011457]]",density,black,,,1301830,visual,8,[],"['1', '2', '3', '4']",1,2023.2.3,harveyvisual,2.1,[],8,0.75,
0,pause,0.4,None,None,None,0,215,215,215,,,,,,,,,,,,,1301830,visual,8,[],"['1', '2', '3', '4']",1,2023.2.3,harveyvisual,2.1,[],8,0.75,
4,dot,0.3,['dot'],['density'],black,0,216,216,216,,,78.00023007392883,77.71318006515503,78.01315212249756,dot,"[0.06, 0.1, 0.06, 0.1]","[[0.0004228548582206217, 0.4437421379736539], [0.24572762857664815, 0.2260868474052859], [0.007756854070108054, 0.1846819218217072], [0.22099789303306372, 0.4278063517398125]]",density,black,,,1301830,visual,8,[],"['1', '2', '3', '4']",1,2023.2.3,harveyvisual,2.1,[],8,0.75,
0,pause,0.4,None,None,None,0,217,217,217,,,,,,,,,,,,,1301830,visual,8,[],"['1', '2', '3', '4']",1,2023.2.3,harveyvisual,2.1,[],8,0.75,
4,dot,0.3,['dot'],['density'],white,0,218,218,218,,,78.70021891593933,78.41331791877747,78.71314811706543,dot,"[0.1, 0.08, 0.06, 0.08]","[[-0.045256114861740894, 0.2798656300268403], [-0.02131053084637037, 0.4849425601475732], [0.17666180860848907, 0.34430389164600056], [0.0747630441556118, 0.10387908342824508]]",density,white,,,1301830,visual,8,[],"['1', '2', '3', '4']",1,2023.2.3,harveyvisual,2.1,[],8,0.75,
0,pause,0.4,None,None,None,0,219,219,219,,,,,,,,,,,1,78.29870796203613,1301830,visual,8,[],"['1', '2', '3', '4']",1,2023.2.3,harveyvisual,2.1,[],8,0.75,
4,dot,0.3,['dot'],['density'],black,0,220,220,220,,,79.40023899078369,79.11311793327332,79.41331601142883,dot,"[0.1, 0.08, 0.1, 0.06]","[[-0.2516773625496151, -0.30151264897341506], [-0.16747001932966935, -0.11477707456203952], [0.007305472957725734, -0.4586877449884055], [0.017540980065453668, -0.20354321808263612]]",density,black,,,1301830,visual,8,[],"['1', '2', '3', '4']",1,2023.2.3,harveyvisual,2.1,[],8,0.75,
0,pause,0.4,None,None,None,0,221,221,221,,,,,,,,,,,,,1301830,visual,8,[],"['1', '2', '3', '4']",1,2023.2.3,harveyvisual,2.1,[],8,0.75,
4,dot,0.3,['dot'],['density'],black,0,222,222,222,,,80.10023212432861,79.81316304206848,80.1131010055542,dot,"[0.1, 0.1, 0.06, 0.08]","[[0.15462156444594843, 0.0379601134824338], [-0.046642739949193296, 0.06510400621286498], [0.12320708371464141, 0.2499967514902957], [-0.13279798436850673, 0.2624558601457805]]",density,black,,,1301830,visual,8,[],"['1', '2', '3', '4']",1,2023.2.3,harveyvisual,2.1,[],8,0.75,
0,pause,0.4,None,None,None,0,223,223,223,,,,,,,,,,,,,1301830,visual,8,[],"['1', '2', '3', '4']",1,2023.2.3,harveyvisual,2.1,[],8,0.75,
4,dot,0.3,['dot'],['density'],black,0,224,224,224,,,80.80024695396423,80.51332998275757,80.8131000995636,dot,"[0.1, 0.08, 0.06, 0.1]","[[-0.4116264312708952, 0.16775371224632304], [-0.5618780911112883, -0.04134114392370045], [-0.3363713887364365, -0.04915619770205748], [-0.48212301157369764, -0.2249233832905235]]",density,black,,,1301830,visual,8,[],"['1', '2', '3', '4']",1,2023.2.3,harveyvisual,2.1,[],8,0.75,
0,pause,0.4,None,None,None,0,225,225,225,,,,,,,,,,,,,1301830,visual,8,[],"['1', '2', '3', '4']",1,2023.2.3,harveyvisual,2.1,[],8,0.75,
4,dot,0.3,['dot'],['density'],black,0,226,226,226,,,81.50023102760315,81.21322798728943,81.51305603981018,dot,"[0.1, 0.06, 0.1, 0.06]","[[-0.3130108772186628, 0.4658633188731559], [0.06875292536802097, 0.3619778545149697], [-0.12928423743784842, 0.28835211797578114], [-0.08764786508193922, 0.5151731075523892]]",density,black,,,1301830,visual,8,[],"['1', '2', '3', '4']",1,2023.2.3,harveyvisual,2.1,[],8,0.75,
0,pause,0.4,None,None,None,0,227,227,227,,,,,,,,,,,,,1301830,visual,8,[],"['1', '2', '3', '4']",1,2023.2.3,harveyvisual,2.1,[],8,0.75,
3,dot,0.3,['dot'],['density'],black,0,228,228,228,,,82.20022392272949,81.91311407089233,82.21318101882935,dot,"[0.1, 0.1, 0.1]","[[0.13507679288784277, 0.012189921546254917], [0.31506600046810584, 0.10578898906948993], [0.12756957777796288, 0.2513869495778075]]",density,black,,,1301830,visual,8,[],"['1', '2', '3', '4']",1,2023.2.3,harveyvisual,2.1,[],8,0.75,
0,pause,0.4,None,None,None,0,229,229,229,,,,,,,,,,,,,1301830,visual,8,[],"['1', '2', '3', '4']",1,2023.2.3,harveyvisual,2.1,[],8,0.75,
3,dot,0.3,['dot'],['density'],black,0,230,230,230,,,82.90022802352905,82.61318707466125,82.91302108764648,dot,"[0.08, 0.08, 0.06]","[[-0.15188894406744968, -0.195193050272512], [6.772800145782267e-05, -0.040844811103836635], [-0.2045693439875358, 0.0038115475482788236]]",density,black,,,1301830,visual,8,[],"['1', '2', '3', '4']",1,2023.2.3,harveyvisual,2.1,[],8,0.75,
0,pause,0.4,None,None,None,0,231,231,231,,,,,,,,,,,,,1301830,visual,8,[],"['1', '2', '3', '4']",1,2023.2.3,harveyvisual,2.1,[],8,0.75,
3,dot,0.3,['dot'],['density'],black,0,232,232,232,,,83.6002209186554,83.313157081604,83.61300301551819,dot,"[0.06, 0.08, 0.1]","[[-0.5599668940784417, -0.1503624274944763], [-0.33715825845103314, -0.1742393560729378], [-0.447658281307079, 0.035586458508876644]]",density,black,,,1301830,visual,8,[],"['1', '2', '3', '4']",1,2023.2.3,harveyvisual,2.1,[],8,0.75,
0,pause,0.4,None,None,None,0,233,233,233,,,,,,,,,,,,,1301830,visual,8,[],"['1', '2', '3', '4']",1,2023.2.3,harveyvisual,2.1,[],8,0.75,
3,dot,0.3,['dot'],['density'],black,0,234,234,234,,,84.30022406578064,84.01304411888123,84.31312394142151,dot,"[0.1, 0.1, 0.08]","[[0.03752440580708033, 0.5298990797186869], [-0.14535247226304113, 0.44143535861080874], [0.07857889528852925, 0.30774558950641073]]",density,black,,,1301830,visual,8,[],"['1', '2', '3', '4']",1,2023.2.3,harveyvisual,2.1,[],8,0.75,
0,pause,0.4,None,None,None,0,235,235,235,,,,,,,,,,,,,1301830,visual,8,[],"['1', '2', '3', '4']",1,2023.2.3,harveyvisual,2.1,[],8,0.75,
3,dot,0.3,['dot'],['density'],black,0,236,236,236,,,85.00022196769714,84.71298313140869,85.01296806335449,dot,"[0.06, 0.08, 0.1]","[[-0.1599523582230929, -0.020289166781496174], [-0.3458010015304564, -0.14250622038001895], [-0.3538668896253721, 0.08903610231223419]]",density,black,,,1301830,visual,8,[],"['1', '2', '3', '4']",1,2023.2.3,harveyvisual,2.1,[],8,0.75,
0,pause,0.4,None,None,None,0,237,237,237,,,,,,,,,,,,,1301830,visual,8,[],"['1', '2', '3', '4']",1,2023.2.3,harveyvisual,2.1,[],8,0.75,
3,dot,0.3,['dot'],['density'],black,0,238,238,238,,,85.70022702217102,85.41309714317322,85.71294498443604,dot,"[0.06, 0.1, 0.08]","[[0.29938275938101017, 0.44415474715472736], [0.13070782598704628, 0.5557174004537693], [0.11832456902218637, 0.3273615767427578]]",density,black,,,1301830,visual,8,[],"['1', '2', '3', '4']",1,2023.2.3,harveyvisual,2.1,[],8,0.75,
0,pause,0.4,None,None,None,0,239,239,239,,,,,,,,,,,,,1301830,visual,8,[],"['1', '2', '3', '4']",1,2023.2.3,harveyvisual,2.1,[],8,0.75,
2,dot,0.3,['dot'],['density'],black,0,240,240,240,,,86.40023493766785,86.11295104026794,86.41306114196777,dot,"[0.06, 0.06]","[[0.11825467712572878, -0.39617910972508336], [0.05459236086910312, -0.5860717982025758]]",density,black,,,1301830,visual,8,[],"['1', '2', '3', '4']",1,2023.2.3,harveyvisual,2.1,[],8,0.75,
0,pause,0.4,None,None,None,0,241,241,241,,,,,,,,,,,,,1301830,visual,8,[],"['1', '2', '3', '4']",1,2023.2.3,harveyvisual,2.1,[],8,0.75,
2,dot,0.3,['dot'],['density'],black,0,242,242,242,,,87.10023808479309,86.81293511390686,87.11291694641113,dot,"[0.06, 0.06]","[[0.45098141687762733, -0.20237638590572143], [0.5433504117931098, -0.02475258047346216]]",density,black,,,1301830,visual,8,[],"['1', '2', '3', '4']",1,2023.2.3,harveyvisual,2.1,[],8,0.75,
0,pause,0.4,None,None,None,0,243,243,243,,,,,,,,,,,,,1301830,visual,8,[],"['1', '2', '3', '4']",1,2023.2.3,harveyvisual,2.1,[],8,0.75,
2,dot,0.3,['dot'],['density'],black,0,244,244,244,,,87.80024409294128,87.51304912567139,87.81289291381836,dot,"[0.08, 0.06]","[[-0.5356907773971091, -0.01454049690556478], [-0.3936553319468624, 0.1263392020735458]]",density,black,,,1301830,visual,8,[],"['1', '2', '3', '4']",1,2023.2.3,harveyvisual,2.1,[],8,0.75,
0,pause,0.4,None,None,None,0,245,245,245,,,,,,,,,,,,,1301830,visual,8,[],"['1', '2', '3', '4']",1,2023.2.3,harveyvisual,2.1,[],8,0.75,
2,dot,0.3,['dot'],['density'],black,0,246,246,246,,,88.50023102760315,88.21303510665894,88.51303005218506,dot,"[0.1, 0.06]","[[0.3054529246123127, 0.4455278178545299], [0.3548458028228903, 0.2510588499170468]]",density,black,,,1301830,visual,8,[],"['1', '2', '3', '4']",1,2023.2.3,harveyvisual,2.1,[],8,0.75,
0,pause,0.4,None,None,None,0,247,247,247,,,,,,,,,,,,,1301830,visual,8,[],"['1', '2', '3', '4']",1,2023.2.3,harveyvisual,2.1,[],8,0.75,
2,dot,0.3,['dot'],['density'],black,0,248,248,248,,,89.20022106170654,88.9129331111908,89.21300411224365,dot,"[0.1, 0.06]","[[-0.03288134563171543, -0.4238564918242606], [-0.10611641736664675, -0.2370354775439666]]",density,black,,,1301830,visual,8,[],"['1', '2', '3', '4']",1,2023.2.3,harveyvisual,2.1,[],8,0.75,
0,pause,0.4,None,None,None,0,249,249,249,,,,,,,,,,,,,1301830,visual,8,[],"['1', '2', '3', '4']",1,2023.2.3,harveyvisual,2.1,[],8,0.75,
2,dot,0.3,['dot'],['density'],black,0,250,250,250,,,89.90022492408752,89.6129961013794,89.9129810333252,dot,"[0.06, 0.1]","[[-0.15001882639889116, 0.48719053997247297], [-0.1736568080125972, 0.28835755901726084]]",density,black,,,1301830,visual,8,[],"['1', '2', '3', '4']",1,2023.2.3,harveyvisual,2.1,[],8,0.75,
0,pause,0.4,None,None,None,0,251,251,251,,,,,,,,,,,,,1301830,visual,8,[],"['1', '2', '3', '4']",1,2023.2.3,harveyvisual,2.1,[],8,0.75,
1,dot,0.3,['dot'],['density'],black,0,252,252,252,,,90.60024309158325,90.3129870891571,90.61297702789307,dot,[0.1],"[-0.2532192430475575, -0.5275431624831907]",density,black,,,1301830,visual,8,[],"['1', '2', '3', '4']",1,2023.2.3,harveyvisual,2.1,[],8,0.75,
0,pause,0.4,None,None,None,0,253,253,253,,,,,,,,,,,,,1301830,visual,8,[],"['1', '2', '3', '4']",1,2023.2.3,harveyvisual,2.1,[],8,0.75,
1,dot,0.3,['dot'],['density'],black,0,254,254,254,,,91.30021905899048,91.01288890838623,91.31295609474182,dot,[0.1],"[-0.22364231775977078, 0.4637426405669522]",density,black,,,1301830,visual,8,[],"['1', '2', '3', '4']",1,2023.2.3,harveyvisual,2.1,[],8,0.75,
0,pause,0.4,None,None,None,0,255,255,255,,,,,,,,,,,,,1301830,visual,8,[],"['1', '2', '3', '4']",1,2023.2.3,harveyvisual,2.1,[],8,0.75,
1,dot,0.3,['dot'],['density'],black,0,256,256,256,,,92.00022101402283,91.71280694007874,92.01279592514038,dot,[0.1],"[0.31457923939875737, -0.4122609730770665]",density,black,,,1301830,visual,8,[],"['1', '2', '3', '4']",1,2023.2.3,harveyvisual,2.1,[],8,0.75,
0,pause,0.4,None,None,None,0,257,257,257,,,,,,,,,,,,,1301830,visual,8,[],"['1', '2', '3', '4']",1,2023.2.3,harveyvisual,2.1,[],8,0.75,
1,dot,0.3,['dot'],['density'],white,0,258,258,258,,,92.70024800300598,92.41281795501709,92.7129020690918,dot,[0.08],"[0.43730911014729085, 0.38068286015665653]",density,white,,,1301830,visual,8,[],"['1', '2', '3', '4']",1,2023.2.3,harveyvisual,2.1,[],8,0.75,
0,pause,0.4,None,None,None,0,259,259,259,,,,,,,,,,,1,92.38646388053894,1301830,visual,8,[],"['1', '2', '3', '4']",1,2023.2.3,harveyvisual,2.1,[],8,0.75,
1,dot,0.3,['dot'],['density'],black,0,260,260,260,,,93.40023303031921,93.11276602745056,93.41289901733398,dot,[0.08],"[0.2830289625583117, -0.03026882548871228]",density,black,,,1301830,visual,8,[],"['1', '2', '3', '4']",1,2023.2.3,harveyvisual,2.1,[],8,0.75,
0,pause,0.4,None,None,None,0,261,261,261,,,,,,,,,,,,,1301830,visual,8,[],"['1', '2', '3', '4']",1,2023.2.3,harveyvisual,2.1,[],8,0.75,
1,dot,0.3,['dot'],['density'],black,0,262,262,262,,,94.10023808479309,93.81274199485779,94.11274003982544,dot,[0.06],"[0.0038807231877187303, -0.2777732366953785]",density,black,,,1301830,visual,8,[],"['1', '2', '3', '4']",1,2023.2.3,harveyvisual,2.1,[],8,0.75,
0,pause,0.4,None,None,None,0,263,263,263,,,,,,,,,,,,,1301830,visual,8,[],"['1', '2', '3', '4']",1,2023.2.3,harveyvisual,2.1,[],8,0.75,
20,dot,0.3,['dot'],['density'],black,0,264,264,264,,,94.80025005340576,94.51285696029663,94.8127191066742,dot,"[0.1, 0.06, 0.08, 0.08, 0.1, 0.1, 0.1, 0.1, 0.1, 0.08, 0.08, 0.06, 0.08, 0.1, 0.1, 0.1, 0.08, 0.06, 0.1, 0.1]","[[-0.3176418991144933, 0.06183990665554373], [0.17065077546621166, 0.48092431221760246], [-0.12026239688872825, 0.24152806241055047], [-0.36405377193038496, 0.4314161939025932], [-0.07956565311722563, -0.4684463427412651], [0.5632926264916699, -0.08458894202140241], [-0.2687428116368235, -0.3159137959993614], [0.22702545202483937, -0.060995299354458576], [-0.059846730042872553, -0.08277058894027367], [0.13913540604203278, 0.25006729619166856], [0.1782726719481197, -0.37275143713844594], [0.3443385035301495, -0.2323245952982989], [-0.5992022366151591, -0.05860658818240118], [0.4017084081915271, 0.08259062866601863], [0.5238607896342301, 0.2660754793529279], [-0.16887925333639803, 0.4497127807424607], [-0.5089168948521394, -0.24306710741189383], [0.3550801386516853, -0.481902315500291], [0.40581897824320834, 0.424788040884128], [-0.46346722505267857, 0.22983000282505023]]",density,black,,,1301830,visual,8,[],"['1', '2', '3', '4']",1,2023.2.3,harveyvisual,2.1,[],8,0.75,
0,pause,0.4,None,None,None,0,265,265,265,,,,,,,,,,,,,1301830,visual,8,[],"['1', '2', '3', '4']",1,2023.2.3,harveyvisual,2.1,[],8,0.75,
20,dot,0.3,['dot'],['density'],black,0,266,266,266,,,95.50022196769714,95.21284794807434,95.51284694671631,dot,"[0.06, 0.08, 0.08, 0.1, 0.08, 0.06, 0.1, 0.06, 0.06, 0.1, 0.1, 0.1, 0.06, 0.06, 0.08, 0.06, 0.08, 0.1, 0.1, 0.06]","[[0.27293696681477586, -0.14111931241658066], [0.11906638357870225, -0.25705003824604117], [-0.18482214602918218, -0.1573210765008718], [-0.5798164875022909, 0.03165128428054503], [-0.37386198634217205, -0.4532303252783368], [-0.5662640417571622, -0.16218846514159185], [0.3653855198336138, 0.20288362851440944], [0.5949777635842565, -0.0880579951789078], [0.15169187448707577, -0.5714217004742399], [0.3800432817932762, -0.3119998772604251], [-0.35554588997260916, -0.26302739977103434], [-0.12308108520746858, -0.5428522678890257], [-0.21750762761866932, 0.49243712101802484], [0.029342003891751012, 0.04258297779531184], [0.11118121134180425, 0.3933809665703921], [-0.5482189543450654, 0.22386268653928432], [-0.34393543778278707, 0.33793410048943334], [-0.3475638586857018, 0.10521703469585164], [-0.022507234785116514, 0.5647878657048631], [0.5388286873348532, 0.12631243383280727]]",density,black,,,1301830,visual,8,[],"['1', '2', '3', '4']",1,2023.2.3,harveyvisual,2.1,[],8,0.75,
0,pause,0.4,None,None,None,0,267,267,267,,,,,,,,,,,,,1301830,visual,8,[],"['1', '2', '3', '4']",1,2023.2.3,harveyvisual,2.1,[],8,0.75,
