num,mod,duration,shape,ll_cond,colors,.thisRepN,.thisTrialN,.thisN,.thisIndex,thisRow.t,notes,t_start,t_stop,shapes,size,pos,cond,color,match,answer_truth,RT,participant,session,starting_run,left button (match/odd),right button (non-match/even),samples_per_block,_thisDir,out_path,psychopy version,expName,win,MR_settings,routine_timer,background,offset,audio,number_runs,radius,fix_cross,defaultKeyboard,
1,dot,0.3,['dot'],['density'],black,0,0,0,0,,,2.1163339614868164,2.4162790775299072,dot,[0.06],"[-0.31757534052014, 0.30709612076893067]",density,black,,,,N003,visual,1,[],"['1', '2', '3', '4']",1,/NOBACKUP2/USER/Jeong/experiment2,/NOBACKUP2/USER/Jeong/experiment2/logfiles/visual/N003_d-20240920,2023.2.3,harveyvisual,"Window(allowGUI=False, allowStencil=False, autoLog=True, backendConf=UNKNOWN, backgroundFit='cover', backgroundImage=None, bitsMode=UNKNOWN, blendMode='avg', bpc=(8, 8, 8), color=array([-1, -1, -1]), colorSpace='rgb', depthBits=8, fullscr=<method-wrapper '__getattribute__' of attributeSetter object at 0x7f2080840460>, gamma=None, gammaErrorPolicy='raise', lms=UNKNOWN, monitor=<psychopy.monitors.calibTools.Monitor object at 0x7f207991b400>, multiSample=False, name='stim_window', numSamples=2, pos=[0.0, 0.0], screen=0, size=array([1920, 1080]), stencilBits=0, stereo=False, title='PsychoPy', units='deg', useFBO=True, useRetina=False, viewOri=0.0, viewPos=None, viewScale=None, waitBlanking=True, winType='pyglet')","{'TR': 2.1, 'volumes': 5, 'sync': '5', 'skip': 0, 'sound': False}",<psychopy.clock.CountdownTimer object at 0x7f20798f4d60>,"Rect(__class__=<class 'psychopy.visual.rect.Rect'>, anchor=('center', 'center'), autoDraw=True, autoLog=True, closeShape=True, color=method-wrapper(...), colorSpace='rgb', contrast=None, depth=0, draggable=False, fillColor=array([0.00392157, 0.00392157, 0.00392157]), fillColorSpace='rgb', fillRGB=array([0.00392157, 0.00392157, 0.00392157]), interpolate=True, lineColor=array([0., 0., 0.]), lineColorSpace='rgb', lineRGB=array([0, 0, 0]), lineWidth=1.5, name='unnamed Rect', opacity=0.5, ori=0.0, pos=array([0., 0.]), size=array([2., 2.]), units='norm', vertices=ndarray(...), win=Window(...))",2.1,[],8,0.75,"[<psychopy.visual.line.Line object at 0x7f206a85a6d0>, <psychopy.visual.line.Line object at 0x7f206a85a9d0>]",<psychopy.hardware.keyboard.Keyboard object at 0x7f2060762970>,
0,pause,0.4,None,None,None,0,1,1,1,,,,,,,,,,,,,N003,visual,1,[],"['1', '2', '3', '4']",1,/NOBACKUP2/USER/Jeong/experiment2,/NOBACKUP2/USER/Jeong/experiment2/logfiles/visual/N003_d-20240920,2023.2.3,harveyvisual,"Window(allowGUI=False, allowStencil=False, autoLog=True, backendConf=UNKNOWN, backgroundFit='cover', backgroundImage=None, bitsMode=UNKNOWN, blendMode='avg', bpc=(8, 8, 8), color=array([-1, -1, -1]), colorSpace='rgb', depthBits=8, fullscr=<method-wrapper '__getattribute__' of attributeSetter object at 0x7f2080840460>, gamma=None, gammaErrorPolicy='raise', lms=UNKNOWN, monitor=<psychopy.monitors.calibTools.Monitor object at 0x7f207991b400>, multiSample=False, name='stim_window', numSamples=2, pos=[0.0, 0.0], screen=0, size=array([1920, 1080]), stencilBits=0, stereo=False, title='PsychoPy', units='deg', useFBO=True, useRetina=False, viewOri=0.0, viewPos=None, viewScale=None, waitBlanking=True, winType='pyglet')","{'TR': 2.1, 'volumes': 5, 'sync': '5', 'skip': 0, 'sound': False}",<psychopy.clock.CountdownTimer object at 0x7f20798f4d60>,"Rect(__class__=<class 'psychopy.visual.rect.Rect'>, anchor=('center', 'center'), autoDraw=True, autoLog=True, closeShape=True, color=method-wrapper(...), colorSpace='rgb', contrast=None, depth=0, draggable=False, fillColor=array([0.00392157, 0.00392157, 0.00392157]), fillColorSpace='rgb', fillRGB=array([0.00392157, 0.00392157, 0.00392157]), interpolate=True, lineColor=array([0., 0., 0.]), lineColorSpace='rgb', lineRGB=array([0, 0, 0]), lineWidth=1.5, name='unnamed Rect', opacity=0.5, ori=0.0, pos=array([0., 0.]), size=array([2., 2.]), units='norm', vertices=ndarray(...), win=Window(...))",2.1,[],8,0.75,"[<psychopy.visual.line.Line object at 0x7f206a85a6d0>, <psychopy.visual.line.Line object at 0x7f206a85a9d0>]",<psychopy.hardware.keyboard.Keyboard object at 0x7f2060762970>,
1,dot,0.3,['dot'],['density'],black,0,2,2,2,,,2.7996490001678467,3.1167750358581543,dot,[0.08],"[0.15956500649880873, 0.2640393008039057]",density,black,true,correct,nan,N003,visual,1,[],"['1', '2', '3', '4']",1,/NOBACKUP2/USER/Jeong/experiment2,/NOBACKUP2/USER/Jeong/experiment2/logfiles/visual/N003_d-20240920,2023.2.3,harveyvisual,"Window(allowGUI=False, allowStencil=False, autoLog=True, backendConf=UNKNOWN, backgroundFit='cover', backgroundImage=None, bitsMode=UNKNOWN, blendMode='avg', bpc=(8, 8, 8), color=array([-1, -1, -1]), colorSpace='rgb', depthBits=8, fullscr=<method-wrapper '__getattribute__' of attributeSetter object at 0x7f2080840460>, gamma=None, gammaErrorPolicy='raise', lms=UNKNOWN, monitor=<psychopy.monitors.calibTools.Monitor object at 0x7f207991b400>, multiSample=False, name='stim_window', numSamples=2, pos=[0.0, 0.0], screen=0, size=array([1920, 1080]), stencilBits=0, stereo=False, title='PsychoPy', units='deg', useFBO=True, useRetina=False, viewOri=0.0, viewPos=None, viewScale=None, waitBlanking=True, winType='pyglet')","{'TR': 2.1, 'volumes': 5, 'sync': '5', 'skip': 0, 'sound': False}",<psychopy.clock.CountdownTimer object at 0x7f20798f4d60>,"Rect(__class__=<class 'psychopy.visual.rect.Rect'>, anchor=('center', 'center'), autoDraw=True, autoLog=True, closeShape=True, color=method-wrapper(...), colorSpace='rgb', contrast=None, depth=0, draggable=False, fillColor=array([0.00392157, 0.00392157, 0.00392157]), fillColorSpace='rgb', fillRGB=array([0.00392157, 0.00392157, 0.00392157]), interpolate=True, lineColor=array([0., 0., 0.]), lineColorSpace='rgb', lineRGB=array([0, 0, 0]), lineWidth=1.5, name='unnamed Rect', opacity=0.5, ori=0.0, pos=array([0., 0.]), size=array([2., 2.]), units='norm', vertices=ndarray(...), win=Window(...))",2.1,[],8,0.75,"[<psychopy.visual.line.Line object at 0x7f206a85a6d0>, <psychopy.visual.line.Line object at 0x7f206a85a9d0>]",<psychopy.hardware.keyboard.Keyboard object at 0x7f2060762970>,
0,pause,0.4,None,None,None,0,3,3,3,,,,,,,,,,,,,N003,visual,1,[],"['1', '2', '3', '4']",1,/NOBACKUP2/USER/Jeong/experiment2,/NOBACKUP2/USER/Jeong/experiment2/logfiles/visual/N003_d-20240920,2023.2.3,harveyvisual,"Window(allowGUI=False, allowStencil=False, autoLog=True, backendConf=UNKNOWN, backgroundFit='cover', backgroundImage=None, bitsMode=UNKNOWN, blendMode='avg', bpc=(8, 8, 8), color=array([-1, -1, -1]), colorSpace='rgb', depthBits=8, fullscr=<method-wrapper '__getattribute__' of attributeSetter object at 0x7f2080840460>, gamma=None, gammaErrorPolicy='raise', lms=UNKNOWN, monitor=<psychopy.monitors.calibTools.Monitor object at 0x7f207991b400>, multiSample=False, name='stim_window', numSamples=2, pos=[0.0, 0.0], screen=0, size=array([1920, 1080]), stencilBits=0, stereo=False, title='PsychoPy', units='deg', useFBO=True, useRetina=False, viewOri=0.0, viewPos=None, viewScale=None, waitBlanking=True, winType='pyglet')","{'TR': 2.1, 'volumes': 5, 'sync': '5', 'skip': 0, 'sound': False}",<psychopy.clock.CountdownTimer object at 0x7f20798f4d60>,"Rect(__class__=<class 'psychopy.visual.rect.Rect'>, anchor=('center', 'center'), autoDraw=True, autoLog=True, closeShape=True, color=method-wrapper(...), colorSpace='rgb', contrast=None, depth=0, draggable=False, fillColor=array([0.00392157, 0.00392157, 0.00392157]), fillColorSpace='rgb', fillRGB=array([0.00392157, 0.00392157, 0.00392157]), interpolate=True, lineColor=array([0., 0., 0.]), lineColorSpace='rgb', lineRGB=array([0, 0, 0]), lineWidth=1.5, name='unnamed Rect', opacity=0.5, ori=0.0, pos=array([0., 0.]), size=array([2., 2.]), units='norm', vertices=ndarray(...), win=Window(...))",2.1,[],8,0.75,"[<psychopy.visual.line.Line object at 0x7f206a85a6d0>, <psychopy.visual.line.Line object at 0x7f206a85a9d0>]",<psychopy.hardware.keyboard.Keyboard object at 0x7f2060762970>,
1,dot,0.3,['dot'],['density'],black,0,4,4,4,,,3.516756057739258,3.816739082336426,dot,[0.08],"[-0.40242150741388927, 0.27329756427278695]",density,black,true,correct,nan,N003,visual,1,[],"['1', '2', '3', '4']",1,/NOBACKUP2/USER/Jeong/experiment2,/NOBACKUP2/USER/Jeong/experiment2/logfiles/visual/N003_d-20240920,2023.2.3,harveyvisual,"Window(allowGUI=False, allowStencil=False, autoLog=True, backendConf=UNKNOWN, backgroundFit='cover', backgroundImage=None, bitsMode=UNKNOWN, blendMode='avg', bpc=(8, 8, 8), color=array([-1, -1, -1]), colorSpace='rgb', depthBits=8, fullscr=<method-wrapper '__getattribute__' of attributeSetter object at 0x7f2080840460>, gamma=None, gammaErrorPolicy='raise', lms=UNKNOWN, monitor=<psychopy.monitors.calibTools.Monitor object at 0x7f207991b400>, multiSample=False, name='stim_window', numSamples=2, pos=[0.0, 0.0], screen=0, size=array([1920, 1080]), stencilBits=0, stereo=False, title='PsychoPy', units='deg', useFBO=True, useRetina=False, viewOri=0.0, viewPos=None, viewScale=None, waitBlanking=True, winType='pyglet')","{'TR': 2.1, 'volumes': 5, 'sync': '5', 'skip': 0, 'sound': False}",<psychopy.clock.CountdownTimer object at 0x7f20798f4d60>,"Rect(__class__=<class 'psychopy.visual.rect.Rect'>, anchor=('center', 'center'), autoDraw=True, autoLog=True, closeShape=True, color=method-wrapper(...), colorSpace='rgb', contrast=None, depth=0, draggable=False, fillColor=array([0.00392157, 0.00392157, 0.00392157]), fillColorSpace='rgb', fillRGB=array([0.00392157, 0.00392157, 0.00392157]), interpolate=True, lineColor=array([0., 0., 0.]), lineColorSpace='rgb', lineRGB=array([0, 0, 0]), lineWidth=1.5, name='unnamed Rect', opacity=0.5, ori=0.0, pos=array([0., 0.]), size=array([2., 2.]), units='norm', vertices=ndarray(...), win=Window(...))",2.1,[],8,0.75,"[<psychopy.visual.line.Line object at 0x7f206a85a6d0>, <psychopy.visual.line.Line object at 0x7f206a85a9d0>]",<psychopy.hardware.keyboard.Keyboard object at 0x7f2060762970>,
0,pause,0.4,None,None,None,0,5,5,5,,,,,,,,,,,,,N003,visual,1,[],"['1', '2', '3', '4']",1,/NOBACKUP2/USER/Jeong/experiment2,/NOBACKUP2/USER/Jeong/experiment2/logfiles/visual/N003_d-20240920,2023.2.3,harveyvisual,"Window(allowGUI=False, allowStencil=False, autoLog=True, backendConf=UNKNOWN, backgroundFit='cover', backgroundImage=None, bitsMode=UNKNOWN, blendMode='avg', bpc=(8, 8, 8), color=array([-1, -1, -1]), colorSpace='rgb', depthBits=8, fullscr=<method-wrapper '__getattribute__' of attributeSetter object at 0x7f2080840460>, gamma=None, gammaErrorPolicy='raise', lms=UNKNOWN, monitor=<psychopy.monitors.calibTools.Monitor object at 0x7f207991b400>, multiSample=False, name='stim_window', numSamples=2, pos=[0.0, 0.0], screen=0, size=array([1920, 1080]), stencilBits=0, stereo=False, title='PsychoPy', units='deg', useFBO=True, useRetina=False, viewOri=0.0, viewPos=None, viewScale=None, waitBlanking=True, winType='pyglet')","{'TR': 2.1, 'volumes': 5, 'sync': '5', 'skip': 0, 'sound': False}",<psychopy.clock.CountdownTimer object at 0x7f20798f4d60>,"Rect(__class__=<class 'psychopy.visual.rect.Rect'>, anchor=('center', 'center'), autoDraw=True, autoLog=True, closeShape=True, color=method-wrapper(...), colorSpace='rgb', contrast=None, depth=0, draggable=False, fillColor=array([0.00392157, 0.00392157, 0.00392157]), fillColorSpace='rgb', fillRGB=array([0.00392157, 0.00392157, 0.00392157]), interpolate=True, lineColor=array([0., 0., 0.]), lineColorSpace='rgb', lineRGB=array([0, 0, 0]), lineWidth=1.5, name='unnamed Rect', opacity=0.5, ori=0.0, pos=array([0., 0.]), size=array([2., 2.]), units='norm', vertices=ndarray(...), win=Window(...))",2.1,[],8,0.75,"[<psychopy.visual.line.Line object at 0x7f206a85a6d0>, <psychopy.visual.line.Line object at 0x7f206a85a9d0>]",<psychopy.hardware.keyboard.Keyboard object at 0x7f2060762970>,
1,dot,0.3,['dot'],['density'],black,0,6,6,6,,,4.216796159744263,4.516744136810303,dot,[0.06],"[0.21839164384074103, 0.06179923858190914]",density,black,true,correct,nan,N003,visual,1,[],"['1', '2', '3', '4']",1,/NOBACKUP2/USER/Jeong/experiment2,/NOBACKUP2/USER/Jeong/experiment2/logfiles/visual/N003_d-20240920,2023.2.3,harveyvisual,"Window(allowGUI=False, allowStencil=False, autoLog=True, backendConf=UNKNOWN, backgroundFit='cover', backgroundImage=None, bitsMode=UNKNOWN, blendMode='avg', bpc=(8, 8, 8), color=array([-1, -1, -1]), colorSpace='rgb', depthBits=8, fullscr=<method-wrapper '__getattribute__' of attributeSetter object at 0x7f2080840460>, gamma=None, gammaErrorPolicy='raise', lms=UNKNOWN, monitor=<psychopy.monitors.calibTools.Monitor object at 0x7f207991b400>, multiSample=False, name='stim_window', numSamples=2, pos=[0.0, 0.0], screen=0, size=array([1920, 1080]), stencilBits=0, stereo=False, title='PsychoPy', units='deg', useFBO=True, useRetina=False, viewOri=0.0, viewPos=None, viewScale=None, waitBlanking=True, winType='pyglet')","{'TR': 2.1, 'volumes': 5, 'sync': '5', 'skip': 0, 'sound': False}",<psychopy.clock.CountdownTimer object at 0x7f20798f4d60>,"Rect(__class__=<class 'psychopy.visual.rect.Rect'>, anchor=('center', 'center'), autoDraw=True, autoLog=True, closeShape=True, color=method-wrapper(...), colorSpace='rgb', contrast=None, depth=0, draggable=False, fillColor=array([0.00392157, 0.00392157, 0.00392157]), fillColorSpace='rgb', fillRGB=array([0.00392157, 0.00392157, 0.00392157]), interpolate=True, lineColor=array([0., 0., 0.]), lineColorSpace='rgb', lineRGB=array([0, 0, 0]), lineWidth=1.5, name='unnamed Rect', opacity=0.5, ori=0.0, pos=array([0., 0.]), size=array([2., 2.]), units='norm', vertices=ndarray(...), win=Window(...))",2.1,[],8,0.75,"[<psychopy.visual.line.Line object at 0x7f206a85a6d0>, <psychopy.visual.line.Line object at 0x7f206a85a9d0>]",<psychopy.hardware.keyboard.Keyboard object at 0x7f2060762970>,
0,pause,0.4,None,None,None,0,7,7,7,,,,,,,,,,,,,N003,visual,1,[],"['1', '2', '3', '4']",1,/NOBACKUP2/USER/Jeong/experiment2,/NOBACKUP2/USER/Jeong/experiment2/logfiles/visual/N003_d-20240920,2023.2.3,harveyvisual,"Window(allowGUI=False, allowStencil=False, autoLog=True, backendConf=UNKNOWN, backgroundFit='cover', backgroundImage=None, bitsMode=UNKNOWN, blendMode='avg', bpc=(8, 8, 8), color=array([-1, -1, -1]), colorSpace='rgb', depthBits=8, fullscr=<method-wrapper '__getattribute__' of attributeSetter object at 0x7f2080840460>, gamma=None, gammaErrorPolicy='raise', lms=UNKNOWN, monitor=<psychopy.monitors.calibTools.Monitor object at 0x7f207991b400>, multiSample=False, name='stim_window', numSamples=2, pos=[0.0, 0.0], screen=0, size=array([1920, 1080]), stencilBits=0, stereo=False, title='PsychoPy', units='deg', useFBO=True, useRetina=False, viewOri=0.0, viewPos=None, viewScale=None, waitBlanking=True, winType='pyglet')","{'TR': 2.1, 'volumes': 5, 'sync': '5', 'skip': 0, 'sound': False}",<psychopy.clock.CountdownTimer object at 0x7f20798f4d60>,"Rect(__class__=<class 'psychopy.visual.rect.Rect'>, anchor=('center', 'center'), autoDraw=True, autoLog=True, closeShape=True, color=method-wrapper(...), colorSpace='rgb', contrast=None, depth=0, draggable=False, fillColor=array([0.00392157, 0.00392157, 0.00392157]), fillColorSpace='rgb', fillRGB=array([0.00392157, 0.00392157, 0.00392157]), interpolate=True, lineColor=array([0., 0., 0.]), lineColorSpace='rgb', lineRGB=array([0, 0, 0]), lineWidth=1.5, name='unnamed Rect', opacity=0.5, ori=0.0, pos=array([0., 0.]), size=array([2., 2.]), units='norm', vertices=ndarray(...), win=Window(...))",2.1,[],8,0.75,"[<psychopy.visual.line.Line object at 0x7f206a85a6d0>, <psychopy.visual.line.Line object at 0x7f206a85a9d0>]",<psychopy.hardware.keyboard.Keyboard object at 0x7f2060762970>,
1,dot,0.3,['dot'],['density'],black,0,8,8,8,,,4.916767120361328,5.216726064682007,dot,[0.08],"[0.14557363600905707, -0.03994760510263185]",density,black,true,correct,nan,N003,visual,1,[],"['1', '2', '3', '4']",1,/NOBACKUP2/USER/Jeong/experiment2,/NOBACKUP2/USER/Jeong/experiment2/logfiles/visual/N003_d-20240920,2023.2.3,harveyvisual,"Window(allowGUI=False, allowStencil=False, autoLog=True, backendConf=UNKNOWN, backgroundFit='cover', backgroundImage=None, bitsMode=UNKNOWN, blendMode='avg', bpc=(8, 8, 8), color=array([-1, -1, -1]), colorSpace='rgb', depthBits=8, fullscr=<method-wrapper '__getattribute__' of attributeSetter object at 0x7f2080840460>, gamma=None, gammaErrorPolicy='raise', lms=UNKNOWN, monitor=<psychopy.monitors.calibTools.Monitor object at 0x7f207991b400>, multiSample=False, name='stim_window', numSamples=2, pos=[0.0, 0.0], screen=0, size=array([1920, 1080]), stencilBits=0, stereo=False, title='PsychoPy', units='deg', useFBO=True, useRetina=False, viewOri=0.0, viewPos=None, viewScale=None, waitBlanking=True, winType='pyglet')","{'TR': 2.1, 'volumes': 5, 'sync': '5', 'skip': 0, 'sound': False}",<psychopy.clock.CountdownTimer object at 0x7f20798f4d60>,"Rect(__class__=<class 'psychopy.visual.rect.Rect'>, anchor=('center', 'center'), autoDraw=True, autoLog=True, closeShape=True, color=method-wrapper(...), colorSpace='rgb', contrast=None, depth=0, draggable=False, fillColor=array([0.00392157, 0.00392157, 0.00392157]), fillColorSpace='rgb', fillRGB=array([0.00392157, 0.00392157, 0.00392157]), interpolate=True, lineColor=array([0., 0., 0.]), lineColorSpace='rgb', lineRGB=array([0, 0, 0]), lineWidth=1.5, name='unnamed Rect', opacity=0.5, ori=0.0, pos=array([0., 0.]), size=array([2., 2.]), units='norm', vertices=ndarray(...), win=Window(...))",2.1,[],8,0.75,"[<psychopy.visual.line.Line object at 0x7f206a85a6d0>, <psychopy.visual.line.Line object at 0x7f206a85a9d0>]",<psychopy.hardware.keyboard.Keyboard object at 0x7f2060762970>,
0,pause,0.4,None,None,None,0,9,9,9,,,,,,,,,,,,,N003,visual,1,[],"['1', '2', '3', '4']",1,/NOBACKUP2/USER/Jeong/experiment2,/NOBACKUP2/USER/Jeong/experiment2/logfiles/visual/N003_d-20240920,2023.2.3,harveyvisual,"Window(allowGUI=False, allowStencil=False, autoLog=True, backendConf=UNKNOWN, backgroundFit='cover', backgroundImage=None, bitsMode=UNKNOWN, blendMode='avg', bpc=(8, 8, 8), color=array([-1, -1, -1]), colorSpace='rgb', depthBits=8, fullscr=<method-wrapper '__getattribute__' of attributeSetter object at 0x7f2080840460>, gamma=None, gammaErrorPolicy='raise', lms=UNKNOWN, monitor=<psychopy.monitors.calibTools.Monitor object at 0x7f207991b400>, multiSample=False, name='stim_window', numSamples=2, pos=[0.0, 0.0], screen=0, size=array([1920, 1080]), stencilBits=0, stereo=False, title='PsychoPy', units='deg', useFBO=True, useRetina=False, viewOri=0.0, viewPos=None, viewScale=None, waitBlanking=True, winType='pyglet')","{'TR': 2.1, 'volumes': 5, 'sync': '5', 'skip': 0, 'sound': False}",<psychopy.clock.CountdownTimer object at 0x7f20798f4d60>,"Rect(__class__=<class 'psychopy.visual.rect.Rect'>, anchor=('center', 'center'), autoDraw=True, autoLog=True, closeShape=True, color=method-wrapper(...), colorSpace='rgb', contrast=None, depth=0, draggable=False, fillColor=array([0.00392157, 0.00392157, 0.00392157]), fillColorSpace='rgb', fillRGB=array([0.00392157, 0.00392157, 0.00392157]), interpolate=True, lineColor=array([0., 0., 0.]), lineColorSpace='rgb', lineRGB=array([0, 0, 0]), lineWidth=1.5, name='unnamed Rect', opacity=0.5, ori=0.0, pos=array([0., 0.]), size=array([2., 2.]), units='norm', vertices=ndarray(...), win=Window(...))",2.1,[],8,0.75,"[<psychopy.visual.line.Line object at 0x7f206a85a6d0>, <psychopy.visual.line.Line object at 0x7f206a85a9d0>]",<psychopy.hardware.keyboard.Keyboard object at 0x7f2060762970>,
1,dot,0.3,['dot'],['density'],black,0,10,10,10,,,5.619004011154175,5.919049978256226,dot,[0.06],"[0.25023401086931774, -0.3984124620602511]",density,black,true,correct,nan,N003,visual,1,[],"['1', '2', '3', '4']",1,/NOBACKUP2/USER/Jeong/experiment2,/NOBACKUP2/USER/Jeong/experiment2/logfiles/visual/N003_d-20240920,2023.2.3,harveyvisual,"Window(allowGUI=False, allowStencil=False, autoLog=True, backendConf=UNKNOWN, backgroundFit='cover', backgroundImage=None, bitsMode=UNKNOWN, blendMode='avg', bpc=(8, 8, 8), color=array([-1, -1, -1]), colorSpace='rgb', depthBits=8, fullscr=<method-wrapper '__getattribute__' of attributeSetter object at 0x7f2080840460>, gamma=None, gammaErrorPolicy='raise', lms=UNKNOWN, monitor=<psychopy.monitors.calibTools.Monitor object at 0x7f207991b400>, multiSample=False, name='stim_window', numSamples=2, pos=[0.0, 0.0], screen=0, size=array([1920, 1080]), stencilBits=0, stereo=False, title='PsychoPy', units='deg', useFBO=True, useRetina=False, viewOri=0.0, viewPos=None, viewScale=None, waitBlanking=True, winType='pyglet')","{'TR': 2.1, 'volumes': 5, 'sync': '5', 'skip': 0, 'sound': False}",<psychopy.clock.CountdownTimer object at 0x7f20798f4d60>,"Rect(__class__=<class 'psychopy.visual.rect.Rect'>, anchor=('center', 'center'), autoDraw=True, autoLog=True, closeShape=True, color=method-wrapper(...), colorSpace='rgb', contrast=None, depth=0, draggable=False, fillColor=array([0.00392157, 0.00392157, 0.00392157]), fillColorSpace='rgb', fillRGB=array([0.00392157, 0.00392157, 0.00392157]), interpolate=True, lineColor=array([0., 0., 0.]), lineColorSpace='rgb', lineRGB=array([0, 0, 0]), lineWidth=1.5, name='unnamed Rect', opacity=0.5, ori=0.0, pos=array([0., 0.]), size=array([2., 2.]), units='norm', vertices=ndarray(...), win=Window(...))",2.1,[],8,0.75,"[<psychopy.visual.line.Line object at 0x7f206a85a6d0>, <psychopy.visual.line.Line object at 0x7f206a85a9d0>]",<psychopy.hardware.keyboard.Keyboard object at 0x7f2060762970>,
0,pause,0.4,None,None,None,0,11,11,11,,,,,,,,,,,,,N003,visual,1,[],"['1', '2', '3', '4']",1,/NOBACKUP2/USER/Jeong/experiment2,/NOBACKUP2/USER/Jeong/experiment2/logfiles/visual/N003_d-20240920,2023.2.3,harveyvisual,"Window(allowGUI=False, allowStencil=False, autoLog=True, backendConf=UNKNOWN, backgroundFit='cover', backgroundImage=None, bitsMode=UNKNOWN, blendMode='avg', bpc=(8, 8, 8), color=array([-1, -1, -1]), colorSpace='rgb', depthBits=8, fullscr=<method-wrapper '__getattribute__' of attributeSetter object at 0x7f2080840460>, gamma=None, gammaErrorPolicy='raise', lms=UNKNOWN, monitor=<psychopy.monitors.calibTools.Monitor object at 0x7f207991b400>, multiSample=False, name='stim_window', numSamples=2, pos=[0.0, 0.0], screen=0, size=array([1920, 1080]), stencilBits=0, stereo=False, title='PsychoPy', units='deg', useFBO=True, useRetina=False, viewOri=0.0, viewPos=None, viewScale=None, waitBlanking=True, winType='pyglet')","{'TR': 2.1, 'volumes': 5, 'sync': '5', 'skip': 0, 'sound': False}",<psychopy.clock.CountdownTimer object at 0x7f20798f4d60>,"Rect(__class__=<class 'psychopy.visual.rect.Rect'>, anchor=('center', 'center'), autoDraw=True, autoLog=True, closeShape=True, color=method-wrapper(...), colorSpace='rgb', contrast=None, depth=0, draggable=False, fillColor=array([0.00392157, 0.00392157, 0.00392157]), fillColorSpace='rgb', fillRGB=array([0.00392157, 0.00392157, 0.00392157]), interpolate=True, lineColor=array([0., 0., 0.]), lineColorSpace='rgb', lineRGB=array([0, 0, 0]), lineWidth=1.5, name='unnamed Rect', opacity=0.5, ori=0.0, pos=array([0., 0.]), size=array([2., 2.]), units='norm', vertices=ndarray(...), win=Window(...))",2.1,[],8,0.75,"[<psychopy.visual.line.Line object at 0x7f206a85a6d0>, <psychopy.visual.line.Line object at 0x7f206a85a9d0>]",<psychopy.hardware.keyboard.Keyboard object at 0x7f2060762970>,
2,dot,0.3,['dot'],['density'],black,0,12,12,12,,,6.318994998931885,6.618987083435059,dot,"[0.08, 0.06]","[[-0.020654750029313704, 0.3891656546739414], [-0.0007759068931318763, 0.19000611836641118]]",density,black,false,wrong,nan,N003,visual,1,[],"['1', '2', '3', '4']",1,/NOBACKUP2/USER/Jeong/experiment2,/NOBACKUP2/USER/Jeong/experiment2/logfiles/visual/N003_d-20240920,2023.2.3,harveyvisual,"Window(allowGUI=False, allowStencil=False, autoLog=True, backendConf=UNKNOWN, backgroundFit='cover', backgroundImage=None, bitsMode=UNKNOWN, blendMode='avg', bpc=(8, 8, 8), color=array([-1, -1, -1]), colorSpace='rgb', depthBits=8, fullscr=<method-wrapper '__getattribute__' of attributeSetter object at 0x7f2080840460>, gamma=None, gammaErrorPolicy='raise', lms=UNKNOWN, monitor=<psychopy.monitors.calibTools.Monitor object at 0x7f207991b400>, multiSample=False, name='stim_window', numSamples=2, pos=[0.0, 0.0], screen=0, size=array([1920, 1080]), stencilBits=0, stereo=False, title='PsychoPy', units='deg', useFBO=True, useRetina=False, viewOri=0.0, viewPos=None, viewScale=None, waitBlanking=True, winType='pyglet')","{'TR': 2.1, 'volumes': 5, 'sync': '5', 'skip': 0, 'sound': False}",<psychopy.clock.CountdownTimer object at 0x7f20798f4d60>,"Rect(__class__=<class 'psychopy.visual.rect.Rect'>, anchor=('center', 'center'), autoDraw=True, autoLog=True, closeShape=True, color=method-wrapper(...), colorSpace='rgb', contrast=None, depth=0, draggable=False, fillColor=array([0.00392157, 0.00392157, 0.00392157]), fillColorSpace='rgb', fillRGB=array([0.00392157, 0.00392157, 0.00392157]), interpolate=True, lineColor=array([0., 0., 0.]), lineColorSpace='rgb', lineRGB=array([0, 0, 0]), lineWidth=1.5, name='unnamed Rect', opacity=0.5, ori=0.0, pos=array([0., 0.]), size=array([2., 2.]), units='norm', vertices=ndarray(...), win=Window(...))",2.1,[],8,0.75,"[<psychopy.visual.line.Line object at 0x7f206a85a6d0>, <psychopy.visual.line.Line object at 0x7f206a85a9d0>]",<psychopy.hardware.keyboard.Keyboard object at 0x7f2060762970>,
0,pause,0.4,None,None,None,0,13,13,13,,,,,,,,,,,,,N003,visual,1,[],"['1', '2', '3', '4']",1,/NOBACKUP2/USER/Jeong/experiment2,/NOBACKUP2/USER/Jeong/experiment2/logfiles/visual/N003_d-20240920,2023.2.3,harveyvisual,"Window(allowGUI=False, allowStencil=False, autoLog=True, backendConf=UNKNOWN, backgroundFit='cover', backgroundImage=None, bitsMode=UNKNOWN, blendMode='avg', bpc=(8, 8, 8), color=array([-1, -1, -1]), colorSpace='rgb', depthBits=8, fullscr=<method-wrapper '__getattribute__' of attributeSetter object at 0x7f2080840460>, gamma=None, gammaErrorPolicy='raise', lms=UNKNOWN, monitor=<psychopy.monitors.calibTools.Monitor object at 0x7f207991b400>, multiSample=False, name='stim_window', numSamples=2, pos=[0.0, 0.0], screen=0, size=array([1920, 1080]), stencilBits=0, stereo=False, title='PsychoPy', units='deg', useFBO=True, useRetina=False, viewOri=0.0, viewPos=None, viewScale=None, waitBlanking=True, winType='pyglet')","{'TR': 2.1, 'volumes': 5, 'sync': '5', 'skip': 0, 'sound': False}",<psychopy.clock.CountdownTimer object at 0x7f20798f4d60>,"Rect(__class__=<class 'psychopy.visual.rect.Rect'>, anchor=('center', 'center'), autoDraw=True, autoLog=True, closeShape=True, color=method-wrapper(...), colorSpace='rgb', contrast=None, depth=0, draggable=False, fillColor=array([0.00392157, 0.00392157, 0.00392157]), fillColorSpace='rgb', fillRGB=array([0.00392157, 0.00392157, 0.00392157]), interpolate=True, lineColor=array([0., 0., 0.]), lineColorSpace='rgb', lineRGB=array([0, 0, 0]), lineWidth=1.5, name='unnamed Rect', opacity=0.5, ori=0.0, pos=array([0., 0.]), size=array([2., 2.]), units='norm', vertices=ndarray(...), win=Window(...))",2.1,[],8,0.75,"[<psychopy.visual.line.Line object at 0x7f206a85a6d0>, <psychopy.visual.line.Line object at 0x7f206a85a9d0>]",<psychopy.hardware.keyboard.Keyboard object at 0x7f2060762970>,
2,dot,0.3,['dot'],['density'],black,0,14,14,14,,,7.018998146057129,7.31903600692749,dot,"[0.06, 0.08]","[[-0.15001882639889116, 0.48719053997247297], [-0.1736568080125972, 0.28835755901726084]]",density,black,true,correct,nan,N003,visual,1,[],"['1', '2', '3', '4']",1,/NOBACKUP2/USER/Jeong/experiment2,/NOBACKUP2/USER/Jeong/experiment2/logfiles/visual/N003_d-20240920,2023.2.3,harveyvisual,"Window(allowGUI=False, allowStencil=False, autoLog=True, backendConf=UNKNOWN, backgroundFit='cover', backgroundImage=None, bitsMode=UNKNOWN, blendMode='avg', bpc=(8, 8, 8), color=array([-1, -1, -1]), colorSpace='rgb', depthBits=8, fullscr=<method-wrapper '__getattribute__' of attributeSetter object at 0x7f2080840460>, gamma=None, gammaErrorPolicy='raise', lms=UNKNOWN, monitor=<psychopy.monitors.calibTools.Monitor object at 0x7f207991b400>, multiSample=False, name='stim_window', numSamples=2, pos=[0.0, 0.0], screen=0, size=array([1920, 1080]), stencilBits=0, stereo=False, title='PsychoPy', units='deg', useFBO=True, useRetina=False, viewOri=0.0, viewPos=None, viewScale=None, waitBlanking=True, winType='pyglet')","{'TR': 2.1, 'volumes': 5, 'sync': '5', 'skip': 0, 'sound': False}",<psychopy.clock.CountdownTimer object at 0x7f20798f4d60>,"Rect(__class__=<class 'psychopy.visual.rect.Rect'>, anchor=('center', 'center'), autoDraw=True, autoLog=True, closeShape=True, color=method-wrapper(...), colorSpace='rgb', contrast=None, depth=0, draggable=False, fillColor=array([0.00392157, 0.00392157, 0.00392157]), fillColorSpace='rgb', fillRGB=array([0.00392157, 0.00392157, 0.00392157]), interpolate=True, lineColor=array([0., 0., 0.]), lineColorSpace='rgb', lineRGB=array([0, 0, 0]), lineWidth=1.5, name='unnamed Rect', opacity=0.5, ori=0.0, pos=array([0., 0.]), size=array([2., 2.]), units='norm', vertices=ndarray(...), win=Window(...))",2.1,[],8,0.75,"[<psychopy.visual.line.Line object at 0x7f206a85a6d0>, <psychopy.visual.line.Line object at 0x7f206a85a9d0>]",<psychopy.hardware.keyboard.Keyboard object at 0x7f2060762970>,
0,pause,0.4,None,None,None,0,15,15,15,,,,,,,,,,,,,N003,visual,1,[],"['1', '2', '3', '4']",1,/NOBACKUP2/USER/Jeong/experiment2,/NOBACKUP2/USER/Jeong/experiment2/logfiles/visual/N003_d-20240920,2023.2.3,harveyvisual,"Window(allowGUI=False, allowStencil=False, autoLog=True, backendConf=UNKNOWN, backgroundFit='cover', backgroundImage=None, bitsMode=UNKNOWN, blendMode='avg', bpc=(8, 8, 8), color=array([-1, -1, -1]), colorSpace='rgb', depthBits=8, fullscr=<method-wrapper '__getattribute__' of attributeSetter object at 0x7f2080840460>, gamma=None, gammaErrorPolicy='raise', lms=UNKNOWN, monitor=<psychopy.monitors.calibTools.Monitor object at 0x7f207991b400>, multiSample=False, name='stim_window', numSamples=2, pos=[0.0, 0.0], screen=0, size=array([1920, 1080]), stencilBits=0, stereo=False, title='PsychoPy', units='deg', useFBO=True, useRetina=False, viewOri=0.0, viewPos=None, viewScale=None, waitBlanking=True, winType='pyglet')","{'TR': 2.1, 'volumes': 5, 'sync': '5', 'skip': 0, 'sound': False}",<psychopy.clock.CountdownTimer object at 0x7f20798f4d60>,"Rect(__class__=<class 'psychopy.visual.rect.Rect'>, anchor=('center', 'center'), autoDraw=True, autoLog=True, closeShape=True, color=method-wrapper(...), colorSpace='rgb', contrast=None, depth=0, draggable=False, fillColor=array([0.00392157, 0.00392157, 0.00392157]), fillColorSpace='rgb', fillRGB=array([0.00392157, 0.00392157, 0.00392157]), interpolate=True, lineColor=array([0., 0., 0.]), lineColorSpace='rgb', lineRGB=array([0, 0, 0]), lineWidth=1.5, name='unnamed Rect', opacity=0.5, ori=0.0, pos=array([0., 0.]), size=array([2., 2.]), units='norm', vertices=ndarray(...), win=Window(...))",2.1,[],8,0.75,"[<psychopy.visual.line.Line object at 0x7f206a85a6d0>, <psychopy.visual.line.Line object at 0x7f206a85a9d0>]",<psychopy.hardware.keyboard.Keyboard object at 0x7f2060762970>,
2,dot,0.3,['dot'],['density'],black,0,16,16,16,,,7.718932151794434,8.018962144851685,dot,"[0.1, 0.08]","[[0.45098141687762733, -0.20237638590572143], [0.5433504117931098, -0.02475258047346216]]",density,black,true,correct,nan,N003,visual,1,[],"['1', '2', '3', '4']",1,/NOBACKUP2/USER/Jeong/experiment2,/NOBACKUP2/USER/Jeong/experiment2/logfiles/visual/N003_d-20240920,2023.2.3,harveyvisual,"Window(allowGUI=False, allowStencil=False, autoLog=True, backendConf=UNKNOWN, backgroundFit='cover', backgroundImage=None, bitsMode=UNKNOWN, blendMode='avg', bpc=(8, 8, 8), color=array([-1, -1, -1]), colorSpace='rgb', depthBits=8, fullscr=<method-wrapper '__getattribute__' of attributeSetter object at 0x7f2080840460>, gamma=None, gammaErrorPolicy='raise', lms=UNKNOWN, monitor=<psychopy.monitors.calibTools.Monitor object at 0x7f207991b400>, multiSample=False, name='stim_window', numSamples=2, pos=[0.0, 0.0], screen=0, size=array([1920, 1080]), stencilBits=0, stereo=False, title='PsychoPy', units='deg', useFBO=True, useRetina=False, viewOri=0.0, viewPos=None, viewScale=None, waitBlanking=True, winType='pyglet')","{'TR': 2.1, 'volumes': 5, 'sync': '5', 'skip': 0, 'sound': False}",<psychopy.clock.CountdownTimer object at 0x7f20798f4d60>,"Rect(__class__=<class 'psychopy.visual.rect.Rect'>, anchor=('center', 'center'), autoDraw=True, autoLog=True, closeShape=True, color=method-wrapper(...), colorSpace='rgb', contrast=None, depth=0, draggable=False, fillColor=array([0.00392157, 0.00392157, 0.00392157]), fillColorSpace='rgb', fillRGB=array([0.00392157, 0.00392157, 0.00392157]), interpolate=True, lineColor=array([0., 0., 0.]), lineColorSpace='rgb', lineRGB=array([0, 0, 0]), lineWidth=1.5, name='unnamed Rect', opacity=0.5, ori=0.0, pos=array([0., 0.]), size=array([2., 2.]), units='norm', vertices=ndarray(...), win=Window(...))",2.1,[],8,0.75,"[<psychopy.visual.line.Line object at 0x7f206a85a6d0>, <psychopy.visual.line.Line object at 0x7f206a85a9d0>]",<psychopy.hardware.keyboard.Keyboard object at 0x7f2060762970>,
0,pause,0.4,None,None,None,0,17,17,17,,,,,,,,,,,,,N003,visual,1,[],"['1', '2', '3', '4']",1,/NOBACKUP2/USER/Jeong/experiment2,/NOBACKUP2/USER/Jeong/experiment2/logfiles/visual/N003_d-20240920,2023.2.3,harveyvisual,"Window(allowGUI=False, allowStencil=False, autoLog=True, backendConf=UNKNOWN, backgroundFit='cover', backgroundImage=None, bitsMode=UNKNOWN, blendMode='avg', bpc=(8, 8, 8), color=array([-1, -1, -1]), colorSpace='rgb', depthBits=8, fullscr=<method-wrapper '__getattribute__' of attributeSetter object at 0x7f2080840460>, gamma=None, gammaErrorPolicy='raise', lms=UNKNOWN, monitor=<psychopy.monitors.calibTools.Monitor object at 0x7f207991b400>, multiSample=False, name='stim_window', numSamples=2, pos=[0.0, 0.0], screen=0, size=array([1920, 1080]), stencilBits=0, stereo=False, title='PsychoPy', units='deg', useFBO=True, useRetina=False, viewOri=0.0, viewPos=None, viewScale=None, waitBlanking=True, winType='pyglet')","{'TR': 2.1, 'volumes': 5, 'sync': '5', 'skip': 0, 'sound': False}",<psychopy.clock.CountdownTimer object at 0x7f20798f4d60>,"Rect(__class__=<class 'psychopy.visual.rect.Rect'>, anchor=('center', 'center'), autoDraw=True, autoLog=True, closeShape=True, color=method-wrapper(...), colorSpace='rgb', contrast=None, depth=0, draggable=False, fillColor=array([0.00392157, 0.00392157, 0.00392157]), fillColorSpace='rgb', fillRGB=array([0.00392157, 0.00392157, 0.00392157]), interpolate=True, lineColor=array([0., 0., 0.]), lineColorSpace='rgb', lineRGB=array([0, 0, 0]), lineWidth=1.5, name='unnamed Rect', opacity=0.5, ori=0.0, pos=array([0., 0.]), size=array([2., 2.]), units='norm', vertices=ndarray(...), win=Window(...))",2.1,[],8,0.75,"[<psychopy.visual.line.Line object at 0x7f206a85a6d0>, <psychopy.visual.line.Line object at 0x7f206a85a9d0>]",<psychopy.hardware.keyboard.Keyboard object at 0x7f2060762970>,
2,dot,0.3,['dot'],['density'],black,0,18,18,18,,,8.418931007385254,8.7189199924469,dot,"[0.08, 0.06]","[[0.075840462383643, -0.21806900392302264], [0.2761252679018853, -0.22101292055433702]]",density,black,true,correct,nan,N003,visual,1,[],"['1', '2', '3', '4']",1,/NOBACKUP2/USER/Jeong/experiment2,/NOBACKUP2/USER/Jeong/experiment2/logfiles/visual/N003_d-20240920,2023.2.3,harveyvisual,"Window(allowGUI=False, allowStencil=False, autoLog=True, backendConf=UNKNOWN, backgroundFit='cover', backgroundImage=None, bitsMode=UNKNOWN, blendMode='avg', bpc=(8, 8, 8), color=array([-1, -1, -1]), colorSpace='rgb', depthBits=8, fullscr=<method-wrapper '__getattribute__' of attributeSetter object at 0x7f2080840460>, gamma=None, gammaErrorPolicy='raise', lms=UNKNOWN, monitor=<psychopy.monitors.calibTools.Monitor object at 0x7f207991b400>, multiSample=False, name='stim_window', numSamples=2, pos=[0.0, 0.0], screen=0, size=array([1920, 1080]), stencilBits=0, stereo=False, title='PsychoPy', units='deg', useFBO=True, useRetina=False, viewOri=0.0, viewPos=None, viewScale=None, waitBlanking=True, winType='pyglet')","{'TR': 2.1, 'volumes': 5, 'sync': '5', 'skip': 0, 'sound': False}",<psychopy.clock.CountdownTimer object at 0x7f20798f4d60>,"Rect(__class__=<class 'psychopy.visual.rect.Rect'>, anchor=('center', 'center'), autoDraw=True, autoLog=True, closeShape=True, color=method-wrapper(...), colorSpace='rgb', contrast=None, depth=0, draggable=False, fillColor=array([0.00392157, 0.00392157, 0.00392157]), fillColorSpace='rgb', fillRGB=array([0.00392157, 0.00392157, 0.00392157]), interpolate=True, lineColor=array([0., 0., 0.]), lineColorSpace='rgb', lineRGB=array([0, 0, 0]), lineWidth=1.5, name='unnamed Rect', opacity=0.5, ori=0.0, pos=array([0., 0.]), size=array([2., 2.]), units='norm', vertices=ndarray(...), win=Window(...))",2.1,[],8,0.75,"[<psychopy.visual.line.Line object at 0x7f206a85a6d0>, <psychopy.visual.line.Line object at 0x7f206a85a9d0>]",<psychopy.hardware.keyboard.Keyboard object at 0x7f2060762970>,
0,pause,0.4,None,None,None,0,19,19,19,,,,,,,,,,,,,N003,visual,1,[],"['1', '2', '3', '4']",1,/NOBACKUP2/USER/Jeong/experiment2,/NOBACKUP2/USER/Jeong/experiment2/logfiles/visual/N003_d-20240920,2023.2.3,harveyvisual,"Window(allowGUI=False, allowStencil=False, autoLog=True, backendConf=UNKNOWN, backgroundFit='cover', backgroundImage=None, bitsMode=UNKNOWN, blendMode='avg', bpc=(8, 8, 8), color=array([-1, -1, -1]), colorSpace='rgb', depthBits=8, fullscr=<method-wrapper '__getattribute__' of attributeSetter object at 0x7f2080840460>, gamma=None, gammaErrorPolicy='raise', lms=UNKNOWN, monitor=<psychopy.monitors.calibTools.Monitor object at 0x7f207991b400>, multiSample=False, name='stim_window', numSamples=2, pos=[0.0, 0.0], screen=0, size=array([1920, 1080]), stencilBits=0, stereo=False, title='PsychoPy', units='deg', useFBO=True, useRetina=False, viewOri=0.0, viewPos=None, viewScale=None, waitBlanking=True, winType='pyglet')","{'TR': 2.1, 'volumes': 5, 'sync': '5', 'skip': 0, 'sound': False}",<psychopy.clock.CountdownTimer object at 0x7f20798f4d60>,"Rect(__class__=<class 'psychopy.visual.rect.Rect'>, anchor=('center', 'center'), autoDraw=True, autoLog=True, closeShape=True, color=method-wrapper(...), colorSpace='rgb', contrast=None, depth=0, draggable=False, fillColor=array([0.00392157, 0.00392157, 0.00392157]), fillColorSpace='rgb', fillRGB=array([0.00392157, 0.00392157, 0.00392157]), interpolate=True, lineColor=array([0., 0., 0.]), lineColorSpace='rgb', lineRGB=array([0, 0, 0]), lineWidth=1.5, name='unnamed Rect', opacity=0.5, ori=0.0, pos=array([0., 0.]), size=array([2., 2.]), units='norm', vertices=ndarray(...), win=Window(...))",2.1,[],8,0.75,"[<psychopy.visual.line.Line object at 0x7f206a85a6d0>, <psychopy.visual.line.Line object at 0x7f206a85a9d0>]",<psychopy.hardware.keyboard.Keyboard object at 0x7f2060762970>,
2,dot,0.3,['dot'],['density'],black,0,20,20,20,,,9.118910074234009,9.418900966644287,dot,"[0.1, 0.1]","[[0.038501021189721846, -0.3380528513692932], [0.2360793696083702, -0.306423538752856]]",density,black,true,correct,nan,N003,visual,1,[],"['1', '2', '3', '4']",1,/NOBACKUP2/USER/Jeong/experiment2,/NOBACKUP2/USER/Jeong/experiment2/logfiles/visual/N003_d-20240920,2023.2.3,harveyvisual,"Window(allowGUI=False, allowStencil=False, autoLog=True, backendConf=UNKNOWN, backgroundFit='cover', backgroundImage=None, bitsMode=UNKNOWN, blendMode='avg', bpc=(8, 8, 8), color=array([-1, -1, -1]), colorSpace='rgb', depthBits=8, fullscr=<method-wrapper '__getattribute__' of attributeSetter object at 0x7f2080840460>, gamma=None, gammaErrorPolicy='raise', lms=UNKNOWN, monitor=<psychopy.monitors.calibTools.Monitor object at 0x7f207991b400>, multiSample=False, name='stim_window', numSamples=2, pos=[0.0, 0.0], screen=0, size=array([1920, 1080]), stencilBits=0, stereo=False, title='PsychoPy', units='deg', useFBO=True, useRetina=False, viewOri=0.0, viewPos=None, viewScale=None, waitBlanking=True, winType='pyglet')","{'TR': 2.1, 'volumes': 5, 'sync': '5', 'skip': 0, 'sound': False}",<psychopy.clock.CountdownTimer object at 0x7f20798f4d60>,"Rect(__class__=<class 'psychopy.visual.rect.Rect'>, anchor=('center', 'center'), autoDraw=True, autoLog=True, closeShape=True, color=method-wrapper(...), colorSpace='rgb', contrast=None, depth=0, draggable=False, fillColor=array([0.00392157, 0.00392157, 0.00392157]), fillColorSpace='rgb', fillRGB=array([0.00392157, 0.00392157, 0.00392157]), interpolate=True, lineColor=array([0., 0., 0.]), lineColorSpace='rgb', lineRGB=array([0, 0, 0]), lineWidth=1.5, name='unnamed Rect', opacity=0.5, ori=0.0, pos=array([0., 0.]), size=array([2., 2.]), units='norm', vertices=ndarray(...), win=Window(...))",2.1,[],8,0.75,"[<psychopy.visual.line.Line object at 0x7f206a85a6d0>, <psychopy.visual.line.Line object at 0x7f206a85a9d0>]",<psychopy.hardware.keyboard.Keyboard object at 0x7f2060762970>,
0,pause,0.4,None,None,None,0,21,21,21,,,,,,,,,,,,,N003,visual,1,[],"['1', '2', '3', '4']",1,/NOBACKUP2/USER/Jeong/experiment2,/NOBACKUP2/USER/Jeong/experiment2/logfiles/visual/N003_d-20240920,2023.2.3,harveyvisual,"Window(allowGUI=False, allowStencil=False, autoLog=True, backendConf=UNKNOWN, backgroundFit='cover', backgroundImage=None, bitsMode=UNKNOWN, blendMode='avg', bpc=(8, 8, 8), color=array([-1, -1, -1]), colorSpace='rgb', depthBits=8, fullscr=<method-wrapper '__getattribute__' of attributeSetter object at 0x7f2080840460>, gamma=None, gammaErrorPolicy='raise', lms=UNKNOWN, monitor=<psychopy.monitors.calibTools.Monitor object at 0x7f207991b400>, multiSample=False, name='stim_window', numSamples=2, pos=[0.0, 0.0], screen=0, size=array([1920, 1080]), stencilBits=0, stereo=False, title='PsychoPy', units='deg', useFBO=True, useRetina=False, viewOri=0.0, viewPos=None, viewScale=None, waitBlanking=True, winType='pyglet')","{'TR': 2.1, 'volumes': 5, 'sync': '5', 'skip': 0, 'sound': False}",<psychopy.clock.CountdownTimer object at 0x7f20798f4d60>,"Rect(__class__=<class 'psychopy.visual.rect.Rect'>, anchor=('center', 'center'), autoDraw=True, autoLog=True, closeShape=True, color=method-wrapper(...), colorSpace='rgb', contrast=None, depth=0, draggable=False, fillColor=array([0.00392157, 0.00392157, 0.00392157]), fillColorSpace='rgb', fillRGB=array([0.00392157, 0.00392157, 0.00392157]), interpolate=True, lineColor=array([0., 0., 0.]), lineColorSpace='rgb', lineRGB=array([0, 0, 0]), lineWidth=1.5, name='unnamed Rect', opacity=0.5, ori=0.0, pos=array([0., 0.]), size=array([2., 2.]), units='norm', vertices=ndarray(...), win=Window(...))",2.1,[],8,0.75,"[<psychopy.visual.line.Line object at 0x7f206a85a6d0>, <psychopy.visual.line.Line object at 0x7f206a85a9d0>]",<psychopy.hardware.keyboard.Keyboard object at 0x7f2060762970>,
2,dot,0.3,['dot'],['density'],black,0,22,22,22,,,9.819057941436768,10.11904501914978,dot,"[0.1, 0.08]","[[-0.03288134563171543, -0.4238564918242606], [-0.10611641736664675, -0.2370354775439666]]",density,black,true,correct,nan,N003,visual,1,[],"['1', '2', '3', '4']",1,/NOBACKUP2/USER/Jeong/experiment2,/NOBACKUP2/USER/Jeong/experiment2/logfiles/visual/N003_d-20240920,2023.2.3,harveyvisual,"Window(allowGUI=False, allowStencil=False, autoLog=True, backendConf=UNKNOWN, backgroundFit='cover', backgroundImage=None, bitsMode=UNKNOWN, blendMode='avg', bpc=(8, 8, 8), color=array([-1, -1, -1]), colorSpace='rgb', depthBits=8, fullscr=<method-wrapper '__getattribute__' of attributeSetter object at 0x7f2080840460>, gamma=None, gammaErrorPolicy='raise', lms=UNKNOWN, monitor=<psychopy.monitors.calibTools.Monitor object at 0x7f207991b400>, multiSample=False, name='stim_window', numSamples=2, pos=[0.0, 0.0], screen=0, size=array([1920, 1080]), stencilBits=0, stereo=False, title='PsychoPy', units='deg', useFBO=True, useRetina=False, viewOri=0.0, viewPos=None, viewScale=None, waitBlanking=True, winType='pyglet')","{'TR': 2.1, 'volumes': 5, 'sync': '5', 'skip': 0, 'sound': False}",<psychopy.clock.CountdownTimer object at 0x7f20798f4d60>,"Rect(__class__=<class 'psychopy.visual.rect.Rect'>, anchor=('center', 'center'), autoDraw=True, autoLog=True, closeShape=True, color=method-wrapper(...), colorSpace='rgb', contrast=None, depth=0, draggable=False, fillColor=array([0.00392157, 0.00392157, 0.00392157]), fillColorSpace='rgb', fillRGB=array([0.00392157, 0.00392157, 0.00392157]), interpolate=True, lineColor=array([0., 0., 0.]), lineColorSpace='rgb', lineRGB=array([0, 0, 0]), lineWidth=1.5, name='unnamed Rect', opacity=0.5, ori=0.0, pos=array([0., 0.]), size=array([2., 2.]), units='norm', vertices=ndarray(...), win=Window(...))",2.1,[],8,0.75,"[<psychopy.visual.line.Line object at 0x7f206a85a6d0>, <psychopy.visual.line.Line object at 0x7f206a85a9d0>]",<psychopy.hardware.keyboard.Keyboard object at 0x7f2060762970>,
0,pause,0.4,None,None,None,0,23,23,23,,,,,,,,,,,,,N003,visual,1,[],"['1', '2', '3', '4']",1,/NOBACKUP2/USER/Jeong/experiment2,/NOBACKUP2/USER/Jeong/experiment2/logfiles/visual/N003_d-20240920,2023.2.3,harveyvisual,"Window(allowGUI=False, allowStencil=False, autoLog=True, backendConf=UNKNOWN, backgroundFit='cover', backgroundImage=None, bitsMode=UNKNOWN, blendMode='avg', bpc=(8, 8, 8), color=array([-1, -1, -1]), colorSpace='rgb', depthBits=8, fullscr=<method-wrapper '__getattribute__' of attributeSetter object at 0x7f2080840460>, gamma=None, gammaErrorPolicy='raise', lms=UNKNOWN, monitor=<psychopy.monitors.calibTools.Monitor object at 0x7f207991b400>, multiSample=False, name='stim_window', numSamples=2, pos=[0.0, 0.0], screen=0, size=array([1920, 1080]), stencilBits=0, stereo=False, title='PsychoPy', units='deg', useFBO=True, useRetina=False, viewOri=0.0, viewPos=None, viewScale=None, waitBlanking=True, winType='pyglet')","{'TR': 2.1, 'volumes': 5, 'sync': '5', 'skip': 0, 'sound': False}",<psychopy.clock.CountdownTimer object at 0x7f20798f4d60>,"Rect(__class__=<class 'psychopy.visual.rect.Rect'>, anchor=('center', 'center'), autoDraw=True, autoLog=True, closeShape=True, color=method-wrapper(...), colorSpace='rgb', contrast=None, depth=0, draggable=False, fillColor=array([0.00392157, 0.00392157, 0.00392157]), fillColorSpace='rgb', fillRGB=array([0.00392157, 0.00392157, 0.00392157]), interpolate=True, lineColor=array([0., 0., 0.]), lineColorSpace='rgb', lineRGB=array([0, 0, 0]), lineWidth=1.5, name='unnamed Rect', opacity=0.5, ori=0.0, pos=array([0., 0.]), size=array([2., 2.]), units='norm', vertices=ndarray(...), win=Window(...))",2.1,[],8,0.75,"[<psychopy.visual.line.Line object at 0x7f206a85a6d0>, <psychopy.visual.line.Line object at 0x7f206a85a9d0>]",<psychopy.hardware.keyboard.Keyboard object at 0x7f2060762970>,
3,dot,0.3,['dot'],['density'],black,0,24,24,24,,,10.519032955169678,10.819020986557007,dot,"[0.1, 0.1, 0.08]","[[-0.18534860244577742, 0.5145019772121514], [0.05660586421610542, 0.42456432010350276], [-0.11463700911578348, 0.31489985189225056]]",density,black,false,wrong,nan,N003,visual,1,[],"['1', '2', '3', '4']",1,/NOBACKUP2/USER/Jeong/experiment2,/NOBACKUP2/USER/Jeong/experiment2/logfiles/visual/N003_d-20240920,2023.2.3,harveyvisual,"Window(allowGUI=False, allowStencil=False, autoLog=True, backendConf=UNKNOWN, backgroundFit='cover', backgroundImage=None, bitsMode=UNKNOWN, blendMode='avg', bpc=(8, 8, 8), color=array([-1, -1, -1]), colorSpace='rgb', depthBits=8, fullscr=<method-wrapper '__getattribute__' of attributeSetter object at 0x7f2080840460>, gamma=None, gammaErrorPolicy='raise', lms=UNKNOWN, monitor=<psychopy.monitors.calibTools.Monitor object at 0x7f207991b400>, multiSample=False, name='stim_window', numSamples=2, pos=[0.0, 0.0], screen=0, size=array([1920, 1080]), stencilBits=0, stereo=False, title='PsychoPy', units='deg', useFBO=True, useRetina=False, viewOri=0.0, viewPos=None, viewScale=None, waitBlanking=True, winType='pyglet')","{'TR': 2.1, 'volumes': 5, 'sync': '5', 'skip': 0, 'sound': False}",<psychopy.clock.CountdownTimer object at 0x7f20798f4d60>,"Rect(__class__=<class 'psychopy.visual.rect.Rect'>, anchor=('center', 'center'), autoDraw=True, autoLog=True, closeShape=True, color=method-wrapper(...), colorSpace='rgb', contrast=None, depth=0, draggable=False, fillColor=array([0.00392157, 0.00392157, 0.00392157]), fillColorSpace='rgb', fillRGB=array([0.00392157, 0.00392157, 0.00392157]), interpolate=True, lineColor=array([0., 0., 0.]), lineColorSpace='rgb', lineRGB=array([0, 0, 0]), lineWidth=1.5, name='unnamed Rect', opacity=0.5, ori=0.0, pos=array([0., 0.]), size=array([2., 2.]), units='norm', vertices=ndarray(...), win=Window(...))",2.1,[],8,0.75,"[<psychopy.visual.line.Line object at 0x7f206a85a6d0>, <psychopy.visual.line.Line object at 0x7f206a85a9d0>]",<psychopy.hardware.keyboard.Keyboard object at 0x7f2060762970>,
0,pause,0.4,None,None,None,0,25,25,25,,,,,,,,,,,,,N003,visual,1,[],"['1', '2', '3', '4']",1,/NOBACKUP2/USER/Jeong/experiment2,/NOBACKUP2/USER/Jeong/experiment2/logfiles/visual/N003_d-20240920,2023.2.3,harveyvisual,"Window(allowGUI=False, allowStencil=False, autoLog=True, backendConf=UNKNOWN, backgroundFit='cover', backgroundImage=None, bitsMode=UNKNOWN, blendMode='avg', bpc=(8, 8, 8), color=array([-1, -1, -1]), colorSpace='rgb', depthBits=8, fullscr=<method-wrapper '__getattribute__' of attributeSetter object at 0x7f2080840460>, gamma=None, gammaErrorPolicy='raise', lms=UNKNOWN, monitor=<psychopy.monitors.calibTools.Monitor object at 0x7f207991b400>, multiSample=False, name='stim_window', numSamples=2, pos=[0.0, 0.0], screen=0, size=array([1920, 1080]), stencilBits=0, stereo=False, title='PsychoPy', units='deg', useFBO=True, useRetina=False, viewOri=0.0, viewPos=None, viewScale=None, waitBlanking=True, winType='pyglet')","{'TR': 2.1, 'volumes': 5, 'sync': '5', 'skip': 0, 'sound': False}",<psychopy.clock.CountdownTimer object at 0x7f20798f4d60>,"Rect(__class__=<class 'psychopy.visual.rect.Rect'>, anchor=('center', 'center'), autoDraw=True, autoLog=True, closeShape=True, color=method-wrapper(...), colorSpace='rgb', contrast=None, depth=0, draggable=False, fillColor=array([0.00392157, 0.00392157, 0.00392157]), fillColorSpace='rgb', fillRGB=array([0.00392157, 0.00392157, 0.00392157]), interpolate=True, lineColor=array([0., 0., 0.]), lineColorSpace='rgb', lineRGB=array([0, 0, 0]), lineWidth=1.5, name='unnamed Rect', opacity=0.5, ori=0.0, pos=array([0., 0.]), size=array([2., 2.]), units='norm', vertices=ndarray(...), win=Window(...))",2.1,[],8,0.75,"[<psychopy.visual.line.Line object at 0x7f206a85a6d0>, <psychopy.visual.line.Line object at 0x7f206a85a9d0>]",<psychopy.hardware.keyboard.Keyboard object at 0x7f2060762970>,
3,dot,0.3,['dot'],['density'],black,0,26,26,26,,,11.219018936157227,11.518871068954468,dot,"[0.08, 0.1, 0.1]","[[-0.021384933427115945, -0.26055744462645497], [0.16478637362895734, -0.404980755917603], [-0.025077849445719256, -0.48190209473619267]]",density,black,true,correct,nan,N003,visual,1,[],"['1', '2', '3', '4']",1,/NOBACKUP2/USER/Jeong/experiment2,/NOBACKUP2/USER/Jeong/experiment2/logfiles/visual/N003_d-20240920,2023.2.3,harveyvisual,"Window(allowGUI=False, allowStencil=False, autoLog=True, backendConf=UNKNOWN, backgroundFit='cover', backgroundImage=None, bitsMode=UNKNOWN, blendMode='avg', bpc=(8, 8, 8), color=array([-1, -1, -1]), colorSpace='rgb', depthBits=8, fullscr=<method-wrapper '__getattribute__' of attributeSetter object at 0x7f2080840460>, gamma=None, gammaErrorPolicy='raise', lms=UNKNOWN, monitor=<psychopy.monitors.calibTools.Monitor object at 0x7f207991b400>, multiSample=False, name='stim_window', numSamples=2, pos=[0.0, 0.0], screen=0, size=array([1920, 1080]), stencilBits=0, stereo=False, title='PsychoPy', units='deg', useFBO=True, useRetina=False, viewOri=0.0, viewPos=None, viewScale=None, waitBlanking=True, winType='pyglet')","{'TR': 2.1, 'volumes': 5, 'sync': '5', 'skip': 0, 'sound': False}",<psychopy.clock.CountdownTimer object at 0x7f20798f4d60>,"Rect(__class__=<class 'psychopy.visual.rect.Rect'>, anchor=('center', 'center'), autoDraw=True, autoLog=True, closeShape=True, color=method-wrapper(...), colorSpace='rgb', contrast=None, depth=0, draggable=False, fillColor=array([0.00392157, 0.00392157, 0.00392157]), fillColorSpace='rgb', fillRGB=array([0.00392157, 0.00392157, 0.00392157]), interpolate=True, lineColor=array([0., 0., 0.]), lineColorSpace='rgb', lineRGB=array([0, 0, 0]), lineWidth=1.5, name='unnamed Rect', opacity=0.5, ori=0.0, pos=array([0., 0.]), size=array([2., 2.]), units='norm', vertices=ndarray(...), win=Window(...))",2.1,[],8,0.75,"[<psychopy.visual.line.Line object at 0x7f206a85a6d0>, <psychopy.visual.line.Line object at 0x7f206a85a9d0>]",<psychopy.hardware.keyboard.Keyboard object at 0x7f2060762970>,
0,pause,0.4,None,None,None,0,27,27,27,,,,,,,,,,,,,N003,visual,1,[],"['1', '2', '3', '4']",1,/NOBACKUP2/USER/Jeong/experiment2,/NOBACKUP2/USER/Jeong/experiment2/logfiles/visual/N003_d-20240920,2023.2.3,harveyvisual,"Window(allowGUI=False, allowStencil=False, autoLog=True, backendConf=UNKNOWN, backgroundFit='cover', backgroundImage=None, bitsMode=UNKNOWN, blendMode='avg', bpc=(8, 8, 8), color=array([-1, -1, -1]), colorSpace='rgb', depthBits=8, fullscr=<method-wrapper '__getattribute__' of attributeSetter object at 0x7f2080840460>, gamma=None, gammaErrorPolicy='raise', lms=UNKNOWN, monitor=<psychopy.monitors.calibTools.Monitor object at 0x7f207991b400>, multiSample=False, name='stim_window', numSamples=2, pos=[0.0, 0.0], screen=0, size=array([1920, 1080]), stencilBits=0, stereo=False, title='PsychoPy', units='deg', useFBO=True, useRetina=False, viewOri=0.0, viewPos=None, viewScale=None, waitBlanking=True, winType='pyglet')","{'TR': 2.1, 'volumes': 5, 'sync': '5', 'skip': 0, 'sound': False}",<psychopy.clock.CountdownTimer object at 0x7f20798f4d60>,"Rect(__class__=<class 'psychopy.visual.rect.Rect'>, anchor=('center', 'center'), autoDraw=True, autoLog=True, closeShape=True, color=method-wrapper(...), colorSpace='rgb', contrast=None, depth=0, draggable=False, fillColor=array([0.00392157, 0.00392157, 0.00392157]), fillColorSpace='rgb', fillRGB=array([0.00392157, 0.00392157, 0.00392157]), interpolate=True, lineColor=array([0., 0., 0.]), lineColorSpace='rgb', lineRGB=array([0, 0, 0]), lineWidth=1.5, name='unnamed Rect', opacity=0.5, ori=0.0, pos=array([0., 0.]), size=array([2., 2.]), units='norm', vertices=ndarray(...), win=Window(...))",2.1,[],8,0.75,"[<psychopy.visual.line.Line object at 0x7f206a85a6d0>, <psychopy.visual.line.Line object at 0x7f206a85a9d0>]",<psychopy.hardware.keyboard.Keyboard object at 0x7f2060762970>,
3,dot,0.3,['dot'],['density'],black,0,28,28,28,,,11.918859958648682,12.218852043151855,dot,"[0.06, 0.06, 0.06]","[[0.026071599024748527, -0.32860913997604846], [-0.11834724389398482, -0.18584523127985947], [0.10068982493997472, -0.12518245043845455]]",density,black,true,correct,nan,N003,visual,1,[],"['1', '2', '3', '4']",1,/NOBACKUP2/USER/Jeong/experiment2,/NOBACKUP2/USER/Jeong/experiment2/logfiles/visual/N003_d-20240920,2023.2.3,harveyvisual,"Window(allowGUI=False, allowStencil=False, autoLog=True, backendConf=UNKNOWN, backgroundFit='cover', backgroundImage=None, bitsMode=UNKNOWN, blendMode='avg', bpc=(8, 8, 8), color=array([-1, -1, -1]), colorSpace='rgb', depthBits=8, fullscr=<method-wrapper '__getattribute__' of attributeSetter object at 0x7f2080840460>, gamma=None, gammaErrorPolicy='raise', lms=UNKNOWN, monitor=<psychopy.monitors.calibTools.Monitor object at 0x7f207991b400>, multiSample=False, name='stim_window', numSamples=2, pos=[0.0, 0.0], screen=0, size=array([1920, 1080]), stencilBits=0, stereo=False, title='PsychoPy', units='deg', useFBO=True, useRetina=False, viewOri=0.0, viewPos=None, viewScale=None, waitBlanking=True, winType='pyglet')","{'TR': 2.1, 'volumes': 5, 'sync': '5', 'skip': 0, 'sound': False}",<psychopy.clock.CountdownTimer object at 0x7f20798f4d60>,"Rect(__class__=<class 'psychopy.visual.rect.Rect'>, anchor=('center', 'center'), autoDraw=True, autoLog=True, closeShape=True, color=method-wrapper(...), colorSpace='rgb', contrast=None, depth=0, draggable=False, fillColor=array([0.00392157, 0.00392157, 0.00392157]), fillColorSpace='rgb', fillRGB=array([0.00392157, 0.00392157, 0.00392157]), interpolate=True, lineColor=array([0., 0., 0.]), lineColorSpace='rgb', lineRGB=array([0, 0, 0]), lineWidth=1.5, name='unnamed Rect', opacity=0.5, ori=0.0, pos=array([0., 0.]), size=array([2., 2.]), units='norm', vertices=ndarray(...), win=Window(...))",2.1,[],8,0.75,"[<psychopy.visual.line.Line object at 0x7f206a85a6d0>, <psychopy.visual.line.Line object at 0x7f206a85a9d0>]",<psychopy.hardware.keyboard.Keyboard object at 0x7f2060762970>,
0,pause,0.4,None,None,None,0,29,29,29,,,,,,,,,,,,,N003,visual,1,[],"['1', '2', '3', '4']",1,/NOBACKUP2/USER/Jeong/experiment2,/NOBACKUP2/USER/Jeong/experiment2/logfiles/visual/N003_d-20240920,2023.2.3,harveyvisual,"Window(allowGUI=False, allowStencil=False, autoLog=True, backendConf=UNKNOWN, backgroundFit='cover', backgroundImage=None, bitsMode=UNKNOWN, blendMode='avg', bpc=(8, 8, 8), color=array([-1, -1, -1]), colorSpace='rgb', depthBits=8, fullscr=<method-wrapper '__getattribute__' of attributeSetter object at 0x7f2080840460>, gamma=None, gammaErrorPolicy='raise', lms=UNKNOWN, monitor=<psychopy.monitors.calibTools.Monitor object at 0x7f207991b400>, multiSample=False, name='stim_window', numSamples=2, pos=[0.0, 0.0], screen=0, size=array([1920, 1080]), stencilBits=0, stereo=False, title='PsychoPy', units='deg', useFBO=True, useRetina=False, viewOri=0.0, viewPos=None, viewScale=None, waitBlanking=True, winType='pyglet')","{'TR': 2.1, 'volumes': 5, 'sync': '5', 'skip': 0, 'sound': False}",<psychopy.clock.CountdownTimer object at 0x7f20798f4d60>,"Rect(__class__=<class 'psychopy.visual.rect.Rect'>, anchor=('center', 'center'), autoDraw=True, autoLog=True, closeShape=True, color=method-wrapper(...), colorSpace='rgb', contrast=None, depth=0, draggable=False, fillColor=array([0.00392157, 0.00392157, 0.00392157]), fillColorSpace='rgb', fillRGB=array([0.00392157, 0.00392157, 0.00392157]), interpolate=True, lineColor=array([0., 0., 0.]), lineColorSpace='rgb', lineRGB=array([0, 0, 0]), lineWidth=1.5, name='unnamed Rect', opacity=0.5, ori=0.0, pos=array([0., 0.]), size=array([2., 2.]), units='norm', vertices=ndarray(...), win=Window(...))",2.1,[],8,0.75,"[<psychopy.visual.line.Line object at 0x7f206a85a6d0>, <psychopy.visual.line.Line object at 0x7f206a85a9d0>]",<psychopy.hardware.keyboard.Keyboard object at 0x7f2060762970>,
3,dot,0.3,['dot'],['density'],black,0,30,30,30,,,12.618863105773926,12.918820142745972,dot,"[0.08, 0.1, 0.08]","[[-0.15674404860239688, -0.25078459247658497], [0.006578924124220241, -0.41324131210186005], [0.06959682433872849, -0.20549031443856539]]",density,black,true,correct,nan,N003,visual,1,[],"['1', '2', '3', '4']",1,/NOBACKUP2/USER/Jeong/experiment2,/NOBACKUP2/USER/Jeong/experiment2/logfiles/visual/N003_d-20240920,2023.2.3,harveyvisual,"Window(allowGUI=False, allowStencil=False, autoLog=True, backendConf=UNKNOWN, backgroundFit='cover', backgroundImage=None, bitsMode=UNKNOWN, blendMode='avg', bpc=(8, 8, 8), color=array([-1, -1, -1]), colorSpace='rgb', depthBits=8, fullscr=<method-wrapper '__getattribute__' of attributeSetter object at 0x7f2080840460>, gamma=None, gammaErrorPolicy='raise', lms=UNKNOWN, monitor=<psychopy.monitors.calibTools.Monitor object at 0x7f207991b400>, multiSample=False, name='stim_window', numSamples=2, pos=[0.0, 0.0], screen=0, size=array([1920, 1080]), stencilBits=0, stereo=False, title='PsychoPy', units='deg', useFBO=True, useRetina=False, viewOri=0.0, viewPos=None, viewScale=None, waitBlanking=True, winType='pyglet')","{'TR': 2.1, 'volumes': 5, 'sync': '5', 'skip': 0, 'sound': False}",<psychopy.clock.CountdownTimer object at 0x7f20798f4d60>,"Rect(__class__=<class 'psychopy.visual.rect.Rect'>, anchor=('center', 'center'), autoDraw=True, autoLog=True, closeShape=True, color=method-wrapper(...), colorSpace='rgb', contrast=None, depth=0, draggable=False, fillColor=array([0.00392157, 0.00392157, 0.00392157]), fillColorSpace='rgb', fillRGB=array([0.00392157, 0.00392157, 0.00392157]), interpolate=True, lineColor=array([0., 0., 0.]), lineColorSpace='rgb', lineRGB=array([0, 0, 0]), lineWidth=1.5, name='unnamed Rect', opacity=0.5, ori=0.0, pos=array([0., 0.]), size=array([2., 2.]), units='norm', vertices=ndarray(...), win=Window(...))",2.1,[],8,0.75,"[<psychopy.visual.line.Line object at 0x7f206a85a6d0>, <psychopy.visual.line.Line object at 0x7f206a85a9d0>]",<psychopy.hardware.keyboard.Keyboard object at 0x7f2060762970>,
0,pause,0.4,None,None,None,0,31,31,31,,,,,,,,,,,,,N003,visual,1,[],"['1', '2', '3', '4']",1,/NOBACKUP2/USER/Jeong/experiment2,/NOBACKUP2/USER/Jeong/experiment2/logfiles/visual/N003_d-20240920,2023.2.3,harveyvisual,"Window(allowGUI=False, allowStencil=False, autoLog=True, backendConf=UNKNOWN, backgroundFit='cover', backgroundImage=None, bitsMode=UNKNOWN, blendMode='avg', bpc=(8, 8, 8), color=array([-1, -1, -1]), colorSpace='rgb', depthBits=8, fullscr=<method-wrapper '__getattribute__' of attributeSetter object at 0x7f2080840460>, gamma=None, gammaErrorPolicy='raise', lms=UNKNOWN, monitor=<psychopy.monitors.calibTools.Monitor object at 0x7f207991b400>, multiSample=False, name='stim_window', numSamples=2, pos=[0.0, 0.0], screen=0, size=array([1920, 1080]), stencilBits=0, stereo=False, title='PsychoPy', units='deg', useFBO=True, useRetina=False, viewOri=0.0, viewPos=None, viewScale=None, waitBlanking=True, winType='pyglet')","{'TR': 2.1, 'volumes': 5, 'sync': '5', 'skip': 0, 'sound': False}",<psychopy.clock.CountdownTimer object at 0x7f20798f4d60>,"Rect(__class__=<class 'psychopy.visual.rect.Rect'>, anchor=('center', 'center'), autoDraw=True, autoLog=True, closeShape=True, color=method-wrapper(...), colorSpace='rgb', contrast=None, depth=0, draggable=False, fillColor=array([0.00392157, 0.00392157, 0.00392157]), fillColorSpace='rgb', fillRGB=array([0.00392157, 0.00392157, 0.00392157]), interpolate=True, lineColor=array([0., 0., 0.]), lineColorSpace='rgb', lineRGB=array([0, 0, 0]), lineWidth=1.5, name='unnamed Rect', opacity=0.5, ori=0.0, pos=array([0., 0.]), size=array([2., 2.]), units='norm', vertices=ndarray(...), win=Window(...))",2.1,[],8,0.75,"[<psychopy.visual.line.Line object at 0x7f206a85a6d0>, <psychopy.visual.line.Line object at 0x7f206a85a9d0>]",<psychopy.hardware.keyboard.Keyboard object at 0x7f2060762970>,
3,dot,0.3,['dot'],['density'],black,0,32,32,32,,,13.318817138671875,13.618811130523682,dot,"[0.06, 0.1, 0.06]","[[-0.3082868261871679, -0.3137599619928766], [-0.14816041357862977, -0.19371393562593295], [-0.35304767783039576, -0.10610354059871957]]",density,black,true,correct,nan,N003,visual,1,[],"['1', '2', '3', '4']",1,/NOBACKUP2/USER/Jeong/experiment2,/NOBACKUP2/USER/Jeong/experiment2/logfiles/visual/N003_d-20240920,2023.2.3,harveyvisual,"Window(allowGUI=False, allowStencil=False, autoLog=True, backendConf=UNKNOWN, backgroundFit='cover', backgroundImage=None, bitsMode=UNKNOWN, blendMode='avg', bpc=(8, 8, 8), color=array([-1, -1, -1]), colorSpace='rgb', depthBits=8, fullscr=<method-wrapper '__getattribute__' of attributeSetter object at 0x7f2080840460>, gamma=None, gammaErrorPolicy='raise', lms=UNKNOWN, monitor=<psychopy.monitors.calibTools.Monitor object at 0x7f207991b400>, multiSample=False, name='stim_window', numSamples=2, pos=[0.0, 0.0], screen=0, size=array([1920, 1080]), stencilBits=0, stereo=False, title='PsychoPy', units='deg', useFBO=True, useRetina=False, viewOri=0.0, viewPos=None, viewScale=None, waitBlanking=True, winType='pyglet')","{'TR': 2.1, 'volumes': 5, 'sync': '5', 'skip': 0, 'sound': False}",<psychopy.clock.CountdownTimer object at 0x7f20798f4d60>,"Rect(__class__=<class 'psychopy.visual.rect.Rect'>, anchor=('center', 'center'), autoDraw=True, autoLog=True, closeShape=True, color=method-wrapper(...), colorSpace='rgb', contrast=None, depth=0, draggable=False, fillColor=array([0.00392157, 0.00392157, 0.00392157]), fillColorSpace='rgb', fillRGB=array([0.00392157, 0.00392157, 0.00392157]), interpolate=True, lineColor=array([0., 0., 0.]), lineColorSpace='rgb', lineRGB=array([0, 0, 0]), lineWidth=1.5, name='unnamed Rect', opacity=0.5, ori=0.0, pos=array([0., 0.]), size=array([2., 2.]), units='norm', vertices=ndarray(...), win=Window(...))",2.1,[],8,0.75,"[<psychopy.visual.line.Line object at 0x7f206a85a6d0>, <psychopy.visual.line.Line object at 0x7f206a85a9d0>]",<psychopy.hardware.keyboard.Keyboard object at 0x7f2060762970>,
0,pause,0.4,None,None,None,0,33,33,33,,,,,,,,,,,,,N003,visual,1,[],"['1', '2', '3', '4']",1,/NOBACKUP2/USER/Jeong/experiment2,/NOBACKUP2/USER/Jeong/experiment2/logfiles/visual/N003_d-20240920,2023.2.3,harveyvisual,"Window(allowGUI=False, allowStencil=False, autoLog=True, backendConf=UNKNOWN, backgroundFit='cover', backgroundImage=None, bitsMode=UNKNOWN, blendMode='avg', bpc=(8, 8, 8), color=array([-1, -1, -1]), colorSpace='rgb', depthBits=8, fullscr=<method-wrapper '__getattribute__' of attributeSetter object at 0x7f2080840460>, gamma=None, gammaErrorPolicy='raise', lms=UNKNOWN, monitor=<psychopy.monitors.calibTools.Monitor object at 0x7f207991b400>, multiSample=False, name='stim_window', numSamples=2, pos=[0.0, 0.0], screen=0, size=array([1920, 1080]), stencilBits=0, stereo=False, title='PsychoPy', units='deg', useFBO=True, useRetina=False, viewOri=0.0, viewPos=None, viewScale=None, waitBlanking=True, winType='pyglet')","{'TR': 2.1, 'volumes': 5, 'sync': '5', 'skip': 0, 'sound': False}",<psychopy.clock.CountdownTimer object at 0x7f20798f4d60>,"Rect(__class__=<class 'psychopy.visual.rect.Rect'>, anchor=('center', 'center'), autoDraw=True, autoLog=True, closeShape=True, color=method-wrapper(...), colorSpace='rgb', contrast=None, depth=0, draggable=False, fillColor=array([0.00392157, 0.00392157, 0.00392157]), fillColorSpace='rgb', fillRGB=array([0.00392157, 0.00392157, 0.00392157]), interpolate=True, lineColor=array([0., 0., 0.]), lineColorSpace='rgb', lineRGB=array([0, 0, 0]), lineWidth=1.5, name='unnamed Rect', opacity=0.5, ori=0.0, pos=array([0., 0.]), size=array([2., 2.]), units='norm', vertices=ndarray(...), win=Window(...))",2.1,[],8,0.75,"[<psychopy.visual.line.Line object at 0x7f206a85a6d0>, <psychopy.visual.line.Line object at 0x7f206a85a9d0>]",<psychopy.hardware.keyboard.Keyboard object at 0x7f2060762970>,
3,dot,0.3,['dot'],['density'],black,0,34,34,34,,,14.018810033798218,14.31893515586853,dot,"[0.08, 0.06, 0.06]","[[0.35100391059830643, -0.4491085892346253], [0.13011513135189492, -0.5590284990295896], [0.16905753934955023, -0.35714526366544236]]",density,black,true,correct,nan,N003,visual,1,[],"['1', '2', '3', '4']",1,/NOBACKUP2/USER/Jeong/experiment2,/NOBACKUP2/USER/Jeong/experiment2/logfiles/visual/N003_d-20240920,2023.2.3,harveyvisual,"Window(allowGUI=False, allowStencil=False, autoLog=True, backendConf=UNKNOWN, backgroundFit='cover', backgroundImage=None, bitsMode=UNKNOWN, blendMode='avg', bpc=(8, 8, 8), color=array([-1, -1, -1]), colorSpace='rgb', depthBits=8, fullscr=<method-wrapper '__getattribute__' of attributeSetter object at 0x7f2080840460>, gamma=None, gammaErrorPolicy='raise', lms=UNKNOWN, monitor=<psychopy.monitors.calibTools.Monitor object at 0x7f207991b400>, multiSample=False, name='stim_window', numSamples=2, pos=[0.0, 0.0], screen=0, size=array([1920, 1080]), stencilBits=0, stereo=False, title='PsychoPy', units='deg', useFBO=True, useRetina=False, viewOri=0.0, viewPos=None, viewScale=None, waitBlanking=True, winType='pyglet')","{'TR': 2.1, 'volumes': 5, 'sync': '5', 'skip': 0, 'sound': False}",<psychopy.clock.CountdownTimer object at 0x7f20798f4d60>,"Rect(__class__=<class 'psychopy.visual.rect.Rect'>, anchor=('center', 'center'), autoDraw=True, autoLog=True, closeShape=True, color=method-wrapper(...), colorSpace='rgb', contrast=None, depth=0, draggable=False, fillColor=array([0.00392157, 0.00392157, 0.00392157]), fillColorSpace='rgb', fillRGB=array([0.00392157, 0.00392157, 0.00392157]), interpolate=True, lineColor=array([0., 0., 0.]), lineColorSpace='rgb', lineRGB=array([0, 0, 0]), lineWidth=1.5, name='unnamed Rect', opacity=0.5, ori=0.0, pos=array([0., 0.]), size=array([2., 2.]), units='norm', vertices=ndarray(...), win=Window(...))",2.1,[],8,0.75,"[<psychopy.visual.line.Line object at 0x7f206a85a6d0>, <psychopy.visual.line.Line object at 0x7f206a85a9d0>]",<psychopy.hardware.keyboard.Keyboard object at 0x7f2060762970>,
0,pause,0.4,None,None,None,0,35,35,35,,,,,,,,,,,,,N003,visual,1,[],"['1', '2', '3', '4']",1,/NOBACKUP2/USER/Jeong/experiment2,/NOBACKUP2/USER/Jeong/experiment2/logfiles/visual/N003_d-20240920,2023.2.3,harveyvisual,"Window(allowGUI=False, allowStencil=False, autoLog=True, backendConf=UNKNOWN, backgroundFit='cover', backgroundImage=None, bitsMode=UNKNOWN, blendMode='avg', bpc=(8, 8, 8), color=array([-1, -1, -1]), colorSpace='rgb', depthBits=8, fullscr=<method-wrapper '__getattribute__' of attributeSetter object at 0x7f2080840460>, gamma=None, gammaErrorPolicy='raise', lms=UNKNOWN, monitor=<psychopy.monitors.calibTools.Monitor object at 0x7f207991b400>, multiSample=False, name='stim_window', numSamples=2, pos=[0.0, 0.0], screen=0, size=array([1920, 1080]), stencilBits=0, stereo=False, title='PsychoPy', units='deg', useFBO=True, useRetina=False, viewOri=0.0, viewPos=None, viewScale=None, waitBlanking=True, winType='pyglet')","{'TR': 2.1, 'volumes': 5, 'sync': '5', 'skip': 0, 'sound': False}",<psychopy.clock.CountdownTimer object at 0x7f20798f4d60>,"Rect(__class__=<class 'psychopy.visual.rect.Rect'>, anchor=('center', 'center'), autoDraw=True, autoLog=True, closeShape=True, color=method-wrapper(...), colorSpace='rgb', contrast=None, depth=0, draggable=False, fillColor=array([0.00392157, 0.00392157, 0.00392157]), fillColorSpace='rgb', fillRGB=array([0.00392157, 0.00392157, 0.00392157]), interpolate=True, lineColor=array([0., 0., 0.]), lineColorSpace='rgb', lineRGB=array([0, 0, 0]), lineWidth=1.5, name='unnamed Rect', opacity=0.5, ori=0.0, pos=array([0., 0.]), size=array([2., 2.]), units='norm', vertices=ndarray(...), win=Window(...))",2.1,[],8,0.75,"[<psychopy.visual.line.Line object at 0x7f206a85a6d0>, <psychopy.visual.line.Line object at 0x7f206a85a9d0>]",<psychopy.hardware.keyboard.Keyboard object at 0x7f2060762970>,
4,dot,0.3,['dot'],['density'],black,0,36,36,36,,,14.718944072723389,15.01893401145935,dot,"[0.06, 0.1, 0.08, 0.06]","[[0.13421512820946938, -0.5336194340609706], [0.2622623892029083, -0.3575253733063478], [0.024533045116508903, -0.3376850530006363], [0.166924465117498, -0.0963569090623874]]",density,black,false,wrong,nan,N003,visual,1,[],"['1', '2', '3', '4']",1,/NOBACKUP2/USER/Jeong/experiment2,/NOBACKUP2/USER/Jeong/experiment2/logfiles/visual/N003_d-20240920,2023.2.3,harveyvisual,"Window(allowGUI=False, allowStencil=False, autoLog=True, backendConf=UNKNOWN, backgroundFit='cover', backgroundImage=None, bitsMode=UNKNOWN, blendMode='avg', bpc=(8, 8, 8), color=array([-1, -1, -1]), colorSpace='rgb', depthBits=8, fullscr=<method-wrapper '__getattribute__' of attributeSetter object at 0x7f2080840460>, gamma=None, gammaErrorPolicy='raise', lms=UNKNOWN, monitor=<psychopy.monitors.calibTools.Monitor object at 0x7f207991b400>, multiSample=False, name='stim_window', numSamples=2, pos=[0.0, 0.0], screen=0, size=array([1920, 1080]), stencilBits=0, stereo=False, title='PsychoPy', units='deg', useFBO=True, useRetina=False, viewOri=0.0, viewPos=None, viewScale=None, waitBlanking=True, winType='pyglet')","{'TR': 2.1, 'volumes': 5, 'sync': '5', 'skip': 0, 'sound': False}",<psychopy.clock.CountdownTimer object at 0x7f20798f4d60>,"Rect(__class__=<class 'psychopy.visual.rect.Rect'>, anchor=('center', 'center'), autoDraw=True, autoLog=True, closeShape=True, color=method-wrapper(...), colorSpace='rgb', contrast=None, depth=0, draggable=False, fillColor=array([0.00392157, 0.00392157, 0.00392157]), fillColorSpace='rgb', fillRGB=array([0.00392157, 0.00392157, 0.00392157]), interpolate=True, lineColor=array([0., 0., 0.]), lineColorSpace='rgb', lineRGB=array([0, 0, 0]), lineWidth=1.5, name='unnamed Rect', opacity=0.5, ori=0.0, pos=array([0., 0.]), size=array([2., 2.]), units='norm', vertices=ndarray(...), win=Window(...))",2.1,[],8,0.75,"[<psychopy.visual.line.Line object at 0x7f206a85a6d0>, <psychopy.visual.line.Line object at 0x7f206a85a9d0>]",<psychopy.hardware.keyboard.Keyboard object at 0x7f2060762970>,
0,pause,0.4,None,None,None,0,37,37,37,,,,,,,,,,,,,N003,visual,1,[],"['1', '2', '3', '4']",1,/NOBACKUP2/USER/Jeong/experiment2,/NOBACKUP2/USER/Jeong/experiment2/logfiles/visual/N003_d-20240920,2023.2.3,harveyvisual,"Window(allowGUI=False, allowStencil=False, autoLog=True, backendConf=UNKNOWN, backgroundFit='cover', backgroundImage=None, bitsMode=UNKNOWN, blendMode='avg', bpc=(8, 8, 8), color=array([-1, -1, -1]), colorSpace='rgb', depthBits=8, fullscr=<method-wrapper '__getattribute__' of attributeSetter object at 0x7f2080840460>, gamma=None, gammaErrorPolicy='raise', lms=UNKNOWN, monitor=<psychopy.monitors.calibTools.Monitor object at 0x7f207991b400>, multiSample=False, name='stim_window', numSamples=2, pos=[0.0, 0.0], screen=0, size=array([1920, 1080]), stencilBits=0, stereo=False, title='PsychoPy', units='deg', useFBO=True, useRetina=False, viewOri=0.0, viewPos=None, viewScale=None, waitBlanking=True, winType='pyglet')","{'TR': 2.1, 'volumes': 5, 'sync': '5', 'skip': 0, 'sound': False}",<psychopy.clock.CountdownTimer object at 0x7f20798f4d60>,"Rect(__class__=<class 'psychopy.visual.rect.Rect'>, anchor=('center', 'center'), autoDraw=True, autoLog=True, closeShape=True, color=method-wrapper(...), colorSpace='rgb', contrast=None, depth=0, draggable=False, fillColor=array([0.00392157, 0.00392157, 0.00392157]), fillColorSpace='rgb', fillRGB=array([0.00392157, 0.00392157, 0.00392157]), interpolate=True, lineColor=array([0., 0., 0.]), lineColorSpace='rgb', lineRGB=array([0, 0, 0]), lineWidth=1.5, name='unnamed Rect', opacity=0.5, ori=0.0, pos=array([0., 0.]), size=array([2., 2.]), units='norm', vertices=ndarray(...), win=Window(...))",2.1,[],8,0.75,"[<psychopy.visual.line.Line object at 0x7f206a85a6d0>, <psychopy.visual.line.Line object at 0x7f206a85a9d0>]",<psychopy.hardware.keyboard.Keyboard object at 0x7f2060762970>,
4,dot,0.3,['dot'],['density'],black,0,38,38,38,,,15.418982982635498,15.71877408027649,dot,"[0.08, 0.06, 0.1, 0.08]","[[0.06081986304483943, 0.35358512719402324], [0.4232304195196481, 0.14579533924648716], [0.12419639750553536, 0.133833625718984], [0.26609561976711055, 0.2970795792082364]]",density,black,true,correct,nan,N003,visual,1,[],"['1', '2', '3', '4']",1,/NOBACKUP2/USER/Jeong/experiment2,/NOBACKUP2/USER/Jeong/experiment2/logfiles/visual/N003_d-20240920,2023.2.3,harveyvisual,"Window(allowGUI=False, allowStencil=False, autoLog=True, backendConf=UNKNOWN, backgroundFit='cover', backgroundImage=None, bitsMode=UNKNOWN, blendMode='avg', bpc=(8, 8, 8), color=array([-1, -1, -1]), colorSpace='rgb', depthBits=8, fullscr=<method-wrapper '__getattribute__' of attributeSetter object at 0x7f2080840460>, gamma=None, gammaErrorPolicy='raise', lms=UNKNOWN, monitor=<psychopy.monitors.calibTools.Monitor object at 0x7f207991b400>, multiSample=False, name='stim_window', numSamples=2, pos=[0.0, 0.0], screen=0, size=array([1920, 1080]), stencilBits=0, stereo=False, title='PsychoPy', units='deg', useFBO=True, useRetina=False, viewOri=0.0, viewPos=None, viewScale=None, waitBlanking=True, winType='pyglet')","{'TR': 2.1, 'volumes': 5, 'sync': '5', 'skip': 0, 'sound': False}",<psychopy.clock.CountdownTimer object at 0x7f20798f4d60>,"Rect(__class__=<class 'psychopy.visual.rect.Rect'>, anchor=('center', 'center'), autoDraw=True, autoLog=True, closeShape=True, color=method-wrapper(...), colorSpace='rgb', contrast=None, depth=0, draggable=False, fillColor=array([0.00392157, 0.00392157, 0.00392157]), fillColorSpace='rgb', fillRGB=array([0.00392157, 0.00392157, 0.00392157]), interpolate=True, lineColor=array([0., 0., 0.]), lineColorSpace='rgb', lineRGB=array([0, 0, 0]), lineWidth=1.5, name='unnamed Rect', opacity=0.5, ori=0.0, pos=array([0., 0.]), size=array([2., 2.]), units='norm', vertices=ndarray(...), win=Window(...))",2.1,[],8,0.75,"[<psychopy.visual.line.Line object at 0x7f206a85a6d0>, <psychopy.visual.line.Line object at 0x7f206a85a9d0>]",<psychopy.hardware.keyboard.Keyboard object at 0x7f2060762970>,
0,pause,0.4,None,None,None,0,39,39,39,,,,,,,,,,,,,N003,visual,1,[],"['1', '2', '3', '4']",1,/NOBACKUP2/USER/Jeong/experiment2,/NOBACKUP2/USER/Jeong/experiment2/logfiles/visual/N003_d-20240920,2023.2.3,harveyvisual,"Window(allowGUI=False, allowStencil=False, autoLog=True, backendConf=UNKNOWN, backgroundFit='cover', backgroundImage=None, bitsMode=UNKNOWN, blendMode='avg', bpc=(8, 8, 8), color=array([-1, -1, -1]), colorSpace='rgb', depthBits=8, fullscr=<method-wrapper '__getattribute__' of attributeSetter object at 0x7f2080840460>, gamma=None, gammaErrorPolicy='raise', lms=UNKNOWN, monitor=<psychopy.monitors.calibTools.Monitor object at 0x7f207991b400>, multiSample=False, name='stim_window', numSamples=2, pos=[0.0, 0.0], screen=0, size=array([1920, 1080]), stencilBits=0, stereo=False, title='PsychoPy', units='deg', useFBO=True, useRetina=False, viewOri=0.0, viewPos=None, viewScale=None, waitBlanking=True, winType='pyglet')","{'TR': 2.1, 'volumes': 5, 'sync': '5', 'skip': 0, 'sound': False}",<psychopy.clock.CountdownTimer object at 0x7f20798f4d60>,"Rect(__class__=<class 'psychopy.visual.rect.Rect'>, anchor=('center', 'center'), autoDraw=True, autoLog=True, closeShape=True, color=method-wrapper(...), colorSpace='rgb', contrast=None, depth=0, draggable=False, fillColor=array([0.00392157, 0.00392157, 0.00392157]), fillColorSpace='rgb', fillRGB=array([0.00392157, 0.00392157, 0.00392157]), interpolate=True, lineColor=array([0., 0., 0.]), lineColorSpace='rgb', lineRGB=array([0, 0, 0]), lineWidth=1.5, name='unnamed Rect', opacity=0.5, ori=0.0, pos=array([0., 0.]), size=array([2., 2.]), units='norm', vertices=ndarray(...), win=Window(...))",2.1,[],8,0.75,"[<psychopy.visual.line.Line object at 0x7f206a85a6d0>, <psychopy.visual.line.Line object at 0x7f206a85a9d0>]",<psychopy.hardware.keyboard.Keyboard object at 0x7f2060762970>,
4,dot,0.3,['dot'],['density'],black,0,40,40,40,,,16.118751049041748,16.418779134750366,dot,"[0.08, 0.1, 0.06, 0.1]","[[0.2541297109701026, -0.03410267595110144], [0.396116024817599, -0.19002287009394117], [0.4303711222235913, 0.2602585224666286], [0.4446461975978109, 0.027516111316963392]]",density,black,true,correct,nan,N003,visual,1,[],"['1', '2', '3', '4']",1,/NOBACKUP2/USER/Jeong/experiment2,/NOBACKUP2/USER/Jeong/experiment2/logfiles/visual/N003_d-20240920,2023.2.3,harveyvisual,"Window(allowGUI=False, allowStencil=False, autoLog=True, backendConf=UNKNOWN, backgroundFit='cover', backgroundImage=None, bitsMode=UNKNOWN, blendMode='avg', bpc=(8, 8, 8), color=array([-1, -1, -1]), colorSpace='rgb', depthBits=8, fullscr=<method-wrapper '__getattribute__' of attributeSetter object at 0x7f2080840460>, gamma=None, gammaErrorPolicy='raise', lms=UNKNOWN, monitor=<psychopy.monitors.calibTools.Monitor object at 0x7f207991b400>, multiSample=False, name='stim_window', numSamples=2, pos=[0.0, 0.0], screen=0, size=array([1920, 1080]), stencilBits=0, stereo=False, title='PsychoPy', units='deg', useFBO=True, useRetina=False, viewOri=0.0, viewPos=None, viewScale=None, waitBlanking=True, winType='pyglet')","{'TR': 2.1, 'volumes': 5, 'sync': '5', 'skip': 0, 'sound': False}",<psychopy.clock.CountdownTimer object at 0x7f20798f4d60>,"Rect(__class__=<class 'psychopy.visual.rect.Rect'>, anchor=('center', 'center'), autoDraw=True, autoLog=True, closeShape=True, color=method-wrapper(...), colorSpace='rgb', contrast=None, depth=0, draggable=False, fillColor=array([0.00392157, 0.00392157, 0.00392157]), fillColorSpace='rgb', fillRGB=array([0.00392157, 0.00392157, 0.00392157]), interpolate=True, lineColor=array([0., 0., 0.]), lineColorSpace='rgb', lineRGB=array([0, 0, 0]), lineWidth=1.5, name='unnamed Rect', opacity=0.5, ori=0.0, pos=array([0., 0.]), size=array([2., 2.]), units='norm', vertices=ndarray(...), win=Window(...))",2.1,[],8,0.75,"[<psychopy.visual.line.Line object at 0x7f206a85a6d0>, <psychopy.visual.line.Line object at 0x7f206a85a9d0>]",<psychopy.hardware.keyboard.Keyboard object at 0x7f2060762970>,
0,pause,0.4,None,None,None,0,41,41,41,,,,,,,,,,,,,N003,visual,1,[],"['1', '2', '3', '4']",1,/NOBACKUP2/USER/Jeong/experiment2,/NOBACKUP2/USER/Jeong/experiment2/logfiles/visual/N003_d-20240920,2023.2.3,harveyvisual,"Window(allowGUI=False, allowStencil=False, autoLog=True, backendConf=UNKNOWN, backgroundFit='cover', backgroundImage=None, bitsMode=UNKNOWN, blendMode='avg', bpc=(8, 8, 8), color=array([-1, -1, -1]), colorSpace='rgb', depthBits=8, fullscr=<method-wrapper '__getattribute__' of attributeSetter object at 0x7f2080840460>, gamma=None, gammaErrorPolicy='raise', lms=UNKNOWN, monitor=<psychopy.monitors.calibTools.Monitor object at 0x7f207991b400>, multiSample=False, name='stim_window', numSamples=2, pos=[0.0, 0.0], screen=0, size=array([1920, 1080]), stencilBits=0, stereo=False, title='PsychoPy', units='deg', useFBO=True, useRetina=False, viewOri=0.0, viewPos=None, viewScale=None, waitBlanking=True, winType='pyglet')","{'TR': 2.1, 'volumes': 5, 'sync': '5', 'skip': 0, 'sound': False}",<psychopy.clock.CountdownTimer object at 0x7f20798f4d60>,"Rect(__class__=<class 'psychopy.visual.rect.Rect'>, anchor=('center', 'center'), autoDraw=True, autoLog=True, closeShape=True, color=method-wrapper(...), colorSpace='rgb', contrast=None, depth=0, draggable=False, fillColor=array([0.00392157, 0.00392157, 0.00392157]), fillColorSpace='rgb', fillRGB=array([0.00392157, 0.00392157, 0.00392157]), interpolate=True, lineColor=array([0., 0., 0.]), lineColorSpace='rgb', lineRGB=array([0, 0, 0]), lineWidth=1.5, name='unnamed Rect', opacity=0.5, ori=0.0, pos=array([0., 0.]), size=array([2., 2.]), units='norm', vertices=ndarray(...), win=Window(...))",2.1,[],8,0.75,"[<psychopy.visual.line.Line object at 0x7f206a85a6d0>, <psychopy.visual.line.Line object at 0x7f206a85a9d0>]",<psychopy.hardware.keyboard.Keyboard object at 0x7f2060762970>,
4,dot,0.3,['dot'],['density'],white,0,42,42,42,,,16.81876802444458,17.11869716644287,dot,"[0.06, 0.08, 0.06, 0.1]","[[0.012521055699324385, 0.11356654047594222], [0.23234191260135498, 0.08597184236642744], [-0.1711309036876675, 0.020891973622313913], [0.11376048882462075, -0.09104804463782627]]",density,white,true,correct,nan,N003,visual,1,[],"['1', '2', '3', '4']",1,/NOBACKUP2/USER/Jeong/experiment2,/NOBACKUP2/USER/Jeong/experiment2/logfiles/visual/N003_d-20240920,2023.2.3,harveyvisual,"Window(allowGUI=False, allowStencil=False, autoLog=True, backendConf=UNKNOWN, backgroundFit='cover', backgroundImage=None, bitsMode=UNKNOWN, blendMode='avg', bpc=(8, 8, 8), color=array([-1, -1, -1]), colorSpace='rgb', depthBits=8, fullscr=<method-wrapper '__getattribute__' of attributeSetter object at 0x7f2080840460>, gamma=None, gammaErrorPolicy='raise', lms=UNKNOWN, monitor=<psychopy.monitors.calibTools.Monitor object at 0x7f207991b400>, multiSample=False, name='stim_window', numSamples=2, pos=[0.0, 0.0], screen=0, size=array([1920, 1080]), stencilBits=0, stereo=False, title='PsychoPy', units='deg', useFBO=True, useRetina=False, viewOri=0.0, viewPos=None, viewScale=None, waitBlanking=True, winType='pyglet')","{'TR': 2.1, 'volumes': 5, 'sync': '5', 'skip': 0, 'sound': False}",<psychopy.clock.CountdownTimer object at 0x7f20798f4d60>,"Rect(__class__=<class 'psychopy.visual.rect.Rect'>, anchor=('center', 'center'), autoDraw=True, autoLog=True, closeShape=True, color=method-wrapper(...), colorSpace='rgb', contrast=None, depth=0, draggable=False, fillColor=array([0.00392157, 0.00392157, 0.00392157]), fillColorSpace='rgb', fillRGB=array([0.00392157, 0.00392157, 0.00392157]), interpolate=True, lineColor=array([0., 0., 0.]), lineColorSpace='rgb', lineRGB=array([0, 0, 0]), lineWidth=1.5, name='unnamed Rect', opacity=0.5, ori=0.0, pos=array([0., 0.]), size=array([2., 2.]), units='norm', vertices=ndarray(...), win=Window(...))",2.1,[],8,0.75,"[<psychopy.visual.line.Line object at 0x7f206a85a6d0>, <psychopy.visual.line.Line object at 0x7f206a85a9d0>]",<psychopy.hardware.keyboard.Keyboard object at 0x7f2060762970>,
0,pause,0.4,None,None,None,0,43,43,43,,,,,,,,,,,,,N003,visual,1,[],"['1', '2', '3', '4']",1,/NOBACKUP2/USER/Jeong/experiment2,/NOBACKUP2/USER/Jeong/experiment2/logfiles/visual/N003_d-20240920,2023.2.3,harveyvisual,"Window(allowGUI=False, allowStencil=False, autoLog=True, backendConf=UNKNOWN, backgroundFit='cover', backgroundImage=None, bitsMode=UNKNOWN, blendMode='avg', bpc=(8, 8, 8), color=array([-1, -1, -1]), colorSpace='rgb', depthBits=8, fullscr=<method-wrapper '__getattribute__' of attributeSetter object at 0x7f2080840460>, gamma=None, gammaErrorPolicy='raise', lms=UNKNOWN, monitor=<psychopy.monitors.calibTools.Monitor object at 0x7f207991b400>, multiSample=False, name='stim_window', numSamples=2, pos=[0.0, 0.0], screen=0, size=array([1920, 1080]), stencilBits=0, stereo=False, title='PsychoPy', units='deg', useFBO=True, useRetina=False, viewOri=0.0, viewPos=None, viewScale=None, waitBlanking=True, winType='pyglet')","{'TR': 2.1, 'volumes': 5, 'sync': '5', 'skip': 0, 'sound': False}",<psychopy.clock.CountdownTimer object at 0x7f20798f4d60>,"Rect(__class__=<class 'psychopy.visual.rect.Rect'>, anchor=('center', 'center'), autoDraw=True, autoLog=True, closeShape=True, color=method-wrapper(...), colorSpace='rgb', contrast=None, depth=0, draggable=False, fillColor=array([0.00392157, 0.00392157, 0.00392157]), fillColorSpace='rgb', fillRGB=array([0.00392157, 0.00392157, 0.00392157]), interpolate=True, lineColor=array([0., 0., 0.]), lineColorSpace='rgb', lineRGB=array([0, 0, 0]), lineWidth=1.5, name='unnamed Rect', opacity=0.5, ori=0.0, pos=array([0., 0.]), size=array([2., 2.]), units='norm', vertices=ndarray(...), win=Window(...))",2.1,[],8,0.75,"[<psychopy.visual.line.Line object at 0x7f206a85a6d0>, <psychopy.visual.line.Line object at 0x7f206a85a9d0>]",<psychopy.hardware.keyboard.Keyboard object at 0x7f2060762970>,
4,dot,0.3,['dot'],['density'],black,0,44,44,44,,,17.518692016601562,17.818742990493774,dot,"[0.08, 0.08, 0.06, 0.1]","[[-0.43942495523079517, -0.22401056498097033], [-0.009260832099230759, -0.1633376679159051], [-0.21598309108097546, -0.10172603009605206], [-0.2278206133413005, -0.33154874685782076]]",density,black,true,correct,nan,N003,visual,1,[],"['1', '2', '3', '4']",1,/NOBACKUP2/USER/Jeong/experiment2,/NOBACKUP2/USER/Jeong/experiment2/logfiles/visual/N003_d-20240920,2023.2.3,harveyvisual,"Window(allowGUI=False, allowStencil=False, autoLog=True, backendConf=UNKNOWN, backgroundFit='cover', backgroundImage=None, bitsMode=UNKNOWN, blendMode='avg', bpc=(8, 8, 8), color=array([-1, -1, -1]), colorSpace='rgb', depthBits=8, fullscr=<method-wrapper '__getattribute__' of attributeSetter object at 0x7f2080840460>, gamma=None, gammaErrorPolicy='raise', lms=UNKNOWN, monitor=<psychopy.monitors.calibTools.Monitor object at 0x7f207991b400>, multiSample=False, name='stim_window', numSamples=2, pos=[0.0, 0.0], screen=0, size=array([1920, 1080]), stencilBits=0, stereo=False, title='PsychoPy', units='deg', useFBO=True, useRetina=False, viewOri=0.0, viewPos=None, viewScale=None, waitBlanking=True, winType='pyglet')","{'TR': 2.1, 'volumes': 5, 'sync': '5', 'skip': 0, 'sound': False}",<psychopy.clock.CountdownTimer object at 0x7f20798f4d60>,"Rect(__class__=<class 'psychopy.visual.rect.Rect'>, anchor=('center', 'center'), autoDraw=True, autoLog=True, closeShape=True, color=method-wrapper(...), colorSpace='rgb', contrast=None, depth=0, draggable=False, fillColor=array([0.00392157, 0.00392157, 0.00392157]), fillColorSpace='rgb', fillRGB=array([0.00392157, 0.00392157, 0.00392157]), interpolate=True, lineColor=array([0., 0., 0.]), lineColorSpace='rgb', lineRGB=array([0, 0, 0]), lineWidth=1.5, name='unnamed Rect', opacity=0.5, ori=0.0, pos=array([0., 0.]), size=array([2., 2.]), units='norm', vertices=ndarray(...), win=Window(...))",2.1,[],8,0.75,"[<psychopy.visual.line.Line object at 0x7f206a85a6d0>, <psychopy.visual.line.Line object at 0x7f206a85a9d0>]",<psychopy.hardware.keyboard.Keyboard object at 0x7f2060762970>,
0,pause,0.4,None,None,None,0,45,45,45,,,,,,,,,,,,,N003,visual,1,[],"['1', '2', '3', '4']",1,/NOBACKUP2/USER/Jeong/experiment2,/NOBACKUP2/USER/Jeong/experiment2/logfiles/visual/N003_d-20240920,2023.2.3,harveyvisual,"Window(allowGUI=False, allowStencil=False, autoLog=True, backendConf=UNKNOWN, backgroundFit='cover', backgroundImage=None, bitsMode=UNKNOWN, blendMode='avg', bpc=(8, 8, 8), color=array([-1, -1, -1]), colorSpace='rgb', depthBits=8, fullscr=<method-wrapper '__getattribute__' of attributeSetter object at 0x7f2080840460>, gamma=None, gammaErrorPolicy='raise', lms=UNKNOWN, monitor=<psychopy.monitors.calibTools.Monitor object at 0x7f207991b400>, multiSample=False, name='stim_window', numSamples=2, pos=[0.0, 0.0], screen=0, size=array([1920, 1080]), stencilBits=0, stereo=False, title='PsychoPy', units='deg', useFBO=True, useRetina=False, viewOri=0.0, viewPos=None, viewScale=None, waitBlanking=True, winType='pyglet')","{'TR': 2.1, 'volumes': 5, 'sync': '5', 'skip': 0, 'sound': False}",<psychopy.clock.CountdownTimer object at 0x7f20798f4d60>,"Rect(__class__=<class 'psychopy.visual.rect.Rect'>, anchor=('center', 'center'), autoDraw=True, autoLog=True, closeShape=True, color=method-wrapper(...), colorSpace='rgb', contrast=None, depth=0, draggable=False, fillColor=array([0.00392157, 0.00392157, 0.00392157]), fillColorSpace='rgb', fillRGB=array([0.00392157, 0.00392157, 0.00392157]), interpolate=True, lineColor=array([0., 0., 0.]), lineColorSpace='rgb', lineRGB=array([0, 0, 0]), lineWidth=1.5, name='unnamed Rect', opacity=0.5, ori=0.0, pos=array([0., 0.]), size=array([2., 2.]), units='norm', vertices=ndarray(...), win=Window(...))",2.1,[],8,0.75,"[<psychopy.visual.line.Line object at 0x7f206a85a6d0>, <psychopy.visual.line.Line object at 0x7f206a85a9d0>]",<psychopy.hardware.keyboard.Keyboard object at 0x7f2060762970>,
4,dot,0.3,['dot'],['density'],black,0,46,46,46,,,18.218724012374878,18.518748998641968,dot,"[0.06, 0.08, 0.1, 0.1]","[[0.06326389353998313, -0.3457479010937814], [-0.07512051392095552, -0.02196355495157639], [0.09410934090401228, -0.14113260442523076], [-0.13717358852421138, -0.29916566844175635]]",density,black,true,correct,nan,N003,visual,1,[],"['1', '2', '3', '4']",1,/NOBACKUP2/USER/Jeong/experiment2,/NOBACKUP2/USER/Jeong/experiment2/logfiles/visual/N003_d-20240920,2023.2.3,harveyvisual,"Window(allowGUI=False, allowStencil=False, autoLog=True, backendConf=UNKNOWN, backgroundFit='cover', backgroundImage=None, bitsMode=UNKNOWN, blendMode='avg', bpc=(8, 8, 8), color=array([-1, -1, -1]), colorSpace='rgb', depthBits=8, fullscr=<method-wrapper '__getattribute__' of attributeSetter object at 0x7f2080840460>, gamma=None, gammaErrorPolicy='raise', lms=UNKNOWN, monitor=<psychopy.monitors.calibTools.Monitor object at 0x7f207991b400>, multiSample=False, name='stim_window', numSamples=2, pos=[0.0, 0.0], screen=0, size=array([1920, 1080]), stencilBits=0, stereo=False, title='PsychoPy', units='deg', useFBO=True, useRetina=False, viewOri=0.0, viewPos=None, viewScale=None, waitBlanking=True, winType='pyglet')","{'TR': 2.1, 'volumes': 5, 'sync': '5', 'skip': 0, 'sound': False}",<psychopy.clock.CountdownTimer object at 0x7f20798f4d60>,"Rect(__class__=<class 'psychopy.visual.rect.Rect'>, anchor=('center', 'center'), autoDraw=True, autoLog=True, closeShape=True, color=method-wrapper(...), colorSpace='rgb', contrast=None, depth=0, draggable=False, fillColor=array([0.00392157, 0.00392157, 0.00392157]), fillColorSpace='rgb', fillRGB=array([0.00392157, 0.00392157, 0.00392157]), interpolate=True, lineColor=array([0., 0., 0.]), lineColorSpace='rgb', lineRGB=array([0, 0, 0]), lineWidth=1.5, name='unnamed Rect', opacity=0.5, ori=0.0, pos=array([0., 0.]), size=array([2., 2.]), units='norm', vertices=ndarray(...), win=Window(...))",2.1,[],8,0.75,"[<psychopy.visual.line.Line object at 0x7f206a85a6d0>, <psychopy.visual.line.Line object at 0x7f206a85a9d0>]",<psychopy.hardware.keyboard.Keyboard object at 0x7f2060762970>,
0,pause,0.4,None,None,None,0,47,47,47,,,,,,,,,,,,,N003,visual,1,[],"['1', '2', '3', '4']",1,/NOBACKUP2/USER/Jeong/experiment2,/NOBACKUP2/USER/Jeong/experiment2/logfiles/visual/N003_d-20240920,2023.2.3,harveyvisual,"Window(allowGUI=False, allowStencil=False, autoLog=True, backendConf=UNKNOWN, backgroundFit='cover', backgroundImage=None, bitsMode=UNKNOWN, blendMode='avg', bpc=(8, 8, 8), color=array([-1, -1, -1]), colorSpace='rgb', depthBits=8, fullscr=<method-wrapper '__getattribute__' of attributeSetter object at 0x7f2080840460>, gamma=None, gammaErrorPolicy='raise', lms=UNKNOWN, monitor=<psychopy.monitors.calibTools.Monitor object at 0x7f207991b400>, multiSample=False, name='stim_window', numSamples=2, pos=[0.0, 0.0], screen=0, size=array([1920, 1080]), stencilBits=0, stereo=False, title='PsychoPy', units='deg', useFBO=True, useRetina=False, viewOri=0.0, viewPos=None, viewScale=None, waitBlanking=True, winType='pyglet')","{'TR': 2.1, 'volumes': 5, 'sync': '5', 'skip': 0, 'sound': False}",<psychopy.clock.CountdownTimer object at 0x7f20798f4d60>,"Rect(__class__=<class 'psychopy.visual.rect.Rect'>, anchor=('center', 'center'), autoDraw=True, autoLog=True, closeShape=True, color=method-wrapper(...), colorSpace='rgb', contrast=None, depth=0, draggable=False, fillColor=array([0.00392157, 0.00392157, 0.00392157]), fillColorSpace='rgb', fillRGB=array([0.00392157, 0.00392157, 0.00392157]), interpolate=True, lineColor=array([0., 0., 0.]), lineColorSpace='rgb', lineRGB=array([0, 0, 0]), lineWidth=1.5, name='unnamed Rect', opacity=0.5, ori=0.0, pos=array([0., 0.]), size=array([2., 2.]), units='norm', vertices=ndarray(...), win=Window(...))",2.1,[],8,0.75,"[<psychopy.visual.line.Line object at 0x7f206a85a6d0>, <psychopy.visual.line.Line object at 0x7f206a85a9d0>]",<psychopy.hardware.keyboard.Keyboard object at 0x7f2060762970>,
5,dot,0.3,['dot'],['density'],black,0,48,48,48,,,18.91867995262146,19.218652963638306,dot,"[0.1, 0.1, 0.08, 0.1, 0.06]","[[-0.09836533996777486, -0.13487298234664027], [-0.39372579989196477, -0.3970332615714695], [-0.08519030630468749, -0.3439803803737387], [-0.28676510783747755, -0.22768547842943598], [-0.4191710438677135, -0.018830474544977712]]",density,black,false,wrong,nan,N003,visual,1,[],"['1', '2', '3', '4']",1,/NOBACKUP2/USER/Jeong/experiment2,/NOBACKUP2/USER/Jeong/experiment2/logfiles/visual/N003_d-20240920,2023.2.3,harveyvisual,"Window(allowGUI=False, allowStencil=False, autoLog=True, backendConf=UNKNOWN, backgroundFit='cover', backgroundImage=None, bitsMode=UNKNOWN, blendMode='avg', bpc=(8, 8, 8), color=array([-1, -1, -1]), colorSpace='rgb', depthBits=8, fullscr=<method-wrapper '__getattribute__' of attributeSetter object at 0x7f2080840460>, gamma=None, gammaErrorPolicy='raise', lms=UNKNOWN, monitor=<psychopy.monitors.calibTools.Monitor object at 0x7f207991b400>, multiSample=False, name='stim_window', numSamples=2, pos=[0.0, 0.0], screen=0, size=array([1920, 1080]), stencilBits=0, stereo=False, title='PsychoPy', units='deg', useFBO=True, useRetina=False, viewOri=0.0, viewPos=None, viewScale=None, waitBlanking=True, winType='pyglet')","{'TR': 2.1, 'volumes': 5, 'sync': '5', 'skip': 0, 'sound': False}",<psychopy.clock.CountdownTimer object at 0x7f20798f4d60>,"Rect(__class__=<class 'psychopy.visual.rect.Rect'>, anchor=('center', 'center'), autoDraw=True, autoLog=True, closeShape=True, color=method-wrapper(...), colorSpace='rgb', contrast=None, depth=0, draggable=False, fillColor=array([0.00392157, 0.00392157, 0.00392157]), fillColorSpace='rgb', fillRGB=array([0.00392157, 0.00392157, 0.00392157]), interpolate=True, lineColor=array([0., 0., 0.]), lineColorSpace='rgb', lineRGB=array([0, 0, 0]), lineWidth=1.5, name='unnamed Rect', opacity=0.5, ori=0.0, pos=array([0., 0.]), size=array([2., 2.]), units='norm', vertices=ndarray(...), win=Window(...))",2.1,[],8,0.75,"[<psychopy.visual.line.Line object at 0x7f206a85a6d0>, <psychopy.visual.line.Line object at 0x7f206a85a9d0>]",<psychopy.hardware.keyboard.Keyboard object at 0x7f2060762970>,
0,pause,0.4,None,None,None,0,49,49,49,,,,,,,,,,,,,N003,visual,1,[],"['1', '2', '3', '4']",1,/NOBACKUP2/USER/Jeong/experiment2,/NOBACKUP2/USER/Jeong/experiment2/logfiles/visual/N003_d-20240920,2023.2.3,harveyvisual,"Window(allowGUI=False, allowStencil=False, autoLog=True, backendConf=UNKNOWN, backgroundFit='cover', backgroundImage=None, bitsMode=UNKNOWN, blendMode='avg', bpc=(8, 8, 8), color=array([-1, -1, -1]), colorSpace='rgb', depthBits=8, fullscr=<method-wrapper '__getattribute__' of attributeSetter object at 0x7f2080840460>, gamma=None, gammaErrorPolicy='raise', lms=UNKNOWN, monitor=<psychopy.monitors.calibTools.Monitor object at 0x7f207991b400>, multiSample=False, name='stim_window', numSamples=2, pos=[0.0, 0.0], screen=0, size=array([1920, 1080]), stencilBits=0, stereo=False, title='PsychoPy', units='deg', useFBO=True, useRetina=False, viewOri=0.0, viewPos=None, viewScale=None, waitBlanking=True, winType='pyglet')","{'TR': 2.1, 'volumes': 5, 'sync': '5', 'skip': 0, 'sound': False}",<psychopy.clock.CountdownTimer object at 0x7f20798f4d60>,"Rect(__class__=<class 'psychopy.visual.rect.Rect'>, anchor=('center', 'center'), autoDraw=True, autoLog=True, closeShape=True, color=method-wrapper(...), colorSpace='rgb', contrast=None, depth=0, draggable=False, fillColor=array([0.00392157, 0.00392157, 0.00392157]), fillColorSpace='rgb', fillRGB=array([0.00392157, 0.00392157, 0.00392157]), interpolate=True, lineColor=array([0., 0., 0.]), lineColorSpace='rgb', lineRGB=array([0, 0, 0]), lineWidth=1.5, name='unnamed Rect', opacity=0.5, ori=0.0, pos=array([0., 0.]), size=array([2., 2.]), units='norm', vertices=ndarray(...), win=Window(...))",2.1,[],8,0.75,"[<psychopy.visual.line.Line object at 0x7f206a85a6d0>, <psychopy.visual.line.Line object at 0x7f206a85a9d0>]",<psychopy.hardware.keyboard.Keyboard object at 0x7f2060762970>,
5,dot,0.3,['dot'],['density'],black,0,50,50,50,,,19.61873507499695,19.918643951416016,dot,"[0.06, 0.08, 0.06, 0.1, 0.08]","[[-0.2338402938730933, 0.15846616122991625], [-0.3229678957369872, -0.0901175890533356], [-0.5034912146055804, 0.021834460539281654], [-0.23914892391179104, -0.28496604153387733], [-0.10132718886958789, -0.1172648190903725]]",density,black,true,correct,nan,N003,visual,1,[],"['1', '2', '3', '4']",1,/NOBACKUP2/USER/Jeong/experiment2,/NOBACKUP2/USER/Jeong/experiment2/logfiles/visual/N003_d-20240920,2023.2.3,harveyvisual,"Window(allowGUI=False, allowStencil=False, autoLog=True, backendConf=UNKNOWN, backgroundFit='cover', backgroundImage=None, bitsMode=UNKNOWN, blendMode='avg', bpc=(8, 8, 8), color=array([-1, -1, -1]), colorSpace='rgb', depthBits=8, fullscr=<method-wrapper '__getattribute__' of attributeSetter object at 0x7f2080840460>, gamma=None, gammaErrorPolicy='raise', lms=UNKNOWN, monitor=<psychopy.monitors.calibTools.Monitor object at 0x7f207991b400>, multiSample=False, name='stim_window', numSamples=2, pos=[0.0, 0.0], screen=0, size=array([1920, 1080]), stencilBits=0, stereo=False, title='PsychoPy', units='deg', useFBO=True, useRetina=False, viewOri=0.0, viewPos=None, viewScale=None, waitBlanking=True, winType='pyglet')","{'TR': 2.1, 'volumes': 5, 'sync': '5', 'skip': 0, 'sound': False}",<psychopy.clock.CountdownTimer object at 0x7f20798f4d60>,"Rect(__class__=<class 'psychopy.visual.rect.Rect'>, anchor=('center', 'center'), autoDraw=True, autoLog=True, closeShape=True, color=method-wrapper(...), colorSpace='rgb', contrast=None, depth=0, draggable=False, fillColor=array([0.00392157, 0.00392157, 0.00392157]), fillColorSpace='rgb', fillRGB=array([0.00392157, 0.00392157, 0.00392157]), interpolate=True, lineColor=array([0., 0., 0.]), lineColorSpace='rgb', lineRGB=array([0, 0, 0]), lineWidth=1.5, name='unnamed Rect', opacity=0.5, ori=0.0, pos=array([0., 0.]), size=array([2., 2.]), units='norm', vertices=ndarray(...), win=Window(...))",2.1,[],8,0.75,"[<psychopy.visual.line.Line object at 0x7f206a85a6d0>, <psychopy.visual.line.Line object at 0x7f206a85a9d0>]",<psychopy.hardware.keyboard.Keyboard object at 0x7f2060762970>,
