num,mod,duration,shape,ll_cond,colors,.thisRepN,.thisTrialN,.thisN,.thisIndex,thisRow.t,notes,raw_global_time,t_start,t_stop,shapes,size,pos,cond,color,button,RT,participant,session,starting_run,left button (match/odd),right button (non-match/even),samples_per_block,psychopy version,expName,offset,audio,number_runs,radius,
1,dot,0.3,['dot'],['density'],black,0,0,0,0,,,2.400195837020874,2.1024320125579834,2.4022839069366455,dot,[0.06],"[0.0038807231877187303, -0.2777732366953785]",density,black,,,D004,visual,1,[],"['1', '2', '3', '4']",1,2023.2.3,harveyvisual,2.1,[],8,0.75,
0,pause,0.4,None,None,None,0,1,1,1,,,,,,,,,,,,,D004,visual,1,[],"['1', '2', '3', '4']",1,2023.2.3,harveyvisual,2.1,[],8,0.75,
1,dot,0.3,['dot'],['density'],black,0,2,2,2,,,3.100205898284912,2.8023459911346436,3.1196298599243164,dot,[0.08],"[0.2443568370277045, -0.23874091154858243]",density,black,,,D004,visual,1,[],"['1', '2', '3', '4']",1,2023.2.3,harveyvisual,2.1,[],8,0.75,
0,pause,0.4,None,None,None,0,3,3,3,,,,,,,,,,,,,D004,visual,1,[],"['1', '2', '3', '4']",1,2023.2.3,harveyvisual,2.1,[],8,0.75,
1,dot,0.3,['dot'],['density'],black,0,4,4,4,,,3.800205945968628,3.502969980239868,3.8196208477020264,dot,[0.08],"[-0.06064478149429028, 0.10204082006191012]",density,black,,,D004,visual,1,[],"['1', '2', '3', '4']",1,2023.2.3,harveyvisual,2.1,[],8,0.75,
0,pause,0.4,None,None,None,0,5,5,5,,,,,,,,,,,,,D004,visual,1,[],"['1', '2', '3', '4']",1,2023.2.3,harveyvisual,2.1,[],8,0.75,
1,dot,0.3,['dot'],['density'],black,0,6,6,6,,,4.50020694732666,4.202960014343262,4.519606828689575,dot,[0.08],"[0.00661777001411412, 0.39634766145863237]",density,black,,,D004,visual,1,[],"['1', '2', '3', '4']",1,2023.2.3,harveyvisual,2.1,[],8,0.75,
0,pause,0.4,None,None,None,0,7,7,7,,,,,,,,,,,,,D004,visual,1,[],"['1', '2', '3', '4']",1,2023.2.3,harveyvisual,2.1,[],8,0.75,
1,dot,0.3,['dot'],['density'],black,0,8,8,8,,,5.200210809707642,4.9030070304870605,5.219576835632324,dot,[0.08],"[-0.22364231775977078, 0.4637426405669522]",density,black,,,D004,visual,1,[],"['1', '2', '3', '4']",1,2023.2.3,harveyvisual,2.1,[],8,0.75,
0,pause,0.4,None,None,None,0,9,9,9,,,,,,,,,,,,,D004,visual,1,[],"['1', '2', '3', '4']",1,2023.2.3,harveyvisual,2.1,[],8,0.75,
1,dot,0.3,['dot'],['density'],black,0,10,10,10,,,5.900199890136719,5.604121923446655,5.920531988143921,dot,[0.1],"[-0.43400380483721984, 0.10531265887229962]",density,black,,,D004,visual,1,[],"['1', '2', '3', '4']",1,2023.2.3,harveyvisual,2.1,[],8,0.75,
0,pause,0.4,None,None,None,0,11,11,11,,,,,,,,,,,,,D004,visual,1,[],"['1', '2', '3', '4']",1,2023.2.3,harveyvisual,2.1,[],8,0.75,
2,dot,0.3,['dot'],['density'],white,0,12,12,12,,,6.600210905075073,6.304096937179565,6.620654821395874,dot,"[0.1, 0.1]","[[0.1734117655345296, 0.46860731914486053], [-0.01847566562869785, 0.52581935004857]]",density,white,,,D004,visual,1,[],"['1', '2', '3', '4']",1,2023.2.3,harveyvisual,2.1,[],8,0.75,
0,pause,0.4,None,None,None,0,13,13,13,,,,,,,,,,,1,6.696073055267334,D004,visual,1,[],"['1', '2', '3', '4']",1,2023.2.3,harveyvisual,2.1,[],8,0.75,
2,dot,0.3,['dot'],['density'],black,0,14,14,14,,,7.300196886062622,7.005100965499878,7.320628881454468,dot,"[0.08, 0.06]","[[0.1851205616289071, -0.3624876981064337], [0.3405923022038234, -0.23608025195482504]]",density,black,,,D004,visual,1,[],"['1', '2', '3', '4']",1,2023.2.3,harveyvisual,2.1,[],8,0.75,
0,pause,0.4,None,None,None,0,15,15,15,,,,,,,,,,,,,D004,visual,1,[],"['1', '2', '3', '4']",1,2023.2.3,harveyvisual,2.1,[],8,0.75,
2,dot,0.3,['dot'],['density'],white,0,16,16,16,,,8.000196933746338,7.703984975814819,8.020615816116333,dot,"[0.1, 0.1]","[[-0.22226122312079244, -0.00806926593831646], [-0.023245446524914906, -0.037240983575548024]]",density,white,,,D004,visual,1,[],"['1', '2', '3', '4']",1,2023.2.3,harveyvisual,2.1,[],8,0.75,
0,pause,0.4,None,None,None,0,17,17,17,,,,,,,,,,,1,8.089234113693237,D004,visual,1,[],"['1', '2', '3', '4']",1,2023.2.3,harveyvisual,2.1,[],8,0.75,
2,dot,0.3,['dot'],['density'],black,0,18,18,18,,,8.700222969055176,8.403964042663574,8.720615863800049,dot,"[0.06, 0.08]","[[-0.4149324818804315, 0.28007444048998836], [-0.5260390884397633, 0.11347960973083408]]",density,black,,,D004,visual,1,[],"['1', '2', '3', '4']",1,2023.2.3,harveyvisual,2.1,[],8,0.75,
0,pause,0.4,None,None,None,0,19,19,19,,,,,,,,,,,,,D004,visual,1,[],"['1', '2', '3', '4']",1,2023.2.3,harveyvisual,2.1,[],8,0.75,
2,dot,0.3,['dot'],['density'],white,0,20,20,20,,,9.40020489692688,9.104036808013916,9.420594930648804,dot,"[0.08, 0.08]","[[-0.03288134563171543, -0.4238564918242606], [-0.10611641736664675, -0.2370354775439666]]",density,white,,,D004,visual,1,[],"['1', '2', '3', '4']",1,2023.2.3,harveyvisual,2.1,[],8,0.75,
0,pause,0.4,None,None,None,0,21,21,21,,,,,,,,,,,1,9.411501169204712,D004,visual,1,[],"['1', '2', '3', '4']",1,2023.2.3,harveyvisual,2.1,[],8,0.75,
2,dot,0.3,['dot'],['density'],black,0,22,22,22,,,10.100224018096924,9.803980827331543,10.120422840118408,dot,"[0.1, 0.08]","[[0.4162662019019998, 0.09129510669171749], [0.33420900269466314, 0.27427456354974017]]",density,black,,,D004,visual,1,[],"['1', '2', '3', '4']",1,2023.2.3,harveyvisual,2.1,[],8,0.75,
0,pause,0.4,None,None,None,0,23,23,23,,,,,,,,,,,,,D004,visual,1,[],"['1', '2', '3', '4']",1,2023.2.3,harveyvisual,2.1,[],8,0.75,
3,dot,0.3,['dot'],['density'],black,0,24,24,24,,,10.800196886062622,10.503988981246948,10.820542812347412,dot,"[0.08, 0.08, 0.06]","[[-0.27441186418729774, -0.31428620701652393], [-0.10438281902574013, -0.2032379983598837], [-0.31523395761825285, -0.08768035506307631]]",density,black,,,D004,visual,1,[],"['1', '2', '3', '4']",1,2023.2.3,harveyvisual,2.1,[],8,0.75,
0,pause,0.4,None,None,None,0,25,25,25,,,,,,,,,,,,,D004,visual,1,[],"['1', '2', '3', '4']",1,2023.2.3,harveyvisual,2.1,[],8,0.75,
3,dot,0.3,['dot'],['density'],black,0,26,26,26,,,11.500221967697144,11.203887939453125,11.520539999008179,dot,"[0.06, 0.1, 0.08]","[[-0.17592395544936776, 0.40510565415719324], [-0.30566154612550034, 0.21848422264492345], [-0.39822260978708685, 0.43144058222919995]]",density,black,,,D004,visual,1,[],"['1', '2', '3', '4']",1,2023.2.3,harveyvisual,2.1,[],8,0.75,
0,pause,0.4,None,None,None,0,27,27,27,,,,,,,,,,,,,D004,visual,1,[],"['1', '2', '3', '4']",1,2023.2.3,harveyvisual,2.1,[],8,0.75,
3,dot,0.3,['dot'],['density'],black,0,28,28,28,,,12.200209856033325,11.903864860534668,12.220520973205566,dot,"[0.08, 0.08, 0.08]","[[-0.1591938184585166, 0.2573970255855866], [-0.049574382916532336, 0.44031337398050124], [0.08264166875933507, 0.262381570646859]]",density,black,,,D004,visual,1,[],"['1', '2', '3', '4']",1,2023.2.3,harveyvisual,2.1,[],8,0.75,
0,pause,0.4,None,None,None,0,29,29,29,,,,,,,,,,,,,D004,visual,1,[],"['1', '2', '3', '4']",1,2023.2.3,harveyvisual,2.1,[],8,0.75,
3,dot,0.3,['dot'],['density'],white,0,30,30,30,,,12.900203943252563,12.603847980499268,12.920495986938477,dot,"[0.1, 0.08, 0.08]","[[-0.15674404860239688, -0.25078459247658497], [0.006578924124220241, -0.41324131210186005], [0.06959682433872849, -0.20549031443856539]]",density,white,,,D004,visual,1,[],"['1', '2', '3', '4']",1,2023.2.3,harveyvisual,2.1,[],8,0.75,
0,pause,0.4,None,None,None,0,31,31,31,,,,,,,,,,,1,12.954854011535645,D004,visual,1,[],"['1', '2', '3', '4']",1,2023.2.3,harveyvisual,2.1,[],8,0.75,
3,dot,0.3,['dot'],['density'],black,0,32,32,32,,,13.600196838378906,13.303834915161133,13.62052583694458,dot,"[0.08, 0.06, 0.1]","[[0.07700183490032705, -0.35627018624379625], [-0.11838355721398923, -0.41989981358322065], [0.04553884901650391, -0.5822363694770394]]",density,black,,,D004,visual,1,[],"['1', '2', '3', '4']",1,2023.2.3,harveyvisual,2.1,[],8,0.75,
0,pause,0.4,None,None,None,0,33,33,33,,,,,,,,,,,,,D004,visual,1,[],"['1', '2', '3', '4']",1,2023.2.3,harveyvisual,2.1,[],8,0.75,
3,dot,0.3,['dot'],['density'],black,0,34,34,34,,,14.300205945968628,14.003796815872192,14.320464849472046,dot,"[0.1, 0.1, 0.08]","[[0.11213305146232053, -0.07893917948794166], [0.05639720131197772, -0.2966044022377523], [-0.1031859716129837, -0.13437008874356654]]",density,black,,,D004,visual,1,[],"['1', '2', '3', '4']",1,2023.2.3,harveyvisual,2.1,[],8,0.75,
0,pause,0.4,None,None,None,0,35,35,35,,,,,,,,,,,,,D004,visual,1,[],"['1', '2', '3', '4']",1,2023.2.3,harveyvisual,2.1,[],8,0.75,
4,dot,0.3,['dot'],['density'],white,0,36,36,36,,,15.00019884109497,14.703709840774536,15.020453929901123,dot,"[0.08, 0.08, 0.06, 0.08]","[[-0.42715721775789556, -0.3806885655784049], [-0.5104054706627589, -0.18016651458941194], [-0.409412055521987, 0.008153849732111747], [-0.2456709064377862, -0.21492281530681134]]",density,white,,,D004,visual,1,[],"['1', '2', '3', '4']",1,2023.2.3,harveyvisual,2.1,[],8,0.75,
0,pause,0.4,None,None,None,0,37,37,37,,,,,,,,,,,1,15.138115167617798,D004,visual,1,[],"['1', '2', '3', '4']",1,2023.2.3,harveyvisual,2.1,[],8,0.75,
4,dot,0.3,['dot'],['density'],black,0,38,38,38,,,15.700207948684692,15.403662919998169,15.720430850982666,dot,"[0.08, 0.08, 0.06, 0.1]","[[0.17852470546651972, -0.2012438881607824], [-0.031034799765910746, -0.12466087783573923], [0.008996399474264666, -0.3229379719524122], [0.15114343287780646, 0.03986859122442722]]",density,black,,,D004,visual,1,[],"['1', '2', '3', '4']",1,2023.2.3,harveyvisual,2.1,[],8,0.75,
0,pause,0.4,None,None,None,0,39,39,39,,,,,,,,,,,,,D004,visual,1,[],"['1', '2', '3', '4']",1,2023.2.3,harveyvisual,2.1,[],8,0.75,
4,dot,0.3,['dot'],['density'],black,0,40,40,40,,,16.400205850601196,16.103758811950684,16.420416831970215,dot,"[0.08, 0.06, 0.1, 0.06]","[[0.37520814465037905, -0.4432880181017862], [0.4692830223283075, -0.19655799526205012], [0.3063896805601884, -0.036788685454167226], [0.2471196723673293, -0.2344474043623998]]",density,black,,,D004,visual,1,[],"['1', '2', '3', '4']",1,2023.2.3,harveyvisual,2.1,[],8,0.75,
0,pause,0.4,None,None,None,0,41,41,41,,,,,,,,,,,,,D004,visual,1,[],"['1', '2', '3', '4']",1,2023.2.3,harveyvisual,2.1,[],8,0.75,
4,dot,0.3,['dot'],['density'],black,0,42,42,42,,,17.100198984146118,16.803643941879272,17.120388984680176,dot,"[0.1, 0.06, 0.06, 0.08]","[[0.06019618102804278, 0.17823994931545822], [-0.1876584465411705, -0.07971170835358893], [0.026807447441335588, -0.04038633305360204], [-0.17818728785032123, 0.12753763641901858]]",density,black,,,D004,visual,1,[],"['1', '2', '3', '4']",1,2023.2.3,harveyvisual,2.1,[],8,0.75,
0,pause,0.4,None,None,None,0,43,43,43,,,,,,,,,,,,,D004,visual,1,[],"['1', '2', '3', '4']",1,2023.2.3,harveyvisual,2.1,[],8,0.75,
4,dot,0.3,['dot'],['density'],black,0,44,44,44,,,17.800216913223267,17.50375485420227,17.820379972457886,dot,"[0.08, 0.1, 0.1, 0.1]","[[-0.045256114861740894, 0.2798656300268403], [-0.02131053084637037, 0.4849425601475732], [0.17666180860848907, 0.34430389164600056], [0.0747630441556118, 0.10387908342824508]]",density,black,,,D004,visual,1,[],"['1', '2', '3', '4']",1,2023.2.3,harveyvisual,2.1,[],8,0.75,
0,pause,0.4,None,None,None,0,45,45,45,,,,,,,,,,,,,D004,visual,1,[],"['1', '2', '3', '4']",1,2023.2.3,harveyvisual,2.1,[],8,0.75,
4,dot,0.3,['dot'],['density'],black,0,46,46,46,,,18.500208854675293,18.20373296737671,18.52034592628479,dot,"[0.06, 0.08, 0.08, 0.08]","[[0.010836700166572746, 0.3385055392368038], [-0.21755291078517647, 0.23172276430217797], [0.04881011250022837, 0.13413393103699342], [-0.16894730197854985, 0.4434327172909165]]",density,black,,,D004,visual,1,[],"['1', '2', '3', '4']",1,2023.2.3,harveyvisual,2.1,[],8,0.75,
0,pause,0.4,None,None,None,0,47,47,47,,,,,,,,,,,,,D004,visual,1,[],"['1', '2', '3', '4']",1,2023.2.3,harveyvisual,2.1,[],8,0.75,
5,dot,0.3,['dot'],['density'],white,0,48,48,48,,,19.20022988319397,18.9203360080719,19.22019600868225,dot,"[0.1, 0.1, 0.1, 0.08, 0.08]","[[-0.3632963637400461, -0.33792544526642676], [-0.48189922448633543, -0.036156829306921726], [-0.2958020468624338, 0.07292024124872273], [-0.10639492237515816, -0.0008972940205680791], [-0.20818262001932955, -0.17666930306052683]]",density,white,,,D004,visual,1,[],"['1', '2', '3', '4']",1,2023.2.3,harveyvisual,2.1,[],8,0.75,
0,pause,0.4,None,None,None,0,49,49,49,,,,,,,,,,,1,19.318419218063354,D004,visual,1,[],"['1', '2', '3', '4']",1,2023.2.3,harveyvisual,2.1,[],8,0.75,
5,dot,0.3,['dot'],['density'],black,0,50,50,50,,,19.900216817855835,19.620337963104248,19.920323848724365,dot,"[0.1, 0.1, 0.08, 0.1, 0.06]","[[-0.16255238243643175, 0.17860987090823105], [-0.3708934258622909, -0.17994308192218272], [-0.3873401471382859, 0.23755408526324856], [-0.3082462149465763, 0.01808515368093923], [-0.09381294098683406, -0.04001219282613638]]",density,black,,,D004,visual,1,[],"['1', '2', '3', '4']",1,2023.2.3,harveyvisual,2.1,[],8,0.75,
0,pause,0.4,None,None,None,0,51,51,51,,,,,,,,,,,,,D004,visual,1,[],"['1', '2', '3', '4']",1,2023.2.3,harveyvisual,2.1,[],8,0.75,
5,dot,0.3,['dot'],['density'],black,0,52,52,52,,,20.60020899772644,20.32031798362732,20.620160818099976,dot,"[0.08, 0.1, 0.08, 0.06, 0.06]","[[-0.24811222937808852, -0.0926462173418487], [-0.0684102839715827, 0.053707960252323945], [-0.4199359189551936, 0.028595247832400618], [-0.4311232183625476, -0.17348815390478414], [-0.08153496032007611, -0.23043043025001772]]",density,black,,,D004,visual,1,[],"['1', '2', '3', '4']",1,2023.2.3,harveyvisual,2.1,[],8,0.75,
0,pause,0.4,None,None,None,0,53,53,53,,,,,,,,,,,,,D004,visual,1,[],"['1', '2', '3', '4']",1,2023.2.3,harveyvisual,2.1,[],8,0.75,
5,dot,0.3,['dot'],['density'],black,0,54,54,54,,,21.300220012664795,21.020285844802856,21.320291996002197,dot,"[0.1, 0.1, 0.06, 0.1, 0.1]","[[0.21791283729510122, -0.3451859720731072], [0.5246150578842218, -0.1749209719782184], [0.23417080448362212, 0.06149420791510773], [0.21628546435715315, -0.14179681516434317], [0.46094971099473236, 0.03541120369123469]]",density,black,,,D004,visual,1,[],"['1', '2', '3', '4']",1,2023.2.3,harveyvisual,2.1,[],8,0.75,
0,pause,0.4,None,None,None,0,55,55,55,,,,,,,,,,,,,D004,visual,1,[],"['1', '2', '3', '4']",1,2023.2.3,harveyvisual,2.1,[],8,0.75,
5,dot,0.3,['dot'],['density'],black,0,56,56,56,,,22.000200033187866,21.720283031463623,22.02027702331543,dot,"[0.1, 0.1, 0.08, 0.1, 0.1]","[[-0.11834215492801986, 0.412508379109845], [0.31881799646300274, 0.30859303438359803], [-0.06368743078099719, 0.10105058071702504], [0.1133485112468387, 0.46262203184429457], [0.11957051434631445, 0.24197418837926052]]",density,black,,,D004,visual,1,[],"['1', '2', '3', '4']",1,2023.2.3,harveyvisual,2.1,[],8,0.75,
0,pause,0.4,None,None,None,0,57,57,57,,,,,,,,,,,,,D004,visual,1,[],"['1', '2', '3', '4']",1,2023.2.3,harveyvisual,2.1,[],8,0.75,
5,dot,0.3,['dot'],['density'],black,0,58,58,58,,,22.700222969055176,22.420246839523315,22.72027897834778,dot,"[0.08, 0.08, 0.1, 0.1, 0.06]","[[0.34746533592570195, 0.16118282603596082], [0.14457128296481445, 0.28865621170929245], [0.4549189851861922, 0.34228556952890804], [0.008483415068308318, 0.44103246018778014], [0.27150044131742485, 0.4621652121832405]]",density,black,,,D004,visual,1,[],"['1', '2', '3', '4']",1,2023.2.3,harveyvisual,2.1,[],8,0.75,
0,pause,0.4,None,None,None,0,59,59,59,,,,,,,,,,,,,D004,visual,1,[],"['1', '2', '3', '4']",1,2023.2.3,harveyvisual,2.1,[],8,0.75,
6,dot,0.3,['dot'],['density'],black,0,60,60,60,,,23.400203943252563,23.120080947875977,23.420244932174683,dot,"[0.06, 0.06, 0.08, 0.08, 0.06, 0.08]","[[-0.5379788740814003, -0.011730333491669416], [-0.1820890739253136, -0.27973544868684425], [-0.07809457889047756, -0.09124846264896269], [-0.30616251401069866, -0.45101817852416426], [-0.44200878281119743, -0.26991620184617166], [-0.3315938551005316, -0.08696624632848979]]",density,black,,,D004,visual,1,[],"['1', '2', '3', '4']",1,2023.2.3,harveyvisual,2.1,[],8,0.75,
0,pause,0.4,None,None,None,0,61,61,61,,,,,,,,,,,,,D004,visual,1,[],"['1', '2', '3', '4']",1,2023.2.3,harveyvisual,2.1,[],8,0.75,
6,dot,0.3,['dot'],['density'],black,0,62,62,62,,,24.10022282600403,23.820077896118164,24.120267868041992,dot,"[0.1, 0.08, 0.08, 0.1, 0.06, 0.1]","[[0.1442800129286608, -0.025670240792647715], [-0.253335145558221, 0.06312541807928282], [0.15340240856287354, 0.2410349392962658], [-0.1639657784688781, 0.25075335361279655], [-0.07910231793701084, -0.12784096878077061], [-0.011661193723423325, 0.11361106492824657]]",density,black,,,D004,visual,1,[],"['1', '2', '3', '4']",1,2023.2.3,harveyvisual,2.1,[],8,0.75,
0,pause,0.4,None,None,None,0,63,63,63,,,,,,,,,,,,,D004,visual,1,[],"['1', '2', '3', '4']",1,2023.2.3,harveyvisual,2.1,[],8,0.75,
6,dot,0.3,['dot'],['density'],black,0,64,64,64,,,24.800212860107422,24.520262956619263,24.820281982421875,dot,"[0.1, 0.06, 0.1, 0.06, 0.08, 0.06]","[[0.0015484977009578463, -0.37153509484940705], [-0.24631791352898516, -0.16063896847060222], [-0.21037316856202723, -0.37491302730087106], [-0.14520134419833938, 0.05228402714841561], [-0.41979900021501537, -0.27073368115662844], [-0.020720382871846178, -0.14076137757070492]]",density,black,,,D004,visual,1,[],"['1', '2', '3', '4']",1,2023.2.3,harveyvisual,2.1,[],8,0.75,
0,pause,0.4,None,None,None,0,65,65,65,,,,,,,,,,,,,D004,visual,1,[],"['1', '2', '3', '4']",1,2023.2.3,harveyvisual,2.1,[],8,0.75,
6,dot,0.3,['dot'],['density'],black,0,66,66,66,,,25.500202894210815,25.22039294242859,25.52031183242798,dot,"[0.06, 0.06, 0.1, 0.08, 0.08, 0.08]","[[0.404576257273406, 0.0700140295133255], [0.16236872381874318, -0.0021128728600973284], [0.5529541989122894, -0.15659614737169442], [0.13702497511457395, -0.2589057080071786], [0.36740063964394665, -0.3636528069500345], [0.3132750905084481, -0.159771579268986]]",density,black,,,D004,visual,1,[],"['1', '2', '3', '4']",1,2023.2.3,harveyvisual,2.1,[],8,0.75,
0,pause,0.4,None,None,None,0,67,67,67,,,,,,,,,,,,,D004,visual,1,[],"['1', '2', '3', '4']",1,2023.2.3,harveyvisual,2.1,[],8,0.75,
6,dot,0.3,['dot'],['density'],black,0,68,68,68,,,26.200201988220215,25.92031693458557,26.220175981521606,dot,"[0.1, 0.1, 0.1, 0.08, 0.08, 0.1]","[[-0.4130096743352808, -0.09152271377164663], [-0.19778223104980006, -0.03862987845790588], [-0.5782793278508197, 0.04067119283421001], [-0.2942915267906656, -0.3673297053134895], [-0.33560074172492643, 0.119885218799542], [-0.5263932498355091, -0.25924495598585295]]",density,black,,,D004,visual,1,[],"['1', '2', '3', '4']",1,2023.2.3,harveyvisual,2.1,[],8,0.75,
0,pause,0.4,None,None,None,0,69,69,69,,,,,,,,,,,,,D004,visual,1,[],"['1', '2', '3', '4']",1,2023.2.3,harveyvisual,2.1,[],8,0.75,
6,dot,0.3,['dot'],['density'],black,0,70,70,70,,,26.900202989578247,26.620163917541504,26.92014503479004,dot,"[0.06, 0.06, 0.08, 0.06, 0.08, 0.1]","[[0.4838288853419304, 0.012393783640839304], [0.3357737587390128, 0.3939464288632381], [0.48781910936274964, 0.21484656822060386], [0.038497076365425514, 0.2266532147795764], [0.13074852606734502, 0.009493629341700475], [0.2855531954453259, 0.1811044151544938]]",density,black,,,D004,visual,1,[],"['1', '2', '3', '4']",1,2023.2.3,harveyvisual,2.1,[],8,0.75,
0,pause,0.4,None,None,None,0,71,71,71,,,,,,,,,,,,,D004,visual,1,[],"['1', '2', '3', '4']",1,2023.2.3,harveyvisual,2.1,[],8,0.75,
7,dot,0.3,['dot'],['density'],black,0,72,72,72,,,27.600204944610596,27.32017683982849,27.620133876800537,dot,"[0.08, 0.08, 0.08, 0.08, 0.1, 0.06, 0.06]","[[-0.4069355390488937, 0.37207368581823036], [-0.24593577727054447, 0.19917396778247878], [-0.42360727833657225, -0.08003411738888748], [-0.22269992972584096, -0.007913174381400552], [-0.5458110461780458, 0.2006057762678532], [-0.12767295506375728, 0.3689678629588407], [-0.26313434255033313, 0.5223746060296944]]",density,black,,,D004,visual,1,[],"['1', '2', '3', '4']",1,2023.2.3,harveyvisual,2.1,[],8,0.75,
0,pause,0.4,None,None,None,0,73,73,73,,,,,,,,,,,,,D004,visual,1,[],"['1', '2', '3', '4']",1,2023.2.3,harveyvisual,2.1,[],8,0.75,
7,dot,0.3,['dot'],['density'],white,0,74,74,74,,,28.300217866897583,28.02014183998108,28.319962978363037,dot,"[0.1, 0.1, 0.06, 0.1, 0.08, 0.08, 0.06]","[[-0.23675386446936744, -0.019099737415117023], [-0.3793299299598963, 0.3840296974489508], [0.16444052853698826, 0.25964081185693966], [-0.17441972694422359, 0.2376971805458075], [0.025313303261310992, 0.0859287266400301], [-0.3760941870171968, 0.1722047307528389], [-0.012854506600276856, 0.3778399739802858]]",density,white,,,D004,visual,1,[],"['1', '2', '3', '4']",1,2023.2.3,harveyvisual,2.1,[],8,0.75,
0,pause,0.4,None,None,None,0,75,75,75,,,,,,,,,,,1,28.41657519340515,D004,visual,1,[],"['1', '2', '3', '4']",1,2023.2.3,harveyvisual,2.1,[],8,0.75,
7,dot,0.3,['dot'],['density'],black,0,76,76,76,,,29.000212907791138,28.719950914382935,29.019932985305786,dot,"[0.06, 0.1, 0.08, 0.08, 0.08, 0.06, 0.06]","[[-0.3423230189937584, -0.41219609722212536], [-0.1182323968952694, -0.35552357509158045], [-0.4111032443031386, -0.006313161275750597], [-0.5095560862941229, -0.2529410328503813], [-0.2588176969072235, -0.18091026219072012], [-0.0026253510642934245, -0.12197054074907589], [-0.16586784627322051, 0.0941069694468023]]",density,black,,,D004,visual,1,[],"['1', '2', '3', '4']",1,2023.2.3,harveyvisual,2.1,[],8,0.75,
0,pause,0.4,None,None,None,0,77,77,77,,,,,,,,,,,,,D004,visual,1,[],"['1', '2', '3', '4']",1,2023.2.3,harveyvisual,2.1,[],8,0.75,
7,dot,0.3,['dot'],['density'],black,0,78,78,78,,,29.700222969055176,29.42018985748291,29.720176935195923,dot,"[0.08, 0.06, 0.08, 0.06, 0.1, 0.1, 0.06]","[[0.3474653327129969, -0.31878285251617694], [0.04167069501601444, -0.04495125607964222], [-0.05005146056072613, -0.501422524998621], [-0.11295401278341419, -0.30095052262615135], [0.08710344590613708, -0.2932726077696002], [0.25592372840254046, -0.13825923460737455], [-0.15770825932276006, -0.07757053521742455]]",density,black,,,D004,visual,1,[],"['1', '2', '3', '4']",1,2023.2.3,harveyvisual,2.1,[],8,0.75,
0,pause,0.4,None,None,None,0,79,79,79,,,,,,,,,,,,,D004,visual,1,[],"['1', '2', '3', '4']",1,2023.2.3,harveyvisual,2.1,[],8,0.75,
7,dot,0.3,['dot'],['density'],black,0,80,80,80,,,30.400216817855835,30.120065927505493,30.420037031173706,dot,"[0.06, 0.08, 0.06, 0.08, 0.06, 0.08, 0.06]","[[0.43636558899465056, -0.019888822856555858], [0.3422654810486562, -0.28596623187093184], [0.19265053263460555, -0.4439876245838232], [0.13726272111749335, -0.2453614523272762], [0.002381890354708078, -0.04768315945896726], [0.5336827108411983, -0.21507725682246784], [0.22437755209563529, -0.002563521851875305]]",density,black,,,D004,visual,1,[],"['1', '2', '3', '4']",1,2023.2.3,harveyvisual,2.1,[],8,0.75,
0,pause,0.4,None,None,None,0,81,81,81,,,,,,,,,,,,,D004,visual,1,[],"['1', '2', '3', '4']",1,2023.2.3,harveyvisual,2.1,[],8,0.75,
7,dot,0.3,['dot'],['density'],black,0,82,82,82,,,31.100220918655396,30.820044994354248,31.12002682685852,dot,"[0.06, 0.1, 0.1, 0.06, 0.08, 0.06, 0.08]","[[0.2966712274604575, -0.2131825579980761], [-0.1186836204372937, -0.4965034514665913], [-0.01440301872015537, -0.0403072600505146], [0.1950017499803942, -0.04023412759326238], [0.279011892689379, -0.46996203863525404], [-0.05628257964606558, -0.24364929332980273], [0.11956786588335709, -0.3438640467385331]]",density,black,,,D004,visual,1,[],"['1', '2', '3', '4']",1,2023.2.3,harveyvisual,2.1,[],8,0.75,
0,pause,0.4,None,None,None,0,83,83,83,,,,,,,,,,,,,D004,visual,1,[],"['1', '2', '3', '4']",1,2023.2.3,harveyvisual,2.1,[],8,0.75,
8,dot,0.3,['dot'],['density'],black,0,84,84,84,,,31.800204038619995,31.520020961761475,31.820067882537842,dot,"[0.1, 0.1, 0.06, 0.06, 0.1, 0.08, 0.08, 0.06]","[[-0.08486713456805763, -0.4233549652310786], [-0.34121661687321897, 0.009931669871959016], [0.06179899905610707, -0.01287726204627424], [-0.01080387642187049, -0.20774715314808884], [-0.2259787915635077, -0.2257096572683263], [-0.31087639520469923, -0.4457762681120083], [-0.07938707884489006, 0.17996906985975966], [-0.13919465900414296, -0.03133413505419433]]",density,black,,,D004,visual,1,[],"['1', '2', '3', '4']",1,2023.2.3,harveyvisual,2.1,[],8,0.75,
0,pause,0.4,None,None,None,0,85,85,85,,,,,,,,,,,,,D004,visual,1,[],"['1', '2', '3', '4']",1,2023.2.3,harveyvisual,2.1,[],8,0.75,
8,dot,0.3,['dot'],['density'],black,0,86,86,86,,,32.50020503997803,32.22001385688782,32.52000904083252,dot,"[0.06, 0.08, 0.08, 0.08, 0.08, 0.08, 0.1, 0.1]","[[-0.43120034012996816, -0.3965796075128045], [0.1478983624034229, -0.46770986256388064], [-0.23058307999139557, -0.3238539366063682], [-0.07988642296593639, -0.13993938361429092], [-0.08664795903044427, -0.5418074813242995], [0.11879255589163208, -0.1637425359681226], [-0.09873641234556067, 0.08705286872936738], [-0.025120016651009644, -0.34045580780112095]]",density,black,,,D004,visual,1,[],"['1', '2', '3', '4']",1,2023.2.3,harveyvisual,2.1,[],8,0.75,
0,pause,0.4,None,None,None,0,87,87,87,,,,,,,,,,,,,D004,visual,1,[],"['1', '2', '3', '4']",1,2023.2.3,harveyvisual,2.1,[],8,0.75,
8,dot,0.3,['dot'],['density'],black,0,88,88,88,,,33.200217962265015,32.91985583305359,33.21982789039612,dot,"[0.08, 0.06, 0.1, 0.08, 0.1, 0.1, 0.06, 0.1]","[[0.48529715144174124, -0.2697678579736521], [0.37309741842769656, 0.0699077870123373], [0.051182379473491794, 0.02141531407813483], [0.5234917469593858, 0.26578075419350655], [0.558201411832675, -0.037120345964853765], [0.22738215197141995, 0.24608732841731215], [0.3038957292845804, -0.12934366054116395], [0.024689158081869923, 0.25216756052328354]]",density,black,,,D004,visual,1,[],"['1', '2', '3', '4']",1,2023.2.3,harveyvisual,2.1,[],8,0.75,
0,pause,0.4,None,None,None,0,89,89,89,,,,,,,,,,,,,D004,visual,1,[],"['1', '2', '3', '4']",1,2023.2.3,harveyvisual,2.1,[],8,0.75,
8,dot,0.3,['dot'],['density'],black,0,90,90,90,,,33.90021896362305,33.61999797821045,33.919962882995605,dot,"[0.1, 0.08, 0.1, 0.06, 0.06, 0.06, 0.08, 0.08]","[[0.11895989691250043, -0.4531686673706004], [-0.16516506104640707, -0.03240926074491446], [0.03539791161122963, 0.017706842047032937], [0.2602726326243711, -0.2021454296306109], [-0.07993394910368964, -0.42305571474287856], [-0.2833532244481061, -0.22994433794129646], [0.3633812293108319, -0.4186270945829863], [-0.04042382183071007, -0.1991401458565282]]",density,black,,,D004,visual,1,[],"['1', '2', '3', '4']",1,2023.2.3,harveyvisual,2.1,[],8,0.75,
0,pause,0.4,None,None,None,0,91,91,91,,,,,,,,,,,,,D004,visual,1,[],"['1', '2', '3', '4']",1,2023.2.3,harveyvisual,2.1,[],8,0.75,
8,dot,0.3,['dot'],['density'],black,0,92,92,92,,,34.600215911865234,34.31996989250183,34.6199369430542,dot,"[0.06, 0.1, 0.1, 0.08, 0.08, 0.06, 0.08, 0.06]","[[-0.0012777187897950197, 0.3966007492927722], [-0.28447363834021117, 0.3159852715582059], [0.19942587273623266, 0.5530929527666414], [0.21318140018031628, 0.35154814550636243], [0.2022184519229619, 0.1402347591191321], [-0.03399167273692697, 0.18426518172063944], [0.09045107803968953, -0.0428478536761596], [-0.13826990130262626, -0.021750669296841257]]",density,black,,,D004,visual,1,[],"['1', '2', '3', '4']",1,2023.2.3,harveyvisual,2.1,[],8,0.75,
0,pause,0.4,None,None,None,0,93,93,93,,,,,,,,,,,,,D004,visual,1,[],"['1', '2', '3', '4']",1,2023.2.3,harveyvisual,2.1,[],8,0.75,
8,dot,0.3,['dot'],['density'],black,0,94,94,94,,,35.300225019454956,35.019938945770264,35.31992697715759,dot,"[0.1, 0.06, 0.1, 0.06, 0.08, 0.1, 0.08, 0.08]","[[0.2715518471235014, -0.4245138665073026], [0.03602391524707561, -0.40638782213015096], [0.4828297141312073, -0.09119901312376678], [0.02835794216237903, 0.028275321652194735], [-0.0895445032969687, -0.19822740391127236], [0.3178997883629752, 0.08245100984997318], [0.21920060966397442, -0.22342839817001514], [0.46807969757011175, -0.32427319705723295]]",density,black,,,D004,visual,1,[],"['1', '2', '3', '4']",1,2023.2.3,harveyvisual,2.1,[],8,0.75,
0,pause,0.4,None,None,None,0,95,95,95,,,,,,,,,,,,,D004,visual,1,[],"['1', '2', '3', '4']",1,2023.2.3,harveyvisual,2.1,[],8,0.75,
9,dot,0.3,['dot'],['density'],black,0,96,96,96,,,36.000223875045776,35.71990203857422,36.019930839538574,dot,"[0.08, 0.06, 0.06, 0.08, 0.08, 0.08, 0.08, 0.08, 0.08]","[[0.27429149071172837, 0.34251676390746333], [0.46797507249945486, 0.005491811463162166], [0.21235580877939833, 0.08757146436558581], [0.046223583492975936, 0.2932249054251131], [0.07051592556679111, -0.0704922843318231], [0.30438918969270623, -0.13028831600800136], [0.11534598117609637, 0.5236829685630697], [-0.06673610159464062, 0.12515255452502297], [-0.14439101605953233, -0.1332028051536465]]",density,black,,,D004,visual,1,[],"['1', '2', '3', '4']",1,2023.2.3,harveyvisual,2.1,[],8,0.75,
0,pause,0.4,None,None,None,0,97,97,97,,,,,,,,,,,,,D004,visual,1,[],"['1', '2', '3', '4']",1,2023.2.3,harveyvisual,2.1,[],8,0.75,
9,dot,0.3,['dot'],['density'],black,0,98,98,98,,,36.70020794868469,36.419970989227295,36.71986794471741,dot,"[0.08, 0.1, 0.06, 0.06, 0.06, 0.08, 0.06, 0.1, 0.1]","[[0.12352761201622256, -0.5468572532837559], [0.3269537579821693, -0.14821727133703638], [-0.17374906020363926, -0.07190913605219341], [-0.07646026346349713, -0.5341566642345157], [0.06446752128858728, 0.011530587655488696], [0.17734850627899523, -0.32847254707869106], [-0.01015131191695844, -0.24065236825376074], [-0.3732824370369478, -0.21519922319826376], [-0.23017550258214428, -0.35747389881463476]]",density,black,,,D004,visual,1,[],"['1', '2', '3', '4']",1,2023.2.3,harveyvisual,2.1,[],8,0.75,
0,pause,0.4,None,None,None,0,99,99,99,,,,,,,,,,,,,D004,visual,1,[],"['1', '2', '3', '4']",1,2023.2.3,harveyvisual,2.1,[],8,0.75,
9,dot,0.3,['dot'],['density'],black,0,100,100,100,,,37.40020799636841,37.119868993759155,37.41990685462952,dot,"[0.1, 0.08, 0.06, 0.06, 0.1, 0.06, 0.08, 0.1, 0.08]","[[-0.13146557112902973, 0.14116723461389186], [0.2951467361821443, -0.02824752732805288], [0.19428532799116477, -0.23589609671221848], [-0.28731157875063357, -0.1506919145754202], [-0.013954936164563217, -0.2914313940092583], [0.05437169614590384, 0.05057158482376688], [-0.11710547218270359, -0.5628603002908775], [-0.3181416531292253, -0.36750682532956547], [-0.10064922490671671, -0.07835054634105423]]",density,black,,,D004,visual,1,[],"['1', '2', '3', '4']",1,2023.2.3,harveyvisual,2.1,[],8,0.75,
0,pause,0.4,None,None,None,0,101,101,101,,,,,,,,,,,,,D004,visual,1,[],"['1', '2', '3', '4']",1,2023.2.3,harveyvisual,2.1,[],8,0.75,
9,dot,0.3,['dot'],['density'],black,0,102,102,102,,,38.100212812423706,37.81986403465271,38.119848012924194,dot,"[0.06, 0.06, 0.1, 0.06, 0.1, 0.1, 0.08, 0.06, 0.08]","[[0.38655548767220327, 0.3303110468779764], [-0.15062718332117264, 0.3263612679497012], [0.12850016508903517, 0.5435449351404695], [0.04975739233973968, 0.11256198773833849], [0.05418506391445401, 0.3174451450657875], [0.282644584802279, 0.13382110200906677], [0.4968372747528943, 0.11977440893831985], [-0.17748280977865974, 0.12733825933579754], [-0.16508880216336755, 0.5437291489982663]]",density,black,,,D004,visual,1,[],"['1', '2', '3', '4']",1,2023.2.3,harveyvisual,2.1,[],8,0.75,
0,pause,0.4,None,None,None,0,103,103,103,,,,,,,,,,,,,D004,visual,1,[],"['1', '2', '3', '4']",1,2023.2.3,harveyvisual,2.1,[],8,0.75,
9,dot,0.3,['dot'],['density'],black,0,104,104,104,,,38.80022597312927,38.51984190940857,38.81985592842102,dot,"[0.06, 0.08, 0.06, 0.06, 0.1, 0.08, 0.1, 0.06, 0.08]","[[-0.05049485011715354, 0.3013521193238899], [0.15354596755057998, 0.36785015051376163], [0.22995749783639982, 0.07309138415424772], [0.13460311710395165, -0.18603378415368982], [0.33097739113381164, -0.13822260855557728], [-0.16464148731134703, 0.07190493829483618], [0.521154897315396, -0.007803673430992942], [0.02684304494395013, 0.0018704401699241912], [-0.15545279255173522, -0.15329938800760382]]",density,black,,,D004,visual,1,[],"['1', '2', '3', '4']",1,2023.2.3,harveyvisual,2.1,[],8,0.75,
0,pause,0.4,None,None,None,0,105,105,105,,,,,,,,,,,,,D004,visual,1,[],"['1', '2', '3', '4']",1,2023.2.3,harveyvisual,2.1,[],8,0.75,
9,dot,0.3,['dot'],['density'],black,0,106,106,106,,,39.50021696090698,39.21982383728027,39.51981782913208,dot,"[0.06, 0.06, 0.1, 0.08, 0.1, 0.08, 0.1, 0.1, 0.08]","[[0.5610971552988853, -0.17060184332349634], [0.41375718760989944, -0.015869013459887487], [0.10524493337967332, -0.4151143617417518], [0.33762937987512565, -0.21166948995529247], [0.31978246251342735, -0.42403070142702926], [0.14918584865882126, 0.054317793641313596], [-0.13687229080136074, -0.3544767643123256], [-0.14284940328496695, -0.15361328447573858], [0.09035025664413378, -0.16809195260635462]]",density,black,,,D004,visual,1,[],"['1', '2', '3', '4']",1,2023.2.3,harveyvisual,2.1,[],8,0.75,
0,pause,0.4,None,None,None,0,107,107,107,,,,,,,,,,,,,D004,visual,1,[],"['1', '2', '3', '4']",1,2023.2.3,harveyvisual,2.1,[],8,0.75,
20,dot,0.3,['dot'],['density'],black,0,108,108,108,,,40.20021295547485,39.91982102394104,40.21978783607483,dot,"[0.08, 0.08, 0.08, 0.1, 0.06, 0.08, 0.1, 0.08, 0.08, 0.06, 0.06, 0.06, 0.1, 0.06, 0.08, 0.08, 0.1, 0.08, 0.08, 0.06]","[[0.0601061658859805, 0.4106755056246937], [-0.4836196355993459, 0.1757607325823361], [-0.1448820180364117, -0.11506954286700799], [-0.2490886589795216, -0.34851901570868393], [0.596881590958683, -0.09294605630205245], [0.006401976034992152, -0.3403313151626343], [0.34076241178593036, 0.35412366568112974], [-0.04560706865588149, 0.06160700824551235], [0.2980180718657073, -0.10336293552623482], [-0.26157543088348256, 0.4951753690532297], [-0.4959549212233553, -0.2352603997672047], [0.485406542666298, 0.11677994571525002], [-0.29143406360312396, 0.2833991515103078], [0.25888772455376907, -0.5424981825698812], [0.09420977697827815, 0.20834846885524305], [-0.3076557426402603, -0.014159128157644418], [0.36386672391301034, -0.30377212701320383], [-0.5992966826477746, 0.015644372582544655], [-0.07015019725251936, -0.516328175765103], [-0.45516979113945677, 0.3873447369969459]]",density,black,,,D004,visual,1,[],"['1', '2', '3', '4']",1,2023.2.3,harveyvisual,2.1,[],8,0.75,
0,pause,0.4,None,None,None,0,109,109,109,,,,,,,,,,,,,D004,visual,1,[],"['1', '2', '3', '4']",1,2023.2.3,harveyvisual,2.1,[],8,0.75,
20,dot,0.3,['dot'],['density'],black,0,110,110,110,,,40.90020489692688,40.619794845581055,40.919785022735596,dot,"[0.06, 0.1, 0.06, 0.06, 0.1, 0.08, 0.06, 0.1, 0.1, 0.1, 0.06, 0.1, 0.1, 0.06, 0.1, 0.1, 0.08, 0.08, 0.08, 0.1]","[[-0.5954294150227277, -0.053634449923955205], [0.42218488510161933, -0.42839492905220816], [0.5644190308086895, 0.18512942074992503], [-0.4107059229155379, 0.2157469240576531], [-0.41871587769745955, 0.02634488349162828], [-0.2783204067005899, -0.1524335819265275], [-0.31766717277586165, 0.40937194326068693], [0.5932213415741686, -0.08079174874465114], [-0.35185680632145805, -0.35689943087628484], [-0.05215818930154936, 0.3787919019795719], [0.24980250340052113, 0.4553723506699354], [0.1013346709965609, -0.303149986426712], [0.17324620557444037, -0.48376980215873555], [0.23295069371947175, -0.03635328162700202], [0.341752245807029, -0.20141305543699667], [-0.10700214699775629, 0.10785911219377042], [-0.07081439266059919, -0.40671558828967735], [0.15721972391364403, 0.24292648388173999], [-0.04817473016018947, -0.09279977754165547], [0.38686939484638627, 0.25572451751157654]]",density,black,,,D004,visual,1,[],"['1', '2', '3', '4']",1,2023.2.3,harveyvisual,2.1,[],8,0.75,
0,pause,0.4,None,None,None,0,111,111,111,,,,,,,,,,,,,D004,visual,1,[],"['1', '2', '3', '4']",1,2023.2.3,harveyvisual,2.1,[],8,0.75,
20,dot,0.3,['dot'],['density'],black,0,112,112,112,,,41.600224018096924,41.31981182098389,41.619760036468506,dot,"[0.08, 0.06, 0.1, 0.1, 0.1, 0.1, 0.1, 0.06, 0.1, 0.08, 0.08, 0.06, 0.08, 0.06, 0.08, 0.06, 0.1, 0.08, 0.08, 0.08]","[[-0.1172994593843606, -0.23875935063553594], [0.02070628237784966, 0.13516558374495158], [0.5805607224826518, -0.017437315926579156], [0.1863068926775432, 0.37590407567298834], [-0.23640218120611373, 0.16926364622955958], [0.34443272047966367, -0.22640572001407844], [-0.2645959527804963, 0.49099722502126564], [-0.33781510194381564, -0.4331160890806091], [0.15487025790618625, -0.04146699163016909], [0.017952596994923464, 0.5113577772604673], [-0.47055285823233806, 0.3015628680859237], [0.46925186807368935, -0.378632581539624], [0.306209737935621, 0.1921891097810412], [0.5497521391055812, 0.210099787845953], [0.11892622733115721, -0.4325246751388202], [-0.1446852901728975, -0.4553650439731563], [-0.49679969491284226, -0.20125297597497058], [-0.5929167059426895, 0.014897186053826075], [-0.20968000763642974, -0.07225532248971467], [0.3723832772863679, -0.008671004982480357]]",density,black,,,D004,visual,1,[],"['1', '2', '3', '4']",1,2023.2.3,harveyvisual,2.1,[],8,0.75,
0,pause,0.4,None,None,None,0,113,113,113,,,,,,,,,,,,,D004,visual,1,[],"['1', '2', '3', '4']",1,2023.2.3,harveyvisual,2.1,[],8,0.75,
20,dot,0.3,['dot'],['density'],black,0,114,114,114,,,42.30022597312927,42.01973485946655,42.31960391998291,dot,"[0.06, 0.06, 0.06, 0.08, 0.1, 0.1, 0.08, 0.06, 0.08, 0.1, 0.06, 0.06, 0.06, 0.06, 0.08, 0.06, 0.08, 0.1, 0.08, 0.1]","[[-0.5542127022251054, 0.11065400167885486], [-0.34187981478594215, -0.05031304924076313], [0.31298940801274966, -0.21592693441989413], [0.41610657860942546, 0.4186259160129799], [-0.07402021985144103, -0.08792073350970031], [0.15338088408806771, -0.3420336032809914], [-0.16229723164869264, -0.5416691511685154], [0.456341161716335, -0.0014084132331961263], [-0.4986124447234742, -0.2675403952100484], [0.0779985335000205, 0.3279080983721543], [-0.5937404866958849, -0.08928375660422505], [0.5115137275805127, -0.24549827832228782], [0.5547631200661055, 0.20005284302986484], [-0.046131861640785976, 0.18083563288373217], [-0.31595181936871514, 0.19738960318960797], [0.09741512388775564, 0.038885873752993905], [-0.3162574168568598, 0.4907828998624658], [0.3190816039476797, -0.47327124699073175], [-0.11926994890486958, -0.29760060403190597], [-0.4853762767167733, 0.33118697410316905]]",density,black,,,D004,visual,1,[],"['1', '2', '3', '4']",1,2023.2.3,harveyvisual,2.1,[],8,0.75,
0,pause,0.4,None,None,None,0,115,115,115,,,,,,,,,,,,,D004,visual,1,[],"['1', '2', '3', '4']",1,2023.2.3,harveyvisual,2.1,[],8,0.75,
20,dot,0.3,['dot'],['density'],black,0,116,116,116,,,43.00022292137146,42.719732999801636,43.019742012023926,dot,"[0.1, 0.1, 0.06, 0.06, 0.1, 0.06, 0.1, 0.08, 0.06, 0.08, 0.08, 0.06, 0.08, 0.08, 0.06, 0.06, 0.1, 0.06, 0.1, 0.1]","[[0.06240378840851224, -0.5410900448040474], [-0.37982379251906717, 0.4130093961561337], [0.5300876050258873, -0.28480791744129313], [-0.29910753275921964, 0.11985977407574622], [0.13624040278051464, -0.2493881388877801], [-0.14910876802287443, 0.4651187651591777], [-0.5922549747058036, 0.11315765695315878], [-0.014671198176340772, 0.04827019161515256], [-0.15374672197991585, -0.18474577980255702], [-0.3105511307058556, -0.40491001248263475], [0.5940813007721372, -0.10157187228323913], [0.43422447852309987, 0.3566176212634103], [0.30023320734154424, -0.49895181401366073], [0.27175721988029244, 0.059968110340105074], [-0.4825807763593678, -0.08875959769132646], [0.5894320373712333, 0.11923132451742255], [0.22002312645112276, 0.4960757915873353], [0.03542650654487134, 0.3148653205117814], [-0.4701207180805556, -0.2867694594545206], [-0.12713309213763457, -0.5910203844649573]]",density,black,,,D004,visual,1,[],"['1', '2', '3', '4']",1,2023.2.3,harveyvisual,2.1,[],8,0.75,
0,pause,0.4,None,None,None,0,117,117,117,,,,,,,,,,,,,D004,visual,1,[],"['1', '2', '3', '4']",1,2023.2.3,harveyvisual,2.1,[],8,0.75,
20,dot,0.3,['dot'],['density'],black,0,118,118,118,,,43.70021080970764,43.419718980789185,43.719714879989624,dot,"[0.08, 0.1, 0.06, 0.06, 0.08, 0.1, 0.1, 0.06, 0.1, 0.06, 0.06, 0.1, 0.1, 0.08, 0.08, 0.1, 0.1, 0.1, 0.08, 0.1]","[[0.43694322361559224, -0.2992228806246784], [-0.5801474260776394, 0.015047354973315802], [-0.08444510623157808, -0.39668867853115], [0.12867114688235703, -0.22621569964939453], [0.24851400901655996, 0.03955613297888361], [-0.1449353923706475, -0.052965927851011285], [0.46161095232645344, -0.018740234643718046], [-0.13850142608393928, 0.46902448655657747], [0.023635154239016742, 0.1011068207598177], [0.46552884465446, 0.3137356659156771], [0.0010095993875262055, 0.29623057987521606], [-0.4230702417085179, 0.33029612271272163], [0.191508329624563, 0.48014467837441865], [-0.3202560789595736, 0.11041392962154328], [-0.3464561354928848, -0.4143130267834218], [-0.42209277375707677, -0.23313247211731544], [0.1409323128662071, -0.49255335070652734], [0.5787846331986094, 0.15874236317731447], [0.26236477532770364, 0.2838161645629178], [-0.2333042836443614, -0.25974223671400615]]",density,black,,,D004,visual,1,[],"['1', '2', '3', '4']",1,2023.2.3,harveyvisual,2.1,[],8,0.75,
0,pause,0.4,None,None,None,0,119,119,119,,,,,,,,,,,,,D004,visual,1,[],"['1', '2', '3', '4']",1,2023.2.3,harveyvisual,2.1,[],8,0.75,
20,dot,0.3,['dot'],['density'],black,0,120,120,120,,,44.40020799636841,44.11969780921936,44.419705867767334,dot,"[0.08, 0.1, 0.06, 0.1, 0.08, 0.08, 0.1, 0.08, 0.08, 0.08, 0.1, 0.1, 0.1, 0.06, 0.08, 0.08, 0.06, 0.1, 0.1, 0.06]","[[-0.21729153088594472, -0.5358537837971163], [-0.1326190751640115, -0.11389747107022968], [-0.17517636924029345, 0.4108782455653628], [0.2231675263467532, 0.26620747774449116], [-0.5097858847669385, 0.07452214562473103], [0.1775651379118468, -0.17510172869264673], [-0.37549554361021903, 0.2698658397621232], [0.5178338179409162, 0.1295749903686248], [0.3175409110872709, -0.39648793602184784], [-0.35829473078832963, -0.22428398222172202], [0.4210381858077882, 0.43195320711056584], [0.49173232659625865, -0.1456185048617907], [-0.00375020551187899, 0.27769907054258913], [0.10476912193131016, 0.5488409383116812], [0.12114670968855623, -0.48349675904023626], [-0.1863333825787417, 0.10511410462324855], [0.0560602592277627, 0.08737242519286414], [-0.18153381636974164, -0.34292885567060694], [-0.571629621517035, -0.15114876303617297], [0.27019291553890157, 0.060496563693664296]]",density,black,,,D004,visual,1,[],"['1', '2', '3', '4']",1,2023.2.3,harveyvisual,2.1,[],8,0.75,
0,pause,0.4,None,None,None,0,121,121,121,,,,,,,,,,,,,D004,visual,1,[],"['1', '2', '3', '4']",1,2023.2.3,harveyvisual,2.1,[],8,0.75,
20,dot,0.3,['dot'],['density'],black,0,122,122,122,,,45.10022282600403,44.819692850112915,45.11968398094177,dot,"[0.08, 0.1, 0.08, 0.08, 0.1, 0.1, 0.06, 0.06, 0.08, 0.08, 0.1, 0.06, 0.08, 0.06, 0.06, 0.1, 0.08, 0.1, 0.06, 0.1]","[[0.06264530173707472, 0.21761362652514105], [0.4800421578898214, 0.3248098112374819], [0.35783169988702457, -0.4471801397819768], [-0.1741556310734485, 0.03057235566639349], [0.44611287055340576, 0.015534327198627407], [0.19996658004337997, 0.569801504389336], [-0.3072036718217223, -0.23159105319745765], [-0.1269364029989169, -0.5093735792617603], [-0.5783767713252776, -0.1647619888202605], [0.1509848459433203, -0.5442524730291742], [-0.49384181638074875, 0.1636422855006609], [-0.2577369424809154, 0.2087929223269127], [0.27971815977858205, 0.13660959793094074], [0.2997119276684007, -0.2481350402964066], [-0.061309700962784874, -0.25607524247573765], [0.1075046971735264, -0.1267998958308295], [-0.11457194107408852, 0.33411084636965604], [-0.4116059897530292, 0.4330198525313219], [0.5805916780281163, -0.14054864897688732], [-0.37628789846864286, -0.033940512503525755]]",density,black,,,D004,visual,1,[],"['1', '2', '3', '4']",1,2023.2.3,harveyvisual,2.1,[],8,0.75,
0,pause,0.4,None,None,None,0,123,123,123,,,,,,,,,,,,,D004,visual,1,[],"['1', '2', '3', '4']",1,2023.2.3,harveyvisual,2.1,[],8,0.75,
20,dot,0.3,['dot'],['density'],black,0,124,124,124,,,45.80022096633911,45.519659996032715,45.81970191001892,dot,"[0.06, 0.1, 0.08, 0.08, 0.1, 0.06, 0.06, 0.1, 0.1, 0.08, 0.08, 0.1, 0.1, 0.1, 0.08, 0.1, 0.1, 0.06, 0.1, 0.08]","[[0.20489064725315498, -0.23488050019336776], [-0.5288637106910309, 0.27503060088936004], [0.29800443068914706, 0.17136472050632845], [-0.5743757872024752, 0.06235584238481778], [0.1431581495722909, 0.022271266960181224], [-0.051953666060904014, -0.007496395537035738], [0.5260386141511973, 0.18171407112222432], [0.5066778331221587, -0.0662102720538697], [0.4593878306699516, -0.25187067198022894], [-0.5239938407174037, -0.18745028868695654], [0.23887981338413677, 0.5480181580981723], [0.3247166478097403, -0.501041518802487], [-0.049847361654366096, -0.24644931740591663], [0.03305959838868955, 0.48791701932312015], [-0.31083645800459, -0.2161535945139506], [-0.2521798706768082, 0.4557862248428959], [-0.0360654342634017, -0.5749120416307943], [-0.1331786666000409, 0.19429553826970447], [-0.33412042965361993, 0.004729779975497617], [-0.4446569627374539, -0.40018616874043234]]",density,black,,,D004,visual,1,[],"['1', '2', '3', '4']",1,2023.2.3,harveyvisual,2.1,[],8,0.75,
0,pause,0.4,None,None,None,0,125,125,125,,,,,,,,,,,,,D004,visual,1,[],"['1', '2', '3', '4']",1,2023.2.3,harveyvisual,2.1,[],8,0.75,
20,dot,0.3,['dot'],['density'],black,0,126,126,126,,,46.50021696090698,46.219626903533936,46.51962685585022,dot,"[0.1, 0.08, 0.1, 0.06, 0.08, 0.1, 0.06, 0.06, 0.1, 0.06, 0.08, 0.1, 0.1, 0.1, 0.06, 0.1, 0.08, 0.06, 0.1, 0.1]","[[-0.15273469608447765, 0.22871398779770113], [0.5708824754792404, -0.08631575976241213], [0.12167885251955624, -0.2889783269491391], [0.4369382842672468, 0.30180418928210556], [0.22476671967970374, 0.06708416086143432], [-0.1712192976682177, -0.13747335279947054], [0.022790805562573513, -0.4726996018541888], [0.1721445336601738, 0.4856718893394084], [-0.28588461239692436, 0.46283407470912685], [0.30670579486508576, -0.1927034072074882], [-0.01771882979414119, 0.4619540504505354], [-0.4387640396789695, 0.2819026768414177], [-0.2762297521872434, 0.03338510805231565], [0.29449232706176665, -0.3920724448193263], [-0.5312851522392247, -0.08851200777450952], [-0.17638660990298077, -0.5339901152808116], [0.07195702769230694, 0.20633662886766335], [-0.5744123153782176, 0.12175996021780922], [0.5169769960022969, 0.1240984841263183], [-0.3918603460927279, -0.37739079447371915]]",density,black,,,D004,visual,1,[],"['1', '2', '3', '4']",1,2023.2.3,harveyvisual,2.1,[],8,0.75,
0,pause,0.4,None,None,None,0,127,127,127,,,,,,,,,,,,,D004,visual,1,[],"['1', '2', '3', '4']",1,2023.2.3,harveyvisual,2.1,[],8,0.75,
20,dot,0.3,['dot'],['density'],black,0,128,128,128,,,47.20021986961365,46.9196138381958,47.21961998939514,dot,"[0.08, 0.06, 0.06, 0.06, 0.06, 0.08, 0.08, 0.06, 0.06, 0.08, 0.08, 0.06, 0.06, 0.1, 0.08, 0.1, 0.1, 0.1, 0.06, 0.06]","[[-0.4783261424112535, -0.07847246475311997], [-0.031354125735483906, 0.08160797289176003], [-0.1818213084197498, 0.5712282080267485], [0.10176306687634995, 0.3358638460375839], [0.2104384545615251, 0.5044485103912308], [0.5092401002939902, 0.272978281775662], [0.16176705642614764, 0.015732491377109525], [0.3318411436909381, -0.4121626966835409], [-0.48009065985738775, 0.1569206795901366], [-0.1456045201944009, -0.15675109572120577], [0.19463495895339766, -0.17829641787282124], [0.4393284722096321, 0.006652746841233181], [0.5555664041780658, -0.23179536246604024], [-0.4015328461021813, 0.4154536279820108], [-0.2229044098963618, -0.5480058295440914], [-0.3121132481835377, -0.3264949813966761], [-0.2532293853516169, 0.23380254625281283], [-0.014012951750365987, -0.32807569245674895], [0.2897916115453839, 0.28478286811741116], [0.09182814187670285, -0.583986914117221]]",density,black,,,D004,visual,1,[],"['1', '2', '3', '4']",1,2023.2.3,harveyvisual,2.1,[],8,0.75,
0,pause,0.4,None,None,None,0,129,129,129,,,,,,,,,,,,,D004,visual,1,[],"['1', '2', '3', '4']",1,2023.2.3,harveyvisual,2.1,[],8,0.75,
20,dot,0.3,['dot'],['density'],black,0,130,130,130,,,47.90022897720337,47.61961889266968,47.91960883140564,dot,"[0.1, 0.06, 0.06, 0.06, 0.08, 0.08, 0.1, 0.1, 0.08, 0.08, 0.1, 0.06, 0.1, 0.08, 0.1, 0.08, 0.1, 0.06, 0.08, 0.06]","[[-0.16617432333352522, 0.2407348888037124], [0.27507230323513876, -0.37859323483780377], [-0.3714002385161555, -0.45125122469750045], [-0.11849642342185196, -0.11428918395595672], [0.30554876586359836, 0.3947595235519824], [-0.37216886371641006, 0.15899268528747473], [-0.09318778172586406, 0.5610854810357], [-0.018855837845833112, -0.5996880382765538], [-0.5248846424302004, -0.1965880615695808], [0.1005231394790771, -0.05838303787028565], [0.4238779007902692, 0.21465751700034857], [-0.18974779178283757, -0.5144659517611385], [-0.43388097155384353, 0.41556657243178785], [0.11135999755522474, 0.5444789951785954], [-0.29931332826393975, -0.03970910598776589], [0.5581714586042873, -0.12181325248604317], [0.48651091651884426, -0.3361185470495094], [0.11783854126148874, -0.2678299076054704], [-0.2801788094259193, -0.2742840373959148], [-0.572623853266482, 0.08424293197113722]]",density,black,,,D004,visual,1,[],"['1', '2', '3', '4']",1,2023.2.3,harveyvisual,2.1,[],8,0.75,
0,pause,0.4,None,None,None,0,131,131,131,,,,,,,,,,,,,D004,visual,1,[],"['1', '2', '3', '4']",1,2023.2.3,harveyvisual,2.1,[],8,0.75,
20,dot,0.3,['dot'],['density'],black,0,132,132,132,,,48.60021495819092,48.31959295272827,48.61958885192871,dot,"[0.06, 0.06, 0.08, 0.06, 0.06, 0.08, 0.1, 0.06, 0.08, 0.08, 0.06, 0.06, 0.06, 0.08, 0.1, 0.06, 0.1, 0.08, 0.06, 0.08]","[[0.43167791420464086, 0.40355288556810703], [0.38122804219166984, -0.2635888247135696], [-0.08633474545952569, -0.5714508483418476], [-0.48831713798022436, 0.3092096005098282], [0.19343850299502896, -0.4628704336539571], [-0.5820603020113584, -0.07859594519510414], [-0.3628261733684589, -0.24759321713657975], [0.07061742528545767, 0.5318563188105534], [-0.16696583959437594, 0.457006889364342], [0.3170590762881912, 0.12755990466427958], [-0.220081145177497, -0.4048167265372836], [0.050493165093233316, 0.07449342322694896], [-0.16607773957933425, 0.1333607839840344], [0.5708360382947072, 0.1491787091054652], [0.26909892168299276, -0.09166016053123388], [-0.12852578810369691, -0.2103664283303357], [-0.3710068448259591, 0.062292762552084324], [0.07573219780417151, -0.28247261876409], [0.4548705558706184, -0.011008904102289274], [-0.5880805500438777, 0.11536132101003044]]",density,black,,,D004,visual,1,[],"['1', '2', '3', '4']",1,2023.2.3,harveyvisual,2.1,[],8,0.75,
0,pause,0.4,None,None,None,0,133,133,133,,,,,,,,,,,,,D004,visual,1,[],"['1', '2', '3', '4']",1,2023.2.3,harveyvisual,2.1,[],8,0.75,
20,dot,0.3,['dot'],['density'],black,0,134,134,134,,,49.300227880477905,49.01957988739014,49.31956887245178,dot,"[0.06, 0.08, 0.1, 0.1, 0.08, 0.08, 0.06, 0.1, 0.06, 0.1, 0.06, 0.08, 0.1, 0.08, 0.08, 0.08, 0.06, 0.08, 0.08, 0.08]","[[0.15586262249442573, 0.29628988111447496], [0.13365939659009352, -0.006805453824517804], [-0.09235568172931496, -0.31100771871088895], [0.030285846095398528, 0.4415618182634743], [-0.1233342516013039, 0.15891133337303576], [0.44981844233656665, -0.3416771692155803], [0.48669788923198276, 0.3467710766062124], [-0.2613974426625213, -0.08907001683764482], [0.4178913304767303, 0.05608065376564786], [-0.28658082701149284, 0.42742748254452123], [0.5929013520161276, -0.020835906059284065], [-0.4435421802620708, -0.24351960790428698], [-0.31865249830095727, 0.21744760980540478], [0.3584349033959384, -0.14952407584934935], [0.0555168636679958, -0.46943606757691164], [0.28971262382875496, -0.522291194500412], [-0.20951481917515746, -0.5528346946090116], [-0.53328554647986, 0.029268855975725983], [0.28951423447063074, 0.4861908404603399], [0.15696784635186212, -0.20601975144907875]]",density,black,,,D004,visual,1,[],"['1', '2', '3', '4']",1,2023.2.3,harveyvisual,2.1,[],8,0.75,
0,pause,0.4,None,None,None,0,135,135,135,,,,,,,,,,,,,D004,visual,1,[],"['1', '2', '3', '4']",1,2023.2.3,harveyvisual,2.1,[],8,0.75,
20,dot,0.3,['dot'],['density'],black,0,136,136,136,,,50.00023293495178,49.719566822052,50.01953887939453,dot,"[0.08, 0.06, 0.06, 0.08, 0.1, 0.1, 0.06, 0.06, 0.06, 0.08, 0.1, 0.1, 0.06, 0.08, 0.1, 0.08, 0.08, 0.06, 0.08, 0.08]","[[-0.4909101960421659, -0.20097445694725524], [0.1595681706433586, 0.07373498568954817], [0.38286780049273983, -0.4596510278358941], [-0.3658577071881466, 0.3321424984454808], [-0.5127912441888841, 0.06534373211732458], [0.17797811004339148, -0.250037427688101], [-0.20444159656964572, -0.09469488628375122], [0.08286454688893652, 0.43629499682730577], [-0.22671067478300677, -0.5459887760559579], [0.3028384808218042, 0.5181889404166367], [-0.23955668958537546, 0.555228888257899], [0.47039135699505097, -0.2125793470934184], [-0.2667368450002638, -0.3349731414164663], [0.5440678905483226, -0.029992869070012224], [-0.03083237423946683, -0.22073806167571508], [-0.013339693915236928, -0.464597358411997], [0.3123690213268373, -0.050405819261194196], [0.3965452689813235, 0.14704051676124358], [0.23711283272589434, 0.27802547314739356], [-0.0012560845242386431, 0.25709270544632146]]",density,black,,,D004,visual,1,[],"['1', '2', '3', '4']",1,2023.2.3,harveyvisual,2.1,[],8,0.75,
0,pause,0.4,None,None,None,0,137,137,137,,,,,,,,,,,,,D004,visual,1,[],"['1', '2', '3', '4']",1,2023.2.3,harveyvisual,2.1,[],8,0.75,
20,dot,0.3,['dot'],['density'],black,0,138,138,138,,,50.700233936309814,50.41957688331604,50.71952295303345,dot,"[0.06, 0.06, 0.1, 0.08, 0.08, 0.08, 0.1, 0.06, 0.06, 0.1, 0.08, 0.1, 0.1, 0.1, 0.08, 0.08, 0.08, 0.1, 0.1, 0.06]","[[0.33894800836049477, 0.021059616184506025], [-0.36720641822901917, 0.20788299233788743], [0.2652300629370986, -0.18320954558367758], [-0.08768150030376765, 0.35778899912094686], [-0.4030323458018916, -0.43498205990285793], [0.3686622016071903, -0.44095164187884717], [-0.3644002102655799, -0.10951297956917255], [-0.5922999745107883, -0.10737767902329332], [0.6036141828529437, 0.021441611481580483], [-0.08605698254170091, 0.054306206050123706], [-0.5712924212492326, 0.1491218674148077], [-0.32568906479911547, 0.5010434330863949], [-0.13487134950444607, -0.28436351952685296], [0.5676920821253361, -0.19026482517765275], [-0.0400259363221277, -0.591862446112322], [0.08362064900619226, -0.05049574825913239], [0.07417895605998803, -0.36104002769488164], [0.29997088606206246, 0.32782196623469917], [0.12966542795597458, 0.527057012982769], [0.49524327477563224, 0.24205157434594254]]",density,black,,,D004,visual,1,[],"['1', '2', '3', '4']",1,2023.2.3,harveyvisual,2.1,[],8,0.75,
0,pause,0.4,None,None,None,0,139,139,139,,,,,,,,,,,,,D004,visual,1,[],"['1', '2', '3', '4']",1,2023.2.3,harveyvisual,2.1,[],8,0.75,
20,dot,0.3,['dot'],['density'],black,0,140,140,140,,,51.40021586418152,51.11954402923584,51.41938090324402,dot,"[0.1, 0.1, 0.06, 0.1, 0.08, 0.06, 0.1, 0.1, 0.08, 0.08, 0.1, 0.1, 0.1, 0.1, 0.06, 0.06, 0.08, 0.06, 0.06, 0.08]","[[0.24161019111099324, 0.12720093975558255], [-0.5906179321032813, -0.06813592031152758], [0.4191829131198591, -0.182877613604769], [0.5495158168886402, -0.030769812914998584], [0.4138043874893754, -0.39079510101306325], [0.03462698759727534, 0.18733386242296934], [-0.24896464220507397, -0.3200942940589485], [-0.18231288175663363, 0.47808165790080637], [0.1558957175784138, -0.2871720203134], [-0.24824843781130757, 0.1222369945023265], [0.08256932673289652, 0.3826953623655418], [-0.0026081389395984367, -0.11218755356869331], [0.5092761828413791, 0.2905473817605313], [-0.49865181873510245, 0.26774768805073806], [0.11388293188261533, -0.5460257453824205], [0.3147872616986199, 0.42039061087101837], [-0.39929184221119607, -0.17570584487206842], [-0.36781980743005016, -0.4765343647370463], [-0.12795539182157362, -0.4788918320746621], [-0.2131439549090805, -0.09519573166095169]]",density,black,,,D004,visual,1,[],"['1', '2', '3', '4']",1,2023.2.3,harveyvisual,2.1,[],8,0.75,
0,pause,0.4,None,None,None,0,141,141,141,,,,,,,,,,,,,D004,visual,1,[],"['1', '2', '3', '4']",1,2023.2.3,harveyvisual,2.1,[],8,0.75,
20,dot,0.3,['dot'],['density'],black,0,142,142,142,,,52.10020995140076,51.819358825683594,52.119524002075195,dot,"[0.1, 0.1, 0.06, 0.1, 0.06, 0.08, 0.06, 0.1, 0.08, 0.08, 0.1, 0.1, 0.08, 0.08, 0.08, 0.08, 0.1, 0.08, 0.06, 0.08]","[[0.5587430064324085, -0.12483092930128638], [0.40985688877354465, 0.17239834578907082], [-0.5322436263786506, -0.033337995684110666], [-0.1493125012851957, -0.0676123775041455], [-0.16837747556261684, 0.37433845561431345], [-0.4685111486324709, 0.1918041552897105], [0.038798283746246276, 0.12828424561947893], [0.4233320848306613, -0.3882185093950342], [0.13781576709923316, 0.5213667867213105], [0.29682486812332676, 0.3683569885566286], [0.07294706419296315, -0.3562321289549202], [-0.36350585197647467, -0.2465969791374638], [0.10982046302971826, -0.5826632674857315], [-0.1395464239137913, -0.3575483235950143], [-0.35444220280741895, 0.44420595718472516], [-0.2872592023997741, -0.5099554550893463], [0.15090192428488158, -0.04952707351602159], [-0.06383820911255189, 0.5906547855344857], [0.3507676013765151, -0.15578591670967495], [-0.2811091707165708, 0.1389682472761562]]",density,black,,,D004,visual,1,[],"['1', '2', '3', '4']",1,2023.2.3,harveyvisual,2.1,[],8,0.75,
0,pause,0.4,None,None,None,0,143,143,143,,,,,,,,,,,,,D004,visual,1,[],"['1', '2', '3', '4']",1,2023.2.3,harveyvisual,2.1,[],8,0.75,
20,dot,0.3,['dot'],['density'],black,0,144,144,144,,,52.800227880477905,52.519593954086304,52.81955099105835,dot,"[0.08, 0.06, 0.08, 0.06, 0.08, 0.1, 0.1, 0.06, 0.1, 0.1, 0.1, 0.06, 0.08, 0.06, 0.08, 0.08, 0.1, 0.08, 0.1, 0.06]","[[0.3748330832974298, -0.4350150257023779], [0.03116487060594919, -0.2457233493089459], [-0.3184390298294956, -0.27980931352293226], [-0.5212150823408093, -0.26447825214297366], [-0.3414929584536777, 0.0891358035618452], [0.18100332585561807, 0.07055220784952299], [-0.11879964057169506, -0.11162656646805752], [0.354618925730229, 0.3955700357451547], [0.16899128941079056, 0.519168762308166], [-0.11727212386234437, 0.4339342603456211], [0.5149387448762605, -0.03064125916764565], [0.05368032717590454, -0.4757768576009592], [0.20476593238090168, 0.2728996915632832], [-0.4546028930084845, 0.34608505814909957], [-0.0578553802321673, 0.24157340428073792], [-0.25280287727577816, 0.26479028773160285], [0.5311816714572876, -0.2365638550686352], [0.3402966826682341, -0.2090976493348256], [-0.5850111809625514, 0.12281844889064567], [-0.1662580667327943, -0.5251971446801068]]",density,black,,,D004,visual,1,[],"['1', '2', '3', '4']",1,2023.2.3,harveyvisual,2.1,[],8,0.75,
0,pause,0.4,None,None,None,0,145,145,145,,,,,,,,,,,,,D004,visual,1,[],"['1', '2', '3', '4']",1,2023.2.3,harveyvisual,2.1,[],8,0.75,
20,dot,0.3,['dot'],['density'],black,0,146,146,146,,,53.500234842300415,53.21963691711426,53.519601821899414,dot,"[0.08, 0.06, 0.1, 0.08, 0.1, 0.08, 0.06, 0.08, 0.08, 0.08, 0.1, 0.1, 0.1, 0.06, 0.1, 0.1, 0.06, 0.08, 0.08, 0.1]","[[-0.5950280581688312, 0.10795833055557066], [-0.28551899934637376, 0.45467614506642073], [0.44593022900787005, -0.2927315128696487], [0.47541846152761746, -0.02804529386369281], [-0.04357231716547705, -0.2880589604222308], [-0.4193768579697983, 0.23686859477424815], [-0.27818413459081187, -0.06455547256347899], [-0.30517170547394495, -0.29718014798037934], [0.23596300052082309, -0.26307592982414457], [0.09250295043431855, 0.3961073698183515], [0.051338636217016176, -0.5841912488408009], [0.048687226880991474, -0.010068191587057185], [-0.07117806055952824, 0.24706116322497584], [-0.48018624784261843, -0.11166575664385392], [0.4911015219256861, 0.3394481863002136], [0.23851474465117106, -0.5029507089828795], [0.2784239684309098, 0.5259331627747559], [0.20771416190806669, 0.10138495629974531], [0.5838722414721998, 0.1534533484494019], [-0.041679857640111506, 0.5577941676502491]]",density,black,,,D004,visual,1,[],"['1', '2', '3', '4']",1,2023.2.3,harveyvisual,2.1,[],8,0.75,
0,pause,0.4,None,None,None,0,147,147,147,,,,,,,,,,,,,D004,visual,1,[],"['1', '2', '3', '4']",1,2023.2.3,harveyvisual,2.1,[],8,0.75,
20,dot,0.3,['dot'],['density'],black,0,148,148,148,,,54.20021200180054,53.92073392868042,54.219565868377686,dot,"[0.1, 0.06, 0.06, 0.06, 0.08, 0.1, 0.08, 0.1, 0.06, 0.08, 0.1, 0.06, 0.1, 0.1, 0.1, 0.08, 0.1, 0.06, 0.06, 0.08]","[[-0.16652504347886987, 0.0035796019864690054], [-0.5686320230894284, -0.19150363679490195], [0.4485397188893664, 0.07161683171843475], [-0.4375741979558059, 0.30242103549927984], [-0.060321652728100306, 0.4067539283642153], [0.28818925490521496, -0.14501860615543227], [0.5051295740839156, -0.2631075309972759], [0.4504572879932883, 0.3859373219350519], [-0.11350641540079409, -0.3984469007545415], [-0.33406175917700287, -0.26594156071906294], [0.17551587671016955, -0.3632795230356838], [-0.5117806632729058, 0.005412259444038059], [0.10874207317151097, 0.21679584086013826], [0.04027799623726125, -0.5777755225157979], [-0.1897621559885424, 0.2210426091651262], [-0.2726737770866297, 0.49825522425628155], [0.18939053052787258, 0.40356430419505906], [-0.3254072299221339, -0.4639127883101603], [0.6008802084206005, -0.06576781146324963], [0.3692750479815815, -0.4029636357507154]]",density,black,,,D004,visual,1,[],"['1', '2', '3', '4']",1,2023.2.3,harveyvisual,2.1,[],8,0.75,
0,pause,0.4,None,None,None,0,149,149,149,,,,,,,,,,,,,D004,visual,1,[],"['1', '2', '3', '4']",1,2023.2.3,harveyvisual,2.1,[],8,0.75,
20,dot,0.3,['dot'],['density'],black,0,150,150,150,,,54.900229930877686,54.619417905807495,54.91927194595337,dot,"[0.08, 0.08, 0.1, 0.1, 0.06, 0.08, 0.1, 0.1, 0.08, 0.08, 0.06, 0.06, 0.1, 0.1, 0.1, 0.1, 0.1, 0.08, 0.08, 0.06]","[[-0.30272876927209724, 0.477678399909959], [-0.5917957425652562, -0.018247694598490946], [0.2606722636892538, 0.0329800186416872], [-0.48651040836542214, -0.3214761639099357], [-0.2864541752624573, -0.34917843896658995], [0.07147070959424906, 0.2154094929698248], [0.31814005227554, 0.3671304734026857], [-0.4625944096427005, 0.2531425712246456], [0.48615138591567997, 0.1913363518607874], [0.2779601011519769, -0.2602597236358088], [0.5700458337041882, -0.08637544321870332], [-0.11163875608475488, -0.10359028936859327], [-0.2571332971576706, 0.0914812136676475], [-0.18677559594700166, 0.2987259747924381], [0.10026318884579943, -0.36358158913698946], [0.40798121226834405, -0.42478410140846273], [-0.32673761812197827, -0.09194719683906866], [0.07192279632675158, -0.17510169723619068], [0.1178836417146576, 0.5385194215293903], [-0.08971876400567624, 0.47210833044370715]]",density,black,,,D004,visual,1,[],"['1', '2', '3', '4']",1,2023.2.3,harveyvisual,2.1,[],8,0.75,
0,pause,0.4,None,None,None,0,151,151,151,,,,,,,,,,,,,D004,visual,1,[],"['1', '2', '3', '4']",1,2023.2.3,harveyvisual,2.1,[],8,0.75,
20,dot,0.3,['dot'],['density'],black,0,152,152,152,,,55.600207805633545,55.31949782371521,55.6192569732666,dot,"[0.1, 0.06, 0.06, 0.06, 0.08, 0.1, 0.06, 0.06, 0.06, 0.06, 0.06, 0.06, 0.08, 0.1, 0.1, 0.08, 0.1, 0.08, 0.08, 0.08]","[[0.5557071809613255, -0.0771251407075983], [-0.23775029423014904, 0.09662327757787192], [-0.5862855105087169, -0.011788661181539428], [0.4185339143154999, 0.36994559908220037], [0.4949004090660801, 0.10233693410836447], [-0.25564367690492296, 0.48024777782260175], [-0.2671909162375043, -0.4596118929465523], [0.34848448977774804, -0.256276792154567], [-0.0017422288067913128, 0.024122726488853607], [-0.20412356450915964, -0.1658406260954446], [0.0307368986974349, 0.5810568734432293], [0.1552372167801611, 0.13073694005545977], [-0.44644962651667863, -0.2669914790111629], [-0.10772367063598937, 0.2500839815214497], [0.0814061153694925, -0.5589304198010275], [0.021993140776870534, -0.3394087192940028], [0.19780630448098668, 0.3861781259003142], [-0.32478111322312514, 0.26517606759815215], [0.36850596578003714, -0.046689697704118904], [0.31272326907232584, -0.5100365656123352]]",density,black,,,D004,visual,1,[],"['1', '2', '3', '4']",1,2023.2.3,harveyvisual,2.1,[],8,0.75,
0,pause,0.4,None,None,None,0,153,153,153,,,,,,,,,,,,,D004,visual,1,[],"['1', '2', '3', '4']",1,2023.2.3,harveyvisual,2.1,[],8,0.75,
20,dot,0.3,['dot'],['density'],black,0,154,154,154,,,56.30022883415222,56.01942181587219,56.31942701339722,dot,"[0.08, 0.08, 0.06, 0.06, 0.1, 0.08, 0.08, 0.1, 0.08, 0.06, 0.1, 0.08, 0.08, 0.1, 0.08, 0.08, 0.08, 0.1, 0.1, 0.1]","[[-0.16652504347886987, 0.0035796019864690054], [-0.5686320230894284, -0.19150363679490195], [0.4485397188893664, 0.07161683171843475], [-0.4375741979558059, 0.30242103549927984], [-0.060321652728100306, 0.4067539283642153], [0.28818925490521496, -0.14501860615543227], [0.5051295740839156, -0.2631075309972759], [0.4504572879932883, 0.3859373219350519], [-0.11350641540079409, -0.3984469007545415], [-0.33406175917700287, -0.26594156071906294], [0.17551587671016955, -0.3632795230356838], [-0.5117806632729058, 0.005412259444038059], [0.10874207317151097, 0.21679584086013826], [0.04027799623726125, -0.5777755225157979], [-0.1897621559885424, 0.2210426091651262], [-0.2726737770866297, 0.49825522425628155], [0.18939053052787258, 0.40356430419505906], [-0.3254072299221339, -0.4639127883101603], [0.6008802084206005, -0.06576781146324963], [0.3692750479815815, -0.4029636357507154]]",density,black,,,D004,visual,1,[],"['1', '2', '3', '4']",1,2023.2.3,harveyvisual,2.1,[],8,0.75,
0,pause,0.4,None,None,None,0,155,155,155,,,,,,,,,,,,,D004,visual,1,[],"['1', '2', '3', '4']",1,2023.2.3,harveyvisual,2.1,[],8,0.75,
9,dot,0.3,['dot'],['density'],black,0,156,156,156,,,57.0002179145813,56.71921992301941,57.01922082901001,dot,"[0.08, 0.1, 0.1, 0.06, 0.08, 0.06, 0.06, 0.06, 0.08]","[[0.30047334598257713, -0.32583448447642216], [0.4997394081452916, 0.05175273655880906], [0.13646797290608587, 0.02221883094322858], [0.11448241016544139, -0.2117191838414046], [0.417500260412479, 0.2413963184479076], [0.19152536325099656, 0.23172406522327998], [0.5046802385722475, -0.28323005758562664], [-0.037891296982194685, 0.14714919272112825], [0.3292067348064443, -0.0657181274468392]]",density,black,,,D004,visual,1,[],"['1', '2', '3', '4']",1,2023.2.3,harveyvisual,2.1,[],8,0.75,
0,pause,0.4,None,None,None,0,157,157,157,,,,,,,,,,,,,D004,visual,1,[],"['1', '2', '3', '4']",1,2023.2.3,harveyvisual,2.1,[],8,0.75,
9,dot,0.3,['dot'],['density'],black,0,158,158,158,,,57.700222969055176,57.41921782493591,57.71920585632324,dot,"[0.06, 0.06, 0.06, 0.06, 0.08, 0.1, 0.06, 0.08, 0.06]","[[-0.08351644510687262, 0.021707353155035948], [0.11173555070370329, 0.3931220271068859], [-0.15396522232717408, 0.3423719725559184], [0.23829169989725132, 0.186218803300476], [-0.29008049122260166, 0.17395274189193027], [0.2491440638781109, -0.04662568063892593], [-0.2854023508218629, -0.06307984259985559], [0.003596708871689959, 0.21717875760955796], [-0.47489413548496523, 0.030788186259843496]]",density,black,,,D004,visual,1,[],"['1', '2', '3', '4']",1,2023.2.3,harveyvisual,2.1,[],8,0.75,
0,pause,0.4,None,None,None,0,159,159,159,,,,,,,,,,,,,D004,visual,1,[],"['1', '2', '3', '4']",1,2023.2.3,harveyvisual,2.1,[],8,0.75,
9,dot,0.3,['dot'],['density'],white,0,160,160,160,,,58.40022897720337,58.11947202682495,58.41934299468994,dot,"[0.06, 0.06, 0.06, 0.08, 0.08, 0.06, 0.08, 0.1, 0.06]","[[0.17250841666444466, -0.5173949811024123], [-0.03744062107829021, -0.3895067986023326], [0.30010350549611725, -0.35742528465303014], [0.33064876224298684, -0.08057424749072183], [-0.16743636965090838, -0.09291053242622109], [0.1226827020066543, -0.24711763375004436], [0.047527772487498496, -0.037432207059122605], [0.20928928941955194, 0.09999474740890861], [-0.30040876562534896, -0.42726910911839744]]",density,white,,,D004,visual,1,[],"['1', '2', '3', '4']",1,2023.2.3,harveyvisual,2.1,[],8,0.75,
0,pause,0.4,None,None,None,0,161,161,161,,,,,,,,,,,,,D004,visual,1,[],"['1', '2', '3', '4']",1,2023.2.3,harveyvisual,2.1,[],8,0.75,
9,dot,0.3,['dot'],['density'],black,0,162,162,162,,,59.10022687911987,58.81930494308472,59.11930704116821,dot,"[0.06, 0.06, 0.08, 0.08, 0.1, 0.06, 0.06, 0.06, 0.08]","[[0.16751238249231654, 0.5577961240465925], [-0.27296145406993233, 0.4862198967380745], [-0.029185467938656964, 0.15062746822878756], [-0.0646201772689005, 0.5687739076077192], [0.1739328392933146, 0.3418730943321047], [-0.141244529573345, 0.32572795328380527], [-0.5161698704605421, 0.1834233825743511], [0.21727962056556488, 0.12903401361548372], [-0.23724269532595021, 0.10991409904419316]]",density,black,,,D004,visual,1,[],"['1', '2', '3', '4']",1,2023.2.3,harveyvisual,2.1,[],8,0.75,
0,pause,0.4,None,None,None,0,163,163,163,,,,,,,,,,,,,D004,visual,1,[],"['1', '2', '3', '4']",1,2023.2.3,harveyvisual,2.1,[],8,0.75,
9,dot,0.3,['dot'],['density'],black,0,164,164,164,,,59.800222873687744,59.51929688453674,59.819326877593994,dot,"[0.1, 0.1, 0.06, 0.08, 0.06, 0.08, 0.1, 0.08, 0.1]","[[0.5571797577834091, 0.07732674165650813], [0.16332656704353227, -0.09331314560094064], [0.4138178119161903, 0.3925230053806507], [0.28711316854655766, 0.07147022394212545], [0.052100496024031176, 0.3810199549023822], [0.2172039135420496, 0.26337040755706287], [-0.2646845915772586, 0.12849707234668142], [0.21844181080216274, 0.4926952285236599], [0.0761275456309072, 0.11718001140956479]]",density,black,,,D004,visual,1,[],"['1', '2', '3', '4']",1,2023.2.3,harveyvisual,2.1,[],8,0.75,
0,pause,0.4,None,None,None,0,165,165,165,,,,,,,,,,,,,D004,visual,1,[],"['1', '2', '3', '4']",1,2023.2.3,harveyvisual,2.1,[],8,0.75,
9,dot,0.3,['dot'],['density'],black,0,166,166,166,,,60.5002338886261,60.21928787231445,60.51927185058594,dot,"[0.06, 0.06, 0.06, 0.06, 0.06, 0.06, 0.06, 0.08, 0.1]","[[0.08964926938552661, 0.05394775442474662], [0.013667798857315082, 0.3651287039276397], [-0.3518235196438996, 0.4482863301015001], [0.0843039828244993, 0.5528122926054443], [-0.16049547673848438, 0.0730005648255046], [-0.2144141911430125, 0.27623828598157274], [0.3465547907671387, 0.0307758660088046], [-0.13596480001028877, 0.5242376261272882], [0.2304522598158348, 0.3521277948761275]]",density,black,,,D004,visual,1,[],"['1', '2', '3', '4']",1,2023.2.3,harveyvisual,2.1,[],8,0.75,
0,pause,0.4,None,None,None,0,167,167,167,,,,,,,,,,,,,D004,visual,1,[],"['1', '2', '3', '4']",1,2023.2.3,harveyvisual,2.1,[],8,0.75,
8,dot,0.3,['dot'],['density'],black,0,168,168,168,,,61.200225830078125,60.919111013412476,61.219242811203,dot,"[0.06, 0.08, 0.08, 0.06, 0.1, 0.08, 0.06, 0.06]","[[-0.17382250058115215, 0.008030820220576582], [-0.5561520679887834, 0.09064024109159684], [-0.2322770524578434, -0.18818443710846813], [-0.41357291590276396, -0.2905316508268561], [-0.37423053416790164, -0.04064357687765813], [-0.014699175284411378, 0.15059198662288528], [-0.015485985535575739, -0.1348843831724925], [-0.36639977644872057, 0.228205681233079]]",density,black,,,D004,visual,1,[],"['1', '2', '3', '4']",1,2023.2.3,harveyvisual,2.1,[],8,0.75,
0,pause,0.4,None,None,None,0,169,169,169,,,,,,,,,,,,,D004,visual,1,[],"['1', '2', '3', '4']",1,2023.2.3,harveyvisual,2.1,[],8,0.75,
8,dot,0.3,['dot'],['density'],white,0,170,170,170,,,61.900230884552,61.61926293373108,61.91912293434143,dot,"[0.1, 0.1, 0.06, 0.08, 0.08, 0.06, 0.1, 0.06]","[[-0.21605400050023119, -0.36806604112140096], [-0.4331556331222778, 0.1336594927324191], [-0.3157474098875971, -0.1371073420352747], [-0.10064365538588134, -0.10053754910436148], [0.10862445751928086, -0.04115753002163663], [-0.19663983546434133, 0.09424647547905109], [-0.5379272585723496, -0.06117038891009633], [0.023355790718173546, -0.2955553217846553]]",density,white,,,D004,visual,1,[],"['1', '2', '3', '4']",1,2023.2.3,harveyvisual,2.1,[],8,0.75,
0,pause,0.4,None,None,None,0,171,171,171,,,,,,,,,,,1,62.07180905342102,D004,visual,1,[],"['1', '2', '3', '4']",1,2023.2.3,harveyvisual,2.1,[],8,0.75,
8,dot,0.3,['dot'],['density'],black,0,172,172,172,,,62.60023498535156,62.319236040115356,62.61921191215515,dot,"[0.08, 0.06, 0.1, 0.08, 0.08, 0.1, 0.08, 0.06]","[[-0.16499387414028463, -0.418455346753131], [0.031011941373623824, -0.006148034068666969], [-0.4150712424924157, -0.28668557629476243], [-0.199054958380199, -0.21375968732837633], [-0.4870789535587041, 0.00515905815181239], [-0.198479811208303, 0.006815000109153054], [-0.3273741662815474, 0.19008037141614484], [0.04340096687518584, -0.25044408321713213]]",density,black,,,D004,visual,1,[],"['1', '2', '3', '4']",1,2023.2.3,harveyvisual,2.1,[],8,0.75,
0,pause,0.4,None,None,None,0,173,173,173,,,,,,,,,,,,,D004,visual,1,[],"['1', '2', '3', '4']",1,2023.2.3,harveyvisual,2.1,[],8,0.75,
8,dot,0.3,['dot'],['density'],black,0,174,174,174,,,63.30023503303528,63.01921200752258,63.31908297538757,dot,"[0.06, 0.06, 0.06, 0.06, 0.1, 0.06, 0.08, 0.08]","[[0.12411109391386341, -0.5343823995123961], [-0.21238427398525783, -0.3197389486612228], [-0.06551876445787266, 0.032183079599910736], [0.22034046694826517, 0.05676208929132721], [0.31747551588691986, -0.13046885784073625], [0.01834943727978222, -0.34316474661021057], [0.10776215616131694, -0.12386070969881222], [-0.2386971922539417, -0.09256206635527232]]",density,black,,,D004,visual,1,[],"['1', '2', '3', '4']",1,2023.2.3,harveyvisual,2.1,[],8,0.75,
0,pause,0.4,None,None,None,0,175,175,175,,,,,,,,,,,,,D004,visual,1,[],"['1', '2', '3', '4']",1,2023.2.3,harveyvisual,2.1,[],8,0.75,
8,dot,0.3,['dot'],['density'],black,0,176,176,176,,,64.00021696090698,63.71918082237244,64.01902985572815,dot,"[0.06, 0.06, 0.06, 0.08, 0.08, 0.1, 0.08, 0.1]","[[0.34834348934164344, -0.28812382596974456], [-0.10329597477015798, -0.5243874580500916], [0.11080732975293575, -0.39067626210733153], [-0.006800183936578442, -0.10390350920236302], [0.17453264242573352, -0.004648084789036161], [-0.11839138898177409, -0.2765800857961495], [-0.2122949223397977, -0.08354151726817095], [0.0010823045536620208, 0.09995244087301837]]",density,black,,,D004,visual,1,[],"['1', '2', '3', '4']",1,2023.2.3,harveyvisual,2.1,[],8,0.75,
0,pause,0.4,None,None,None,0,177,177,177,,,,,,,,,,,,,D004,visual,1,[],"['1', '2', '3', '4']",1,2023.2.3,harveyvisual,2.1,[],8,0.75,
8,dot,0.3,['dot'],['density'],black,0,178,178,178,,,64.70022797584534,64.41917991638184,64.71920204162598,dot,"[0.1, 0.08, 0.08, 0.1, 0.08, 0.1, 0.06, 0.08]","[[0.2715518471235014, -0.4245138665073026], [0.03602391524707561, -0.40638782213015096], [0.4828297141312073, -0.09119901312376678], [0.02835794216237903, 0.028275321652194735], [-0.0895445032969687, -0.19822740391127236], [0.3178997883629752, 0.08245100984997318], [0.21920060966397442, -0.22342839817001514], [0.46807969757011175, -0.32427319705723295]]",density,black,,,D004,visual,1,[],"['1', '2', '3', '4']",1,2023.2.3,harveyvisual,2.1,[],8,0.75,
0,pause,0.4,None,None,None,0,179,179,179,,,,,,,,,,,,,D004,visual,1,[],"['1', '2', '3', '4']",1,2023.2.3,harveyvisual,2.1,[],8,0.75,
7,dot,0.3,['dot'],['density'],black,0,180,180,180,,,65.40021681785583,65.11914682388306,65.41914701461792,dot,"[0.1, 0.08, 0.1, 0.1, 0.06, 0.1, 0.1]","[[-0.3242652666020733, -0.24505345323409705], [-0.563286395470885, 0.11160295583497896], [-0.1647097641571906, 0.12111961656459011], [-0.36052488434271157, 0.18805397786199418], [-0.09510517377503278, -0.06720219285628748], [-0.3867432997129629, -0.05120750304069932], [-0.32798962767594847, 0.38554234766764234]]",density,black,,,D004,visual,1,[],"['1', '2', '3', '4']",1,2023.2.3,harveyvisual,2.1,[],8,0.75,
0,pause,0.4,None,None,None,0,181,181,181,,,,,,,,,,,,,D004,visual,1,[],"['1', '2', '3', '4']",1,2023.2.3,harveyvisual,2.1,[],8,0.75,
7,dot,0.3,['dot'],['density'],white,0,182,182,182,,,66.10020899772644,65.81897592544556,66.11897087097168,dot,"[0.06, 0.06, 0.06, 0.08, 0.1, 0.1, 0.06]","[[0.13823229125104186, -0.11287424625882309], [-0.082914425993103, 0.43156227464827385], [0.30107400633957315, 0.2583336012722512], [-0.1103107855725706, 0.20298726112520996], [0.37862923877470095, 0.05664428164281185], [0.10057609128089995, 0.3089177590539603], [0.1009283971288976, 0.1061295027106774]]",density,white,,,D004,visual,1,[],"['1', '2', '3', '4']",1,2023.2.3,harveyvisual,2.1,[],8,0.75,
0,pause,0.4,None,None,None,0,183,183,183,,,,,,,,,,,1,66.37530899047852,D004,visual,1,[],"['1', '2', '3', '4']",1,2023.2.3,harveyvisual,2.1,[],8,0.75,
7,dot,0.3,['dot'],['density'],black,0,184,184,184,,,66.80021286010742,66.51911091804504,66.81911993026733,dot,"[0.1, 0.08, 0.1, 0.1, 0.06, 0.08, 0.06]","[[-0.3242652666020733, -0.24505345323409705], [-0.563286395470885, 0.11160295583497896], [-0.1647097641571906, 0.12111961656459011], [-0.36052488434271157, 0.18805397786199418], [-0.09510517377503278, -0.06720219285628748], [-0.3867432997129629, -0.05120750304069932], [-0.32798962767594847, 0.38554234766764234]]",density,black,,,D004,visual,1,[],"['1', '2', '3', '4']",1,2023.2.3,harveyvisual,2.1,[],8,0.75,
0,pause,0.4,None,None,None,0,185,185,185,,,,,,,,,,,,,D004,visual,1,[],"['1', '2', '3', '4']",1,2023.2.3,harveyvisual,2.1,[],8,0.75,
7,dot,0.3,['dot'],['density'],black,0,186,186,186,,,67.50022387504578,67.2190899848938,67.51907682418823,dot,"[0.1, 0.06, 0.08, 0.06, 0.06, 0.1, 0.1]","[[0.020512593940644967, 0.06058225053891463], [-0.12457192929091994, 0.22210134043855223], [0.2267676360835929, 0.07227077176864677], [-0.19381219694833235, -0.14277017550647156], [0.096077147208419, -0.13886261858003718], [0.087393672000005, 0.26445259248386815], [-0.018663113410245565, 0.4344684582511623]]",density,black,,,D004,visual,1,[],"['1', '2', '3', '4']",1,2023.2.3,harveyvisual,2.1,[],8,0.75,
0,pause,0.4,None,None,None,0,187,187,187,,,,,,,,,,,,,D004,visual,1,[],"['1', '2', '3', '4']",1,2023.2.3,harveyvisual,2.1,[],8,0.75,
7,dot,0.3,['dot'],['density'],black,0,188,188,188,,,68.20022392272949,67.91907382011414,68.21907496452332,dot,"[0.08, 0.06, 0.06, 0.06, 0.06, 0.06, 0.08]","[[-0.2822174821233986, 0.002117056236134186], [-0.10673242512413421, 0.4781556216085482], [-0.18432519539246728, 0.19072201575640843], [-0.4524596318479574, 0.13966285650530724], [0.06907010423411483, 0.2912708813513049], [-0.07412436007020941, -0.021022205933558278], [-0.3208835015251209, 0.3986768431743725]]",density,black,,,D004,visual,1,[],"['1', '2', '3', '4']",1,2023.2.3,harveyvisual,2.1,[],8,0.75,
0,pause,0.4,None,None,None,0,189,189,189,,,,,,,,,,,,,D004,visual,1,[],"['1', '2', '3', '4']",1,2023.2.3,harveyvisual,2.1,[],8,0.75,
7,dot,0.3,['dot'],['density'],black,0,190,190,190,,,68.90021681785583,68.6190550327301,68.91903591156006,dot,"[0.06, 0.08, 0.08, 0.08, 0.06, 0.06, 0.06]","[[-0.27819289690075527, 0.2483046813246476], [-0.5592260237138849, -0.07980801324287977], [-0.026637344717372308, -0.10521889364121585], [-0.16909952645659185, 0.05101222878256789], [-0.21868546305501066, -0.16482274839932262], [-0.3689572500107929, 0.03738969849335829], [-0.49227831811218986, 0.2063327632277477]]",density,black,,,D004,visual,1,[],"['1', '2', '3', '4']",1,2023.2.3,harveyvisual,2.1,[],8,0.75,
0,pause,0.4,None,None,None,0,191,191,191,,,,,,,,,,,,,D004,visual,1,[],"['1', '2', '3', '4']",1,2023.2.3,harveyvisual,2.1,[],8,0.75,
6,dot,0.3,['dot'],['density'],black,0,192,192,192,,,69.60023283958435,69.31888604164124,69.61885595321655,dot,"[0.08, 0.06, 0.06, 0.1, 0.06, 0.1]","[[0.2333794889108542, 0.5108688068097712], [0.17720399199515413, 0.06488002481085814], [0.3526024925964592, 0.16961020277143707], [0.1596713132306006, 0.321837067503818], [0.0007438407140586783, 0.18344495120876914], [0.42757463853404776, 0.37786691715169374]]",density,black,,,D004,visual,1,[],"['1', '2', '3', '4']",1,2023.2.3,harveyvisual,2.1,[],8,0.75,
0,pause,0.4,None,None,None,0,193,193,193,,,,,,,,,,,,,D004,visual,1,[],"['1', '2', '3', '4']",1,2023.2.3,harveyvisual,2.1,[],8,0.75,
6,dot,0.3,['dot'],['density'],black,0,194,194,194,,,70.3002359867096,70.01884603500366,70.31884098052979,dot,"[0.08, 0.06, 0.08, 0.1, 0.08, 0.06]","[[-0.06594826066790033, 0.1051940440944823], [0.15491437476435005, 0.24610541937573027], [-0.07004887042171212, 0.3755397070333221], [0.22920853754483062, 0.04629278748534093], [0.14611265926610215, 0.46549762069565603], [0.352938231914746, 0.33060025924169734]]",density,black,,,D004,visual,1,[],"['1', '2', '3', '4']",1,2023.2.3,harveyvisual,2.1,[],8,0.75,
0,pause,0.4,None,None,None,0,195,195,195,,,,,,,,,,,,,D004,visual,1,[],"['1', '2', '3', '4']",1,2023.2.3,harveyvisual,2.1,[],8,0.75,
6,dot,0.3,['dot'],['density'],black,0,196,196,196,,,71.00021886825562,70.71887183189392,71.01901197433472,dot,"[0.08, 0.1, 0.06, 0.08, 0.08, 0.08]","[[-0.21871154593458392, 0.523205648483303], [-0.10311842393244862, 0.3355489225101837], [0.008055670172287269, 0.5366903261171385], [0.1303263863168633, 0.3782575370349718], [0.03185769749340688, 0.17145177849191712], [-0.2810167974491763, 0.15418865533644557]]",density,black,,,D004,visual,1,[],"['1', '2', '3', '4']",1,2023.2.3,harveyvisual,2.1,[],8,0.75,
0,pause,0.4,None,None,None,0,197,197,197,,,,,,,,,,,,,D004,visual,1,[],"['1', '2', '3', '4']",1,2023.2.3,harveyvisual,2.1,[],8,0.75,
6,dot,0.3,['dot'],['density'],black,0,198,198,198,,,71.70022583007812,71.41899681091309,71.71898102760315,dot,"[0.06, 0.1, 0.08, 0.1, 0.06, 0.06]","[[0.2333794889108542, 0.5108688068097712], [0.17720399199515413, 0.06488002481085814], [0.3526024925964592, 0.16961020277143707], [0.1596713132306006, 0.321837067503818], [0.0007438407140586783, 0.18344495120876914], [0.42757463853404776, 0.37786691715169374]]",density,black,,,D004,visual,1,[],"['1', '2', '3', '4']",1,2023.2.3,harveyvisual,2.1,[],8,0.75,
0,pause,0.4,None,None,None,0,199,199,199,,,,,,,,,,,,,D004,visual,1,[],"['1', '2', '3', '4']",1,2023.2.3,harveyvisual,2.1,[],8,0.75,
6,dot,0.3,['dot'],['density'],black,0,200,200,200,,,72.40022802352905,72.11881995201111,72.41897392272949,dot,"[0.06, 0.1, 0.1, 0.06, 0.06, 0.08]","[[-0.3078382271761739, 0.4361778186671046], [-0.059169983783578364, 0.44796520308269433], [-0.3209935464877752, 0.22545519901795916], [-0.10826469778565927, 0.24929594343002343], [-0.016554185736113114, 0.06783813438016018], [-0.29360476626160575, 0.00756342739423081]]",density,black,,,D004,visual,1,[],"['1', '2', '3', '4']",1,2023.2.3,harveyvisual,2.1,[],8,0.75,
0,pause,0.4,None,None,None,0,201,201,201,,,,,,,,,,,,,D004,visual,1,[],"['1', '2', '3', '4']",1,2023.2.3,harveyvisual,2.1,[],8,0.75,
6,dot,0.3,['dot'],['density'],black,0,202,202,202,,,73.1002140045166,72.81880402565002,73.11895203590393,dot,"[0.1, 0.1, 0.1, 0.1, 0.1, 0.06]","[[-0.4130096743352808, -0.09152271377164663], [-0.19778223104980006, -0.03862987845790588], [-0.5782793278508197, 0.04067119283421001], [-0.2942915267906656, -0.3673297053134895], [-0.33560074172492643, 0.119885218799542], [-0.5263932498355091, -0.25924495598585295]]",density,black,,,D004,visual,1,[],"['1', '2', '3', '4']",1,2023.2.3,harveyvisual,2.1,[],8,0.75,
0,pause,0.4,None,None,None,0,203,203,203,,,,,,,,,,,,,D004,visual,1,[],"['1', '2', '3', '4']",1,2023.2.3,harveyvisual,2.1,[],8,0.75,
5,dot,0.3,['dot'],['density'],white,0,204,204,204,,,73.80022883415222,73.51892900466919,73.81893181800842,dot,"[0.06, 0.1, 0.1, 0.06, 0.1]","[[-0.19096480170835262, 0.2202776521134577], [0.009488999043989208, 0.5721548226574139], [0.16477125949827795, 0.3732973518003487], [0.07476286221063107, 0.1476230553836633], [-0.051949696108355745, 0.36609537475325354]]",density,white,,,D004,visual,1,[],"['1', '2', '3', '4']",1,2023.2.3,harveyvisual,2.1,[],8,0.75,
0,pause,0.4,None,None,None,0,205,205,205,,,,,,,,,,,1,73.8392481803894,D004,visual,1,[],"['1', '2', '3', '4']",1,2023.2.3,harveyvisual,2.1,[],8,0.75,
5,dot,0.3,['dot'],['density'],black,0,206,206,206,,,74.50022792816162,74.21891498565674,74.51890802383423,dot,"[0.08, 0.1, 0.1, 0.06, 0.1]","[[0.11182935554897071, 0.3084500478813638], [0.20284409002608467, 0.5199666233992849], [0.31882748915707354, 0.1252782162051447], [0.39083404861423326, 0.3494221689807338], [0.1196046891632849, 0.10173499350566408]]",density,black,,,D004,visual,1,[],"['1', '2', '3', '4']",1,2023.2.3,harveyvisual,2.1,[],8,0.75,
0,pause,0.4,None,None,None,0,207,207,207,,,,,,,,,,,,,D004,visual,1,[],"['1', '2', '3', '4']",1,2023.2.3,harveyvisual,2.1,[],8,0.75,
5,dot,0.3,['dot'],['density'],black,0,208,208,208,,,75.20022583007812,74.91876292228699,75.21890592575073,dot,"[0.1, 0.06, 0.1, 0.1, 0.06]","[[-0.0036269740154891753, 0.5431219823242713], [-0.2646325594942043, 0.5073179604697073], [-0.41902475937036154, 0.37311436690984484], [-0.007163214206743488, 0.2887893175302695], [-0.2156098228659233, 0.2684642371109035]]",density,black,,,D004,visual,1,[],"['1', '2', '3', '4']",1,2023.2.3,harveyvisual,2.1,[],8,0.75,
0,pause,0.4,None,None,None,0,209,209,209,,,,,,,,,,,,,D004,visual,1,[],"['1', '2', '3', '4']",1,2023.2.3,harveyvisual,2.1,[],8,0.75,
5,dot,0.3,['dot'],['density'],black,0,210,210,210,,,75.90021896362305,75.61872291564941,75.91891193389893,dot,"[0.08, 0.1, 0.06, 0.06, 0.08]","[[-0.006164932418690097, -0.4528126201229341], [-0.1681524682570009, -0.11721653268637569], [-0.1959903964051736, -0.3710708837277218], [0.03544926667602863, -0.1302589477940128], [0.16830580561999814, -0.32298356607012285]]",density,black,,,D004,visual,1,[],"['1', '2', '3', '4']",1,2023.2.3,harveyvisual,2.1,[],8,0.75,
0,pause,0.4,None,None,None,0,211,211,211,,,,,,,,,,,,,D004,visual,1,[],"['1', '2', '3', '4']",1,2023.2.3,harveyvisual,2.1,[],8,0.75,
5,dot,0.3,['dot'],['density'],white,0,212,212,212,,,76.6002299785614,76.31885981559753,76.61870193481445,dot,"[0.1, 0.1, 0.08, 0.06, 0.1]","[[0.33660852042816714, -0.448935078303268], [0.16237328695183198, -0.028906365321866932], [0.003149504206933677, -0.1844463225559013], [0.4065340125681681, -0.22407981263326276], [0.20027486954239768, -0.2346061295568129]]",density,white,,,D004,visual,1,[],"['1', '2', '3', '4']",1,2023.2.3,harveyvisual,2.1,[],8,0.75,
0,pause,0.4,None,None,None,0,213,213,213,,,,,,,,,,,1,76.73275017738342,D004,visual,1,[],"['1', '2', '3', '4']",1,2023.2.3,harveyvisual,2.1,[],8,0.75,
5,dot,0.3,['dot'],['density'],black,0,214,214,214,,,77.30022501945496,77.01868391036987,77.31869983673096,dot,"[0.1, 0.08, 0.08, 0.08, 0.1]","[[-0.416197921377668, -0.28619329865683824], [-0.20866628843358032, -0.3460647126262422], [-0.5570429559765239, -0.05989317214741584], [-0.28028983240144106, -0.12146425093182346], [-0.3531870384577651, 0.07845006904085886]]",density,black,,,D004,visual,1,[],"['1', '2', '3', '4']",1,2023.2.3,harveyvisual,2.1,[],8,0.75,
0,pause,0.4,None,None,None,0,215,215,215,,,,,,,,,,,,,D004,visual,1,[],"['1', '2', '3', '4']",1,2023.2.3,harveyvisual,2.1,[],8,0.75,
4,dot,0.3,['dot'],['density'],black,0,216,216,216,,,78.00023698806763,77.71881604194641,78.01867389678955,dot,"[0.06, 0.08, 0.08, 0.1]","[[0.14909032788103166, -0.4768554918693636], [0.26071220381864263, -0.20018841858473793], [0.02634252458519163, -0.30967292471165575], [0.3541358554053611, -0.43808560323820217]]",density,black,,,D004,visual,1,[],"['1', '2', '3', '4']",1,2023.2.3,harveyvisual,2.1,[],8,0.75,
0,pause,0.4,None,None,None,0,217,217,217,,,,,,,,,,,,,D004,visual,1,[],"['1', '2', '3', '4']",1,2023.2.3,harveyvisual,2.1,[],8,0.75,
4,dot,0.3,['dot'],['density'],black,0,218,218,218,,,78.70023703575134,78.4187958240509,78.7187910079956,dot,"[0.08, 0.1, 0.1, 0.1]","[[0.15462156444594843, 0.0379601134824338], [-0.046642739949193296, 0.06510400621286498], [0.12320708371464141, 0.2499967514902957], [-0.13279798436850673, 0.2624558601457805]]",density,black,,,D004,visual,1,[],"['1', '2', '3', '4']",1,2023.2.3,harveyvisual,2.1,[],8,0.75,
0,pause,0.4,None,None,None,0,219,219,219,,,,,,,,,,,,,D004,visual,1,[],"['1', '2', '3', '4']",1,2023.2.3,harveyvisual,2.1,[],8,0.75,
4,dot,0.3,['dot'],['density'],black,0,220,220,220,,,79.4002149105072,79.11878895759583,79.41878700256348,dot,"[0.1, 0.1, 0.08, 0.06]","[[-0.43942495523079517, -0.22401056498097033], [-0.009260832099230759, -0.1633376679159051], [-0.21598309108097546, -0.10172603009605206], [-0.2278206133413005, -0.33154874685782076]]",density,black,,,D004,visual,1,[],"['1', '2', '3', '4']",1,2023.2.3,harveyvisual,2.1,[],8,0.75,
0,pause,0.4,None,None,None,0,221,221,221,,,,,,,,,,,,,D004,visual,1,[],"['1', '2', '3', '4']",1,2023.2.3,harveyvisual,2.1,[],8,0.75,
4,dot,0.3,['dot'],['density'],black,0,222,222,222,,,80.1002140045166,79.81881403923035,80.11878895759583,dot,"[0.08, 0.1, 0.08, 0.1]","[[-0.3884818304242726, 0.11421243679268873], [-0.11472928134965246, -0.13141119473891247], [-0.1657593024508462, 0.13368900033666462], [-0.36655717599886073, -0.10387254737714131]]",density,black,,,D004,visual,1,[],"['1', '2', '3', '4']",1,2023.2.3,harveyvisual,2.1,[],8,0.75,
0,pause,0.4,None,None,None,0,223,223,223,,,,,,,,,,,,,D004,visual,1,[],"['1', '2', '3', '4']",1,2023.2.3,harveyvisual,2.1,[],8,0.75,
4,dot,0.3,['dot'],['density'],black,0,224,224,224,,,80.80022692680359,80.51861381530762,80.81859493255615,dot,"[0.1, 0.08, 0.06, 0.06]","[[0.2593869086993074, -0.26887741013308497], [0.09674879007849839, -0.39609983087723066], [-0.011093693993988496, -0.14004324908426333], [0.28630805459639813, -0.4681830009867555]]",density,black,,,D004,visual,1,[],"['1', '2', '3', '4']",1,2023.2.3,harveyvisual,2.1,[],8,0.75,
0,pause,0.4,None,None,None,0,225,225,225,,,,,,,,,,,,,D004,visual,1,[],"['1', '2', '3', '4']",1,2023.2.3,harveyvisual,2.1,[],8,0.75,
4,dot,0.3,['dot'],['density'],black,0,226,226,226,,,81.50023603439331,81.21880388259888,81.51856398582458,dot,"[0.06, 0.1, 0.1, 0.1]","[[-0.3884818304242726, 0.11421243679268873], [-0.11472928134965246, -0.13141119473891247], [-0.1657593024508462, 0.13368900033666462], [-0.36655717599886073, -0.10387254737714131]]",density,black,,,D004,visual,1,[],"['1', '2', '3', '4']",1,2023.2.3,harveyvisual,2.1,[],8,0.75,
0,pause,0.4,None,None,None,0,227,227,227,,,,,,,,,,,,,D004,visual,1,[],"['1', '2', '3', '4']",1,2023.2.3,harveyvisual,2.1,[],8,0.75,
3,dot,0.3,['dot'],['density'],black,0,228,228,228,,,82.20023703575134,81.91880798339844,82.21882200241089,dot,"[0.08, 0.08, 0.06]","[[0.2656832518280197, 0.0014864193765316018], [0.3503107158811183, -0.1826455867164705], [0.5188928509039705, -0.04177453376365527]]",density,black,,,D004,visual,1,[],"['1', '2', '3', '4']",1,2023.2.3,harveyvisual,2.1,[],8,0.75,
0,pause,0.4,None,None,None,0,229,229,229,,,,,,,,,,,,,D004,visual,1,[],"['1', '2', '3', '4']",1,2023.2.3,harveyvisual,2.1,[],8,0.75,
3,dot,0.3,['dot'],['density'],black,0,230,230,230,,,82.90022301673889,82.61871600151062,82.91870284080505,dot,"[0.08, 0.08, 0.08]","[[-0.32624451712468355, -0.43854848545497693], [-0.39409142490376414, -0.22516425170789148], [-0.152352104904091, -0.33204091051628687]]",density,black,,,D004,visual,1,[],"['1', '2', '3', '4']",1,2023.2.3,harveyvisual,2.1,[],8,0.75,
0,pause,0.4,None,None,None,0,231,231,231,,,,,,,,,,,,,D004,visual,1,[],"['1', '2', '3', '4']",1,2023.2.3,harveyvisual,2.1,[],8,0.75,
3,dot,0.3,['dot'],['density'],white,0,232,232,232,,,83.6002299785614,83.31854891777039,83.6186900138855,dot,"[0.06, 0.1, 0.1]","[[-0.1599523582230929, -0.020289166781496174], [-0.3458010015304564, -0.14250622038001895], [-0.3538668896253721, 0.08903610231223419]]",density,white,,,D004,visual,1,[],"['1', '2', '3', '4']",1,2023.2.3,harveyvisual,2.1,[],8,0.75,
0,pause,0.4,None,None,None,0,233,233,233,,,,,,,,,,,1,83.84359622001648,D004,visual,1,[],"['1', '2', '3', '4']",1,2023.2.3,harveyvisual,2.1,[],8,0.75,
3,dot,0.3,['dot'],['density'],black,0,234,234,234,,,84.30021786689758,84.01852083206177,84.31868290901184,dot,"[0.08, 0.06, 0.06]","[[0.06695044750400271, -0.4036822973150869], [0.2898428615912539, -0.43752325319744867], [0.2484486434572057, -0.2241911098289173]]",density,black,,,D004,visual,1,[],"['1', '2', '3', '4']",1,2023.2.3,harveyvisual,2.1,[],8,0.75,
0,pause,0.4,None,None,None,0,235,235,235,,,,,,,,,,,,,D004,visual,1,[],"['1', '2', '3', '4']",1,2023.2.3,harveyvisual,2.1,[],8,0.75,
3,dot,0.3,['dot'],['density'],black,0,236,236,236,,,85.00023293495178,84.7186930179596,85.01848483085632,dot,"[0.06, 0.1, 0.1]","[[0.48628142840140876, 0.1515230430224543], [0.28796188866220057, 0.19625725416133796], [0.3371406364253883, -0.002661880310138811]]",density,black,,,D004,visual,1,[],"['1', '2', '3', '4']",1,2023.2.3,harveyvisual,2.1,[],8,0.75,
0,pause,0.4,None,None,None,0,237,237,237,,,,,,,,,,,,,D004,visual,1,[],"['1', '2', '3', '4']",1,2023.2.3,harveyvisual,2.1,[],8,0.75,
3,dot,0.3,['dot'],['density'],black,0,238,238,238,,,85.70021986961365,85.41847395896912,85.71870183944702,dot,"[0.08, 0.06, 0.08]","[[0.4995185571857965, 0.14229679706320136], [0.2944600495073675, 0.23335097983198633], [0.330752226915583, 0.0299241169750933]]",density,black,,,D004,visual,1,[],"['1', '2', '3', '4']",1,2023.2.3,harveyvisual,2.1,[],8,0.75,
0,pause,0.4,None,None,None,0,239,239,239,,,,,,,,,,,,,D004,visual,1,[],"['1', '2', '3', '4']",1,2023.2.3,harveyvisual,2.1,[],8,0.75,
2,dot,0.3,['dot'],['density'],black,0,240,240,240,,,86.40021395683289,86.11871981620789,86.4187159538269,dot,"[0.06, 0.08]","[[-0.19482721327365293, -0.5079820576301489], [-0.36119809377872014, -0.396546877814361]]",density,black,,,D004,visual,1,[],"['1', '2', '3', '4']",1,2023.2.3,harveyvisual,2.1,[],8,0.75,
0,pause,0.4,None,None,None,0,241,241,241,,,,,,,,,,,,,D004,visual,1,[],"['1', '2', '3', '4']",1,2023.2.3,harveyvisual,2.1,[],8,0.75,
2,dot,0.3,['dot'],['density'],black,0,242,242,242,,,87.1002140045166,86.81844091415405,87.11857295036316,dot,"[0.08, 0.08]","[[0.06661886780735636, -0.3109770134588511], [-0.03502229105109153, -0.4833380692870097]]",density,black,,,D004,visual,1,[],"['1', '2', '3', '4']",1,2023.2.3,harveyvisual,2.1,[],8,0.75,
0,pause,0.4,None,None,None,0,243,243,243,,,,,,,,,,,,,D004,visual,1,[],"['1', '2', '3', '4']",1,2023.2.3,harveyvisual,2.1,[],8,0.75,
2,dot,0.3,['dot'],['density'],black,0,244,244,244,,,87.80021286010742,87.5184268951416,87.81856298446655,dot,"[0.06, 0.1]","[[0.45098141687762733, -0.20237638590572143], [0.5433504117931098, -0.02475258047346216]]",density,black,,,D004,visual,1,[],"['1', '2', '3', '4']",1,2023.2.3,harveyvisual,2.1,[],8,0.75,
0,pause,0.4,None,None,None,0,245,245,245,,,,,,,,,,,,,D004,visual,1,[],"['1', '2', '3', '4']",1,2023.2.3,harveyvisual,2.1,[],8,0.75,
2,dot,0.3,['dot'],['density'],black,0,246,246,246,,,88.50022196769714,88.21856784820557,88.51880383491516,dot,"[0.1, 0.08]","[[0.4162662019019998, 0.09129510669171749], [0.33420900269466314, 0.27427456354974017]]",density,black,,,D004,visual,1,[],"['1', '2', '3', '4']",1,2023.2.3,harveyvisual,2.1,[],8,0.75,
0,pause,0.4,None,None,None,0,247,247,247,,,,,,,,,,,,,D004,visual,1,[],"['1', '2', '3', '4']",1,2023.2.3,harveyvisual,2.1,[],8,0.75,
2,dot,0.3,['dot'],['density'],black,0,248,248,248,,,89.20022487640381,88.91840100288391,89.21837091445923,dot,"[0.06, 0.1]","[[-0.3970652553054307, 0.36151140161898554], [-0.22306532646831484, 0.26288994227005946]]",density,black,,,D004,visual,1,[],"['1', '2', '3', '4']",1,2023.2.3,harveyvisual,2.1,[],8,0.75,
0,pause,0.4,None,None,None,0,249,249,249,,,,,,,,,,,,,D004,visual,1,[],"['1', '2', '3', '4']",1,2023.2.3,harveyvisual,2.1,[],8,0.75,
2,dot,0.3,['dot'],['density'],black,0,250,250,250,,,89.90021395683289,89.61853003501892,89.9185118675232,dot,"[0.06, 0.08]","[[-0.40295961353468523, -0.33947470962363085], [-0.23663605411983973, -0.22749761394439932]]",density,black,,,D004,visual,1,[],"['1', '2', '3', '4']",1,2023.2.3,harveyvisual,2.1,[],8,0.75,
0,pause,0.4,None,None,None,0,251,251,251,,,,,,,,,,,,,D004,visual,1,[],"['1', '2', '3', '4']",1,2023.2.3,harveyvisual,2.1,[],8,0.75,
1,dot,0.3,['dot'],['density'],white,0,252,252,252,,,90.60023999214172,90.31836485862732,90.618332862854,dot,[0.08],"[-0.13294789447644317, -0.0050084293737640015]",density,white,,,D004,visual,1,[],"['1', '2', '3', '4']",1,2023.2.3,harveyvisual,2.1,[],8,0.75,
0,pause,0.4,None,None,None,0,253,253,253,,,,,,,,,,,1,90.71339321136475,D004,visual,1,[],"['1', '2', '3', '4']",1,2023.2.3,harveyvisual,2.1,[],8,0.75,
1,dot,0.3,['dot'],['density'],black,0,254,254,254,,,91.30023097991943,91.01832580566406,91.31846880912781,dot,[0.06],"[0.39967490259390637, -0.2576437183111264]",density,black,,,D004,visual,1,[],"['1', '2', '3', '4']",1,2023.2.3,harveyvisual,2.1,[],8,0.75,
0,pause,0.4,None,None,None,0,255,255,255,,,,,,,,,,,,,D004,visual,1,[],"['1', '2', '3', '4']",1,2023.2.3,harveyvisual,2.1,[],8,0.75,
1,dot,0.3,['dot'],['density'],black,0,256,256,256,,,92.00021886825562,91.71847486495972,92.01829385757446,dot,[0.06],"[-0.31757534052014, 0.30709612076893067]",density,black,,,D004,visual,1,[],"['1', '2', '3', '4']",1,2023.2.3,harveyvisual,2.1,[],8,0.75,
0,pause,0.4,None,None,None,0,257,257,257,,,,,,,,,,,,,D004,visual,1,[],"['1', '2', '3', '4']",1,2023.2.3,harveyvisual,2.1,[],8,0.75,
1,dot,0.3,['dot'],['density'],black,0,258,258,258,,,92.70023488998413,92.41843485832214,92.71842503547668,dot,[0.1],"[-0.13294789447644317, -0.0050084293737640015]",density,black,,,D004,visual,1,[],"['1', '2', '3', '4']",1,2023.2.3,harveyvisual,2.1,[],8,0.75,
0,pause,0.4,None,None,None,0,259,259,259,,,,,,,,,,,,,D004,visual,1,[],"['1', '2', '3', '4']",1,2023.2.3,harveyvisual,2.1,[],8,0.75,
1,dot,0.3,['dot'],['density'],black,0,260,260,260,,,93.40021085739136,93.11831998825073,93.41839981079102,dot,[0.06],"[0.01430498756481247, 0.36429701967127975]",density,black,,,D004,visual,1,[],"['1', '2', '3', '4']",1,2023.2.3,harveyvisual,2.1,[],8,0.75,
0,pause,0.4,None,None,None,0,261,261,261,,,,,,,,,,,,,D004,visual,1,[],"['1', '2', '3', '4']",1,2023.2.3,harveyvisual,2.1,[],8,0.75,
1,dot,0.3,['dot'],['density'],black,0,262,262,262,,,94.10023093223572,93.81827402114868,94.11839294433594,dot,[0.08],"[0.01430498756481247, 0.36429701967127975]",density,black,,,D004,visual,1,[],"['1', '2', '3', '4']",1,2023.2.3,harveyvisual,2.1,[],8,0.75,
0,pause,0.4,None,None,None,0,263,263,263,,,,,,,,,,,,,D004,visual,1,[],"['1', '2', '3', '4']",1,2023.2.3,harveyvisual,2.1,[],8,0.75,
20,dot,0.3,['dot'],['density'],black,0,264,264,264,,,94.80021786689758,94.51838397979736,94.81837487220764,dot,"[0.08, 0.06, 0.06, 0.06, 0.08, 0.1, 0.08, 0.08, 0.06, 0.06, 0.08, 0.06, 0.06, 0.1, 0.06, 0.08, 0.06, 0.1, 0.06, 0.1]","[[-0.21122759715278366, 0.4297329805361627], [0.371662290419175, -0.17898527794265723], [0.20584344984583758, 0.4612766906686201], [0.2976755739014978, 0.051194618670669434], [0.08483504436518896, -0.5278811400313109], [-0.06072468358266647, -0.11081334317369429], [-0.42839760483619627, 0.20749585017980005], [-0.40837097335689987, -0.3465692301714687], [-0.05768189509127564, 0.14601190752595838], [-0.01360161382157088, 0.3803724254641093], [-0.09603816795830655, -0.3878016610380577], [0.5724934484026506, -0.033698102502889266], [0.5656785730533328, 0.1754228530123903], [-0.5437217943343277, 0.0191491065322123], [-0.2819299759323077, -0.07806034934796235], [0.36027741078227227, -0.4553966523332937], [0.17922225095203348, -0.14055350666622035], [-0.5161267780669012, -0.17727161202169403], [0.40876508750160767, 0.28580404221465716], [0.09676617958779488, 0.03210797505260177]]",density,black,,,D004,visual,1,[],"['1', '2', '3', '4']",1,2023.2.3,harveyvisual,2.1,[],8,0.75,
0,pause,0.4,None,None,None,0,265,265,265,,,,,,,,,,,,,D004,visual,1,[],"['1', '2', '3', '4']",1,2023.2.3,harveyvisual,2.1,[],8,0.75,
20,dot,0.3,['dot'],['density'],black,0,266,266,266,,,95.50022101402283,95.21836400032043,95.51835584640503,dot,"[0.06, 0.08, 0.08, 0.06, 0.06, 0.08, 0.1, 0.1, 0.06, 0.1, 0.08, 0.1, 0.1, 0.08, 0.08, 0.1, 0.1, 0.08, 0.06, 0.1]","[[-0.43515039127656385, -0.2890458964451296], [-0.2413137763045558, 0.031148822266432008], [0.2210769543532778, 0.15317135469669318], [-0.01336232362952916, 0.12859930391624652], [-0.4495964975169253, 0.3176790214090294], [0.1922858498621558, -0.10672424474761955], [0.21932148610038182, -0.5614401255534328], [-0.03526352285046974, 0.5505559308403615], [0.02315411091161712, 0.36566882636573794], [0.06122544809347519, -0.34118359967068396], [0.5845096289533457, -0.006776329966938277], [0.4492837389989536, -0.3767291719358602], [0.5551389719057499, 0.2220939178603151], [-0.2007660212944548, -0.1804652841749913], [0.39780264264533416, -0.1454676306354034], [-0.5164776623574261, -0.08888181794579461], [-0.5550192766744617, 0.13644573344397973], [-0.3074854406190987, 0.5118759451436447], [0.16851985174201833, 0.5405575637976715], [0.34148753200372073, 0.4118003175113582]]",density,black,,,D004,visual,1,[],"['1', '2', '3', '4']",1,2023.2.3,harveyvisual,2.1,[],8,0.75,
0,pause,0.4,None,None,None,0,267,267,267,,,,,,,,,,,,,D004,visual,1,[],"['1', '2', '3', '4']",1,2023.2.3,harveyvisual,2.1,[],8,0.75,
