num,mod,duration,shape,ll_cond,colors,.thisRepN,.thisTrialN,.thisN,.thisIndex,thisRow.t,notes,raw_global_time,t_start,t_stop,shapes,size,pos,cond,color,button,RT,participant,session,starting_run,left button (match/odd),right button (non-match/even),samples_per_block,psychopy version,expName,offset,audio,number_runs,radius,
1,dot,0.3,['dot'],['density'],black,0,0,0,0,,,2.4001967906951904,2.102872848510742,2.402662992477417,dot,[0.08],"[-0.1989246115662565, -0.15069844343359862]",density,black,,,D004,visual,1,[],"['1', '2', '3', '4']",1,2023.2.3,harveyvisual,2.1,[],8,0.75,
0,pause,0.4,None,None,None,0,1,1,1,,,,,,,,,,,,,D004,visual,1,[],"['1', '2', '3', '4']",1,2023.2.3,harveyvisual,2.1,[],8,0.75,
1,dot,0.3,['dot'],['density'],black,0,2,2,2,,,3.100209951400757,2.802663803100586,3.1201019287109375,dot,[0.1],"[0.0038807231877187303, -0.2777732366953785]",density,black,,,D004,visual,1,[],"['1', '2', '3', '4']",1,2023.2.3,harveyvisual,2.1,[],8,0.75,
0,pause,0.4,None,None,None,0,3,3,3,,,,,,,,,,,,,D004,visual,1,[],"['1', '2', '3', '4']",1,2023.2.3,harveyvisual,2.1,[],8,0.75,
1,dot,0.3,['dot'],['density'],black,0,4,4,4,,,3.8001949787139893,3.503513813018799,3.819828987121582,dot,[0.06],"[-0.4519365434524677, 0.22287683068434597]",density,black,,,D004,visual,1,[],"['1', '2', '3', '4']",1,2023.2.3,harveyvisual,2.1,[],8,0.75,
0,pause,0.4,None,None,None,0,5,5,5,,,,,,,,,,,,,D004,visual,1,[],"['1', '2', '3', '4']",1,2023.2.3,harveyvisual,2.1,[],8,0.75,
1,dot,0.3,['dot'],['density'],black,0,6,6,6,,,4.50019383430481,4.203502893447876,4.519813776016235,dot,[0.06],"[-0.43105706563061386, -0.18359692062194616]",density,black,,,D004,visual,1,[],"['1', '2', '3', '4']",1,2023.2.3,harveyvisual,2.1,[],8,0.75,
0,pause,0.4,None,None,None,0,7,7,7,,,,,,,,,,,,,D004,visual,1,[],"['1', '2', '3', '4']",1,2023.2.3,harveyvisual,2.1,[],8,0.75,
1,dot,0.3,['dot'],['density'],black,0,8,8,8,,,5.2001988887786865,4.903474807739258,5.220030784606934,dot,[0.08],"[-0.045934412585722416, -0.12236734128406912]",density,black,,,D004,visual,1,[],"['1', '2', '3', '4']",1,2023.2.3,harveyvisual,2.1,[],8,0.75,
0,pause,0.4,None,None,None,0,9,9,9,,,,,,,,,,,,,D004,visual,1,[],"['1', '2', '3', '4']",1,2023.2.3,harveyvisual,2.1,[],8,0.75,
1,dot,0.3,['dot'],['density'],black,0,10,10,10,,,5.90018892288208,5.60346794128418,5.921128988265991,dot,[0.1],"[-0.1989246115662565, -0.15069844343359862]",density,black,,,D004,visual,1,[],"['1', '2', '3', '4']",1,2023.2.3,harveyvisual,2.1,[],8,0.75,
0,pause,0.4,None,None,None,0,11,11,11,,,,,,,,,,,,,D004,visual,1,[],"['1', '2', '3', '4']",1,2023.2.3,harveyvisual,2.1,[],8,0.75,
2,dot,0.3,['dot'],['density'],black,0,12,12,12,,,6.6002068519592285,6.304306983947754,6.621133804321289,dot,"[0.08, 0.08]","[[0.11437717294043931, -0.408092871188616], [0.012734947149558614, -0.23578585574018435]]",density,black,,,D004,visual,1,[],"['1', '2', '3', '4']",1,2023.2.3,harveyvisual,2.1,[],8,0.75,
0,pause,0.4,None,None,None,0,13,13,13,,,,,,,,,,,,,D004,visual,1,[],"['1', '2', '3', '4']",1,2023.2.3,harveyvisual,2.1,[],8,0.75,
2,dot,0.3,['dot'],['density'],black,0,14,14,14,,,7.300213813781738,7.004445791244507,7.3211047649383545,dot,"[0.06, 0.1]","[[0.45098141687762733, -0.20237638590572143], [0.5433504117931098, -0.02475258047346216]]",density,black,,,D004,visual,1,[],"['1', '2', '3', '4']",1,2023.2.3,harveyvisual,2.1,[],8,0.75,
0,pause,0.4,None,None,None,0,15,15,15,,,,,,,,,,,,,D004,visual,1,[],"['1', '2', '3', '4']",1,2023.2.3,harveyvisual,2.1,[],8,0.75,
2,dot,0.3,['dot'],['density'],black,0,16,16,16,,,8.00020694732666,7.70442795753479,8.021092891693115,dot,"[0.06, 0.08]","[[0.510744558366804, -0.07965895932329134], [0.5183014925016622, -0.2796299572401246]]",density,black,,,D004,visual,1,[],"['1', '2', '3', '4']",1,2023.2.3,harveyvisual,2.1,[],8,0.75,
0,pause,0.4,None,None,None,0,17,17,17,,,,,,,,,,,,,D004,visual,1,[],"['1', '2', '3', '4']",1,2023.2.3,harveyvisual,2.1,[],8,0.75,
2,dot,0.3,['dot'],['density'],black,0,18,18,18,,,8.700201988220215,8.404249906539917,8.721069812774658,dot,"[0.1, 0.1]","[[-0.22897676209827808, 0.468650264003531], [-0.0598036877009514, 0.5760211786176329]]",density,black,,,D004,visual,1,[],"['1', '2', '3', '4']",1,2023.2.3,harveyvisual,2.1,[],8,0.75,
0,pause,0.4,None,None,None,0,19,19,19,,,,,,,,,,,,,D004,visual,1,[],"['1', '2', '3', '4']",1,2023.2.3,harveyvisual,2.1,[],8,0.75,
2,dot,0.3,['dot'],['density'],black,0,20,20,20,,,9.40021276473999,9.104453802108765,9.421032905578613,dot,"[0.06, 0.1]","[[0.1851205616289071, -0.3624876981064337], [0.3405923022038234, -0.23608025195482504]]",density,black,,,D004,visual,1,[],"['1', '2', '3', '4']",1,2023.2.3,harveyvisual,2.1,[],8,0.75,
0,pause,0.4,None,None,None,0,21,21,21,,,,,,,,,,,,,D004,visual,1,[],"['1', '2', '3', '4']",1,2023.2.3,harveyvisual,2.1,[],8,0.75,
2,dot,0.3,['dot'],['density'],black,0,22,22,22,,,10.10020899772644,9.804463863372803,10.121028900146484,dot,"[0.1, 0.08]","[[-0.020654750029313704, 0.3891656546739414], [-0.0007759068931318763, 0.19000611836641118]]",density,black,,,D004,visual,1,[],"['1', '2', '3', '4']",1,2023.2.3,harveyvisual,2.1,[],8,0.75,
0,pause,0.4,None,None,None,0,23,23,23,,,,,,,,,,,,,D004,visual,1,[],"['1', '2', '3', '4']",1,2023.2.3,harveyvisual,2.1,[],8,0.75,
3,dot,0.3,['dot'],['density'],black,0,24,24,24,,,10.800192832946777,10.504225969314575,10.821039915084839,dot,"[0.08, 0.08, 0.06]","[[0.1555504186016049, 0.15532406847092056], [-0.0680535881648269, 0.26220909641571793], [0.08533315121688807, 0.39122308779032533]]",density,black,,,D004,visual,1,[],"['1', '2', '3', '4']",1,2023.2.3,harveyvisual,2.1,[],8,0.75,
0,pause,0.4,None,None,None,0,25,25,25,,,,,,,,,,,,,D004,visual,1,[],"['1', '2', '3', '4']",1,2023.2.3,harveyvisual,2.1,[],8,0.75,
3,dot,0.3,['dot'],['density'],black,0,26,26,26,,,11.500211000442505,11.204328775405884,11.520992994308472,dot,"[0.06, 0.1, 0.1]","[[0.13507679288784277, 0.012189921546254917], [0.31506600046810584, 0.10578898906948993], [0.12756957777796288, 0.2513869495778075]]",density,black,,,D004,visual,1,[],"['1', '2', '3', '4']",1,2023.2.3,harveyvisual,2.1,[],8,0.75,
0,pause,0.4,None,None,None,0,27,27,27,,,,,,,,,,,,,D004,visual,1,[],"['1', '2', '3', '4']",1,2023.2.3,harveyvisual,2.1,[],8,0.75,
3,dot,0.3,['dot'],['density'],white,0,28,28,28,,,12.200204849243164,11.904311895370483,12.221009969711304,dot,"[0.06, 0.06, 0.1]","[[-0.5081709494874314, 0.1572673197774781], [-0.37009835501087307, 0.006965763417246156], [-0.5707172634768017, -0.07177594851347295]]",density,white,,,D004,visual,1,[],"['1', '2', '3', '4']",1,2023.2.3,harveyvisual,2.1,[],8,0.75,
0,pause,0.4,None,None,None,0,29,29,29,,,,,,,,,,,1,12.434926986694336,D004,visual,1,[],"['1', '2', '3', '4']",1,2023.2.3,harveyvisual,2.1,[],8,0.75,
3,dot,0.3,['dot'],['density'],black,0,30,30,30,,,12.900193929672241,12.604137897491455,12.920943975448608,dot,"[0.06, 0.1, 0.08]","[[-0.05604225559701161, -0.5082314702914299], [0.10137377066920354, -0.3837858820064252], [-0.12802807887251882, -0.3142638921214105]]",density,black,,,D004,visual,1,[],"['1', '2', '3', '4']",1,2023.2.3,harveyvisual,2.1,[],8,0.75,
0,pause,0.4,None,None,None,0,31,31,31,,,,,,,,,,,,,D004,visual,1,[],"['1', '2', '3', '4']",1,2023.2.3,harveyvisual,2.1,[],8,0.75,
3,dot,0.3,['dot'],['density'],black,0,32,32,32,,,13.600213766098022,13.304300785064697,13.620925903320312,dot,"[0.08, 0.1, 0.06]","[[0.315495050057846, 0.10724904305018564], [0.5180852452909619, 0.013799590611742229], [0.3819545826159732, -0.1334380777916547]]",density,black,,,D004,visual,1,[],"['1', '2', '3', '4']",1,2023.2.3,harveyvisual,2.1,[],8,0.75,
0,pause,0.4,None,None,None,0,33,33,33,,,,,,,,,,,,,D004,visual,1,[],"['1', '2', '3', '4']",1,2023.2.3,harveyvisual,2.1,[],8,0.75,
3,dot,0.3,['dot'],['density'],black,0,34,34,34,,,14.300193786621094,14.004295825958252,14.320771932601929,dot,"[0.1, 0.08, 0.08]","[[-0.021384933427115945, -0.26055744462645497], [0.16478637362895734, -0.404980755917603], [-0.025077849445719256, -0.48190209473619267]]",density,black,,,D004,visual,1,[],"['1', '2', '3', '4']",1,2023.2.3,harveyvisual,2.1,[],8,0.75,
0,pause,0.4,None,None,None,0,35,35,35,,,,,,,,,,,,,D004,visual,1,[],"['1', '2', '3', '4']",1,2023.2.3,harveyvisual,2.1,[],8,0.75,
4,dot,0.3,['dot'],['density'],black,0,36,36,36,,,15.000208854675293,14.704123973846436,15.020908832550049,dot,"[0.06, 0.06, 0.08, 0.08]","[[-0.2516773625496151, -0.30151264897341506], [-0.16747001932966935, -0.11477707456203952], [0.007305472957725734, -0.4586877449884055], [0.017540980065453668, -0.20354321808263612]]",density,black,,,D004,visual,1,[],"['1', '2', '3', '4']",1,2023.2.3,harveyvisual,2.1,[],8,0.75,
0,pause,0.4,None,None,None,0,37,37,37,,,,,,,,,,,,,D004,visual,1,[],"['1', '2', '3', '4']",1,2023.2.3,harveyvisual,2.1,[],8,0.75,
4,dot,0.3,['dot'],['density'],black,0,38,38,38,,,15.700210809707642,15.404223918914795,15.720720767974854,dot,"[0.06, 0.06, 0.06, 0.1]","[[-0.22375678750486633, 0.16938766720995918], [-0.03438308412182927, 0.2632029670309489], [0.15312837370161694, 0.1265605786946886], [-0.035433382102469414, 0.014828983441921377]]",density,black,,,D004,visual,1,[],"['1', '2', '3', '4']",1,2023.2.3,harveyvisual,2.1,[],8,0.75,
0,pause,0.4,None,None,None,0,39,39,39,,,,,,,,,,,,,D004,visual,1,[],"['1', '2', '3', '4']",1,2023.2.3,harveyvisual,2.1,[],8,0.75,
4,dot,0.3,['dot'],['density'],black,0,40,40,40,,,16.400194883346558,16.104245901107788,16.420875787734985,dot,"[0.1, 0.08, 0.06, 0.08]","[[-0.5133923796685119, -0.13567638448558317], [-0.3102378593599109, -0.17790160316510653], [-0.5338837235738882, 0.07316730980410076], [-0.255286731521037, 0.022123457211080083]]",density,black,,,D004,visual,1,[],"['1', '2', '3', '4']",1,2023.2.3,harveyvisual,2.1,[],8,0.75,
0,pause,0.4,None,None,None,0,41,41,41,,,,,,,,,,,,,D004,visual,1,[],"['1', '2', '3', '4']",1,2023.2.3,harveyvisual,2.1,[],8,0.75,
4,dot,0.3,['dot'],['density'],black,0,42,42,42,,,17.10021185874939,16.804165840148926,17.120840787887573,dot,"[0.1, 0.06, 0.08, 0.06]","[[0.06081986304483943, 0.35358512719402324], [0.4232304195196481, 0.14579533924648716], [0.12419639750553536, 0.133833625718984], [0.26609561976711055, 0.2970795792082364]]",density,black,,,D004,visual,1,[],"['1', '2', '3', '4']",1,2023.2.3,harveyvisual,2.1,[],8,0.75,
0,pause,0.4,None,None,None,0,43,43,43,,,,,,,,,,,,,D004,visual,1,[],"['1', '2', '3', '4']",1,2023.2.3,harveyvisual,2.1,[],8,0.75,
4,dot,0.3,['dot'],['density'],black,0,44,44,44,,,17.800206899642944,17.504166841506958,17.820836782455444,dot,"[0.1, 0.1, 0.06, 0.06]","[[0.37520814465037905, -0.4432880181017862], [0.4692830223283075, -0.19655799526205012], [0.3063896805601884, -0.036788685454167226], [0.2471196723673293, -0.2344474043623998]]",density,black,,,D004,visual,1,[],"['1', '2', '3', '4']",1,2023.2.3,harveyvisual,2.1,[],8,0.75,
0,pause,0.4,None,None,None,0,45,45,45,,,,,,,,,,,,,D004,visual,1,[],"['1', '2', '3', '4']",1,2023.2.3,harveyvisual,2.1,[],8,0.75,
4,dot,0.3,['dot'],['density'],black,0,46,46,46,,,18.5002019405365,18.20403790473938,18.52066683769226,dot,"[0.06, 0.1, 0.06, 0.1]","[[0.17852470546651972, -0.2012438881607824], [-0.031034799765910746, -0.12466087783573923], [0.008996399474264666, -0.3229379719524122], [0.15114343287780646, 0.03986859122442722]]",density,black,,,D004,visual,1,[],"['1', '2', '3', '4']",1,2023.2.3,harveyvisual,2.1,[],8,0.75,
0,pause,0.4,None,None,None,0,47,47,47,,,,,,,,,,,,,D004,visual,1,[],"['1', '2', '3', '4']",1,2023.2.3,harveyvisual,2.1,[],8,0.75,
5,dot,0.3,['dot'],['density'],black,0,48,48,48,,,19.20019793510437,18.92078995704651,19.220802783966064,dot,"[0.1, 0.08, 0.08, 0.06, 0.08]","[[0.08548847697718086, 0.4135790235028826], [-0.012611048966726563, 0.22662400259503446], [0.27435170057987585, 0.4853016025774898], [-0.23063129862993442, 0.3109017384705433], [-0.11887524344887646, 0.49040580377695175]]",density,black,,,D004,visual,1,[],"['1', '2', '3', '4']",1,2023.2.3,harveyvisual,2.1,[],8,0.75,
0,pause,0.4,None,None,None,0,49,49,49,,,,,,,,,,,,,D004,visual,1,[],"['1', '2', '3', '4']",1,2023.2.3,harveyvisual,2.1,[],8,0.75,
5,dot,0.3,['dot'],['density'],black,0,50,50,50,,,19.900198936462402,19.60411286354065,19.920809984207153,dot,"[0.1, 0.1, 0.08, 0.06, 0.1]","[[0.36014554898799966, 0.387810422325294], [0.055757472799778995, 0.16941293674392635], [0.2210739480460382, 0.008175952352481365], [0.48495712857242873, 0.07425785546611247], [0.25975240449222103, 0.2092734881649904]]",density,black,,,D004,visual,1,[],"['1', '2', '3', '4']",1,2023.2.3,harveyvisual,2.1,[],8,0.75,
0,pause,0.4,None,None,None,0,51,51,51,,,,,,,,,,,,,D004,visual,1,[],"['1', '2', '3', '4']",1,2023.2.3,harveyvisual,2.1,[],8,0.75,
5,dot,0.3,['dot'],['density'],black,0,52,52,52,,,20.600201845169067,20.304065942764282,20.62074089050293,dot,"[0.1, 0.06, 0.06, 0.06, 0.1]","[[0.10176071415026891, -0.0029310292721688898], [0.32748853803000494, -0.2831003617774451], [0.10999898603900501, -0.23076615641811304], [0.2383494361888625, 0.16403485824849598], [0.3558293804179042, -0.08171974316418079]]",density,black,,,D004,visual,1,[],"['1', '2', '3', '4']",1,2023.2.3,harveyvisual,2.1,[],8,0.75,
0,pause,0.4,None,None,None,0,53,53,53,,,,,,,,,,,,,D004,visual,1,[],"['1', '2', '3', '4']",1,2023.2.3,harveyvisual,2.1,[],8,0.75,
5,dot,0.3,['dot'],['density'],black,0,54,54,54,,,21.300208806991577,21.0207359790802,21.320729970932007,dot,"[0.1, 0.06, 0.08, 0.08, 0.08]","[[-0.4004020094395207, -0.04445243948850948], [-0.17181756668418613, -0.18180129995893848], [-0.46264198425852476, 0.17889071841303528], [-0.23640824159873003, 0.08340028676903545], [-0.2824747884808712, 0.2826805534387526]]",density,black,,,D004,visual,1,[],"['1', '2', '3', '4']",1,2023.2.3,harveyvisual,2.1,[],8,0.75,
0,pause,0.4,None,None,None,0,55,55,55,,,,,,,,,,,,,D004,visual,1,[],"['1', '2', '3', '4']",1,2023.2.3,harveyvisual,2.1,[],8,0.75,
5,dot,0.3,['dot'],['density'],black,0,56,56,56,,,22.000199794769287,21.704063892364502,22.020559787750244,dot,"[0.1, 0.08, 0.06, 0.06, 0.1]","[[-0.3632963637400461, -0.33792544526642676], [-0.48189922448633543, -0.036156829306921726], [-0.2958020468624338, 0.07292024124872273], [-0.10639492237515816, -0.0008972940205680791], [-0.20818262001932955, -0.17666930306052683]]",density,black,,,D004,visual,1,[],"['1', '2', '3', '4']",1,2023.2.3,harveyvisual,2.1,[],8,0.75,
0,pause,0.4,None,None,None,0,57,57,57,,,,,,,,,,,,,D004,visual,1,[],"['1', '2', '3', '4']",1,2023.2.3,harveyvisual,2.1,[],8,0.75,
5,dot,0.3,['dot'],['density'],black,0,58,58,58,,,22.700217962265015,22.403953790664673,22.720723867416382,dot,"[0.08, 0.08, 0.06, 0.08, 0.08]","[[-0.4709100701083565, 0.02189337908226187], [-0.29145525575644754, 0.3795081276742083], [-0.23690205020139254, 0.016868774910060797], [-0.4278442329265702, 0.22919645259494104], [-0.09991604659712162, 0.23043195716445664]]",density,black,,,D004,visual,1,[],"['1', '2', '3', '4']",1,2023.2.3,harveyvisual,2.1,[],8,0.75,
0,pause,0.4,None,None,None,0,59,59,59,,,,,,,,,,,,,D004,visual,1,[],"['1', '2', '3', '4']",1,2023.2.3,harveyvisual,2.1,[],8,0.75,
6,dot,0.3,['dot'],['density'],white,0,60,60,60,,,23.400192975997925,23.120734930038452,23.42074990272522,dot,"[0.08, 0.1, 0.08, 0.06, 0.08, 0.1]","[[0.4536033237290603, -0.10703390074252807], [0.4090862681261178, 0.14156446515860444], [0.3446070222150913, -0.333203595144996], [0.1541486512624917, 0.13839280063469406], [0.16833114318264894, -0.23068973514796048], [0.2520001164899556, -0.04323865486760776]]",density,white,,,D004,visual,1,[],"['1', '2', '3', '4']",1,2023.2.3,harveyvisual,2.1,[],8,0.75,
0,pause,0.4,None,None,None,0,61,61,61,,,,,,,,,,,1,23.53631281852722,D004,visual,1,[],"['1', '2', '3', '4']",1,2023.2.3,harveyvisual,2.1,[],8,0.75,
6,dot,0.3,['dot'],['density'],black,0,62,62,62,,,24.100217819213867,23.82051396369934,24.120802879333496,dot,"[0.06, 0.06, 0.06, 0.08, 0.06, 0.1]","[[-0.37443702985748106, 0.32648296684105377], [-0.5461381080049402, 0.20900463425646473], [-0.03667792491240075, 0.12745261621840673], [-0.13670974087354773, 0.4115775839407936], [-0.3800981804337871, 0.05314619565530939], [-0.23016292349935943, 0.18714801531232822]]",density,black,,,D004,visual,1,[],"['1', '2', '3', '4']",1,2023.2.3,harveyvisual,2.1,[],8,0.75,
0,pause,0.4,None,None,None,0,63,63,63,,,,,,,,,,,,,D004,visual,1,[],"['1', '2', '3', '4']",1,2023.2.3,harveyvisual,2.1,[],8,0.75,
6,dot,0.3,['dot'],['density'],black,0,64,64,64,,,24.8002188205719,24.520753860473633,24.820766925811768,dot,"[0.08, 0.06, 0.1, 0.08, 0.06, 0.08]","[[0.01776890784276672, 0.3448500499300058], [-0.18238616215991446, 0.4840889924469993], [-0.2129582374372363, 0.07157874559070018], [-0.41549008775918617, 0.14353268657608398], [0.019487844458329944, 0.1389587799501653], [-0.21004805074000235, 0.2837936954907191]]",density,black,,,D004,visual,1,[],"['1', '2', '3', '4']",1,2023.2.3,harveyvisual,2.1,[],8,0.75,
0,pause,0.4,None,None,None,0,65,65,65,,,,,,,,,,,,,D004,visual,1,[],"['1', '2', '3', '4']",1,2023.2.3,harveyvisual,2.1,[],8,0.75,
6,dot,0.3,['dot'],['density'],white,0,66,66,66,,,25.50021481513977,25.220645904541016,25.52063488960266,dot,"[0.08, 0.08, 0.08, 0.1, 0.1, 0.1]","[[-0.21871154593458392, 0.523205648483303], [-0.10311842393244862, 0.3355489225101837], [0.008055670172287269, 0.5366903261171385], [0.1303263863168633, 0.3782575370349718], [0.03185769749340688, 0.17145177849191712], [-0.2810167974491763, 0.15418865533644557]]",density,white,,,D004,visual,1,[],"['1', '2', '3', '4']",1,2023.2.3,harveyvisual,2.1,[],8,0.75,
0,pause,0.4,None,None,None,0,67,67,67,,,,,,,,,,,1,25.6265389919281,D004,visual,1,[],"['1', '2', '3', '4']",1,2023.2.3,harveyvisual,2.1,[],8,0.75,
6,dot,0.3,['dot'],['density'],black,0,68,68,68,,,26.200199842453003,25.920639991760254,26.22063398361206,dot,"[0.08, 0.06, 0.08, 0.1, 0.08, 0.1]","[[-0.25199583264674774, 0.1645076628059283], [-0.30980015185235615, -0.30059811601219943], [-0.3416104032120793, -0.08609002542292095], [-0.44539923421558947, 0.10453038353258776], [-0.10444623085343022, 0.0009067836503606603], [-0.5495015018291214, -0.1770200348029928]]",density,black,,,D004,visual,1,[],"['1', '2', '3', '4']",1,2023.2.3,harveyvisual,2.1,[],8,0.75,
0,pause,0.4,None,None,None,0,69,69,69,,,,,,,,,,,,,D004,visual,1,[],"['1', '2', '3', '4']",1,2023.2.3,harveyvisual,2.1,[],8,0.75,
6,dot,0.3,['dot'],['density'],black,0,70,70,70,,,26.900208950042725,26.62064480781555,26.920602798461914,dot,"[0.08, 0.08, 0.06, 0.06, 0.08, 0.08]","[[-0.5379788740814003, -0.011730333491669416], [-0.1820890739253136, -0.27973544868684425], [-0.07809457889047756, -0.09124846264896269], [-0.30616251401069866, -0.45101817852416426], [-0.44200878281119743, -0.26991620184617166], [-0.3315938551005316, -0.08696624632848979]]",density,black,,,D004,visual,1,[],"['1', '2', '3', '4']",1,2023.2.3,harveyvisual,2.1,[],8,0.75,
0,pause,0.4,None,None,None,0,71,71,71,,,,,,,,,,,,,D004,visual,1,[],"['1', '2', '3', '4']",1,2023.2.3,harveyvisual,2.1,[],8,0.75,
7,dot,0.3,['dot'],['density'],black,0,72,72,72,,,27.600198984146118,27.320628881454468,27.620622873306274,dot,"[0.08, 0.1, 0.08, 0.1, 0.08, 0.06, 0.06]","[[-0.15204905838880944, -0.5333107186751418], [-0.1519936835116667, -0.2986813487337615], [0.3123805602017952, -0.370842296180838], [-0.04397638837772695, -0.01669328424437847], [0.11716920447009348, -0.14912816843546053], [0.1067198166566748, -0.5553575834591685], [0.04038917577175449, -0.3541606866516689]]",density,black,,,D004,visual,1,[],"['1', '2', '3', '4']",1,2023.2.3,harveyvisual,2.1,[],8,0.75,
0,pause,0.4,None,None,None,0,73,73,73,,,,,,,,,,,,,D004,visual,1,[],"['1', '2', '3', '4']",1,2023.2.3,harveyvisual,2.1,[],8,0.75,
7,dot,0.3,['dot'],['density'],black,0,74,74,74,,,28.300200939178467,28.020643949508667,28.320668935775757,dot,"[0.1, 0.08, 0.06, 0.1, 0.06, 0.08, 0.08]","[[0.12430361198122393, -0.484697593056103], [0.0493599320108737, -0.036540600477799993], [0.2536650008125765, -0.05314613827093128], [-0.10908149692518246, -0.38401305955505927], [0.3510411480849886, -0.3949608705840701], [0.16732256025271752, -0.2817377092689904], [0.4277002215428168, -0.1937739732965619]]",density,black,,,D004,visual,1,[],"['1', '2', '3', '4']",1,2023.2.3,harveyvisual,2.1,[],8,0.75,
0,pause,0.4,None,None,None,0,75,75,75,,,,,,,,,,,,,D004,visual,1,[],"['1', '2', '3', '4']",1,2023.2.3,harveyvisual,2.1,[],8,0.75,
7,dot,0.3,['dot'],['density'],black,0,76,76,76,,,29.000208854675293,28.721839904785156,29.020667791366577,dot,"[0.06, 0.06, 0.08, 0.1, 0.06, 0.06, 0.1]","[[-0.0015444251822213466, 0.17452400993182896], [-0.3864233363803332, 0.3856338194384884], [-0.45841970572989144, 0.11901701190004808], [-0.23552014845846486, 0.11986313412455778], [-0.06694767956243396, -0.029831379541550785], [-0.3576154478026905, -0.11072010138878656], [-0.17113735677840214, 0.37123035181888253]]",density,black,,,D004,visual,1,[],"['1', '2', '3', '4']",1,2023.2.3,harveyvisual,2.1,[],8,0.75,
0,pause,0.4,None,None,None,0,77,77,77,,,,,,,,,,,,,D004,visual,1,[],"['1', '2', '3', '4']",1,2023.2.3,harveyvisual,2.1,[],8,0.75,
7,dot,0.3,['dot'],['density'],black,0,78,78,78,,,29.700217962265015,29.420522928237915,29.720558881759644,dot,"[0.1, 0.1, 0.08, 0.08, 0.1, 0.1, 0.08]","[[-0.15204905838880944, -0.5333107186751418], [-0.1519936835116667, -0.2986813487337615], [0.3123805602017952, -0.370842296180838], [-0.04397638837772695, -0.01669328424437847], [0.11716920447009348, -0.14912816843546053], [0.1067198166566748, -0.5553575834591685], [0.04038917577175449, -0.3541606866516689]]",density,black,,,D004,visual,1,[],"['1', '2', '3', '4']",1,2023.2.3,harveyvisual,2.1,[],8,0.75,
0,pause,0.4,None,None,None,0,79,79,79,,,,,,,,,,,,,D004,visual,1,[],"['1', '2', '3', '4']",1,2023.2.3,harveyvisual,2.1,[],8,0.75,
7,dot,0.3,['dot'],['density'],black,0,80,80,80,,,30.400205850601196,30.120531797409058,30.420508861541748,dot,"[0.1, 0.06, 0.06, 0.06, 0.08, 0.08, 0.1]","[[-0.39883248072855915, 0.30823732592088265], [-0.041341486549100435, 0.2390478988097413], [-0.013495537319202725, 0.5211111720540192], [-0.2415889716500472, 0.10795059447242317], [-0.023803066389735523, 0.02076064871433158], [0.14387498046506175, 0.3548008600093999], [-0.24331877599120405, 0.46521846842164205]]",density,black,,,D004,visual,1,[],"['1', '2', '3', '4']",1,2023.2.3,harveyvisual,2.1,[],8,0.75,
0,pause,0.4,None,None,None,0,81,81,81,,,,,,,,,,,,,D004,visual,1,[],"['1', '2', '3', '4']",1,2023.2.3,harveyvisual,2.1,[],8,0.75,
7,dot,0.3,['dot'],['density'],black,0,82,82,82,,,31.100194931030273,30.820533990859985,31.120490789413452,dot,"[0.06, 0.1, 0.08, 0.06, 0.1, 0.1, 0.08]","[[0.3899189512010899, -0.40728696153528776], [0.20392863561369634, -0.3305625840210526], [0.31626985815109576, 0.13567824844623666], [0.5017338684339655, -0.028549680114735937], [0.11648855723187378, -0.1078833072829627], [0.07041138378868489, 0.08730219371944997], [0.32910598476010167, -0.13660711058181768]]",density,black,,,D004,visual,1,[],"['1', '2', '3', '4']",1,2023.2.3,harveyvisual,2.1,[],8,0.75,
0,pause,0.4,None,None,None,0,83,83,83,,,,,,,,,,,,,D004,visual,1,[],"['1', '2', '3', '4']",1,2023.2.3,harveyvisual,2.1,[],8,0.75,
8,dot,0.3,['dot'],['density'],black,0,84,84,84,,,31.800212860107422,31.520485877990723,31.820449829101562,dot,"[0.1, 0.06, 0.06, 0.1, 0.08, 0.1, 0.08, 0.06]","[[0.5011924336457421, -0.024432440978935197], [0.2806328112604475, -0.04317330297599672], [0.4832514634589159, 0.31109822070486504], [0.16408111659662816, 0.42847901077729456], [0.23688927214560462, 0.23559820796421724], [0.07772697954394367, 0.06196890701796274], [0.10192126774068293, -0.18867749580812243], [-0.012619648351882298, 0.24997239668137242]]",density,black,,,D004,visual,1,[],"['1', '2', '3', '4']",1,2023.2.3,harveyvisual,2.1,[],8,0.75,
0,pause,0.4,None,None,None,0,85,85,85,,,,,,,,,,,,,D004,visual,1,[],"['1', '2', '3', '4']",1,2023.2.3,harveyvisual,2.1,[],8,0.75,
8,dot,0.3,['dot'],['density'],white,0,86,86,86,,,32.50019383430481,32.22044491767883,32.520447969436646,dot,"[0.1, 0.06, 0.08, 0.08, 0.1, 0.06, 0.08, 0.06]","[[-0.20800618360187478, -0.297823595680997], [0.0208603014005115, -0.46570844314230314], [-0.33947416747489917, -0.46414587466331364], [-0.2657502487478435, -0.0024929956194721667], [-0.07971030345085922, -0.1368829558420488], [0.12327021606192319, -0.12614842517591618], [-0.10944837079043952, 0.12795643756026515], [-0.4050023469846894, -0.16101207847090707]]",density,white,,,D004,visual,1,[],"['1', '2', '3', '4']",1,2023.2.3,harveyvisual,2.1,[],8,0.75,
0,pause,0.4,None,None,None,0,87,87,87,,,,,,,,,,,1,32.690438985824585,D004,visual,1,[],"['1', '2', '3', '4']",1,2023.2.3,harveyvisual,2.1,[],8,0.75,
8,dot,0.3,['dot'],['density'],black,0,88,88,88,,,33.20020389556885,32.920432806015015,33.220454931259155,dot,"[0.08, 0.06, 0.08, 0.06, 0.08, 0.1, 0.06, 0.08]","[[0.11895989691250043, -0.4531686673706004], [-0.16516506104640707, -0.03240926074491446], [0.03539791161122963, 0.017706842047032937], [0.2602726326243711, -0.2021454296306109], [-0.07993394910368964, -0.42305571474287856], [-0.2833532244481061, -0.22994433794129646], [0.3633812293108319, -0.4186270945829863], [-0.04042382183071007, -0.1991401458565282]]",density,black,,,D004,visual,1,[],"['1', '2', '3', '4']",1,2023.2.3,harveyvisual,2.1,[],8,0.75,
0,pause,0.4,None,None,None,0,89,89,89,,,,,,,,,,,,,D004,visual,1,[],"['1', '2', '3', '4']",1,2023.2.3,harveyvisual,2.1,[],8,0.75,
8,dot,0.3,['dot'],['density'],black,0,90,90,90,,,33.90021085739136,33.620423793792725,33.92040181159973,dot,"[0.08, 0.1, 0.06, 0.08, 0.1, 0.08, 0.1, 0.06]","[[0.32983457944800887, -0.09988122376634187], [0.002544499336209532, 0.05447162498302279], [0.49322357980250997, 0.04173156098678792], [0.3398992085464782, -0.3241559212022164], [0.12656458423521935, -0.36323236959635974], [0.5072737450674915, -0.19500703868861743], [0.06482113683766944, -0.1422911224505784], [0.25865538318477954, 0.20042726536108785]]",density,black,,,D004,visual,1,[],"['1', '2', '3', '4']",1,2023.2.3,harveyvisual,2.1,[],8,0.75,
0,pause,0.4,None,None,None,0,91,91,91,,,,,,,,,,,,,D004,visual,1,[],"['1', '2', '3', '4']",1,2023.2.3,harveyvisual,2.1,[],8,0.75,
8,dot,0.3,['dot'],['density'],black,0,92,92,92,,,34.60021781921387,34.320419788360596,34.62024283409119,dot,"[0.1, 0.1, 0.1, 0.06, 0.06, 0.08, 0.1, 0.08]","[[0.3364035831170529, 0.12390393923093283], [0.4336864367158133, 0.35981147627037974], [0.06743640335689947, 0.0759148581953004], [-0.079559988999742, 0.39531058321326396], [0.21309668101319243, 0.48855257098982907], [0.23478258025928536, -0.08446837776908474], [-0.12854716397353463, 0.17339976512773136], [0.14965136140762586, 0.26897313353206964]]",density,black,,,D004,visual,1,[],"['1', '2', '3', '4']",1,2023.2.3,harveyvisual,2.1,[],8,0.75,
0,pause,0.4,None,None,None,0,93,93,93,,,,,,,,,,,,,D004,visual,1,[],"['1', '2', '3', '4']",1,2023.2.3,harveyvisual,2.1,[],8,0.75,
8,dot,0.3,['dot'],['density'],black,0,94,94,94,,,35.300206899642944,35.020413875579834,35.32038187980652,dot,"[0.08, 0.06, 0.08, 0.06, 0.1, 0.06, 0.1, 0.06]","[[0.4578461037593053, -0.0425280984807614], [0.3105081462658962, -0.253400778181943], [0.5107466611240274, 0.18303335057259504], [0.05013881804369301, 0.21472050036076742], [0.11913774150617627, -0.046477809882714556], [0.3069987493408211, 0.11186211070896974], [0.10261508471656716, -0.25482825738733483], [-0.08881417545548334, 0.035709595317019026]]",density,black,,,D004,visual,1,[],"['1', '2', '3', '4']",1,2023.2.3,harveyvisual,2.1,[],8,0.75,
0,pause,0.4,None,None,None,0,95,95,95,,,,,,,,,,,,,D004,visual,1,[],"['1', '2', '3', '4']",1,2023.2.3,harveyvisual,2.1,[],8,0.75,
9,dot,0.3,['dot'],['density'],black,0,96,96,96,,,36.00021576881409,35.7203528881073,36.02036380767822,dot,"[0.06, 0.06, 0.06, 0.06, 0.08, 0.1, 0.08, 0.08, 0.06]","[[-0.3974741157875733, -0.3691322615124248], [0.01813275331019438, -0.041305186939584786], [-0.297817964195003, 0.1404435238036691], [-0.24996212712231053, -0.10674501212047392], [-0.45607543705465475, -0.10954340680539053], [-0.5097726394514722, 0.08872958744943038], [-0.16376728557074105, -0.3354799619734228], [-0.07115584905184995, 0.17737469530672276], [-0.4529869372404742, 0.29851616761646654]]",density,black,,,D004,visual,1,[],"['1', '2', '3', '4']",1,2023.2.3,harveyvisual,2.1,[],8,0.75,
0,pause,0.4,None,None,None,0,97,97,97,,,,,,,,,,,,,D004,visual,1,[],"['1', '2', '3', '4']",1,2023.2.3,harveyvisual,2.1,[],8,0.75,
9,dot,0.3,['dot'],['density'],white,0,98,98,98,,,36.70020890235901,36.42035388946533,36.72033381462097,dot,"[0.08, 0.1, 0.06, 0.08, 0.08, 0.1, 0.06, 0.06, 0.08]","[[0.22829877875946783, -0.39640994854570016], [0.3366371496270161, 0.05839125036393789], [-0.11436045239834208, -0.12024221759915668], [-0.02100147820737577, -0.3824026009196371], [0.08479146627654295, 0.024089629435920912], [0.16206374850784472, -0.16075841177209507], [0.38495438842944835, -0.24810596019115372], [-0.23418047716532614, 0.09565997955556291], [0.2111996426858246, 0.23215637940447356]]",density,white,,,D004,visual,1,[],"['1', '2', '3', '4']",1,2023.2.3,harveyvisual,2.1,[],8,0.75,
0,pause,0.4,None,None,None,0,99,99,99,,,,,,,,,,,1,36.91796684265137,D004,visual,1,[],"['1', '2', '3', '4']",1,2023.2.3,harveyvisual,2.1,[],8,0.75,
9,dot,0.3,['dot'],['density'],black,0,100,100,100,,,37.40022277832031,37.120330810546875,37.42036485671997,dot,"[0.08, 0.08, 0.06, 0.06, 0.06, 0.1, 0.1, 0.06, 0.06]","[[0.11766436913102363, -0.04327704920019282], [0.17973489876850246, -0.2957558932143311], [0.4322853556796634, 0.1292829237047714], [-0.0348924626991882, -0.2091692004054023], [0.511593351462966, -0.2715393032181878], [0.39631341359825684, -0.10388811790353111], [0.1759041025424718, 0.35783279634564974], [-0.11077337801993212, 0.08002505665429639], [0.1915495233696259, 0.15329463501335125]]",density,black,,,D004,visual,1,[],"['1', '2', '3', '4']",1,2023.2.3,harveyvisual,2.1,[],8,0.75,
0,pause,0.4,None,None,None,0,101,101,101,,,,,,,,,,,,,D004,visual,1,[],"['1', '2', '3', '4']",1,2023.2.3,harveyvisual,2.1,[],8,0.75,
9,dot,0.3,['dot'],['density'],white,0,102,102,102,,,38.10019779205322,37.82031989097595,38.12030577659607,dot,"[0.1, 0.06, 0.06, 0.08, 0.06, 0.1, 0.1, 0.08, 0.1]","[[-0.39546702852536103, 0.05887767166707298], [0.0019437857506851024, 0.07006750722115952], [0.08809400946991845, -0.15083790972035777], [-0.35358057288562594, -0.14123029179452673], [-0.18893042820243505, -0.004761820558363635], [-0.16054322822148615, -0.2701644482013472], [-0.3593088451216199, 0.2649120528395154], [-0.09346394646241396, -0.4621051997984888], [-0.5526246027455071, -0.11781718335669726]]",density,white,,,D004,visual,1,[],"['1', '2', '3', '4']",1,2023.2.3,harveyvisual,2.1,[],8,0.75,
0,pause,0.4,None,None,None,0,103,103,103,,,,,,,,,,,1,38.25412893295288,D004,visual,1,[],"['1', '2', '3', '4']",1,2023.2.3,harveyvisual,2.1,[],8,0.75,
9,dot,0.3,['dot'],['density'],black,0,104,104,104,,,38.80021691322327,38.520304918289185,38.820276975631714,dot,"[0.1, 0.06, 0.08, 0.1, 0.1, 0.08, 0.1, 0.06, 0.06]","[[-0.08830733675648182, -0.32541118850070216], [0.2573655446525002, -0.0029570100823114536], [0.27547652153196345, -0.34332263321768475], [-0.10322368112243578, -0.12113330350182801], [-0.09512634339583304, 0.07974184968350245], [0.1087639633701519, -0.14934854126711464], [-0.2976800736237512, -0.022953619774800198], [0.014308470788770018, -0.5004438889851849], [-0.3557422450128242, -0.24953541402881954]]",density,black,,,D004,visual,1,[],"['1', '2', '3', '4']",1,2023.2.3,harveyvisual,2.1,[],8,0.75,
0,pause,0.4,None,None,None,0,105,105,105,,,,,,,,,,,,,D004,visual,1,[],"['1', '2', '3', '4']",1,2023.2.3,harveyvisual,2.1,[],8,0.75,
9,dot,0.3,['dot'],['density'],black,0,106,106,106,,,39.50021696090698,39.220279932022095,39.52031087875366,dot,"[0.1, 0.06, 0.06, 0.06, 0.08, 0.06, 0.08, 0.08, 0.1]","[[0.31750259908069645, 0.09103062301409195], [-0.10814993995151222, -0.14883262012051235], [0.2615101699546999, -0.13245952524223892], [0.014531427323725789, 0.3887544696515085], [-0.1117096847062306, 0.09593752649312724], [0.07810272484559946, -0.019955638642360052], [-0.26173373106631487, 0.2840804484106463], [0.4370020372247476, 0.2669512546191977], [0.11115841416421544, 0.18722161068425575]]",density,black,,,D004,visual,1,[],"['1', '2', '3', '4']",1,2023.2.3,harveyvisual,2.1,[],8,0.75,
0,pause,0.4,None,None,None,0,107,107,107,,,,,,,,,,,,,D004,visual,1,[],"['1', '2', '3', '4']",1,2023.2.3,harveyvisual,2.1,[],8,0.75,
20,dot,0.3,['dot'],['density'],black,0,108,108,108,,,40.20021390914917,39.92025589942932,40.22024583816528,dot,"[0.08, 0.06, 0.08, 0.1, 0.08, 0.1, 0.1, 0.06, 0.08, 0.06, 0.06, 0.08, 0.1, 0.06, 0.06, 0.06, 0.1, 0.06, 0.06, 0.06]","[[-0.5276942664377634, 0.0909291827242103], [0.3759264075380604, -0.04410928150224025], [0.21513589942664624, -0.44917212438143594], [0.5523118547249294, -0.14821677069486697], [0.2395781649222578, 0.26119194228585785], [-0.20581298592306146, -0.3163055812512178], [-0.4246312937187967, -0.3378869193347771], [-0.30600826918920715, 0.29711582965862116], [-0.13434050796361996, 0.17841895083889758], [-0.0595056183485575, 0.518757942315074], [-0.5559671161350647, -0.1596982930235315], [-0.147094220970446, -0.5789604696141183], [0.5349573028316287, 0.11572251210419121], [-0.08476364890406995, -0.03412302412006174], [0.05801129849581488, -0.26216738999528655], [0.015547395917372975, 0.3241134078453487], [0.365339179613403, -0.2992738552782025], [0.18212703182580525, -0.10835759220952812], [0.283305137611924, 0.5330688317203317], [-0.29808563342910643, 0.5098636118223613]]",density,black,,,D004,visual,1,[],"['1', '2', '3', '4']",1,2023.2.3,harveyvisual,2.1,[],8,0.75,
0,pause,0.4,None,None,None,0,109,109,109,,,,,,,,,,,,,D004,visual,1,[],"['1', '2', '3', '4']",1,2023.2.3,harveyvisual,2.1,[],8,0.75,
20,dot,0.3,['dot'],['density'],black,0,110,110,110,,,40.90021586418152,40.620277881622314,40.920241832733154,dot,"[0.06, 0.06, 0.08, 0.08, 0.08, 0.1, 0.06, 0.06, 0.06, 0.06, 0.1, 0.06, 0.08, 0.06, 0.1, 0.08, 0.1, 0.08, 0.08, 0.06]","[[0.4638387372858038, -0.11410742435599941], [0.004545739027569162, 0.4854671657156602], [-0.3762879893743687, -0.38062378393088786], [0.3531404811705052, 0.09211940952871994], [-0.33296955910456294, 0.08786982286828438], [-0.5244361961126676, -0.20147577245358667], [-0.05638148532461662, 0.2365674071242273], [0.2674331472915731, 0.34417480801989175], [0.21975908980671355, -0.2849137109117412], [-0.47008205530419034, 0.3291173077553124], [0.00938566915683614, -0.41260712559597196], [0.5388586401764822, 0.25141855991681705], [-0.5891983585945164, -0.003371642014434989], [0.07982702209697368, -0.11736061401526038], [-0.19896204797046185, -0.5106516950213906], [-0.2120969100858131, -0.20441111945110468], [0.5894717869517975, 0.058061736557183], [0.3369449680435155, -0.48426679062274525], [-0.30092788456756275, 0.47327749655999674], [0.5123172085362845, -0.3001405935908641]]",density,black,,,D004,visual,1,[],"['1', '2', '3', '4']",1,2023.2.3,harveyvisual,2.1,[],8,0.75,
0,pause,0.4,None,None,None,0,111,111,111,,,,,,,,,,,,,D004,visual,1,[],"['1', '2', '3', '4']",1,2023.2.3,harveyvisual,2.1,[],8,0.75,
20,dot,0.3,['dot'],['density'],black,0,112,112,112,,,41.60020589828491,41.32024383544922,41.62020778656006,dot,"[0.1, 0.08, 0.06, 0.06, 0.1, 0.06, 0.1, 0.06, 0.08, 0.1, 0.1, 0.1, 0.1, 0.06, 0.1, 0.08, 0.1, 0.1, 0.1, 0.06]","[[-0.08830049138171714, -0.5576658164721322], [-0.03661644042836065, -0.12498199342545119], [-0.4788479655828163, -0.2197701540670575], [-0.061246834079410895, -0.3640060283041314], [0.37903520511509525, -0.1478989588704706], [0.15386537290575908, -0.34448233817599233], [0.600809673248664, -0.020795354097843423], [-0.21849655582303412, -0.022979150508776303], [-0.11191195521461006, 0.23334523773753502], [0.17110973971484633, -0.13051320155152513], [0.2082422114899165, 0.09101656716715223], [-0.4895083123244595, 0.18292821443055146], [0.006110626258054697, 0.4605875218166059], [-0.17779824002454675, 0.5197864108328086], [0.5676934169872127, 0.1746718818215288], [0.2946359280002062, 0.2646338314876705], [-0.25480966999389315, -0.4085881043933106], [-0.5740537324659718, -0.004540020177248666], [0.42267433520995834, 0.42587063233407596], [0.17415407567745167, -0.563003147142855]]",density,black,,,D004,visual,1,[],"['1', '2', '3', '4']",1,2023.2.3,harveyvisual,2.1,[],8,0.75,
0,pause,0.4,None,None,None,0,113,113,113,,,,,,,,,,,,,D004,visual,1,[],"['1', '2', '3', '4']",1,2023.2.3,harveyvisual,2.1,[],8,0.75,
20,dot,0.3,['dot'],['density'],black,0,114,114,114,,,42.300203800201416,42.020211935043335,42.320231914520264,dot,"[0.1, 0.08, 0.06, 0.1, 0.1, 0.06, 0.06, 0.08, 0.06, 0.06, 0.08, 0.08, 0.1, 0.08, 0.08, 0.06, 0.06, 0.1, 0.08, 0.08]","[[-0.09071293341228293, 0.22479108540528236], [-0.24820107692511473, -0.5252505367388534], [-0.3237009459247232, 0.26211626988479786], [0.3008881648666937, 0.14136012620310034], [-0.3818345674091823, -0.19354852819346025], [0.028481690912209756, -0.0724803554535931], [0.3342563792717539, 0.3489076379417395], [-0.11173018692612241, 0.4595650409196349], [0.4731953391767335, -0.19270531738375032], [-0.5813914763228787, 0.021340707924638852], [0.5042946504371114, 0.2140904142656509], [0.007820312979576305, -0.3836731852962201], [0.3979097371303252, -0.38045632030525733], [0.5433281123293318, 0.01381011194022086], [0.2871251726780828, -0.09130103903288339], [-0.3761855729144752, 0.4663809034502059], [0.1844927013826333, -0.562590851769442], [0.16191114722117972, 0.4792872973665564], [-0.2713596776028747, -0.00010099351670134205], [-0.520647467608255, 0.2196940058579252]]",density,black,,,D004,visual,1,[],"['1', '2', '3', '4']",1,2023.2.3,harveyvisual,2.1,[],8,0.75,
0,pause,0.4,None,None,None,0,115,115,115,,,,,,,,,,,,,D004,visual,1,[],"['1', '2', '3', '4']",1,2023.2.3,harveyvisual,2.1,[],8,0.75,
20,dot,0.3,['dot'],['density'],black,0,116,116,116,,,43.00020098686218,42.72022581100464,43.02017879486084,dot,"[0.08, 0.08, 0.08, 0.08, 0.06, 0.1, 0.06, 0.1, 0.08, 0.1, 0.08, 0.1, 0.1, 0.06, 0.06, 0.06, 0.06, 0.08, 0.1, 0.06]","[[0.10907121513481233, -0.3999324890697785], [0.523494996329649, -0.08266772244776968], [-0.1662556121804067, -0.38987569264311317], [-0.32203133578516036, -0.19385853339878922], [-0.07818783745213342, 0.5623042848725063], [0.3529187823994463, 0.23922401170822338], [-0.44702065723550855, 0.11579269097835293], [0.1713578441299779, 0.47831264845579546], [-0.5147772455731232, -0.3111814599334629], [0.02397442448275422, -0.16138100517274562], [0.5048578414352171, 0.10803819365736317], [-0.06632902235237981, 0.056515573811962816], [0.24256429842800364, -0.07795324865335262], [-0.29344609960355134, 0.2844082789866724], [-0.02696181664624564, -0.5875568125743825], [0.3278512256533723, -0.37367974891823386], [-0.5926574924988677, -0.1216505452839771], [0.11911156328909456, 0.15037797231884986], [-0.48352279427669576, 0.3111181782057135], [-0.08845003163535015, 0.2742901947273647]]",density,black,,,D004,visual,1,[],"['1', '2', '3', '4']",1,2023.2.3,harveyvisual,2.1,[],8,0.75,
0,pause,0.4,None,None,None,0,117,117,117,,,,,,,,,,,,,D004,visual,1,[],"['1', '2', '3', '4']",1,2023.2.3,harveyvisual,2.1,[],8,0.75,
20,dot,0.3,['dot'],['density'],black,0,118,118,118,,,43.70019793510437,43.42017388343811,43.720157861709595,dot,"[0.06, 0.1, 0.1, 0.1, 0.06, 0.1, 0.08, 0.08, 0.1, 0.06, 0.06, 0.08, 0.08, 0.1, 0.1, 0.1, 0.06, 0.1, 0.08, 0.06]","[[-0.16774020223921732, -0.565573556098073], [0.16252448030269095, 0.02823144855652726], [0.1198376151604914, -0.5821075665364331], [0.023257916779386267, -0.3118841912797325], [-0.548597762846984, 0.06845008240610151], [0.5737096230576407, 0.15890658981048597], [-0.006996089981757492, 0.4227251040713359], [0.3777480756635485, -0.4488589704790761], [-0.18826156494659602, -0.10629987919796091], [0.44244811214774604, 0.3106545528057387], [-0.4147791904868966, -0.30646460171221457], [0.4818098993651415, -0.09837910949622641], [-0.2834721348007944, 0.19697777687087514], [-0.08388225995809218, 0.205342043452314], [0.29105923462916483, 0.4872105016225964], [-0.22554658001413197, -0.34876877530004374], [-0.462511486328373, -0.1148380004482642], [0.29956355718073147, 0.18344556292519443], [0.29065754323289394, -0.2531649869653398], [-0.33200262895496263, 0.45185802775938777]]",density,black,,,D004,visual,1,[],"['1', '2', '3', '4']",1,2023.2.3,harveyvisual,2.1,[],8,0.75,
0,pause,0.4,None,None,None,0,119,119,119,,,,,,,,,,,,,D004,visual,1,[],"['1', '2', '3', '4']",1,2023.2.3,harveyvisual,2.1,[],8,0.75,
20,dot,0.3,['dot'],['density'],black,0,120,120,120,,,44.4001989364624,44.12014389038086,44.42013192176819,dot,"[0.1, 0.1, 0.08, 0.08, 0.06, 0.08, 0.1, 0.08, 0.06, 0.1, 0.06, 0.06, 0.1, 0.1, 0.06, 0.08, 0.08, 0.08, 0.06, 0.1]","[[-0.5537587102321336, 0.17816179173951746], [0.2479914331429679, 0.22452689639131518], [0.10236919633084396, -0.40817204547984215], [0.3905194717756184, 0.3873791701009844], [0.19557806909083697, -0.09107141001638275], [-0.28067458644052345, 0.2068692803568598], [-0.3756071887911875, 0.42789604068923215], [-0.3970116323347751, -0.2991446551609985], [0.521560323445157, -0.11952021430421791], [-0.2526246780194006, -0.09092020774354931], [0.5516693577039319, 0.0782937140716587], [-0.10085242978741693, -0.5160770421946846], [0.23470048637564567, -0.5464443729409351], [0.28921539148184117, -0.3046669807570603], [-0.016774962161636986, 0.01881101351522596], [0.18370201009815434, 0.5219065654543898], [-0.502145891792597, -0.10073438251367567], [0.08994797081558148, 0.35452080272915965], [-0.03934848636739452, 0.5714054849954879], [0.33648292364627175, 0.04390177240442317]]",density,black,,,D004,visual,1,[],"['1', '2', '3', '4']",1,2023.2.3,harveyvisual,2.1,[],8,0.75,
0,pause,0.4,None,None,None,0,121,121,121,,,,,,,,,,,,,D004,visual,1,[],"['1', '2', '3', '4']",1,2023.2.3,harveyvisual,2.1,[],8,0.75,
20,dot,0.3,['dot'],['density'],black,0,122,122,122,,,45.10019493103027,44.820151805877686,45.120144844055176,dot,"[0.1, 0.08, 0.06, 0.08, 0.06, 0.08, 0.1, 0.08, 0.06, 0.08, 0.06, 0.1, 0.1, 0.08, 0.06, 0.1, 0.1, 0.1, 0.1, 0.08]","[[0.5666324006571163, -0.043239493033667975], [-0.5307349461134898, 0.06582341558179744], [-0.018034104072906842, -0.5008970388576505], [0.3343741066297471, 0.0993384351580231], [0.08808186751205893, -0.3214573519214449], [-0.1669697450474586, 0.4665797629189673], [-0.3826448622637056, -0.3353857613843863], [0.18581016755814994, -0.0279805433867647], [0.36879771652103976, -0.30535995395884574], [-0.5553294515147753, -0.13903861170882298], [-0.30572050412748736, 0.05353562062208406], [0.32202551635970456, 0.40359222118668936], [-0.023873030066525525, 0.07903329578069396], [-0.4197061277187588, 0.379553404413385], [0.08420901554478011, 0.45195628353132256], [0.026403033516141705, 0.2696996201630394], [-0.3511832478823025, -0.13207640662426484], [-0.09632153891547102, -0.1448096446673845], [0.5298576395208746, 0.15662970260006015], [0.18905291103400257, -0.5414334305656071]]",density,black,,,D004,visual,1,[],"['1', '2', '3', '4']",1,2023.2.3,harveyvisual,2.1,[],8,0.75,
0,pause,0.4,None,None,None,0,123,123,123,,,,,,,,,,,,,D004,visual,1,[],"['1', '2', '3', '4']",1,2023.2.3,harveyvisual,2.1,[],8,0.75,
20,dot,0.3,['dot'],['density'],black,0,124,124,124,,,45.80020785331726,45.52010679244995,45.82011079788208,dot,"[0.06, 0.08, 0.1, 0.08, 0.1, 0.06, 0.08, 0.1, 0.06, 0.08, 0.1, 0.1, 0.1, 0.06, 0.1, 0.08, 0.08, 0.1, 0.1, 0.06]","[[0.010667621459269805, 0.15213791055342574], [-0.03537418824245386, -0.2667932159695174], [0.6045466002867729, 0.021087197217637202], [0.38052188249133245, -0.1578479051473391], [-0.19895889851552268, 0.04355619291693369], [-0.45949528701435843, 0.036839645226538875], [-0.3118611397767868, -0.46143431843263716], [0.19660446873474746, -0.30885576438626394], [0.36173688193017817, 0.13812198518436752], [-0.48163340436275826, -0.22043553768697544], [0.12876329711445433, -0.06024343646231389], [0.2805213298233803, 0.47447192284256834], [-0.2278862489655466, 0.3383313945981028], [-0.018474786634021245, -0.5273908387584695], [-0.42373403536875553, 0.34487815364772056], [-0.2743236122701889, -0.25122873599937334], [0.06551426194848387, 0.44387997065908125], [0.49393903652157023, -0.34524402237236396], [-0.16397514808556107, 0.5246737725671924], [0.19961150103863123, 0.2549800499104271]]",density,black,,,D004,visual,1,[],"['1', '2', '3', '4']",1,2023.2.3,harveyvisual,2.1,[],8,0.75,
0,pause,0.4,None,None,None,0,125,125,125,,,,,,,,,,,,,D004,visual,1,[],"['1', '2', '3', '4']",1,2023.2.3,harveyvisual,2.1,[],8,0.75,
20,dot,0.3,['dot'],['density'],black,0,126,126,126,,,46.500202894210815,46.22010278701782,46.52008390426636,dot,"[0.1, 0.06, 0.1, 0.06, 0.08, 0.06, 0.06, 0.08, 0.1, 0.08, 0.06, 0.08, 0.08, 0.08, 0.1, 0.08, 0.06, 0.06, 0.08, 0.06]","[[0.30408155073584475, -0.3525161647289042], [-0.5943846126392175, -0.06763022415407217], [-0.05675516089064758, 0.3656871372391014], [-0.4125519516195504, 0.38131525265631333], [-0.1919024156880103, -0.38976264729108473], [0.09075365188723816, 0.22496382443672835], [-0.4213387924703126, 0.18020367101181445], [0.5061616556338905, 0.3313589695185082], [0.018637277976751854, -0.2679145271611143], [-0.3728263812461786, -0.17998495647275192], [-0.019407865325113405, 0.0063530439205187195], [0.0968631264880534, 0.5636819978782648], [0.3067206623430696, 0.22187516337801794], [0.40263291729157535, 0.03685181989270786], [0.5838116892593809, 0.13065889890865803], [0.03506105758179556, -0.5402687230662865], [0.5489767007394762, -0.12217072407041485], [0.20487261593284012, 0.05420607223595719], [-0.24572014046709884, 0.0670316520758657], [0.35469297178210335, -0.1638165301248387]]",density,black,,,D004,visual,1,[],"['1', '2', '3', '4']",1,2023.2.3,harveyvisual,2.1,[],8,0.75,
0,pause,0.4,None,None,None,0,127,127,127,,,,,,,,,,,,,D004,visual,1,[],"['1', '2', '3', '4']",1,2023.2.3,harveyvisual,2.1,[],8,0.75,
20,dot,0.3,['dot'],['density'],black,0,128,128,128,,,47.200199842453,46.92008996009827,47.22006392478943,dot,"[0.06, 0.08, 0.1, 0.08, 0.08, 0.1, 0.1, 0.06, 0.08, 0.08, 0.1, 0.06, 0.1, 0.1, 0.08, 0.08, 0.1, 0.08, 0.08, 0.1]","[[-0.22515516632774435, -0.31766413052803366], [-0.5235508328725285, 0.12154560874141707], [-0.3279536331130746, 0.37005360819088984], [0.49758351344484797, 0.11348461324034137], [-0.4777561998252049, -0.20199850341061912], [0.5673110727755196, -0.1783773790547233], [0.15365969589510087, 0.4546544908908232], [-0.0500470423588214, -0.15172352548358403], [0.022769522873343773, 0.599171996348803], [-0.24747186724013603, 0.05516515876367534], [0.32434913302438284, -0.061886635723224004], [0.06316155654088307, -0.4257234130907453], [0.28544752409102325, -0.2510360628278989], [0.39940781412717585, 0.32128344425857985], [-0.07908891821603392, 0.24054113642296193], [-0.12992110126100553, -0.5853485114816994], [0.22786136832673076, 0.2225494571883294], [0.07732063333987427, 0.058400159020543185], [0.2750104903282061, -0.5251076830275789], [0.4603846230761831, -0.38117181634141095]]",density,black,,,D004,visual,1,[],"['1', '2', '3', '4']",1,2023.2.3,harveyvisual,2.1,[],8,0.75,
0,pause,0.4,None,None,None,0,129,129,129,,,,,,,,,,,,,D004,visual,1,[],"['1', '2', '3', '4']",1,2023.2.3,harveyvisual,2.1,[],8,0.75,
20,dot,0.3,['dot'],['density'],black,0,130,130,130,,,47.90021586418152,47.62005376815796,47.92005491256714,dot,"[0.1, 0.1, 0.06, 0.06, 0.08, 0.06, 0.1, 0.08, 0.1, 0.08, 0.1, 0.1, 0.06, 0.06, 0.06, 0.1, 0.06, 0.08, 0.1, 0.1]","[[-0.2628820953554478, -0.02954969340146374], [-0.10988013073272801, -0.5114787949002685], [0.25968007368008217, 0.3815588017692362], [0.030012200112329968, -0.32801143853483994], [-0.1196825662495421, 0.46959887043074655], [0.04739042463714693, 0.06539900096231899], [0.35668712094882804, 0.025620517327021586], [-0.3837472357188977, 0.41486810843654265], [0.16216431480159377, -0.12517073478652607], [0.5963048308114044, 0.05776374743246791], [-0.49277377679384643, 0.24217150067673382], [-0.3382403296445467, -0.34876971488355013], [0.4627876740987761, -0.1939047618118233], [-0.5031819393180144, -0.12725721928242129], [0.10323865495903839, -0.5282838346507277], [0.4561989615339904, 0.25037705882208455], [0.40420365861857943, -0.406688292050853], [-0.16979670060696278, 0.2168323228142245], [-0.5574547882200442, 0.060537807232308255], [0.16263836570948687, 0.5451272839986075]]",density,black,,,D004,visual,1,[],"['1', '2', '3', '4']",1,2023.2.3,harveyvisual,2.1,[],8,0.75,
0,pause,0.4,None,None,None,0,131,131,131,,,,,,,,,,,,,D004,visual,1,[],"['1', '2', '3', '4']",1,2023.2.3,harveyvisual,2.1,[],8,0.75,
20,dot,0.3,['dot'],['density'],black,0,132,132,132,,,48.6002299785614,48.3200478553772,48.62002897262573,dot,"[0.1, 0.08, 0.08, 0.1, 0.08, 0.06, 0.08, 0.06, 0.06, 0.08, 0.08, 0.1, 0.1, 0.1, 0.06, 0.06, 0.08, 0.08, 0.1, 0.08]","[[-0.4937679398386708, 0.11778965761812576], [-0.1943958481748107, -0.4902638490497018], [0.2108981592570489, 0.5439244595140481], [-0.3200026796571066, 0.3822331293463166], [0.11914823628139182, -0.07101150197624462], [-0.37878745087590693, -0.19479097724430228], [-0.17642022486221876, 0.16714196122946412], [-0.06942588113334536, 0.5460646997769847], [-0.5964351998014228, -0.09281617503949582], [0.56084050654786, 0.12257736101402392], [0.1736973772423378, -0.5011288728585265], [0.3285036982623748, 0.04469828372156437], [0.37508972864881596, 0.43829029472838205], [0.5342600780291874, -0.20064760819564947], [0.2059016960723905, -0.25901375805611604], [-0.16753422801087592, -0.13786971285977456], [0.05473479422014926, 0.39104299513013197], [0.2480380257174768, 0.22728672698974695], [-0.3753310201338951, -0.40916486963094256], [0.3814209189319684, -0.4237557142708079]]",density,black,,,D004,visual,1,[],"['1', '2', '3', '4']",1,2023.2.3,harveyvisual,2.1,[],8,0.75,
0,pause,0.4,None,None,None,0,133,133,133,,,,,,,,,,,,,D004,visual,1,[],"['1', '2', '3', '4']",1,2023.2.3,harveyvisual,2.1,[],8,0.75,
20,dot,0.3,['dot'],['density'],white,0,134,134,134,,,49.30020999908447,49.02005195617676,49.32002091407776,dot,"[0.06, 0.08, 0.1, 0.1, 0.06, 0.06, 0.1, 0.06, 0.08, 0.08, 0.1, 0.08, 0.1, 0.06, 0.08, 0.1, 0.08, 0.08, 0.08, 0.08]","[[0.1931244237631865, 0.3876964062051862], [0.04886118968228781, -0.21338633154693776], [0.44393300231521404, -0.3716447704091883], [-0.519375431402031, -0.1525644515425055], [-0.021353750156441142, 0.21388904183810498], [0.40298167867316226, 0.27081269436992567], [-0.16813073195143557, -0.4848029831749938], [0.21812131736081097, 0.03012964075632063], [-0.36957408719972, 0.157623646919402], [-0.595104980684699, 0.07966470379803732], [-0.13826984261752645, -0.17926168237126655], [-0.011884356253530237, 0.4376467733876541], [-0.20203382282822951, 0.44096187066964476], [-0.4357162324314211, -0.3744264036926672], [0.5191561797533345, 0.08345903554904749], [-0.4332008334335093, 0.3577187946153309], [0.5394732168025479, -0.13807083350449542], [0.07090183063302213, -0.5380707144233194], [-0.30392493416389527, -0.07644101220607369], [-0.025063465190558798, -0.0066016538889059895]]",density,white,,,D004,visual,1,[],"['1', '2', '3', '4']",1,2023.2.3,harveyvisual,2.1,[],8,0.75,
0,pause,0.4,None,None,None,0,135,135,135,,,,,,,,,,,1,49.47552180290222,D004,visual,1,[],"['1', '2', '3', '4']",1,2023.2.3,harveyvisual,2.1,[],8,0.75,
20,dot,0.3,['dot'],['density'],black,0,136,136,136,,,50.000205993652344,49.71999478340149,50.01988482475281,dot,"[0.06, 0.08, 0.08, 0.06, 0.06, 0.06, 0.1, 0.1, 0.06, 0.1, 0.1, 0.08, 0.08, 0.06, 0.1, 0.06, 0.08, 0.06, 0.06, 0.06]","[[-0.07542713732238226, 0.10504299362821845], [0.27599463793805856, 0.38517081661942665], [0.04058592213810175, 0.30419457898768687], [-0.5760057042515245, 0.07072949088786257], [0.5538525324723441, -0.18063490293404372], [-0.13210633514932552, -0.13807308427938253], [-0.34603232359633884, 0.35438378296743595], [0.16870341739076822, 0.040651876173302126], [0.41473653268090926, 0.14434537502167571], [-0.5168035470122294, -0.11498042368476707], [0.10493133398637255, -0.3271818373822134], [0.34894744548385626, -0.09640148057745451], [0.380813080912487, -0.43109518067315195], [-0.5017785116379754, -0.32138682154195525], [0.20633007366135026, -0.5509813899063463], [-0.36116427424581743, 0.11370716928505348], [-0.0933196370469227, -0.38331561974616823], [-0.06167155752787146, 0.49938007560815567], [-0.336141694842305, -0.17676745694124385], [-0.3121322456680598, -0.46643801033192084]]",density,black,,,D004,visual,1,[],"['1', '2', '3', '4']",1,2023.2.3,harveyvisual,2.1,[],8,0.75,
0,pause,0.4,None,None,None,0,137,137,137,,,,,,,,,,,,,D004,visual,1,[],"['1', '2', '3', '4']",1,2023.2.3,harveyvisual,2.1,[],8,0.75,
20,dot,0.3,['dot'],['density'],black,0,138,138,138,,,50.700204849243164,50.420007944107056,50.71998190879822,dot,"[0.08, 0.06, 0.06, 0.08, 0.06, 0.06, 0.08, 0.08, 0.06, 0.1, 0.06, 0.08, 0.1, 0.1, 0.06, 0.1, 0.06, 0.08, 0.1, 0.06]","[[-0.43190901856823416, 0.10323555492981351], [0.40141158362279883, 0.45269672062968325], [-0.051481592725019176, -0.15863218140884577], [0.23029265395103116, -0.017048114444896734], [0.558523382868641, 0.1921231831745416], [-0.42022347168086505, -0.2474139568959561], [-0.4926622183581616, 0.2996790871188974], [0.19308988174689534, -0.36132145304524954], [-0.0015425028383303507, 0.1283198650512044], [0.3708236301875292, -0.4672695443831385], [-0.32711975710086866, -0.42264995772374003], [0.20531803962319606, 0.48316731240445665], [0.5303411624067068, -0.040792363130329745], [-0.1365820258308269, -0.5643093641784226], [-0.16415497272638618, 0.26192552526656643], [-0.0300394011234989, 0.5173380579233617], [-0.5133252693468708, -0.06892857384023543], [0.019896787768258872, -0.45136455172438084], [0.4469032283852875, -0.25762918038167615], [0.2860209435256661, 0.23715706807162407]]",density,black,,,D004,visual,1,[],"['1', '2', '3', '4']",1,2023.2.3,harveyvisual,2.1,[],8,0.75,
0,pause,0.4,None,None,None,0,139,139,139,,,,,,,,,,,,,D004,visual,1,[],"['1', '2', '3', '4']",1,2023.2.3,harveyvisual,2.1,[],8,0.75,
20,dot,0.3,['dot'],['density'],white,0,140,140,140,,,51.400213956832886,51.12004089355469,51.41999888420105,dot,"[0.08, 0.1, 0.06, 0.1, 0.1, 0.08, 0.08, 0.1, 0.08, 0.1, 0.1, 0.08, 0.08, 0.1, 0.06, 0.08, 0.06, 0.06, 0.06, 0.08]","[[0.39596166063087834, 0.11238574568027809], [-0.4734315414639929, -0.10067335458413523], [0.004484245889877059, -0.2745049113156019], [-0.20157657099913873, -0.3121165840326319], [-0.20710679592374964, 0.5400857279299434], [0.5714980415991754, -0.10549626243716266], [-0.18067118909650765, 0.30788783158525523], [0.0741337827863301, 0.11376686602554087], [0.24323990185882494, -0.4079788218211894], [-0.12758320414498497, -0.5501460843678898], [-0.2829645849008423, 0.05087810082722355], [0.26887959188380073, 0.4268817583362463], [-0.3939210684795911, 0.4038586898115561], [-0.13235532130114835, -0.12742586899588765], [0.5860700119075118, 0.10961776273275886], [0.3561202076554184, -0.10752778893410553], [0.019916662135588625, 0.3351018685610585], [-0.3469170917016182, -0.47428374728403805], [0.1831183415217411, -0.1897307746846112], [-0.49444763315749984, 0.21359590902946524]]",density,white,,,D004,visual,1,[],"['1', '2', '3', '4']",1,2023.2.3,harveyvisual,2.1,[],8,0.75,
0,pause,0.4,None,None,None,0,141,141,141,,,,,,,,,,,,,D004,visual,1,[],"['1', '2', '3', '4']",1,2023.2.3,harveyvisual,2.1,[],8,0.75,
20,dot,0.3,['dot'],['density'],white,0,142,142,142,,,52.10021090507507,51.8200888633728,52.12001085281372,dot,"[0.08, 0.1, 0.08, 0.08, 0.1, 0.1, 0.1, 0.1, 0.1, 0.1, 0.08, 0.1, 0.06, 0.08, 0.1, 0.06, 0.1, 0.06, 0.06, 0.06]","[[0.34824193286748184, 0.21020733975214023], [0.2113917322870359, 0.36011853615746625], [-0.26407485080924836, -0.16249263818035947], [0.38027448658664376, -0.010586863087917953], [0.06768768416075621, -0.5863217750389464], [-0.4821437264151969, 0.1516978448712492], [0.0028133904113445407, -0.3283815298082994], [-0.20506792390380424, 0.167377277126731], [-0.10378008427918517, -0.0032250453676849755], [-0.3687063484072683, 0.3345063728372328], [-0.46987454005241125, -0.040366219499548994], [0.3206987120126936, -0.2649371040896369], [-0.17848054595245744, -0.5692766695159109], [-0.09910343747643768, 0.3590280128304183], [-0.3472444161844342, -0.4000412029309905], [0.6046974498893786, 0.00737019060837666], [0.17645032116899606, 0.5586611386247078], [-0.5474038655838352, -0.23485258771700546], [0.19076319889564175, -0.015692225979170082], [0.5028885413866787, 0.32336480872789114]]",density,white,,,D004,visual,1,[],"['1', '2', '3', '4']",1,2023.2.3,harveyvisual,2.1,[],8,0.75,
0,pause,0.4,None,None,None,0,143,143,143,,,,,,,,,,,1,52.32269883155823,D004,visual,1,[],"['1', '2', '3', '4']",1,2023.2.3,harveyvisual,2.1,[],8,0.75,
20,dot,0.3,['dot'],['density'],black,0,144,144,144,,,52.80019998550415,52.520139932632446,52.8200318813324,dot,"[0.08, 0.08, 0.06, 0.1, 0.08, 0.06, 0.1, 0.06, 0.06, 0.06, 0.1, 0.08, 0.08, 0.06, 0.1, 0.1, 0.06, 0.1, 0.1, 0.06]","[[0.34153307722414405, -0.48267141528445384], [0.22314149486838575, -0.26571985811318455], [-0.4281081412635468, -0.15787447745680372], [0.046452069548489794, 0.4083203640912083], [-0.3806450980662461, 0.123852699304487], [-0.22655553684481694, -0.07315772762066919], [0.40866110573221304, 0.4175988614133548], [0.5614215930693719, 0.07325002993657884], [0.0982912517763549, -0.04405800102398827], [0.21029841095013113, 0.18466915963499642], [-0.1977972962587632, 0.49785090318922176], [-0.060841848595149295, 0.18475184230733666], [-0.4184609688162326, -0.42052803942083794], [0.42195805225261684, -0.24386060530694512], [-0.06533095104166664, -0.244145050363823], [0.3385190477628026, 0.012858508485191988], [0.07267713313677815, -0.47208369512031906], [0.1960960063096956, 0.5250266586252187], [-0.5960364429605605, 0.08066540625972958], [-0.39810273235081284, 0.33685783733738445]]",density,black,,,D004,visual,1,[],"['1', '2', '3', '4']",1,2023.2.3,harveyvisual,2.1,[],8,0.75,
0,pause,0.4,None,None,None,0,145,145,145,,,,,,,,,,,,,D004,visual,1,[],"['1', '2', '3', '4']",1,2023.2.3,harveyvisual,2.1,[],8,0.75,
20,dot,0.3,['dot'],['density'],black,0,146,146,146,,,53.500205993652344,53.22003197669983,53.520081996917725,dot,"[0.08, 0.08, 0.08, 0.08, 0.1, 0.1, 0.08, 0.08, 0.06, 0.06, 0.06, 0.1, 0.08, 0.1, 0.08, 0.1, 0.1, 0.06, 0.06, 0.1]","[[0.538970212692193, 0.1794716800199893], [0.31278830542217884, -0.04992923839549984], [0.36499481910087506, 0.28402037795813123], [-0.023051400560319513, 0.5312258322337479], [-0.25239499671699156, -0.13787648200126734], [-0.06731692287198965, 0.1448221503128907], [-0.3838979648417493, -0.46615512182002367], [-0.038830050935193094, -0.40302205693994847], [0.29685129464033144, -0.26577605955192096], [-0.5369258556275943, 0.10153730894682622], [0.1005087329533142, 0.028601679351169418], [-0.30919636117427196, 0.30908118837774434], [0.22146281623648056, 0.5432591168419675], [0.10673939448197423, -0.5790982489381388], [-0.4937410226761631, -0.12994844810848455], [-0.28510269362093965, 0.10838183374607824], [0.5473728128826066, -0.04772990282078424], [0.11750525734259909, 0.2864047493333107], [-0.09506312121097793, 0.35188098892096564], [-0.24641941034051812, -0.3338551666823129]]",density,black,,,D004,visual,1,[],"['1', '2', '3', '4']",1,2023.2.3,harveyvisual,2.1,[],8,0.75,
0,pause,0.4,None,None,None,0,147,147,147,,,,,,,,,,,,,D004,visual,1,[],"['1', '2', '3', '4']",1,2023.2.3,harveyvisual,2.1,[],8,0.75,
20,dot,0.3,['dot'],['density'],black,0,148,148,148,,,54.20022177696228,53.91990780830383,54.21974277496338,dot,"[0.08, 0.06, 0.06, 0.1, 0.1, 0.06, 0.06, 0.08, 0.08, 0.06, 0.08, 0.06, 0.06, 0.08, 0.08, 0.1, 0.06, 0.08, 0.1, 0.1]","[[0.5923556868396483, 0.08615225042464414], [-0.5700645148616946, 0.02470086717685449], [0.22720855411677254, -0.47275516277258767], [0.4515835228352093, 0.3635850932320396], [-0.43628258012982674, 0.2746683817140163], [0.22609597483588917, -0.23726686658141727], [-0.4076679260990884, -0.35681095499385357], [0.4739049785237285, -0.293055938959764], [-0.0034049467677513823, 0.34898364173800855], [-0.14012711333203703, -0.39919724730740586], [0.15886703887491105, 0.5555194377304387], [0.003348330934691335, -0.09672299758857017], [0.42977054730041375, -0.064663734109353], [-0.19725241884015887, 0.5103196600184254], [-0.16340455931259784, 0.16845647827857124], [-0.30931955207903766, -0.02969699925969299], [0.20283529999003858, 0.10291413568437524], [-0.026778883267510545, -0.5647042538849758], [-0.5337208232114146, -0.1931797517373778], [0.23903992552335818, 0.30866539459382425]]",density,black,,,D004,visual,1,[],"['1', '2', '3', '4']",1,2023.2.3,harveyvisual,2.1,[],8,0.75,
0,pause,0.4,None,None,None,0,149,149,149,,,,,,,,,,,,,D004,visual,1,[],"['1', '2', '3', '4']",1,2023.2.3,harveyvisual,2.1,[],8,0.75,
20,dot,0.3,['dot'],['density'],black,0,150,150,150,,,54.90020179748535,54.619778871536255,54.91987681388855,dot,"[0.06, 0.08, 0.08, 0.06, 0.1, 0.08, 0.08, 0.1, 0.06, 0.08, 0.1, 0.1, 0.06, 0.1, 0.1, 0.1, 0.08, 0.08, 0.06, 0.1]","[[0.4650891522737809, 0.2533181543934928], [-0.1866268674583808, 0.5632175683889822], [-0.564136587032614, 0.18719878681586677], [0.16521458355323282, 0.5285482634972859], [-0.4755686597382527, -0.04086574645166896], [0.5101921859620516, 0.04993768515503649], [-0.24210737182591596, -0.2494303924911428], [0.22492840660250302, -0.41025737645648924], [-0.0993222605191596, 0.2592775346381434], [0.5731150142550924, -0.18436446353993202], [-0.08531910884962401, -0.5886946315639259], [-0.1264697060196398, 0.061791308289878444], [0.2984070073325822, 0.3705125468397865], [0.07447486789771596, 0.14674608281608426], [-0.4050743630457967, 0.2935132363804044], [0.04181219886473131, -0.3354011438865269], [0.254773294267549, -0.21595388579906594], [0.33446508280643983, -0.029463454986719095], [-0.39906427467987393, -0.44949056648176766], [-0.5264385267129928, -0.2593668209920201]]",density,black,,,D004,visual,1,[],"['1', '2', '3', '4']",1,2023.2.3,harveyvisual,2.1,[],8,0.75,
0,pause,0.4,None,None,None,0,151,151,151,,,,,,,,,,,,,D004,visual,1,[],"['1', '2', '3', '4']",1,2023.2.3,harveyvisual,2.1,[],8,0.75,
20,dot,0.3,['dot'],['density'],black,0,152,152,152,,,55.600220918655396,55.319928884506226,55.61974382400513,dot,"[0.1, 0.08, 0.1, 0.1, 0.06, 0.1, 0.06, 0.08, 0.08, 0.08, 0.08, 0.06, 0.1, 0.08, 0.08, 0.06, 0.06, 0.1, 0.06, 0.06]","[[0.5389830695881236, -0.19819855281269855], [0.43461368381952925, 0.2160865514824017], [0.5895951720579128, 0.04732045292246814], [0.3800858924150333, -0.05040784934912507], [0.18832899011402993, 0.4534618527240274], [-0.5305498106858781, 0.13934476910666183], [-0.3074442204885568, -0.35053402295619795], [0.13017556638280658, -0.3430599421055986], [-0.3970835799923438, 0.4362985791702597], [-0.10862299194365443, -0.14014861596259448], [-0.19647342614699354, -0.5538145277750975], [0.1493813218898069, -0.15363863158334967], [-0.18595751668624455, 0.3998852147818762], [-0.17037094558251636, 0.12576492974878195], [-0.06694087255702563, -0.40885419839394477], [0.08992739285322349, -0.5788663003649797], [-0.4866051432930074, -0.0789638178035007], [0.398707411086351, -0.4524297597549313], [0.21343796946077054, 0.23360789391439907], [0.333093096648162, -0.25671202619148126]]",density,black,,,D004,visual,1,[],"['1', '2', '3', '4']",1,2023.2.3,harveyvisual,2.1,[],8,0.75,
0,pause,0.4,None,None,None,0,153,153,153,,,,,,,,,,,,,D004,visual,1,[],"['1', '2', '3', '4']",1,2023.2.3,harveyvisual,2.1,[],8,0.75,
20,dot,0.3,['dot'],['density'],black,0,154,154,154,,,56.30021786689758,56.019975900650024,56.31994581222534,dot,"[0.1, 0.06, 0.06, 0.1, 0.08, 0.06, 0.08, 0.06, 0.1, 0.08, 0.06, 0.06, 0.06, 0.06, 0.08, 0.06, 0.06, 0.06, 0.06, 0.1]","[[0.06785308395510581, -0.5804920613793726], [0.3174519931259667, -0.498019137631946], [0.40435742032061783, -0.03429249934091805], [0.04389650001026657, 0.542118043522681], [-0.1927218688995167, 0.05897367168235235], [-0.5690565593555306, 0.11439458004866082], [0.3417395117815617, 0.17426860631739888], [-0.2185537573609418, 0.30663982506020193], [0.16135064805865307, -0.18462008629539278], [-0.04401280740363056, -0.40706515658720926], [-0.09884677601836234, -0.15394774264457795], [-0.46759402514610915, -0.3390319072147615], [0.1958895627949394, 0.3917592785515198], [-0.18999601791048398, -0.5619840858721771], [0.03501458386244427, 0.2768964249892062], [0.11875926656384872, 0.05280422462224055], [-0.43767652698303416, 0.3566272444685031], [0.5358555231860122, -0.18905954274798925], [-0.21177014666133975, 0.5233830465633189], [0.5753764221094865, 0.1012751734644238]]",density,black,,,D004,visual,1,[],"['1', '2', '3', '4']",1,2023.2.3,harveyvisual,2.1,[],8,0.75,
0,pause,0.4,None,None,None,0,155,155,155,,,,,,,,,,,,,D004,visual,1,[],"['1', '2', '3', '4']",1,2023.2.3,harveyvisual,2.1,[],8,0.75,
9,dot,0.3,['dot'],['density'],black,0,156,156,156,,,57.000226974487305,56.719910860061646,57.01994299888611,dot,"[0.1, 0.08, 0.06, 0.06, 0.08, 0.1, 0.06, 0.06, 0.06]","[[0.4907720478217397, -0.04420899316542184], [0.34945142516086164, 0.15252383324094793], [0.5574461082468273, 0.19132091369540322], [0.27860246559707486, -0.040271372914082004], [0.05137088633600719, 0.3166781443626957], [0.3859483744724672, 0.35594746641407654], [0.08124150308634055, -0.11830714188255424], [-0.07254784919135501, 0.1430213671552253], [0.33979531306265204, -0.26214422422440126]]",density,black,,,D004,visual,1,[],"['1', '2', '3', '4']",1,2023.2.3,harveyvisual,2.1,[],8,0.75,
0,pause,0.4,None,None,None,0,157,157,157,,,,,,,,,,,,,D004,visual,1,[],"['1', '2', '3', '4']",1,2023.2.3,harveyvisual,2.1,[],8,0.75,
9,dot,0.3,['dot'],['density'],black,0,158,158,158,,,57.70021677017212,57.419646978378296,57.719805002212524,dot,"[0.08, 0.06, 0.06, 0.06, 0.08, 0.1, 0.06, 0.08, 0.06]","[[0.4433726728065019, 0.22320554513198193], [0.1026133663954636, -0.050786049565613584], [0.20022034484770485, 0.4412403735117007], [0.45250313802570796, 0.010227273383000257], [0.037500571895399265, 0.24935285809920393], [0.23874579090912346, 0.11348512554989887], [0.25013734113836505, -0.23502010549412247], [0.4599692436892986, -0.2536974682823114], [0.04694731086691962, -0.2548367103293993]]",density,black,,,D004,visual,1,[],"['1', '2', '3', '4']",1,2023.2.3,harveyvisual,2.1,[],8,0.75,
0,pause,0.4,None,None,None,0,159,159,159,,,,,,,,,,,,,D004,visual,1,[],"['1', '2', '3', '4']",1,2023.2.3,harveyvisual,2.1,[],8,0.75,
9,dot,0.3,['dot'],['density'],black,0,160,160,160,,,58.40020990371704,58.119789838790894,58.41978693008423,dot,"[0.1, 0.08, 0.1, 0.1, 0.08, 0.08, 0.08, 0.06, 0.08]","[[0.16751238249231654, 0.5577961240465925], [-0.27296145406993233, 0.4862198967380745], [-0.029185467938656964, 0.15062746822878756], [-0.0646201772689005, 0.5687739076077192], [0.1739328392933146, 0.3418730943321047], [-0.141244529573345, 0.32572795328380527], [-0.5161698704605421, 0.1834233825743511], [0.21727962056556488, 0.12903401361548372], [-0.23724269532595021, 0.10991409904419316]]",density,black,,,D004,visual,1,[],"['1', '2', '3', '4']",1,2023.2.3,harveyvisual,2.1,[],8,0.75,
0,pause,0.4,None,None,None,0,161,161,161,,,,,,,,,,,,,D004,visual,1,[],"['1', '2', '3', '4']",1,2023.2.3,harveyvisual,2.1,[],8,0.75,
9,dot,0.3,['dot'],['density'],black,0,162,162,162,,,59.100223779678345,58.819626808166504,59.11976885795593,dot,"[0.08, 0.06, 0.08, 0.06, 0.08, 0.06, 0.08, 0.08, 0.1]","[[-0.03413633707233166, 0.539775862693792], [0.03045342777742709, 0.14881397110038386], [0.3968101769942594, 0.3516381959676015], [-0.12464897846505978, 0.27513009849494485], [0.24828272947848068, 0.13372878599656182], [0.1825630446668698, 0.5466865974155928], [-0.40057775338259505, 0.3148646888607764], [0.06988801613907401, -0.06658504348068199], [0.07277149512897427, 0.3699912437376705]]",density,black,,,D004,visual,1,[],"['1', '2', '3', '4']",1,2023.2.3,harveyvisual,2.1,[],8,0.75,
0,pause,0.4,None,None,None,0,163,163,163,,,,,,,,,,,,,D004,visual,1,[],"['1', '2', '3', '4']",1,2023.2.3,harveyvisual,2.1,[],8,0.75,
9,dot,0.3,['dot'],['density'],black,0,164,164,164,,,59.80022883415222,59.51962685585022,59.81975078582764,dot,"[0.06, 0.1, 0.06, 0.08, 0.08, 0.08, 0.06, 0.08, 0.08]","[[0.5176022259896301, 0.07013652950073157], [0.29073914382076843, 0.49095716113391286], [0.25755010907869064, 0.10321661572421419], [0.11549350267606502, 0.37871636325142816], [-0.040248060121338324, 0.07603447111469516], [0.35733910828644905, -0.07238149579930037], [0.09184169877402729, -0.10424630849328012], [-0.10934901156313583, -0.14911132891814113], [0.4158094160330474, 0.26019999263529187]]",density,black,,,D004,visual,1,[],"['1', '2', '3', '4']",1,2023.2.3,harveyvisual,2.1,[],8,0.75,
0,pause,0.4,None,None,None,0,165,165,165,,,,,,,,,,,,,D004,visual,1,[],"['1', '2', '3', '4']",1,2023.2.3,harveyvisual,2.1,[],8,0.75,
9,dot,0.3,['dot'],['density'],black,0,166,166,166,,,60.50021576881409,60.21974277496338,60.5195848941803,dot,"[0.1, 0.1, 0.06, 0.06, 0.08, 0.08, 0.06, 0.1, 0.1]","[[0.43694394638140777, -0.3313910020207278], [-0.12671083892604185, -0.2904925475365486], [0.20104083284362928, 0.10806727359081147], [0.1376754545064979, -0.09924520624161907], [0.19021248837847174, -0.31516489548878085], [0.3653456942078643, -0.09076399745187974], [0.1403131072824284, -0.5562242851951704], [-0.005445667935095978, 0.0898710966384087], [-0.11923067905189093, -0.07827803450029165]]",density,black,,,D004,visual,1,[],"['1', '2', '3', '4']",1,2023.2.3,harveyvisual,2.1,[],8,0.75,
0,pause,0.4,None,None,None,0,167,167,167,,,,,,,,,,,,,D004,visual,1,[],"['1', '2', '3', '4']",1,2023.2.3,harveyvisual,2.1,[],8,0.75,
8,dot,0.3,['dot'],['density'],black,0,168,168,168,,,61.20022797584534,60.9197199344635,61.21957778930664,dot,"[0.08, 0.06, 0.08, 0.1, 0.08, 0.08, 0.08, 0.1]","[[-0.21605400050023119, -0.36806604112140096], [-0.4331556331222778, 0.1336594927324191], [-0.3157474098875971, -0.1371073420352747], [-0.10064365538588134, -0.10053754910436148], [0.10862445751928086, -0.04115753002163663], [-0.19663983546434133, 0.09424647547905109], [-0.5379272585723496, -0.06117038891009633], [0.023355790718173546, -0.2955553217846553]]",density,black,,,D004,visual,1,[],"['1', '2', '3', '4']",1,2023.2.3,harveyvisual,2.1,[],8,0.75,
0,pause,0.4,None,None,None,0,169,169,169,,,,,,,,,,,,,D004,visual,1,[],"['1', '2', '3', '4']",1,2023.2.3,harveyvisual,2.1,[],8,0.75,
8,dot,0.3,['dot'],['density'],black,0,170,170,170,,,61.90021896362305,61.61952090263367,61.91955089569092,dot,"[0.1, 0.06, 0.06, 0.1, 0.08, 0.06, 0.1, 0.1]","[[-0.012034279999911439, 0.06556808781241986], [-0.3446774290598954, 0.11122635080299646], [0.22428040003470762, 0.1796687910302273], [-0.037221971777983635, 0.5300244249381355], [-0.1456717336157172, 0.2672263832914442], [0.040508406505222534, 0.3412803201140432], [-0.26975617824218623, 0.48628578621654683], [0.24128509790231628, 0.4122343446782376]]",density,black,,,D004,visual,1,[],"['1', '2', '3', '4']",1,2023.2.3,harveyvisual,2.1,[],8,0.75,
0,pause,0.4,None,None,None,0,171,171,171,,,,,,,,,,,,,D004,visual,1,[],"['1', '2', '3', '4']",1,2023.2.3,harveyvisual,2.1,[],8,0.75,
8,dot,0.3,['dot'],['density'],white,0,172,172,172,,,62.60022497177124,62.31968379020691,62.61954879760742,dot,"[0.1, 0.06, 0.08, 0.06, 0.1, 0.08, 0.1, 0.06]","[[-0.17382250058115215, 0.008030820220576582], [-0.5561520679887834, 0.09064024109159684], [-0.2322770524578434, -0.18818443710846813], [-0.41357291590276396, -0.2905316508268561], [-0.37423053416790164, -0.04064357687765813], [-0.014699175284411378, 0.15059198662288528], [-0.015485985535575739, -0.1348843831724925], [-0.36639977644872057, 0.228205681233079]]",density,white,,,D004,visual,1,[],"['1', '2', '3', '4']",1,2023.2.3,harveyvisual,2.1,[],8,0.75,
0,pause,0.4,None,None,None,0,173,173,173,,,,,,,,,,,1,62.74814295768738,D004,visual,1,[],"['1', '2', '3', '4']",1,2023.2.3,harveyvisual,2.1,[],8,0.75,
8,dot,0.3,['dot'],['density'],white,0,174,174,174,,,63.30019998550415,63.01947498321533,63.31964182853699,dot,"[0.1, 0.1, 0.1, 0.1, 0.08, 0.08, 0.06, 0.08]","[[0.1740819983727909, -0.16863019829442621], [0.14644114519141543, -0.4524198896657212], [0.0024885361438939093, 0.023531574910491997], [-0.23717340943857948, -0.31112918658627675], [-0.11311749148073028, -0.46867866316561874], [-0.17928248077090506, -0.060241557052319365], [-0.03957999532622772, -0.24759906754331504], [-0.4644327601918011, -0.3627803331480915]]",density,white,,,D004,visual,1,[],"['1', '2', '3', '4']",1,2023.2.3,harveyvisual,2.1,[],8,0.75,
0,pause,0.4,None,None,None,0,175,175,175,,,,,,,,,,,1,63.43422985076904,D004,visual,1,[],"['1', '2', '3', '4']",1,2023.2.3,harveyvisual,2.1,[],8,0.75,
8,dot,0.3,['dot'],['density'],black,0,176,176,176,,,64.00020289421082,63.719653844833374,64.01963496208191,dot,"[0.08, 0.1, 0.06, 0.06, 0.08, 0.06, 0.06, 0.08]","[[0.48529715144174124, -0.2697678579736521], [0.37309741842769656, 0.0699077870123373], [0.051182379473491794, 0.02141531407813483], [0.5234917469593858, 0.26578075419350655], [0.558201411832675, -0.037120345964853765], [0.22738215197141995, 0.24608732841731215], [0.3038957292845804, -0.12934366054116395], [0.024689158081869923, 0.25216756052328354]]",density,black,,,D004,visual,1,[],"['1', '2', '3', '4']",1,2023.2.3,harveyvisual,2.1,[],8,0.75,
0,pause,0.4,None,None,None,0,177,177,177,,,,,,,,,,,,,D004,visual,1,[],"['1', '2', '3', '4']",1,2023.2.3,harveyvisual,2.1,[],8,0.75,
8,dot,0.3,['dot'],['density'],black,0,178,178,178,,,64.70022988319397,64.41952896118164,64.71961784362793,dot,"[0.08, 0.08, 0.1, 0.06, 0.1, 0.1, 0.06, 0.08]","[[0.12411109391386341, -0.5343823995123961], [-0.21238427398525783, -0.3197389486612228], [-0.06551876445787266, 0.032183079599910736], [0.22034046694826517, 0.05676208929132721], [0.31747551588691986, -0.13046885784073625], [0.01834943727978222, -0.34316474661021057], [0.10776215616131694, -0.12386070969881222], [-0.2386971922539417, -0.09256206635527232]]",density,black,,,D004,visual,1,[],"['1', '2', '3', '4']",1,2023.2.3,harveyvisual,2.1,[],8,0.75,
0,pause,0.4,None,None,None,0,179,179,179,,,,,,,,,,,,,D004,visual,1,[],"['1', '2', '3', '4']",1,2023.2.3,harveyvisual,2.1,[],8,0.75,
7,dot,0.3,['dot'],['density'],black,0,180,180,180,,,65.40022587776184,65.11959481239319,65.41946792602539,dot,"[0.06, 0.1, 0.06, 0.1, 0.06, 0.06, 0.06]","[[0.2037857981676222, -0.1815971672986122], [0.4890839798603071, 0.25295445478885614], [0.1294833597440532, 0.050421522491765555], [0.5249724357971474, 0.014331621614536631], [0.4084294087299191, -0.1546943519977724], [0.31356179590401956, 0.13415696527685209], [-0.016262925640377804, -0.1588315022511765]]",density,black,,,D004,visual,1,[],"['1', '2', '3', '4']",1,2023.2.3,harveyvisual,2.1,[],8,0.75,
0,pause,0.4,None,None,None,0,181,181,181,,,,,,,,,,,,,D004,visual,1,[],"['1', '2', '3', '4']",1,2023.2.3,harveyvisual,2.1,[],8,0.75,
7,dot,0.3,['dot'],['density'],black,0,182,182,182,,,66.10020685195923,65.81943678855896,66.11956596374512,dot,"[0.06, 0.06, 0.08, 0.08, 0.08, 0.1, 0.08]","[[-0.4260259763687212, 0.0015611622021723967], [-0.003169876971998007, 0.13415651360788267], [-0.2586764037849864, 0.4417783913692737], [-0.4397986643511286, 0.306274470342183], [-0.0069778791964768315, 0.3653924841843964], [-0.25662591460159173, 0.21046748777052526], [-0.17930648864359452, 0.007725268650954965]]",density,black,,,D004,visual,1,[],"['1', '2', '3', '4']",1,2023.2.3,harveyvisual,2.1,[],8,0.75,
0,pause,0.4,None,None,None,0,183,183,183,,,,,,,,,,,,,D004,visual,1,[],"['1', '2', '3', '4']",1,2023.2.3,harveyvisual,2.1,[],8,0.75,
7,dot,0.3,['dot'],['density'],white,0,184,184,184,,,66.8002028465271,66.51958799362183,66.81956481933594,dot,"[0.1, 0.06, 0.08, 0.1, 0.1, 0.08, 0.06]","[[0.4852053974746821, 0.2414638673891567], [0.4489127705046299, 0.011725618337583463], [0.18065050592779294, 0.3526250807613559], [0.03625639584007868, 0.1261309995663498], [0.1794309074695897, -0.0624577020416761], [0.2856641480650803, 0.17770493422509798], [0.3124387752689665, -0.21816880331392838]]",density,white,,,D004,visual,1,[],"['1', '2', '3', '4']",1,2023.2.3,harveyvisual,2.1,[],8,0.75,
0,pause,0.4,None,None,None,0,185,185,185,,,,,,,,,,,1,66.99453592300415,D004,visual,1,[],"['1', '2', '3', '4']",1,2023.2.3,harveyvisual,2.1,[],8,0.75,
7,dot,0.3,['dot'],['density'],black,0,186,186,186,,,67.50020980834961,67.21954584121704,67.5194308757782,dot,"[0.06, 0.06, 0.1, 0.08, 0.06, 0.08, 0.1]","[[0.020512593940644967, 0.06058225053891463], [-0.12457192929091994, 0.22210134043855223], [0.2267676360835929, 0.07227077176864677], [-0.19381219694833235, -0.14277017550647156], [0.096077147208419, -0.13886261858003718], [0.087393672000005, 0.26445259248386815], [-0.018663113410245565, 0.4344684582511623]]",density,black,,,D004,visual,1,[],"['1', '2', '3', '4']",1,2023.2.3,harveyvisual,2.1,[],8,0.75,
0,pause,0.4,None,None,None,0,187,187,187,,,,,,,,,,,,,D004,visual,1,[],"['1', '2', '3', '4']",1,2023.2.3,harveyvisual,2.1,[],8,0.75,
7,dot,0.3,['dot'],['density'],black,0,188,188,188,,,68.200199842453,67.91951990127563,68.2195188999176,dot,"[0.06, 0.08, 0.1, 0.06, 0.08, 0.1, 0.08]","[[-0.08751196138777266, -0.40239331021683095], [-0.1389983634140625, -0.1821537091642013], [-0.5212097088452917, -0.15879536445288125], [-0.24197016774290594, 0.025691971861017886], [-0.324083892787021, -0.3083678109532634], [0.06465625853811506, -0.19815494036826437], [-0.2569867334647868, -0.5155038850209747]]",density,black,,,D004,visual,1,[],"['1', '2', '3', '4']",1,2023.2.3,harveyvisual,2.1,[],8,0.75,
0,pause,0.4,None,None,None,0,189,189,189,,,,,,,,,,,,,D004,visual,1,[],"['1', '2', '3', '4']",1,2023.2.3,harveyvisual,2.1,[],8,0.75,
7,dot,0.3,['dot'],['density'],black,0,190,190,190,,,68.90022993087769,68.61937379837036,68.91935181617737,dot,"[0.06, 0.08, 0.06, 0.1, 0.08, 0.06, 0.1]","[[-0.3242652666020733, -0.24505345323409705], [-0.563286395470885, 0.11160295583497896], [-0.1647097641571906, 0.12111961656459011], [-0.36052488434271157, 0.18805397786199418], [-0.09510517377503278, -0.06720219285628748], [-0.3867432997129629, -0.05120750304069932], [-0.32798962767594847, 0.38554234766764234]]",density,black,,,D004,visual,1,[],"['1', '2', '3', '4']",1,2023.2.3,harveyvisual,2.1,[],8,0.75,
0,pause,0.4,None,None,None,0,191,191,191,,,,,,,,,,,,,D004,visual,1,[],"['1', '2', '3', '4']",1,2023.2.3,harveyvisual,2.1,[],8,0.75,
6,dot,0.3,['dot'],['density'],black,0,192,192,192,,,69.60022783279419,69.31949281692505,69.61931300163269,dot,"[0.1, 0.08, 0.08, 0.06, 0.1, 0.06]","[[-0.4718675517483807, -0.080313523620691], [-0.31247550484642445, -0.23218356379105512], [-0.2575593735283343, 0.24158811959194182], [-0.2948669609652105, 0.017652028830845004], [-0.0883702388727292, 0.027494606567874856], [-0.45154527444290743, 0.17691331155056722]]",density,black,,,D004,visual,1,[],"['1', '2', '3', '4']",1,2023.2.3,harveyvisual,2.1,[],8,0.75,
0,pause,0.4,None,None,None,0,193,193,193,,,,,,,,,,,,,D004,visual,1,[],"['1', '2', '3', '4']",1,2023.2.3,harveyvisual,2.1,[],8,0.75,
6,dot,0.3,['dot'],['density'],black,0,194,194,194,,,70.30021381378174,70.01932382583618,70.31930184364319,dot,"[0.08, 0.08, 0.1, 0.08, 0.08, 0.08]","[[0.3299424372810393, 0.4114780133894161], [0.051944887288218326, -0.03233758374135307], [0.4337222981537534, -0.07578498258626121], [0.10477943773033714, 0.1703675017914044], [0.3400878522727408, 0.20016066552806494], [0.2510029109880425, 0.01747244452819591]]",density,black,,,D004,visual,1,[],"['1', '2', '3', '4']",1,2023.2.3,harveyvisual,2.1,[],8,0.75,
0,pause,0.4,None,None,None,0,195,195,195,,,,,,,,,,,,,D004,visual,1,[],"['1', '2', '3', '4']",1,2023.2.3,harveyvisual,2.1,[],8,0.75,
6,dot,0.3,['dot'],['density'],black,0,196,196,196,,,71.00020480155945,70.71933794021606,71.0193419456482,dot,"[0.06, 0.1, 0.06, 0.08, 0.08, 0.1]","[[0.0015484977009578463, -0.37153509484940705], [-0.24631791352898516, -0.16063896847060222], [-0.21037316856202723, -0.37491302730087106], [-0.14520134419833938, 0.05228402714841561], [-0.41979900021501537, -0.27073368115662844], [-0.020720382871846178, -0.14076137757070492]]",density,black,,,D004,visual,1,[],"['1', '2', '3', '4']",1,2023.2.3,harveyvisual,2.1,[],8,0.75,
0,pause,0.4,None,None,None,0,197,197,197,,,,,,,,,,,,,D004,visual,1,[],"['1', '2', '3', '4']",1,2023.2.3,harveyvisual,2.1,[],8,0.75,
6,dot,0.3,['dot'],['density'],black,0,198,198,198,,,71.70022797584534,71.4192898273468,71.71929287910461,dot,"[0.06, 0.08, 0.1, 0.1, 0.06, 0.1]","[[-0.3495133471434448, -0.27378397825191725], [-0.13100446626766318, 0.13866361521721876], [-0.5155090776439144, 0.11776884681908774], [-0.4780287848267884, -0.11588239978167382], [-0.11897161770401087, -0.0933943475842369], [-0.303431097341306, -0.010759678588622423]]",density,black,,,D004,visual,1,[],"['1', '2', '3', '4']",1,2023.2.3,harveyvisual,2.1,[],8,0.75,
0,pause,0.4,None,None,None,0,199,199,199,,,,,,,,,,,,,D004,visual,1,[],"['1', '2', '3', '4']",1,2023.2.3,harveyvisual,2.1,[],8,0.75,
6,dot,0.3,['dot'],['density'],black,0,200,200,200,,,72.40021395683289,72.11926984786987,72.41942882537842,dot,"[0.1, 0.06, 0.06, 0.08, 0.06, 0.08]","[[0.01776890784276672, 0.3448500499300058], [-0.18238616215991446, 0.4840889924469993], [-0.2129582374372363, 0.07157874559070018], [-0.41549008775918617, 0.14353268657608398], [0.019487844458329944, 0.1389587799501653], [-0.21004805074000235, 0.2837936954907191]]",density,black,,,D004,visual,1,[],"['1', '2', '3', '4']",1,2023.2.3,harveyvisual,2.1,[],8,0.75,
0,pause,0.4,None,None,None,0,201,201,201,,,,,,,,,,,,,D004,visual,1,[],"['1', '2', '3', '4']",1,2023.2.3,harveyvisual,2.1,[],8,0.75,
6,dot,0.3,['dot'],['density'],black,0,202,202,202,,,73.10020089149475,72.81927800178528,73.11925792694092,dot,"[0.1, 0.08, 0.06, 0.08, 0.08, 0.06]","[[-0.362545063880459, -0.421860962952156], [-0.24010638466002518, -0.0327569241266412], [-0.22622339336134992, -0.23590116153186103], [-0.41823503972227205, -0.14060420183103206], [-0.028992295722001654, -0.1293578273409096], [-0.1459617666416116, -0.4591052827033254]]",density,black,,,D004,visual,1,[],"['1', '2', '3', '4']",1,2023.2.3,harveyvisual,2.1,[],8,0.75,
0,pause,0.4,None,None,None,0,203,203,203,,,,,,,,,,,,,D004,visual,1,[],"['1', '2', '3', '4']",1,2023.2.3,harveyvisual,2.1,[],8,0.75,
5,dot,0.3,['dot'],['density'],white,0,204,204,204,,,73.80022192001343,73.51938796043396,73.81923294067383,dot,"[0.06, 0.06, 0.1, 0.06, 0.1]","[[0.2075830250205083, 0.5448960418430373], [0.010600229768786232, 0.45420498888786176], [-0.10187712889758427, 0.28364076042242115], [0.1691377395635631, 0.293820614486451], [-0.2596336492265815, 0.40815120909286945]]",density,white,,,D004,visual,1,[],"['1', '2', '3', '4']",1,2023.2.3,harveyvisual,2.1,[],8,0.75,
0,pause,0.4,None,None,None,0,205,205,205,,,,,,,,,,,1,73.92940878868103,D004,visual,1,[],"['1', '2', '3', '4']",1,2023.2.3,harveyvisual,2.1,[],8,0.75,
5,dot,0.3,['dot'],['density'],black,0,206,206,206,,,74.50022578239441,74.21922492980957,74.51939487457275,dot,"[0.08, 0.1, 0.06, 0.1, 0.06]","[[-0.26965218803342234, -0.06061691990321757], [-0.44412238708790114, -0.1605793459593267], [-0.2738608688716076, -0.33598391440877745], [-0.06160694910013377, -0.19463283807086704], [-0.16469008497891707, 0.13324638745272324]]",density,black,,,D004,visual,1,[],"['1', '2', '3', '4']",1,2023.2.3,harveyvisual,2.1,[],8,0.75,
0,pause,0.4,None,None,None,0,207,207,207,,,,,,,,,,,,,D004,visual,1,[],"['1', '2', '3', '4']",1,2023.2.3,harveyvisual,2.1,[],8,0.75,
5,dot,0.3,['dot'],['density'],black,0,208,208,208,,,75.20021200180054,74.9193549156189,75.21934795379639,dot,"[0.08, 0.08, 0.06, 0.1, 0.06]","[[0.45108699871130137, 0.12052648913612102], [0.3120839015871755, -0.055344110322042436], [0.5361186937318446, -0.08608482415671545], [0.24926945818158194, 0.15209517992691748], [0.3855135356736719, -0.25840400127360613]]",density,black,,,D004,visual,1,[],"['1', '2', '3', '4']",1,2023.2.3,harveyvisual,2.1,[],8,0.75,
0,pause,0.4,None,None,None,0,209,209,209,,,,,,,,,,,,,D004,visual,1,[],"['1', '2', '3', '4']",1,2023.2.3,harveyvisual,2.1,[],8,0.75,
5,dot,0.3,['dot'],['density'],black,0,210,210,210,,,75.9002149105072,75.61921191215515,75.91917586326599,dot,"[0.06, 0.06, 0.08, 0.06, 0.06]","[[-0.28680504698685855, -0.37141287089520275], [-0.07941991320777259, -0.3100284666993168], [0.1333965094747872, -0.32231728701695306], [-0.16725551142864267, -0.07802884766317453], [0.04399369704041987, -0.09756099317031844]]",density,black,,,D004,visual,1,[],"['1', '2', '3', '4']",1,2023.2.3,harveyvisual,2.1,[],8,0.75,
0,pause,0.4,None,None,None,0,211,211,211,,,,,,,,,,,,,D004,visual,1,[],"['1', '2', '3', '4']",1,2023.2.3,harveyvisual,2.1,[],8,0.75,
5,dot,0.3,['dot'],['density'],black,0,212,212,212,,,76.60022497177124,76.31930088996887,76.61913990974426,dot,"[0.08, 0.06, 0.08, 0.1, 0.1]","[[0.34746533592570195, 0.16118282603596082], [0.14457128296481445, 0.28865621170929245], [0.4549189851861922, 0.34228556952890804], [0.008483415068308318, 0.44103246018778014], [0.27150044131742485, 0.4621652121832405]]",density,black,,,D004,visual,1,[],"['1', '2', '3', '4']",1,2023.2.3,harveyvisual,2.1,[],8,0.75,
0,pause,0.4,None,None,None,0,213,213,213,,,,,,,,,,,,,D004,visual,1,[],"['1', '2', '3', '4']",1,2023.2.3,harveyvisual,2.1,[],8,0.75,
5,dot,0.3,['dot'],['density'],white,0,214,214,214,,,77.30021095275879,77.01929879188538,77.31914687156677,dot,"[0.06, 0.08, 0.1, 0.1, 0.08]","[[-0.28680504698685855, -0.37141287089520275], [-0.07941991320777259, -0.3100284666993168], [0.1333965094747872, -0.32231728701695306], [-0.16725551142864267, -0.07802884766317453], [0.04399369704041987, -0.09756099317031844]]",density,white,,,D004,visual,1,[],"['1', '2', '3', '4']",1,2023.2.3,harveyvisual,2.1,[],8,0.75,
0,pause,0.4,None,None,None,0,215,215,215,,,,,,,,,,,,,D004,visual,1,[],"['1', '2', '3', '4']",1,2023.2.3,harveyvisual,2.1,[],8,0.75,
4,dot,0.3,['dot'],['density'],black,0,216,216,216,,,78.0002088546753,77.71929383277893,78.0192608833313,dot,"[0.1, 0.1, 0.08, 0.08]","[[0.3510671072586959, 0.39105757673094776], [0.13754249634966464, 0.24690230999823115], [0.2791454519284172, 0.028997379515453933], [0.42442503262497266, 0.18132357243737673]]",density,black,,,D004,visual,1,[],"['1', '2', '3', '4']",1,2023.2.3,harveyvisual,2.1,[],8,0.75,
0,pause,0.4,None,None,None,0,217,217,217,,,,,,,,,,,,,D004,visual,1,[],"['1', '2', '3', '4']",1,2023.2.3,harveyvisual,2.1,[],8,0.75,
4,dot,0.3,['dot'],['density'],black,0,218,218,218,,,78.70020794868469,78.41927599906921,78.71910786628723,dot,"[0.08, 0.06, 0.1, 0.1]","[[-0.46485289602757673, 0.3603628353310837], [-0.30733625211232357, 0.21626236973196436], [-0.38991578213366157, 0.024479253410336757], [-0.570234662048439, 0.14093512067028166]]",density,black,,,D004,visual,1,[],"['1', '2', '3', '4']",1,2023.2.3,harveyvisual,2.1,[],8,0.75,
0,pause,0.4,None,None,None,0,219,219,219,,,,,,,,,,,,,D004,visual,1,[],"['1', '2', '3', '4']",1,2023.2.3,harveyvisual,2.1,[],8,0.75,
4,dot,0.3,['dot'],['density'],white,0,220,220,220,,,79.40021777153015,79.11906599998474,79.41926884651184,dot,"[0.1, 0.1, 0.1, 0.06]","[[-0.22711054503220823, -0.5144049053218714], [-0.016307770745122817, -0.5558659767831347], [-0.26432457165568224, -0.2824025039497699], [-0.026303944553407815, -0.34464361634901186]]",density,white,,,D004,visual,1,[],"['1', '2', '3', '4']",1,2023.2.3,harveyvisual,2.1,[],8,0.75,
0,pause,0.4,None,None,None,0,221,221,221,,,,,,,,,,,,,D004,visual,1,[],"['1', '2', '3', '4']",1,2023.2.3,harveyvisual,2.1,[],8,0.75,
4,dot,0.3,['dot'],['density'],black,0,222,222,222,,,80.10024285316467,79.81906986236572,80.1192569732666,dot,"[0.1, 0.06, 0.06, 0.1]","[[-0.3884818304242726, 0.11421243679268873], [-0.11472928134965246, -0.13141119473891247], [-0.1657593024508462, 0.13368900033666462], [-0.36655717599886073, -0.10387254737714131]]",density,black,1,79.80998301506042,D004,visual,1,[],"['1', '2', '3', '4']",1,2023.2.3,harveyvisual,2.1,[],8,0.75,
0,pause,0.4,None,None,None,0,223,223,223,,,,,,,,,,,,,D004,visual,1,[],"['1', '2', '3', '4']",1,2023.2.3,harveyvisual,2.1,[],8,0.75,
4,dot,0.3,['dot'],['density'],black,0,224,224,224,,,80.80021095275879,80.5192768573761,80.81906795501709,dot,"[0.06, 0.08, 0.08, 0.08]","[[-0.1807894278345534, -0.050693892368996955], [-0.03778933673514029, -0.29773510453537966], [0.0747201162679791, -0.1287424711559737], [-0.02241484737224569, 0.07404475448468936]]",density,black,,,D004,visual,1,[],"['1', '2', '3', '4']",1,2023.2.3,harveyvisual,2.1,[],8,0.75,
0,pause,0.4,None,None,None,0,225,225,225,,,,,,,,,,,,,D004,visual,1,[],"['1', '2', '3', '4']",1,2023.2.3,harveyvisual,2.1,[],8,0.75,
4,dot,0.3,['dot'],['density'],black,0,226,226,226,,,81.50022387504578,81.21903395652771,81.51901292800903,dot,"[0.1, 0.06, 0.1, 0.06]","[[-0.22711054503220823, -0.5144049053218714], [-0.016307770745122817, -0.5558659767831347], [-0.26432457165568224, -0.2824025039497699], [-0.026303944553407815, -0.34464361634901186]]",density,black,,,D004,visual,1,[],"['1', '2', '3', '4']",1,2023.2.3,harveyvisual,2.1,[],8,0.75,
0,pause,0.4,None,None,None,0,227,227,227,,,,,,,,,,,,,D004,visual,1,[],"['1', '2', '3', '4']",1,2023.2.3,harveyvisual,2.1,[],8,0.75,
3,dot,0.3,['dot'],['density'],white,0,228,228,228,,,82.20021295547485,81.91902685165405,82.2190158367157,dot,"[0.08, 0.06, 0.1]","[[0.4290032298944087, 0.1407520187648592], [0.22848299553954127, 0.06362144779139585], [0.3595680574788582, -0.09433362503040832]]",density,white,,,D004,visual,1,[],"['1', '2', '3', '4']",1,2023.2.3,harveyvisual,2.1,[],8,0.75,
0,pause,0.4,None,None,None,0,229,229,229,,,,,,,,,,,1,82.27353596687317,D004,visual,1,[],"['1', '2', '3', '4']",1,2023.2.3,harveyvisual,2.1,[],8,0.75,
3,dot,0.3,['dot'],['density'],black,0,230,230,230,,,82.900230884552,82.61903786659241,82.91919183731079,dot,"[0.1, 0.1, 0.08]","[[0.4995185571857965, 0.14229679706320136], [0.2944600495073675, 0.23335097983198633], [0.330752226915583, 0.0299241169750933]]",density,black,,,D004,visual,1,[],"['1', '2', '3', '4']",1,2023.2.3,harveyvisual,2.1,[],8,0.75,
0,pause,0.4,None,None,None,0,231,231,231,,,,,,,,,,,,,D004,visual,1,[],"['1', '2', '3', '4']",1,2023.2.3,harveyvisual,2.1,[],8,0.75,
3,dot,0.3,['dot'],['density'],white,0,232,232,232,,,83.60021996498108,83.31913590431213,83.6189558506012,dot,"[0.1, 0.06, 0.08]","[[0.5383732683216915, 0.24050044654635605], [0.337973319445641, 0.36292363064724675], [0.3422154310588786, 0.14570949010333048]]",density,white,,,D004,visual,1,[],"['1', '2', '3', '4']",1,2023.2.3,harveyvisual,2.1,[],8,0.75,
0,pause,0.4,None,None,None,0,233,233,233,,,,,,,,,,,,,D004,visual,1,[],"['1', '2', '3', '4']",1,2023.2.3,harveyvisual,2.1,[],8,0.75,
3,dot,0.3,['dot'],['density'],black,0,234,234,234,,,84.30024194717407,84.01916098594666,84.31915998458862,dot,"[0.06, 0.06, 0.06]","[[-0.10589639487257244, 0.35295021258352427], [0.12780035046084517, 0.3479378296372768], [0.013663645537612555, 0.51889388118174]]",density,black,1,84.0795738697052,D004,visual,1,[],"['1', '2', '3', '4']",1,2023.2.3,harveyvisual,2.1,[],8,0.75,
0,pause,0.4,None,None,None,0,235,235,235,,,,,,,,,,,,,D004,visual,1,[],"['1', '2', '3', '4']",1,2023.2.3,harveyvisual,2.1,[],8,0.75,
3,dot,0.3,['dot'],['density'],black,0,236,236,236,,,85.00022578239441,84.71916794776917,85.01919198036194,dot,"[0.08, 0.1, 0.06]","[[0.35100391059830643, -0.4491085892346253], [0.13011513135189492, -0.5590284990295896], [0.16905753934955023, -0.35714526366544236]]",density,black,,,D004,visual,1,[],"['1', '2', '3', '4']",1,2023.2.3,harveyvisual,2.1,[],8,0.75,
0,pause,0.4,None,None,None,0,237,237,237,,,,,,,,,,,,,D004,visual,1,[],"['1', '2', '3', '4']",1,2023.2.3,harveyvisual,2.1,[],8,0.75,
3,dot,0.3,['dot'],['density'],white,0,238,238,238,,,85.70021796226501,85.41917896270752,85.7189269065857,dot,"[0.06, 0.06, 0.08]","[[0.2656832518280197, 0.0014864193765316018], [0.3503107158811183, -0.1826455867164705], [0.5188928509039705, -0.04177453376365527]]",density,white,,,D004,visual,1,[],"['1', '2', '3', '4']",1,2023.2.3,harveyvisual,2.1,[],8,0.75,
0,pause,0.4,None,None,None,0,239,239,239,,,,,,,,,,,1,85.84684491157532,D004,visual,1,[],"['1', '2', '3', '4']",1,2023.2.3,harveyvisual,2.1,[],8,0.75,
2,dot,0.3,['dot'],['density'],black,0,240,240,240,,,86.4002149105072,86.11906480789185,86.41890788078308,dot,"[0.1, 0.1]","[[0.24818458179829028, -0.5230613829255512], [0.05315527151035717, -0.47711981276458415]]",density,black,,,D004,visual,1,[],"['1', '2', '3', '4']",1,2023.2.3,harveyvisual,2.1,[],8,0.75,
0,pause,0.4,None,None,None,0,241,241,241,,,,,,,,,,,,,D004,visual,1,[],"['1', '2', '3', '4']",1,2023.2.3,harveyvisual,2.1,[],8,0.75,
2,dot,0.3,['dot'],['density'],black,0,242,242,242,,,87.10021495819092,86.81905579566956,87.11891293525696,dot,"[0.06, 0.1]","[[-0.03288134563171543, -0.4238564918242606], [-0.10611641736664675, -0.2370354775439666]]",density,black,,,D004,visual,1,[],"['1', '2', '3', '4']",1,2023.2.3,harveyvisual,2.1,[],8,0.75,
0,pause,0.4,None,None,None,0,243,243,243,,,,,,,,,,,,,D004,visual,1,[],"['1', '2', '3', '4']",1,2023.2.3,harveyvisual,2.1,[],8,0.75,
2,dot,0.3,['dot'],['density'],black,0,244,244,244,,,87.80020499229431,87.5190658569336,87.81887078285217,dot,"[0.1, 0.06]","[[0.1734117655345296, 0.46860731914486053], [-0.01847566562869785, 0.52581935004857]]",density,black,,,D004,visual,1,[],"['1', '2', '3', '4']",1,2023.2.3,harveyvisual,2.1,[],8,0.75,
0,pause,0.4,None,None,None,0,245,245,245,,,,,,,,,,,,,D004,visual,1,[],"['1', '2', '3', '4']",1,2023.2.3,harveyvisual,2.1,[],8,0.75,
2,dot,0.3,['dot'],['density'],black,0,246,246,246,,,88.50020480155945,88.2188618183136,88.51885294914246,dot,"[0.06, 0.08]","[[0.038501021189721846, -0.3380528513692932], [0.2360793696083702, -0.306423538752856]]",density,black,,,D004,visual,1,[],"['1', '2', '3', '4']",1,2023.2.3,harveyvisual,2.1,[],8,0.75,
0,pause,0.4,None,None,None,0,247,247,247,,,,,,,,,,,,,D004,visual,1,[],"['1', '2', '3', '4']",1,2023.2.3,harveyvisual,2.1,[],8,0.75,
2,dot,0.3,['dot'],['density'],black,0,248,248,248,,,89.20020890235901,88.91884088516235,89.21898794174194,dot,"[0.1, 0.08]","[[0.2713647219188039, -0.029235290058335472], [0.46697437826705046, 0.014145112521712659]]",density,black,,,D004,visual,1,[],"['1', '2', '3', '4']",1,2023.2.3,harveyvisual,2.1,[],8,0.75,
0,pause,0.4,None,None,None,0,249,249,249,,,,,,,,,,,,,D004,visual,1,[],"['1', '2', '3', '4']",1,2023.2.3,harveyvisual,2.1,[],8,0.75,
2,dot,0.3,['dot'],['density'],black,0,250,250,250,,,89.9002058506012,89.61880779266357,89.91879987716675,dot,"[0.1, 0.1]","[[-0.3970652553054307, 0.36151140161898554], [-0.22306532646831484, 0.26288994227005946]]",density,black,,,D004,visual,1,[],"['1', '2', '3', '4']",1,2023.2.3,harveyvisual,2.1,[],8,0.75,
0,pause,0.4,None,None,None,0,251,251,251,,,,,,,,,,,,,D004,visual,1,[],"['1', '2', '3', '4']",1,2023.2.3,harveyvisual,2.1,[],8,0.75,
1,dot,0.3,['dot'],['density'],black,0,252,252,252,,,90.60020995140076,90.31898093223572,90.61877393722534,dot,[0.08],"[-0.06064478149429028, 0.10204082006191012]",density,black,,,D004,visual,1,[],"['1', '2', '3', '4']",1,2023.2.3,harveyvisual,2.1,[],8,0.75,
0,pause,0.4,None,None,None,0,253,253,253,,,,,,,,,,,,,D004,visual,1,[],"['1', '2', '3', '4']",1,2023.2.3,harveyvisual,2.1,[],8,0.75,
1,dot,0.3,['dot'],['density'],black,0,254,254,254,,,91.3002119064331,91.01891589164734,91.31891798973083,dot,[0.08],"[-0.22364231775977078, 0.4637426405669522]",density,black,,,D004,visual,1,[],"['1', '2', '3', '4']",1,2023.2.3,harveyvisual,2.1,[],8,0.75,
0,pause,0.4,None,None,None,0,255,255,255,,,,,,,,,,,,,D004,visual,1,[],"['1', '2', '3', '4']",1,2023.2.3,harveyvisual,2.1,[],8,0.75,
1,dot,0.3,['dot'],['density'],black,0,256,256,256,,,92.00022196769714,91.71877694129944,92.01890182495117,dot,[0.08],"[0.075024325262877, 0.28946834799837856]",density,black,,,D004,visual,1,[],"['1', '2', '3', '4']",1,2023.2.3,harveyvisual,2.1,[],8,0.75,
0,pause,0.4,None,None,None,0,257,257,257,,,,,,,,,,,,,D004,visual,1,[],"['1', '2', '3', '4']",1,2023.2.3,harveyvisual,2.1,[],8,0.75,
1,dot,0.3,['dot'],['density'],black,0,258,258,258,,,92.70022487640381,92.41888380050659,92.71873593330383,dot,[0.06],"[0.14557363600905707, -0.03994760510263185]",density,black,,,D004,visual,1,[],"['1', '2', '3', '4']",1,2023.2.3,harveyvisual,2.1,[],8,0.75,
0,pause,0.4,None,None,None,0,259,259,259,,,,,,,,,,,,,D004,visual,1,[],"['1', '2', '3', '4']",1,2023.2.3,harveyvisual,2.1,[],8,0.75,
1,dot,0.3,['dot'],['density'],black,0,260,260,260,,,93.40022087097168,93.11871385574341,93.41874694824219,dot,[0.1],"[-0.4913090862596544, 0.31587628757091063]",density,black,,,D004,visual,1,[],"['1', '2', '3', '4']",1,2023.2.3,harveyvisual,2.1,[],8,0.75,
0,pause,0.4,None,None,None,0,261,261,261,,,,,,,,,,,,,D004,visual,1,[],"['1', '2', '3', '4']",1,2023.2.3,harveyvisual,2.1,[],8,0.75,
1,dot,0.3,['dot'],['density'],black,0,262,262,262,,,94.10022187232971,93.81885194778442,94.11885190010071,dot,[0.08],"[-0.2532192430475575, -0.5275431624831907]",density,black,,,D004,visual,1,[],"['1', '2', '3', '4']",1,2023.2.3,harveyvisual,2.1,[],8,0.75,
0,pause,0.4,None,None,None,0,263,263,263,,,,,,,,,,,,,D004,visual,1,[],"['1', '2', '3', '4']",1,2023.2.3,harveyvisual,2.1,[],8,0.75,
20,dot,0.3,['dot'],['density'],black,0,264,264,264,,,94.80022382736206,94.51872396469116,94.81873178482056,dot,"[0.1, 0.1, 0.1, 0.06, 0.1, 0.08, 0.1, 0.1, 0.06, 0.1, 0.08, 0.08, 0.08, 0.08, 0.06, 0.08, 0.08, 0.06, 0.06, 0.1]","[[0.3743435752535641, 0.3981076676231982], [-0.5460939004114844, 0.015587300021784545], [-0.11606427332501668, 0.4844513836726677], [0.20725177894787794, 0.5286388934352328], [-0.31126044471183595, 0.3227028025953719], [-0.3557917710845885, -0.03175742141872995], [-0.009930879493057487, -0.07074453153371096], [-0.07355661658937251, 0.20158470737475975], [-0.5309870299227715, -0.23227514062004798], [0.5570552082595247, 0.0011748795664352218], [0.21793719747927365, 0.009883627785993276], [-0.10104904133193393, -0.45116095756799357], [0.26683117703711856, -0.434639801604853], [-0.17898233183124168, 0.03696231001639316], [-0.2006385395841021, -0.19793718469832822], [0.07398338659322723, -0.5955444400906453], [0.20134312553139422, 0.279599347073368], [0.0478377135261393, -0.33305896931002], [0.5161802065936872, 0.19439759084186775], [0.42940814171856834, -0.26354271103611593]]",density,black,,,D004,visual,1,[],"['1', '2', '3', '4']",1,2023.2.3,harveyvisual,2.1,[],8,0.75,
0,pause,0.4,None,None,None,0,265,265,265,,,,,,,,,,,,,D004,visual,1,[],"['1', '2', '3', '4']",1,2023.2.3,harveyvisual,2.1,[],8,0.75,
20,dot,0.3,['dot'],['density'],black,0,266,266,266,,,95.50022983551025,95.21880888938904,95.51879978179932,dot,"[0.06, 0.1, 0.1, 0.1, 0.08, 0.06, 0.1, 0.08, 0.08, 0.08, 0.08, 0.08, 0.1, 0.06, 0.1, 0.08, 0.06, 0.08, 0.08, 0.1]","[[0.013543366479555674, -0.451329185588352], [0.59388715628771, -0.09810043105716708], [0.3099108373402647, -0.06044936865562883], [-0.2259189666379468, 0.3805288962962926], [-0.03099254147648134, 0.3559885780828824], [0.3494714847239605, 0.1594507604226002], [-0.5714480897230991, -0.1340754653802454], [0.034601688022084964, -0.21315565791862756], [-0.22072937953769328, -0.3342542062612925], [0.03503243132548306, 0.09802788091479286], [0.42624275780906984, -0.3445087484812978], [0.21289611531651198, -0.3385275351413003], [-0.2597813325396255, 0.058606569673818054], [0.14238715243888167, 0.46848680490297223], [-0.4261792905454683, 0.38319445071091063], [0.5061713275175367, 0.27486555185269645], [-0.4736076396183345, 0.11082863426161571], [-0.32856836440993686, -0.4905775193518984], [-0.40953665576968845, -0.311850408380002], [-0.28706723843753146, -0.13523399024277166]]",density,black,,,D004,visual,1,[],"['1', '2', '3', '4']",1,2023.2.3,harveyvisual,2.1,[],8,0.75,
0,pause,0.4,None,None,None,0,267,267,267,,,,,,,,,,,,,D004,visual,1,[],"['1', '2', '3', '4']",1,2023.2.3,harveyvisual,2.1,[],8,0.75,
