num,mod,duration,shape,ll_cond,colors,.thisRepN,.thisTrialN,.thisN,.thisIndex,thisRow.t,notes,raw_global_time,t_start,t_stop,shapes,size,pos,cond,color,button,RT,participant,session,starting_run,left button (match/odd),right button (non-match/even),samples_per_block,psychopy version,expName,offset,audio,number_runs,radius,
1,dot,0.3,['dot'],['density'],black,0,0,0,0,,,2.400217056274414,2.1029131412506104,2.4028329849243164,dot,[0.1],"[-0.48958603946102763, 0.32731293615049173]",density,black,,,D004,visual,1,[],"['1', '2', '3', '4']",1,2023.2.3,harveyvisual,2.1,[],8,0.75,
0,pause,0.4,None,None,None,0,1,1,1,,,,,,,,,,,,,D004,visual,1,[],"['1', '2', '3', '4']",1,2023.2.3,harveyvisual,2.1,[],8,0.75,
1,dot,0.3,['dot'],['density'],black,0,2,2,2,,,3.1002180576324463,2.802826166152954,3.102811098098755,dot,[0.08],"[0.4123293050259286, 0.03564095151647579]",density,black,,,D004,visual,1,[],"['1', '2', '3', '4']",1,2023.2.3,harveyvisual,2.1,[],8,0.75,
0,pause,0.4,None,None,None,0,3,3,3,,,,,,,,,,,,,D004,visual,1,[],"['1', '2', '3', '4']",1,2023.2.3,harveyvisual,2.1,[],8,0.75,
1,dot,0.3,['dot'],['density'],black,0,4,4,4,,,3.800204038619995,3.5028090476989746,3.8027939796447754,dot,[0.08],"[0.2287398259034258, -0.3932960849464651]",density,black,,,D004,visual,1,[],"['1', '2', '3', '4']",1,2023.2.3,harveyvisual,2.1,[],8,0.75,
0,pause,0.4,None,None,None,0,5,5,5,,,,,,,,,,,,,D004,visual,1,[],"['1', '2', '3', '4']",1,2023.2.3,harveyvisual,2.1,[],8,0.75,
1,dot,0.3,['dot'],['density'],black,0,6,6,6,,,4.500225067138672,4.202784061431885,4.502799987792969,dot,[0.1],"[0.14557363600905707, -0.03994760510263185]",density,black,,,D004,visual,1,[],"['1', '2', '3', '4']",1,2023.2.3,harveyvisual,2.1,[],8,0.75,
0,pause,0.4,None,None,None,0,7,7,7,,,,,,,,,,,,,D004,visual,1,[],"['1', '2', '3', '4']",1,2023.2.3,harveyvisual,2.1,[],8,0.75,
1,dot,0.3,['dot'],['density'],black,0,8,8,8,,,5.200226068496704,4.902770042419434,5.2027671337127686,dot,[0.08],"[0.0038807231877187303, -0.2777732366953785]",density,black,,,D004,visual,1,[],"['1', '2', '3', '4']",1,2023.2.3,harveyvisual,2.1,[],8,0.75,
0,pause,0.4,None,None,None,0,9,9,9,,,,,,,,,,,,,D004,visual,1,[],"['1', '2', '3', '4']",1,2023.2.3,harveyvisual,2.1,[],8,0.75,
1,dot,0.3,['dot'],['density'],black,0,10,10,10,,,5.900223016738892,5.602750062942505,5.902736186981201,dot,[0.1],"[0.46628601751002285, 0.12197617226191985]",density,black,,,D004,visual,1,[],"['1', '2', '3', '4']",1,2023.2.3,harveyvisual,2.1,[],8,0.75,
0,pause,0.4,None,None,None,0,11,11,11,,,,,,,,,,,,,D004,visual,1,[],"['1', '2', '3', '4']",1,2023.2.3,harveyvisual,2.1,[],8,0.75,
2,dot,0.3,['dot'],['density'],black,0,12,12,12,,,6.600222110748291,6.302731990814209,6.602720022201538,dot,"[0.06, 0.06]","[[0.2713647219188039, -0.029235290058335472], [0.46697437826705046, 0.014145112521712659]]",density,black,,,D004,visual,1,[],"['1', '2', '3', '4']",1,2023.2.3,harveyvisual,2.1,[],8,0.75,
0,pause,0.4,None,None,None,0,13,13,13,,,,,,,,,,,,,D004,visual,1,[],"['1', '2', '3', '4']",1,2023.2.3,harveyvisual,2.1,[],8,0.75,
2,dot,0.3,['dot'],['density'],black,0,14,14,14,,,7.300220012664795,7.002718210220337,7.302695035934448,dot,"[0.06, 0.08]","[[-0.020654750029313704, 0.3891656546739414], [-0.0007759068931318763, 0.19000611836641118]]",density,black,,,D004,visual,1,[],"['1', '2', '3', '4']",1,2023.2.3,harveyvisual,2.1,[],8,0.75,
0,pause,0.4,None,None,None,0,15,15,15,,,,,,,,,,,,,D004,visual,1,[],"['1', '2', '3', '4']",1,2023.2.3,harveyvisual,2.1,[],8,0.75,
2,dot,0.3,['dot'],['density'],black,0,16,16,16,,,8.000210046768188,7.7026941776275635,8.002681016921997,dot,"[0.1, 0.1]","[[0.21195259569903124, -0.4986433684978455], [0.023877440871594643, -0.42921284787985464]]",density,black,,,D004,visual,1,[],"['1', '2', '3', '4']",1,2023.2.3,harveyvisual,2.1,[],8,0.75,
0,pause,0.4,None,None,None,0,17,17,17,,,,,,,,,,,,,D004,visual,1,[],"['1', '2', '3', '4']",1,2023.2.3,harveyvisual,2.1,[],8,0.75,
2,dot,0.3,['dot'],['density'],black,0,18,18,18,,,8.700206995010376,8.402647018432617,8.702807188034058,dot,"[0.08, 0.06]","[[0.21195259569903124, -0.4986433684978455], [0.023877440871594643, -0.42921284787985464]]",density,black,,,D004,visual,1,[],"['1', '2', '3', '4']",1,2023.2.3,harveyvisual,2.1,[],8,0.75,
0,pause,0.4,None,None,None,0,19,19,19,,,,,,,,,,,,,D004,visual,1,[],"['1', '2', '3', '4']",1,2023.2.3,harveyvisual,2.1,[],8,0.75,
2,dot,0.3,['dot'],['density'],black,0,20,20,20,,,9.40021300315857,9.102665185928345,9.40261697769165,dot,"[0.06, 0.08]","[[0.2713647219188039, -0.029235290058335472], [0.46697437826705046, 0.014145112521712659]]",density,black,,,D004,visual,1,[],"['1', '2', '3', '4']",1,2023.2.3,harveyvisual,2.1,[],8,0.75,
0,pause,0.4,None,None,None,0,21,21,21,,,,,,,,,,,,,D004,visual,1,[],"['1', '2', '3', '4']",1,2023.2.3,harveyvisual,2.1,[],8,0.75,
2,dot,0.3,['dot'],['density'],black,0,22,22,22,,,10.10022521018982,9.80264401435852,10.102751016616821,dot,"[0.06, 0.08]","[[-0.22897676209827808, 0.468650264003531], [-0.0598036877009514, 0.5760211786176329]]",density,black,,,D004,visual,1,[],"['1', '2', '3', '4']",1,2023.2.3,harveyvisual,2.1,[],8,0.75,
0,pause,0.4,None,None,None,0,23,23,23,,,,,,,,,,,,,D004,visual,1,[],"['1', '2', '3', '4']",1,2023.2.3,harveyvisual,2.1,[],8,0.75,
3,dot,0.3,['dot'],['density'],black,0,24,24,24,,,10.800199031829834,10.502615213394165,10.802603006362915,dot,"[0.08, 0.08, 0.1]","[[-0.015545778166788895, 0.3668732894324268], [-0.08169376046335623, 0.5804400028356697], [-0.24536523618143577, 0.46292967544173164]]",density,black,,,D004,visual,1,[],"['1', '2', '3', '4']",1,2023.2.3,harveyvisual,2.1,[],8,0.75,
0,pause,0.4,None,None,None,0,25,25,25,,,,,,,,,,,,,D004,visual,1,[],"['1', '2', '3', '4']",1,2023.2.3,harveyvisual,2.1,[],8,0.75,
3,dot,0.3,['dot'],['density'],black,0,26,26,26,,,11.500205993652344,11.202683210372925,11.502552032470703,dot,"[0.08, 0.1, 0.06]","[[-0.1827482077423914, 0.13189758396693702], [0.006935645283384683, 0.04732296079382947], [-0.049709858873230685, 0.28599666368451326]]",density,black,,,D004,visual,1,[],"['1', '2', '3', '4']",1,2023.2.3,harveyvisual,2.1,[],8,0.75,
0,pause,0.4,None,None,None,0,27,27,27,,,,,,,,,,,,,D004,visual,1,[],"['1', '2', '3', '4']",1,2023.2.3,harveyvisual,2.1,[],8,0.75,
3,dot,0.3,['dot'],['density'],black,0,28,28,28,,,12.200214147567749,11.902578115463257,12.202664136886597,dot,"[0.1, 0.1, 0.06]","[[0.06695044750400271, -0.4036822973150869], [0.2898428615912539, -0.43752325319744867], [0.2484486434572057, -0.2241911098289173]]",density,black,,,D004,visual,1,[],"['1', '2', '3', '4']",1,2023.2.3,harveyvisual,2.1,[],8,0.75,
0,pause,0.4,None,None,None,0,29,29,29,,,,,,,,,,,,,D004,visual,1,[],"['1', '2', '3', '4']",1,2023.2.3,harveyvisual,2.1,[],8,0.75,
3,dot,0.3,['dot'],['density'],black,0,30,30,30,,,12.900212049484253,12.602560997009277,12.902551174163818,dot,"[0.1, 0.08, 0.08]","[[-0.5081709494874314, 0.1572673197774781], [-0.37009835501087307, 0.006965763417246156], [-0.5707172634768017, -0.07177594851347295]]",density,black,,,D004,visual,1,[],"['1', '2', '3', '4']",1,2023.2.3,harveyvisual,2.1,[],8,0.75,
0,pause,0.4,None,None,None,0,31,31,31,,,,,,,,,,,,,D004,visual,1,[],"['1', '2', '3', '4']",1,2023.2.3,harveyvisual,2.1,[],8,0.75,
3,dot,0.3,['dot'],['density'],black,0,32,32,32,,,13.600221157073975,13.30259108543396,13.602529048919678,dot,"[0.06, 0.1, 0.08]","[[-0.04083818552357515, -0.522177599776496], [0.2241586230204485, -0.5188142294055383], [0.09506152973916207, -0.364648334381489]]",density,black,,,D004,visual,1,[],"['1', '2', '3', '4']",1,2023.2.3,harveyvisual,2.1,[],8,0.75,
0,pause,0.4,None,None,None,0,33,33,33,,,,,,,,,,,,,D004,visual,1,[],"['1', '2', '3', '4']",1,2023.2.3,harveyvisual,2.1,[],8,0.75,
3,dot,0.3,['dot'],['density'],black,0,34,34,34,,,14.300220012664795,14.002576112747192,14.302634000778198,dot,"[0.06, 0.08, 0.06]","[[0.13574725429899362, -0.5423283227425341], [-0.036793286563257144, -0.3768814925557267], [0.16175487704753985, -0.3348017255345844]]",density,black,,,D004,visual,1,[],"['1', '2', '3', '4']",1,2023.2.3,harveyvisual,2.1,[],8,0.75,
0,pause,0.4,None,None,None,0,35,35,35,,,,,,,,,,,,,D004,visual,1,[],"['1', '2', '3', '4']",1,2023.2.3,harveyvisual,2.1,[],8,0.75,
4,dot,0.3,['dot'],['density'],black,0,36,36,36,,,15.000200033187866,14.702506065368652,15.00248908996582,dot,"[0.06, 0.06, 0.06, 0.1]","[[-0.43942495523079517, -0.22401056498097033], [-0.009260832099230759, -0.1633376679159051], [-0.21598309108097546, -0.10172603009605206], [-0.2278206133413005, -0.33154874685782076]]",density,black,,,D004,visual,1,[],"['1', '2', '3', '4']",1,2023.2.3,harveyvisual,2.1,[],8,0.75,
0,pause,0.4,None,None,None,0,37,37,37,,,,,,,,,,,,,D004,visual,1,[],"['1', '2', '3', '4']",1,2023.2.3,harveyvisual,2.1,[],8,0.75,
4,dot,0.3,['dot'],['density'],black,0,38,38,38,,,15.70022201538086,15.402462005615234,15.702473163604736,dot,"[0.1, 0.1, 0.08, 0.06]","[[-0.5133923796685119, -0.13567638448558317], [-0.3102378593599109, -0.17790160316510653], [-0.5338837235738882, 0.07316730980410076], [-0.255286731521037, 0.022123457211080083]]",density,black,,,D004,visual,1,[],"['1', '2', '3', '4']",1,2023.2.3,harveyvisual,2.1,[],8,0.75,
0,pause,0.4,None,None,None,0,39,39,39,,,,,,,,,,,,,D004,visual,1,[],"['1', '2', '3', '4']",1,2023.2.3,harveyvisual,2.1,[],8,0.75,
4,dot,0.3,['dot'],['density'],black,0,40,40,40,,,16.400214195251465,16.102472066879272,16.40243411064148,dot,"[0.1, 0.06, 0.08, 0.1]","[[0.107131415583101, 0.03171316484874249], [0.3330877778846877, 0.14211400081541528], [0.23058747141838212, -0.24340322486593785], [0.3173726134345681, -0.05921806988573682]]",density,black,,,D004,visual,1,[],"['1', '2', '3', '4']",1,2023.2.3,harveyvisual,2.1,[],8,0.75,
0,pause,0.4,None,None,None,0,41,41,41,,,,,,,,,,,,,D004,visual,1,[],"['1', '2', '3', '4']",1,2023.2.3,harveyvisual,2.1,[],8,0.75,
4,dot,0.3,['dot'],['density'],black,0,42,42,42,,,17.100220203399658,16.802448987960815,17.102442026138306,dot,"[0.08, 0.08, 0.1, 0.08]","[[0.2593869086993074, -0.26887741013308497], [0.09674879007849839, -0.39609983087723066], [-0.011093693993988496, -0.14004324908426333], [0.28630805459639813, -0.4681830009867555]]",density,black,,,D004,visual,1,[],"['1', '2', '3', '4']",1,2023.2.3,harveyvisual,2.1,[],8,0.75,
0,pause,0.4,None,None,None,0,43,43,43,,,,,,,,,,,,,D004,visual,1,[],"['1', '2', '3', '4']",1,2023.2.3,harveyvisual,2.1,[],8,0.75,
4,dot,0.3,['dot'],['density'],black,0,44,44,44,,,17.800225019454956,17.502451181411743,17.802423000335693,dot,"[0.08, 0.1, 0.06, 0.08]","[[-0.264878088602857, 0.22906395790450432], [0.07239228809704809, 0.2615492699427171], [0.10034738543262733, 0.4676118263175188], [-0.09637524959065707, 0.3769302803343899]]",density,black,,,D004,visual,1,[],"['1', '2', '3', '4']",1,2023.2.3,harveyvisual,2.1,[],8,0.75,
0,pause,0.4,None,None,None,0,45,45,45,,,,,,,,,,,,,D004,visual,1,[],"['1', '2', '3', '4']",1,2023.2.3,harveyvisual,2.1,[],8,0.75,
4,dot,0.3,['dot'],['density'],black,0,46,46,46,,,18.500224113464355,18.202589988708496,18.502368211746216,dot,"[0.06, 0.08, 0.06, 0.06]","[[-0.34940937311115045, -0.11648702989399858], [-0.2695829051223266, -0.4589438614516443], [-0.4698604504367728, -0.3018413850444449], [-0.18849712946501163, -0.26902343222239633]]",density,black,,,D004,visual,1,[],"['1', '2', '3', '4']",1,2023.2.3,harveyvisual,2.1,[],8,0.75,
0,pause,0.4,None,None,None,0,47,47,47,,,,,,,,,,,,,D004,visual,1,[],"['1', '2', '3', '4']",1,2023.2.3,harveyvisual,2.1,[],8,0.75,
5,dot,0.3,['dot'],['density'],black,0,48,48,48,,,19.2002010345459,18.902395009994507,19.20251703262329,dot,"[0.06, 0.1, 0.06, 0.08, 0.06]","[[0.2075830250205083, 0.5448960418430373], [0.010600229768786232, 0.45420498888786176], [-0.10187712889758427, 0.28364076042242115], [0.1691377395635631, 0.293820614486451], [-0.2596336492265815, 0.40815120909286945]]",density,black,,,D004,visual,1,[],"['1', '2', '3', '4']",1,2023.2.3,harveyvisual,2.1,[],8,0.75,
0,pause,0.4,None,None,None,0,49,49,49,,,,,,,,,,,,,D004,visual,1,[],"['1', '2', '3', '4']",1,2023.2.3,harveyvisual,2.1,[],8,0.75,
5,dot,0.3,['dot'],['density'],black,0,50,50,50,,,19.900222063064575,19.60250210762024,19.902364015579224,dot,"[0.08, 0.06, 0.06, 0.08, 0.08]","[[-0.26965218803342234, -0.06061691990321757], [-0.44412238708790114, -0.1605793459593267], [-0.2738608688716076, -0.33598391440877745], [-0.06160694910013377, -0.19463283807086704], [-0.16469008497891707, 0.13324638745272324]]",density,black,,,D004,visual,1,[],"['1', '2', '3', '4']",1,2023.2.3,harveyvisual,2.1,[],8,0.75,
0,pause,0.4,None,None,None,0,51,51,51,,,,,,,,,,,,,D004,visual,1,[],"['1', '2', '3', '4']",1,2023.2.3,harveyvisual,2.1,[],8,0.75,
5,dot,0.3,['dot'],['density'],black,0,52,52,52,,,20.600211143493652,20.30236315727234,20.602346181869507,dot,"[0.1, 0.08, 0.08, 0.1, 0.08]","[[-0.28680504698685855, -0.37141287089520275], [-0.07941991320777259, -0.3100284666993168], [0.1333965094747872, -0.32231728701695306], [-0.16725551142864267, -0.07802884766317453], [0.04399369704041987, -0.09756099317031844]]",density,black,,,D004,visual,1,[],"['1', '2', '3', '4']",1,2023.2.3,harveyvisual,2.1,[],8,0.75,
0,pause,0.4,None,None,None,0,53,53,53,,,,,,,,,,,,,D004,visual,1,[],"['1', '2', '3', '4']",1,2023.2.3,harveyvisual,2.1,[],8,0.75,
5,dot,0.3,['dot'],['density'],black,0,54,54,54,,,21.30020499229431,21.002336025238037,21.302329063415527,dot,"[0.1, 0.08, 0.1, 0.1, 0.1]","[[0.05896558140131438, -0.5342250951568444], [0.41924064092593105, -0.38742881471212404], [0.0789485457987589, -0.15857793529431863], [0.19859038409043042, -0.3300393182504279], [-0.04229804568701367, -0.31959008629620334]]",density,black,,,D004,visual,1,[],"['1', '2', '3', '4']",1,2023.2.3,harveyvisual,2.1,[],8,0.75,
0,pause,0.4,None,None,None,0,55,55,55,,,,,,,,,,,,,D004,visual,1,[],"['1', '2', '3', '4']",1,2023.2.3,harveyvisual,2.1,[],8,0.75,
5,dot,0.3,['dot'],['density'],black,0,56,56,56,,,22.000225067138672,21.702311038970947,22.002315044403076,dot,"[0.06, 0.06, 0.06, 0.08, 0.08]","[[-0.07969108163070573, 0.258241044050758], [-0.3301768112222262, 0.22562982972330062], [-0.16453040906828167, -0.1622271318141552], [-0.21753854086321037, 0.04365873274764029], [0.030347216865940038, 0.07834852794011457]]",density,black,,,D004,visual,1,[],"['1', '2', '3', '4']",1,2023.2.3,harveyvisual,2.1,[],8,0.75,
0,pause,0.4,None,None,None,0,57,57,57,,,,,,,,,,,,,D004,visual,1,[],"['1', '2', '3', '4']",1,2023.2.3,harveyvisual,2.1,[],8,0.75,
5,dot,0.3,['dot'],['density'],black,0,58,58,58,,,22.700213193893433,22.402804136276245,22.719479084014893,dot,"[0.1, 0.08, 0.08, 0.06, 0.06]","[[-0.2338402938730933, 0.15846616122991625], [-0.3229678957369872, -0.0901175890533356], [-0.5034912146055804, 0.021834460539281654], [-0.23914892391179104, -0.28496604153387733], [-0.10132718886958789, -0.1172648190903725]]",density,black,,,D004,visual,1,[],"['1', '2', '3', '4']",1,2023.2.3,harveyvisual,2.1,[],8,0.75,
0,pause,0.4,None,None,None,0,59,59,59,,,,,,,,,,,,,D004,visual,1,[],"['1', '2', '3', '4']",1,2023.2.3,harveyvisual,2.1,[],8,0.75,
6,dot,0.3,['dot'],['density'],black,0,60,60,60,,,23.400222063064575,23.102833032608032,23.419440031051636,dot,"[0.08, 0.08, 0.06, 0.08, 0.08, 0.1]","[[-0.560843418842529, -0.11752527585456686], [-0.31277608783648175, 0.04003545118838376], [-0.18207900664359264, -0.3652956678781814], [-0.41442909117718774, -0.4038021739217259], [-0.14446849917993246, -0.07035639226176245], [-0.3420415871796019, -0.1631057353810994]]",density,black,,,D004,visual,1,[],"['1', '2', '3', '4']",1,2023.2.3,harveyvisual,2.1,[],8,0.75,
0,pause,0.4,None,None,None,0,61,61,61,,,,,,,,,,,,,D004,visual,1,[],"['1', '2', '3', '4']",1,2023.2.3,harveyvisual,2.1,[],8,0.75,
6,dot,0.3,['dot'],['density'],black,0,62,62,62,,,24.100218057632446,23.80278706550598,24.11943507194519,dot,"[0.08, 0.08, 0.1, 0.1, 0.1, 0.1]","[[-0.3622751979984162, 0.41275935807220604], [-0.5464806003183257, 0.06358334875023645], [-0.15518785678585886, 0.34969079698534317], [-0.3231370338359737, -0.02193421190541931], [-0.3473470749510941, 0.19885557425221048], [-0.12382976466594668, 0.04156566071734393]]",density,black,,,D004,visual,1,[],"['1', '2', '3', '4']",1,2023.2.3,harveyvisual,2.1,[],8,0.75,
0,pause,0.4,None,None,None,0,63,63,63,,,,,,,,,,,,,D004,visual,1,[],"['1', '2', '3', '4']",1,2023.2.3,harveyvisual,2.1,[],8,0.75,
6,dot,0.3,['dot'],['density'],black,0,64,64,64,,,24.800207138061523,24.502739191055298,24.820598125457764,dot,"[0.06, 0.06, 0.08, 0.08, 0.06, 0.1]","[[0.5108460974500976, 0.10904555526594768], [0.5033362887342737, -0.29902707163897635], [0.3062164979741722, 0.05793810054487639], [0.22849736264613016, -0.28041776899433873], [0.12909977445373055, -0.06500178518750158], [0.41889526300287094, -0.11616960582105396]]",density,black,,,D004,visual,1,[],"['1', '2', '3', '4']",1,2023.2.3,harveyvisual,2.1,[],8,0.75,
0,pause,0.4,None,None,None,0,65,65,65,,,,,,,,,,,,,D004,visual,1,[],"['1', '2', '3', '4']",1,2023.2.3,harveyvisual,2.1,[],8,0.75,
6,dot,0.3,['dot'],['density'],black,0,66,66,66,,,25.500205039978027,25.22063708305359,25.520583152770996,dot,"[0.06, 0.06, 0.06, 0.06, 0.1, 0.08]","[[-0.560843418842529, -0.11752527585456686], [-0.31277608783648175, 0.04003545118838376], [-0.18207900664359264, -0.3652956678781814], [-0.41442909117718774, -0.4038021739217259], [-0.14446849917993246, -0.07035639226176245], [-0.3420415871796019, -0.1631057353810994]]",density,black,,,D004,visual,1,[],"['1', '2', '3', '4']",1,2023.2.3,harveyvisual,2.1,[],8,0.75,
0,pause,0.4,None,None,None,0,67,67,67,,,,,,,,,,,,,D004,visual,1,[],"['1', '2', '3', '4']",1,2023.2.3,harveyvisual,2.1,[],8,0.75,
6,dot,0.3,['dot'],['density'],black,0,68,68,68,,,26.20020318031311,25.9206120967865,26.220593214035034,dot,"[0.08, 0.1, 0.06, 0.06, 0.08, 0.06]","[[0.404576257273406, 0.0700140295133255], [0.16236872381874318, -0.0021128728600973284], [0.5529541989122894, -0.15659614737169442], [0.13702497511457395, -0.2589057080071786], [0.36740063964394665, -0.3636528069500345], [0.3132750905084481, -0.159771579268986]]",density,black,,,D004,visual,1,[],"['1', '2', '3', '4']",1,2023.2.3,harveyvisual,2.1,[],8,0.75,
0,pause,0.4,None,None,None,0,69,69,69,,,,,,,,,,,,,D004,visual,1,[],"['1', '2', '3', '4']",1,2023.2.3,harveyvisual,2.1,[],8,0.75,
6,dot,0.3,['dot'],['density'],white,0,70,70,70,,,26.900207042694092,26.620596170425415,26.920578002929688,dot,"[0.08, 0.06, 0.08, 0.08, 0.06, 0.08]","[[0.23041567882598732, 0.45619944218456715], [0.5278859611842325, 0.18245830030246968], [0.08738225171760033, 0.1578384040678088], [0.20561463112105705, -0.03996865664556224], [0.3021721310554224, 0.21718230064421146], [0.4273755636869532, 0.38341374408431883]]",density,white,,,D004,visual,1,[],"['1', '2', '3', '4']",1,2023.2.3,harveyvisual,2.1,[],8,0.75,
0,pause,0.4,None,None,None,0,71,71,71,,,,,,,,,,,1,26.56775403022766,D004,visual,1,[],"['1', '2', '3', '4']",1,2023.2.3,harveyvisual,2.1,[],8,0.75,
7,dot,0.3,['dot'],['density'],black,0,72,72,72,,,27.600224018096924,27.320556163787842,27.62051820755005,dot,"[0.06, 0.06, 0.08, 0.1, 0.08, 0.08, 0.1]","[[0.2037857981676222, -0.1815971672986122], [0.4890839798603071, 0.25295445478885614], [0.1294833597440532, 0.050421522491765555], [0.5249724357971474, 0.014331621614536631], [0.4084294087299191, -0.1546943519977724], [0.31356179590401956, 0.13415696527685209], [-0.016262925640377804, -0.1588315022511765]]",density,black,,,D004,visual,1,[],"['1', '2', '3', '4']",1,2023.2.3,harveyvisual,2.1,[],8,0.75,
0,pause,0.4,None,None,None,0,73,73,73,,,,,,,,,,,,,D004,visual,1,[],"['1', '2', '3', '4']",1,2023.2.3,harveyvisual,2.1,[],8,0.75,
7,dot,0.3,['dot'],['density'],black,0,74,74,74,,,28.300206184387207,28.02054715156555,28.320545196533203,dot,"[0.1, 0.1, 0.08, 0.06, 0.1, 0.08, 0.06]","[[0.27964692832129656, -0.15500474148311624], [0.48019533028943556, 0.09933774746227163], [0.08203545767143021, 0.28019381302663365], [0.05572057582720619, -0.1426303369841539], [0.31711281236335803, 0.2944831276535668], [-0.041479771322150735, 0.11885700406191958], [0.21045310206912196, 0.07075003364957701]]",density,black,,,D004,visual,1,[],"['1', '2', '3', '4']",1,2023.2.3,harveyvisual,2.1,[],8,0.75,
0,pause,0.4,None,None,None,0,75,75,75,,,,,,,,,,,,,D004,visual,1,[],"['1', '2', '3', '4']",1,2023.2.3,harveyvisual,2.1,[],8,0.75,
7,dot,0.3,['dot'],['density'],black,0,76,76,76,,,29.000205993652344,28.720540046691895,29.020519018173218,dot,"[0.06, 0.1, 0.06, 0.1, 0.1, 0.06, 0.1]","[[-0.23022292756182125, -0.05768485575552839], [-0.3970021412728509, -0.1722837668104814], [-0.2989980436724142, -0.5015189566068301], [-0.1887121522124618, -0.3052937986494308], [-0.001193606839323686, -0.45187687349833133], [-0.45251418858811787, -0.367940027934103], [0.11213422846620591, -0.19711986939188722]]",density,black,,,D004,visual,1,[],"['1', '2', '3', '4']",1,2023.2.3,harveyvisual,2.1,[],8,0.75,
0,pause,0.4,None,None,None,0,77,77,77,,,,,,,,,,,,,D004,visual,1,[],"['1', '2', '3', '4']",1,2023.2.3,harveyvisual,2.1,[],8,0.75,
7,dot,0.3,['dot'],['density'],black,0,78,78,78,,,29.700204133987427,29.420478105545044,29.720503091812134,dot,"[0.1, 0.08, 0.1, 0.1, 0.08, 0.08, 0.06]","[[-0.39883248072855915, 0.30823732592088265], [-0.041341486549100435, 0.2390478988097413], [-0.013495537319202725, 0.5211111720540192], [-0.2415889716500472, 0.10795059447242317], [-0.023803066389735523, 0.02076064871433158], [0.14387498046506175, 0.3548008600093999], [-0.24331877599120405, 0.46521846842164205]]",density,black,,,D004,visual,1,[],"['1', '2', '3', '4']",1,2023.2.3,harveyvisual,2.1,[],8,0.75,
0,pause,0.4,None,None,None,0,79,79,79,,,,,,,,,,,,,D004,visual,1,[],"['1', '2', '3', '4']",1,2023.2.3,harveyvisual,2.1,[],8,0.75,
7,dot,0.3,['dot'],['density'],black,0,80,80,80,,,30.400227069854736,30.12051010131836,30.42045021057129,dot,"[0.06, 0.06, 0.08, 0.06, 0.08, 0.08, 0.08]","[[0.27964692832129656, -0.15500474148311624], [0.48019533028943556, 0.09933774746227163], [0.08203545767143021, 0.28019381302663365], [0.05572057582720619, -0.1426303369841539], [0.31711281236335803, 0.2944831276535668], [-0.041479771322150735, 0.11885700406191958], [0.21045310206912196, 0.07075003364957701]]",density,black,,,D004,visual,1,[],"['1', '2', '3', '4']",1,2023.2.3,harveyvisual,2.1,[],8,0.75,
0,pause,0.4,None,None,None,0,81,81,81,,,,,,,,,,,,,D004,visual,1,[],"['1', '2', '3', '4']",1,2023.2.3,harveyvisual,2.1,[],8,0.75,
7,dot,0.3,['dot'],['density'],black,0,82,82,82,,,31.10020613670349,30.820479154586792,31.120465993881226,dot,"[0.06, 0.1, 0.06, 0.06, 0.1, 0.06, 0.06]","[[-0.4123410031792677, -0.32555807737620884], [-0.11281232420725038, -0.2658066965482441], [-0.16970574590124413, 0.10972852905085191], [-0.380148642061964, 0.19816541478521793], [-0.49975943015608576, -0.10400723965324657], [-0.30003386022098844, -0.09340949099572564], [-0.0679185705411078, -0.06780919729272472]]",density,black,,,D004,visual,1,[],"['1', '2', '3', '4']",1,2023.2.3,harveyvisual,2.1,[],8,0.75,
0,pause,0.4,None,None,None,0,83,83,83,,,,,,,,,,,,,D004,visual,1,[],"['1', '2', '3', '4']",1,2023.2.3,harveyvisual,2.1,[],8,0.75,
8,dot,0.3,['dot'],['density'],black,0,84,84,84,,,31.800222158432007,31.52042007446289,31.820444107055664,dot,"[0.1, 0.1, 0.06, 0.06, 0.1, 0.08, 0.06, 0.1]","[[0.3129921899656287, 0.2226642157048143], [0.41298599633021416, -0.001766323215076977], [0.013785601627645026, 0.39275307090924344], [-0.009407606244017683, 0.02333367620517349], [0.20163499737495916, -0.08731087547331118], [0.31235423233837933, 0.42762820752661124], [0.10705959187470679, 0.21318577255187057], [-0.13233007013452783, 0.20605257250075132]]",density,black,,,D004,visual,1,[],"['1', '2', '3', '4']",1,2023.2.3,harveyvisual,2.1,[],8,0.75,
0,pause,0.4,None,None,None,0,85,85,85,,,,,,,,,,,,,D004,visual,1,[],"['1', '2', '3', '4']",1,2023.2.3,harveyvisual,2.1,[],8,0.75,
8,dot,0.3,['dot'],['density'],black,0,86,86,86,,,32.50021409988403,32.220444202423096,32.5203959941864,dot,"[0.08, 0.1, 0.08, 0.06, 0.08, 0.06, 0.08, 0.06]","[[0.17295790489511154, -0.46037743866749825], [0.1416591427765588, 0.05421051799673566], [0.21994266958916148, -0.13656690113679631], [0.3639906379971415, 0.0627265571221228], [0.015481321741344221, -0.13916897583717935], [0.440802488837635, -0.2883976186876931], [0.5157567705321767, -0.08800602901884749], [0.24768837887357187, 0.24424825162618136]]",density,black,,,D004,visual,1,[],"['1', '2', '3', '4']",1,2023.2.3,harveyvisual,2.1,[],8,0.75,
0,pause,0.4,None,None,None,0,87,87,87,,,,,,,,,,,,,D004,visual,1,[],"['1', '2', '3', '4']",1,2023.2.3,harveyvisual,2.1,[],8,0.75,
8,dot,0.3,['dot'],['density'],black,0,88,88,88,,,33.200206995010376,32.92058515548706,33.22041416168213,dot,"[0.08, 0.06, 0.1, 0.1, 0.1, 0.1, 0.1, 0.06]","[[-0.012034279999911439, 0.06556808781241986], [-0.3446774290598954, 0.11122635080299646], [0.22428040003470762, 0.1796687910302273], [-0.037221971777983635, 0.5300244249381355], [-0.1456717336157172, 0.2672263832914442], [0.040508406505222534, 0.3412803201140432], [-0.26975617824218623, 0.48628578621654683], [0.24128509790231628, 0.4122343446782376]]",density,black,,,D004,visual,1,[],"['1', '2', '3', '4']",1,2023.2.3,harveyvisual,2.1,[],8,0.75,
0,pause,0.4,None,None,None,0,89,89,89,,,,,,,,,,,,,D004,visual,1,[],"['1', '2', '3', '4']",1,2023.2.3,harveyvisual,2.1,[],8,0.75,
8,dot,0.3,['dot'],['density'],black,0,90,90,90,,,33.90021109580994,33.62042212486267,33.92041301727295,dot,"[0.08, 0.06, 0.1, 0.06, 0.08, 0.06, 0.06, 0.06]","[[0.34834348934164344, -0.28812382596974456], [-0.10329597477015798, -0.5243874580500916], [0.11080732975293575, -0.39067626210733153], [-0.006800183936578442, -0.10390350920236302], [0.17453264242573352, -0.004648084789036161], [-0.11839138898177409, -0.2765800857961495], [-0.2122949223397977, -0.08354151726817095], [0.0010823045536620208, 0.09995244087301837]]",density,black,,,D004,visual,1,[],"['1', '2', '3', '4']",1,2023.2.3,harveyvisual,2.1,[],8,0.75,
0,pause,0.4,None,None,None,0,91,91,91,,,,,,,,,,,,,D004,visual,1,[],"['1', '2', '3', '4']",1,2023.2.3,harveyvisual,2.1,[],8,0.75,
8,dot,0.3,['dot'],['density'],black,0,92,92,92,,,34.60020613670349,34.32040619850159,34.620368003845215,dot,"[0.1, 0.1, 0.1, 0.1, 0.06, 0.08, 0.1, 0.06]","[[-0.17382250058115215, 0.008030820220576582], [-0.5561520679887834, 0.09064024109159684], [-0.2322770524578434, -0.18818443710846813], [-0.41357291590276396, -0.2905316508268561], [-0.37423053416790164, -0.04064357687765813], [-0.014699175284411378, 0.15059198662288528], [-0.015485985535575739, -0.1348843831724925], [-0.36639977644872057, 0.228205681233079]]",density,black,,,D004,visual,1,[],"['1', '2', '3', '4']",1,2023.2.3,harveyvisual,2.1,[],8,0.75,
0,pause,0.4,None,None,None,0,93,93,93,,,,,,,,,,,,,D004,visual,1,[],"['1', '2', '3', '4']",1,2023.2.3,harveyvisual,2.1,[],8,0.75,
8,dot,0.3,['dot'],['density'],black,0,94,94,94,,,35.300220012664795,35.02036809921265,35.32036805152893,dot,"[0.06, 0.06, 0.08, 0.1, 0.1, 0.06, 0.08, 0.1]","[[0.28112832868380594, 0.3075763237432237], [-0.21381995858864508, 0.197554992839043], [0.14035436555963224, -0.1470740351963634], [-0.04856350071149823, -0.017306043905309515], [0.12070301707556046, 0.11279463428917226], [0.35236156425888765, 0.046198621115284964], [-0.012223412543992913, 0.3265760435025566], [0.11745206869397669, 0.49408919182137495]]",density,black,,,D004,visual,1,[],"['1', '2', '3', '4']",1,2023.2.3,harveyvisual,2.1,[],8,0.75,
0,pause,0.4,None,None,None,0,95,95,95,,,,,,,,,,,,,D004,visual,1,[],"['1', '2', '3', '4']",1,2023.2.3,harveyvisual,2.1,[],8,0.75,
9,dot,0.3,['dot'],['density'],black,0,96,96,96,,,36.00021719932556,35.72032904624939,36.02033805847168,dot,"[0.1, 0.06, 0.08, 0.06, 0.06, 0.06, 0.08, 0.1, 0.1]","[[0.21556792455118703, 0.37642033042102185], [0.14366510572844648, -0.18651452926789283], [0.49642287684820396, -0.0794158383055628], [-0.04770628609247857, -0.12519201939426747], [0.20310136493979325, 0.154094551714378], [-0.004065485174475974, 0.09100382633055243], [-0.018053901421587658, 0.34918523294118026], [0.29624623666919286, -0.053344657000752645], [-0.2018857737562037, 0.01971770186205045]]",density,black,,,D004,visual,1,[],"['1', '2', '3', '4']",1,2023.2.3,harveyvisual,2.1,[],8,0.75,
0,pause,0.4,None,None,None,0,97,97,97,,,,,,,,,,,,,D004,visual,1,[],"['1', '2', '3', '4']",1,2023.2.3,harveyvisual,2.1,[],8,0.75,
9,dot,0.3,['dot'],['density'],black,0,98,98,98,,,36.70021915435791,36.42029809951782,36.72033905982971,dot,"[0.06, 0.08, 0.06, 0.06, 0.06, 0.06, 0.06, 0.06, 0.08]","[[0.38655548767220327, 0.3303110468779764], [-0.15062718332117264, 0.3263612679497012], [0.12850016508903517, 0.5435449351404695], [0.04975739233973968, 0.11256198773833849], [0.05418506391445401, 0.3174451450657875], [0.282644584802279, 0.13382110200906677], [0.4968372747528943, 0.11977440893831985], [-0.17748280977865974, 0.12733825933579754], [-0.16508880216336755, 0.5437291489982663]]",density,black,,,D004,visual,1,[],"['1', '2', '3', '4']",1,2023.2.3,harveyvisual,2.1,[],8,0.75,
0,pause,0.4,None,None,None,0,99,99,99,,,,,,,,,,,,,D004,visual,1,[],"['1', '2', '3', '4']",1,2023.2.3,harveyvisual,2.1,[],8,0.75,
9,dot,0.3,['dot'],['density'],black,0,100,100,100,,,37.400227069854736,37.12032103538513,37.42026710510254,dot,"[0.08, 0.08, 0.06, 0.1, 0.08, 0.1, 0.06, 0.08, 0.06]","[[-0.06218673389315922, -0.4689115343027075], [0.3660477402554353, -0.15396192139437054], [0.1401329754895462, -0.14262156541192547], [0.12293598154832706, -0.38779640022673934], [0.42645158233284447, -0.3607859009111275], [-0.06238477126329685, -0.2564764349502154], [-0.2584688277182379, -0.29964401945706215], [-0.11312192996032899, -0.05439345917292958], [0.19096873654163896, 0.1321853744035435]]",density,black,,,D004,visual,1,[],"['1', '2', '3', '4']",1,2023.2.3,harveyvisual,2.1,[],8,0.75,
0,pause,0.4,None,None,None,0,101,101,101,,,,,,,,,,,,,D004,visual,1,[],"['1', '2', '3', '4']",1,2023.2.3,harveyvisual,2.1,[],8,0.75,
9,dot,0.3,['dot'],['density'],black,0,102,102,102,,,38.10022306442261,37.82029700279236,38.12030005455017,dot,"[0.08, 0.08, 0.08, 0.06, 0.06, 0.06, 0.06, 0.08, 0.06]","[[-0.3974741157875733, -0.3691322615124248], [0.01813275331019438, -0.041305186939584786], [-0.297817964195003, 0.1404435238036691], [-0.24996212712231053, -0.10674501212047392], [-0.45607543705465475, -0.10954340680539053], [-0.5097726394514722, 0.08872958744943038], [-0.16376728557074105, -0.3354799619734228], [-0.07115584905184995, 0.17737469530672276], [-0.4529869372404742, 0.29851616761646654]]",density,black,,,D004,visual,1,[],"['1', '2', '3', '4']",1,2023.2.3,harveyvisual,2.1,[],8,0.75,
0,pause,0.4,None,None,None,0,103,103,103,,,,,,,,,,,,,D004,visual,1,[],"['1', '2', '3', '4']",1,2023.2.3,harveyvisual,2.1,[],8,0.75,
9,dot,0.3,['dot'],['density'],black,0,104,104,104,,,38.80020499229431,38.52024698257446,38.82026219367981,dot,"[0.06, 0.1, 0.08, 0.1, 0.06, 0.08, 0.1, 0.1, 0.1]","[[0.16751238249231654, 0.5577961240465925], [-0.27296145406993233, 0.4862198967380745], [-0.029185467938656964, 0.15062746822878756], [-0.0646201772689005, 0.5687739076077192], [0.1739328392933146, 0.3418730943321047], [-0.141244529573345, 0.32572795328380527], [-0.5161698704605421, 0.1834233825743511], [0.21727962056556488, 0.12903401361548372], [-0.23724269532595021, 0.10991409904419316]]",density,black,,,D004,visual,1,[],"['1', '2', '3', '4']",1,2023.2.3,harveyvisual,2.1,[],8,0.75,
0,pause,0.4,None,None,None,0,105,105,105,,,,,,,,,,,,,D004,visual,1,[],"['1', '2', '3', '4']",1,2023.2.3,harveyvisual,2.1,[],8,0.75,
9,dot,0.3,['dot'],['density'],black,0,106,106,106,,,39.500219106674194,39.22027015686035,39.52021312713623,dot,"[0.1, 0.1, 0.08, 0.1, 0.08, 0.06, 0.06, 0.1, 0.08]","[[-0.05049485011715354, 0.3013521193238899], [0.15354596755057998, 0.36785015051376163], [0.22995749783639982, 0.07309138415424772], [0.13460311710395165, -0.18603378415368982], [0.33097739113381164, -0.13822260855557728], [-0.16464148731134703, 0.07190493829483618], [0.521154897315396, -0.007803673430992942], [0.02684304494395013, 0.0018704401699241912], [-0.15545279255173522, -0.15329938800760382]]",density,black,,,D004,visual,1,[],"['1', '2', '3', '4']",1,2023.2.3,harveyvisual,2.1,[],8,0.75,
0,pause,0.4,None,None,None,0,107,107,107,,,,,,,,,,,,,D004,visual,1,[],"['1', '2', '3', '4']",1,2023.2.3,harveyvisual,2.1,[],8,0.75,
20,dot,0.3,['dot'],['density'],black,0,108,108,108,,,40.20021319389343,39.92024207115173,40.22025108337402,dot,"[0.06, 0.1, 0.08, 0.1, 0.1, 0.1, 0.08, 0.08, 0.08, 0.08, 0.06, 0.1, 0.1, 0.06, 0.06, 0.08, 0.08, 0.08, 0.08, 0.1]","[[0.46585593953175664, -0.2019684994038708], [-0.07789724146168353, -0.564654497609387], [0.22084354919021498, -0.1680763329045225], [-0.11873274421530422, 0.37795258215630734], [0.42028221229587015, 0.07377696531428363], [0.35969048470077447, 0.32303473110292497], [0.2350478798688982, -0.3588736994447413], [-0.5000037998665012, 0.18368117661405226], [0.03038589248847079, 0.02117685342685094], [-0.21098184557645389, -0.12407295673623431], [-0.562682511928006, -0.1392216953797668], [-0.36819504581266693, 0.3297574228296218], [-0.39176141562379996, -0.4063910948431346], [-0.284682691611941, 0.5120065443049442], [-0.26535587502667035, 0.13222551774977553], [-0.002709461773171884, -0.3845834352152726], [-0.09125179574452247, 0.5865919177344636], [0.11214794780998094, -0.5836098314727771], [0.10203836945408773, 0.4243037704732916], [0.4196813380132206, -0.4145351791677755]]",density,black,,,D004,visual,1,[],"['1', '2', '3', '4']",1,2023.2.3,harveyvisual,2.1,[],8,0.75,
0,pause,0.4,None,None,None,0,109,109,109,,,,,,,,,,,,,D004,visual,1,[],"['1', '2', '3', '4']",1,2023.2.3,harveyvisual,2.1,[],8,0.75,
20,dot,0.3,['dot'],['density'],black,0,110,110,110,,,40.90023112297058,40.62025308609009,40.92021203041077,dot,"[0.06, 0.1, 0.1, 0.06, 0.08, 0.08, 0.08, 0.08, 0.08, 0.06, 0.1, 0.06, 0.06, 0.06, 0.06, 0.1, 0.08, 0.06, 0.06, 0.08]","[[-0.5116805024814365, 0.3021129107078581], [-0.3068935394033287, 0.3785090131449883], [0.38615781634787794, -0.03519446219199551], [-0.03549456119313177, -0.483606813163919], [0.2309276699453643, 0.3971637196778095], [-0.12101509179085507, 0.5688494462340647], [0.5609890658468913, -0.150187415264238], [0.15729248060828882, -0.21560382234565428], [0.4419509363419841, -0.3204981260581871], [-0.49635746322620755, -0.2757127522213585], [0.1776158278035096, 0.028157735533970385], [0.20744272415037257, -0.4153663080804747], [0.5339385874043615, 0.09724542979579825], [0.09037923815777293, 0.5639048852715813], [-0.39451487686374154, 0.11451312756451737], [0.1405465828707847, 0.2189796614296392], [-0.09832874859614338, 0.03699681185067105], [0.45284884331972586, 0.3217536869683716], [-0.5885183511590105, 0.06121968454336715], [-0.1613729278228047, -0.20500249908517282]]",density,black,,,D004,visual,1,[],"['1', '2', '3', '4']",1,2023.2.3,harveyvisual,2.1,[],8,0.75,
0,pause,0.4,None,None,None,0,111,111,111,,,,,,,,,,,,,D004,visual,1,[],"['1', '2', '3', '4']",1,2023.2.3,harveyvisual,2.1,[],8,0.75,
20,dot,0.3,['dot'],['density'],black,0,112,112,112,,,41.600221157073975,41.32021999359131,41.62016010284424,dot,"[0.06, 0.1, 0.1, 0.08, 0.06, 0.08, 0.08, 0.08, 0.06, 0.06, 0.08, 0.06, 0.1, 0.06, 0.06, 0.1, 0.06, 0.06, 0.08, 0.06]","[[0.11439072878245327, -0.12848331962556553], [0.46046651248352266, 0.36947450249239094], [-0.5593940190627001, -0.007033928062176648], [0.020905638326650156, -0.5166410238502288], [0.09557223991207242, 0.35829595769609335], [0.5856255992231482, -0.058682562845392555], [-0.3038611687561718, 0.30915164650879934], [-0.4946676487931744, -0.295899653806546], [0.29507008272611746, -0.31175302674834504], [0.314006033479299, -0.03739211099164408], [-0.018146753870220578, 0.2026753737689757], [0.4890476358200694, 0.14193079966600997], [-0.5171771258027484, 0.22687342743188632], [-0.12435195350817585, 9.724972714908464e-05], [-0.02159568010270141, -0.3267147646385483], [-0.2706157665077567, -0.3900125594441134], [0.2528704213123455, -0.5051143459965769], [0.14085865226929106, 0.5813652611485232], [0.164305235896975, 0.13214333627059127], [0.3127499546530158, 0.4995053723726386]]",density,black,,,D004,visual,1,[],"['1', '2', '3', '4']",1,2023.2.3,harveyvisual,2.1,[],8,0.75,
0,pause,0.4,None,None,None,0,113,113,113,,,,,,,,,,,,,D004,visual,1,[],"['1', '2', '3', '4']",1,2023.2.3,harveyvisual,2.1,[],8,0.75,
20,dot,0.3,['dot'],['density'],black,0,114,114,114,,,42.30021405220032,42.020188093185425,42.320237159729004,dot,"[0.1, 0.1, 0.1, 0.08, 0.1, 0.06, 0.06, 0.06, 0.1, 0.08, 0.06, 0.08, 0.06, 0.1, 0.08, 0.06, 0.1, 0.1, 0.1, 0.1]","[[0.43834753157417217, 0.04943155285252371], [-0.3292104222028132, 0.07492104795105325], [0.2242335165378222, -0.021699381708338294], [-0.3723103544374667, -0.4224071807322204], [0.3042192780987296, -0.4533525675192622], [-0.2700455918612229, -0.16341427196783315], [0.023973962286071515, 0.22161056612787333], [-0.13253068720642375, 0.4304936733723673], [0.520755434604783, 0.3065259321634985], [0.2985570356445577, -0.2514791092097327], [0.17534251897140252, 0.5645393507973354], [0.08117421981781625, -0.4919452497650101], [-0.5893016279481603, 0.0926484496969888], [-0.3479218316957155, 0.45480293040476083], [0.5652935940531, -0.16329703524851452], [-0.11961402160224427, -0.005777671444841537], [-0.09634032311409435, -0.2960089455695123], [-0.48806268876336695, 0.27897873603308965], [-0.5837294728798627, -0.12977824135836258], [-0.14654478372242918, -0.4956460887169485]]",density,black,,,D004,visual,1,[],"['1', '2', '3', '4']",1,2023.2.3,harveyvisual,2.1,[],8,0.75,
0,pause,0.4,None,None,None,0,115,115,115,,,,,,,,,,,,,D004,visual,1,[],"['1', '2', '3', '4']",1,2023.2.3,harveyvisual,2.1,[],8,0.75,
20,dot,0.3,['dot'],['density'],black,0,116,116,116,,,43.000208139419556,42.72013521194458,43.02016806602478,dot,"[0.08, 0.08, 0.06, 0.06, 0.06, 0.06, 0.08, 0.06, 0.1, 0.08, 0.1, 0.1, 0.1, 0.08, 0.1, 0.06, 0.08, 0.1, 0.06, 0.1]","[[0.1585768187389024, -0.5705727613719882], [0.296516866899169, -0.3013262890342042], [-0.5712095699991524, -0.13971600716795513], [-0.46003577415229685, 0.3816494726453883], [-0.30979536832708326, -0.0844252635407427], [0.5100696018007135, 0.2921890730164137], [0.03543316323918255, 0.05033725486663676], [0.5777891560154754, 0.08799512488296607], [0.5516148148245285, -0.20875846575308726], [-0.26861097924330324, 0.4683990817547924], [-0.29574940407464184, -0.45866030112736705], [0.07622262818884329, -0.23226772644366478], [-0.0034009069475242626, 0.43742213704282806], [-0.1152977031285129, -0.3824375773861586], [-0.2586317887848789, 0.25097264735981395], [0.35720416268076394, 0.13440988882452315], [0.29092187162338334, 0.4530283807485548], [-0.4045146753582084, 0.10849134878497546], [0.15015390981090038, 0.24578076533415738], [-0.16633229428532792, 0.03988010351107463]]",density,black,,,D004,visual,1,[],"['1', '2', '3', '4']",1,2023.2.3,harveyvisual,2.1,[],8,0.75,
0,pause,0.4,None,None,None,0,117,117,117,,,,,,,,,,,,,D004,visual,1,[],"['1', '2', '3', '4']",1,2023.2.3,harveyvisual,2.1,[],8,0.75,
20,dot,0.3,['dot'],['density'],black,0,118,118,118,,,43.70021104812622,43.42011904716492,43.72014904022217,dot,"[0.08, 0.08, 0.06, 0.06, 0.1, 0.06, 0.06, 0.08, 0.08, 0.1, 0.06, 0.1, 0.08, 0.1, 0.1, 0.08, 0.1, 0.1, 0.08, 0.08]","[[-0.1317129547147355, -0.21705088007318224], [0.0977375976649868, 0.2660867014936791], [-0.4714317044115687, 0.1681576458017267], [-0.204976745196911, -0.022279342961804116], [-0.028884324843324705, 0.45378840111579233], [0.39069928634834106, 0.10868151858194641], [-0.5067490122536771, -0.28062958646627595], [0.3504444291945268, 0.41741655401014777], [0.3030944937247052, -0.3866915227343757], [0.19446548321841917, -0.16570458424760393], [0.5946186758291211, 0.04724347346609682], [-0.5737550864494623, -0.08329618798471819], [0.47940165286906933, -0.28473556725330373], [-0.34039925195191184, 0.4450123773085455], [-0.29698292917768204, -0.3144022334786445], [0.01696633004525694, 0.020975447143849912], [-0.05034484343160894, -0.5173138132118087], [0.528871229722068, 0.24680356013094107], [-0.24509409188429965, 0.23393335107604285], [0.14064922156337245, -0.568794759499116]]",density,black,,,D004,visual,1,[],"['1', '2', '3', '4']",1,2023.2.3,harveyvisual,2.1,[],8,0.75,
0,pause,0.4,None,None,None,0,119,119,119,,,,,,,,,,,,,D004,visual,1,[],"['1', '2', '3', '4']",1,2023.2.3,harveyvisual,2.1,[],8,0.75,
20,dot,0.3,['dot'],['density'],black,0,120,120,120,,,44.400209188461304,44.12013602256775,44.42008900642395,dot,"[0.06, 0.1, 0.1, 0.06, 0.08, 0.06, 0.06, 0.08, 0.1, 0.06, 0.06, 0.1, 0.06, 0.08, 0.06, 0.08, 0.08, 0.1, 0.08, 0.08]","[[0.47774514169002236, 0.278907065490868], [-0.258840867671088, 0.42270094015986537], [-0.27352905829126095, 0.13128304470114138], [-0.07602639503708342, -0.4110835931388883], [0.05494383598105368, 0.02303099130813724], [-0.02838477210870982, 0.5035249114919839], [0.5348981648162244, -0.07800393859428925], [-0.4150397487677171, -0.011741609093169236], [0.15732208150177507, -0.27850944293676805], [-0.3357378620928691, -0.3967256261855297], [0.22304277515690518, 0.1526672211492791], [-0.5176105887093291, -0.24306532722996718], [0.30041503777015066, -0.4660330687034889], [-0.16736306320447364, -0.14451090275405137], [-0.08262984014891572, 0.320302682947576], [-0.512055671077208, 0.30848028351281936], [0.39335821260713555, -0.2837335921106743], [0.26005539810235434, 0.40590888250767776], [0.2352540262512388, -0.04688634179029949], [0.04029304912842857, -0.5805701781231293]]",density,black,,,D004,visual,1,[],"['1', '2', '3', '4']",1,2023.2.3,harveyvisual,2.1,[],8,0.75,
0,pause,0.4,None,None,None,0,121,121,121,,,,,,,,,,,,,D004,visual,1,[],"['1', '2', '3', '4']",1,2023.2.3,harveyvisual,2.1,[],8,0.75,
20,dot,0.3,['dot'],['density'],black,0,122,122,122,,,45.1002151966095,44.82011699676514,45.120100021362305,dot,"[0.06, 0.08, 0.08, 0.1, 0.06, 0.1, 0.1, 0.06, 0.06, 0.06, 0.08, 0.08, 0.1, 0.06, 0.06, 0.06, 0.1, 0.06, 0.06, 0.1]","[[-0.5355713066200105, -0.04722127349116645], [-0.19313229148424005, -0.21136319768235567], [-0.4048370688607337, 0.332277066489078], [0.02344230812066328, 0.07785987008630635], [-0.32735330972536775, -0.43376769517518887], [-0.18468331512050212, 0.03997825866339211], [0.31773826528250493, 0.4253291717999955], [-0.04190908636504964, 0.5827885842175752], [-0.3120143725397542, 0.5167868055059591], [0.5733277113250025, -0.16915473935522587], [0.3520089012718094, -0.17681741631937004], [-0.0433644168025723, 0.31177650878096985], [0.18135868754204254, 0.2636227331014238], [-0.5191517951860045, 0.1474577615792863], [0.01575877803528669, -0.5684985441467859], [0.5457898308708532, 0.23073208461417138], [-0.03203311885159221, -0.3295781597425837], [0.570796946105436, 0.022200205614265722], [0.17064204019213036, -0.43401483710093763], [0.1581792090748968, -0.14986075949792943]]",density,black,,,D004,visual,1,[],"['1', '2', '3', '4']",1,2023.2.3,harveyvisual,2.1,[],8,0.75,
0,pause,0.4,None,None,None,0,123,123,123,,,,,,,,,,,,,D004,visual,1,[],"['1', '2', '3', '4']",1,2023.2.3,harveyvisual,2.1,[],8,0.75,
20,dot,0.3,['dot'],['density'],white,0,124,124,124,,,45.800209045410156,45.520063161849976,45.82008910179138,dot,"[0.06, 0.1, 0.08, 0.08, 0.06, 0.08, 0.06, 0.06, 0.08, 0.1, 0.08, 0.08, 0.08, 0.08, 0.08, 0.06, 0.08, 0.06, 0.1, 0.1]","[[0.5085646356141255, -0.25708759587603536], [-0.2651462986355654, -0.13571723643115213], [-0.29805949640006824, 0.06948626194273], [-0.057952164939717554, 0.27714855706388286], [-0.17286430396703933, 0.5616595867992298], [0.32884968077557464, 0.3580636015577746], [-0.5145376671455333, -0.05812553569091172], [0.11378940795230341, -0.5775143021034608], [0.4228651232366033, 0.14623166621224948], [0.5791550368900661, -0.07779017595029897], [-0.528637940946904, 0.2675222465662201], [0.01504121207756548, -0.2550686667582962], [-0.3282045961617449, 0.44223126230126686], [0.00383878985110242, -0.04874834717641707], [-0.45268723414034095, -0.33532170832355057], [0.241838835713022, 0.06946681889874906], [0.17058741963909518, -0.38608761224928634], [0.17340189264019945, 0.5488025513015327], [0.2326437066885737, -0.20610380777125203], [-0.2715687102459398, -0.47504228105728874]]",density,white,,,D004,visual,1,[],"['1', '2', '3', '4']",1,2023.2.3,harveyvisual,2.1,[],8,0.75,
0,pause,0.4,None,None,None,0,125,125,125,,,,,,,,,,,1,45.42603302001953,D004,visual,1,[],"['1', '2', '3', '4']",1,2023.2.3,harveyvisual,2.1,[],8,0.75,
20,dot,0.3,['dot'],['density'],white,0,126,126,126,,,46.5002281665802,46.22013807296753,46.52002716064453,dot,"[0.08, 0.06, 0.1, 0.08, 0.08, 0.1, 0.1, 0.06, 0.08, 0.08, 0.1, 0.06, 0.06, 0.08, 0.1, 0.06, 0.08, 0.08, 0.06, 0.08]","[[0.4259077105964967, 0.38824810334529974], [-0.35677923556872415, -0.40970804036332564], [-0.4083084068677135, 0.2971958556291144], [-0.41397773918993963, 0.0020311461580073686], [0.47473626472365604, -0.34211046996368444], [0.576155337931905, 0.03465666797611619], [-0.21349030479189696, -0.020695040001854514], [0.1413792695155669, 0.31886162925208505], [-0.5683068235052857, 0.1762569243779602], [0.10215017166947216, -0.2860580163889503], [-0.5480879563910293, -0.14161843320172304], [0.34636635338182675, 0.09481337648539379], [0.19105387175488353, -0.5548712449752183], [-0.11965870112345933, -0.21156257832496816], [-0.15543485138969315, 0.46742270470007985], [-0.05757795896185813, 0.1924161699526482], [0.21078354354226247, 0.5078192940047382], [-0.03438698906148008, -0.5713263315676506], [0.1555336333815449, 0.054566584184933875], [0.2725423988133231, -0.12890700421583617]]",density,white,,,D004,visual,1,[],"['1', '2', '3', '4']",1,2023.2.3,harveyvisual,2.1,[],8,0.75,
0,pause,0.4,None,None,None,0,127,127,127,,,,,,,,,,,1,46.16514492034912,D004,visual,1,[],"['1', '2', '3', '4']",1,2023.2.3,harveyvisual,2.1,[],8,0.75,
20,dot,0.3,['dot'],['density'],black,0,128,128,128,,,47.200218200683594,46.92006015777588,47.220038175582886,dot,"[0.08, 0.1, 0.08, 0.06, 0.08, 0.1, 0.1, 0.1, 0.08, 0.08, 0.06, 0.08, 0.08, 0.1, 0.1, 0.06, 0.06, 0.08, 0.1, 0.06]","[[0.05404639181967241, 0.04042320467788074], [-0.23175438953033245, -0.10801555354970116], [0.4917339149334169, 0.28572493695091716], [-0.5132694569403213, -0.2405529897379214], [0.17722789440960685, 0.2961158643460088], [0.15368368769506724, 0.5755006308304061], [0.04405509613737446, -0.26225379093254625], [-0.5137753402480725, 0.02549606997901016], [-0.12057797232717993, -0.47466003995755396], [0.3797064418839011, -0.14020335992899008], [-0.1998182854062973, 0.2232903298670479], [0.5276200272125972, 0.04081261634584438], [-0.06637113290206498, 0.5141488907066224], [-0.32134043068531826, -0.4679795901038776], [-0.4866891830012696, 0.33523976835748776], [-0.25390359778443283, 0.4535268763430944], [0.24532238393392325, -0.533407671416027], [0.2343183991288994, -0.323606016679658], [0.2888085373590329, 0.1346630723969453], [0.46717704693744844, -0.35201549784997294]]",density,black,,,D004,visual,1,[],"['1', '2', '3', '4']",1,2023.2.3,harveyvisual,2.1,[],8,0.75,
0,pause,0.4,None,None,None,0,129,129,129,,,,,,,,,,,,,D004,visual,1,[],"['1', '2', '3', '4']",1,2023.2.3,harveyvisual,2.1,[],8,0.75,
20,dot,0.3,['dot'],['density'],black,0,130,130,130,,,47.900214195251465,47.62020206451416,47.920032024383545,dot,"[0.1, 0.08, 0.08, 0.08, 0.1, 0.1, 0.1, 0.1, 0.08, 0.06, 0.08, 0.1, 0.06, 0.1, 0.1, 0.06, 0.06, 0.1, 0.08, 0.08]","[[0.2916250593070707, -0.18729695342347202], [-0.3506530167864997, -0.3875725769940252], [-0.0024622541185731484, -0.3014903667446046], [-0.1385629711701098, 0.39547367756992546], [0.2862341187041272, -0.4771315062270011], [0.4897701995469127, -0.006284446817407419], [-0.45833054384879324, -0.03892322587439451], [0.3996866230760995, 0.2496704235460121], [-0.3674032315694779, 0.18855199785023397], [0.18002490888100575, 0.00498674870730953], [-0.001985476269475428, 0.1829705586699678], [-0.02477219736829639, -0.5582383207415795], [-0.27455681335896187, -0.16655995669798457], [-0.1498462256969622, 0.035565283375385226], [0.08837478400372956, 0.4701121335042223], [-0.3356305458143879, 0.3824512213935777], [0.5321198080064841, -0.24810591545347524], [-0.5929682531314974, 0.10132394318324921], [0.2945249052938762, 0.5044908250876247], [-0.5326359702978914, -0.22828232376890709]]",density,black,,,D004,visual,1,[],"['1', '2', '3', '4']",1,2023.2.3,harveyvisual,2.1,[],8,0.75,
0,pause,0.4,None,None,None,0,131,131,131,,,,,,,,,,,,,D004,visual,1,[],"['1', '2', '3', '4']",1,2023.2.3,harveyvisual,2.1,[],8,0.75,
20,dot,0.3,['dot'],['density'],black,0,132,132,132,,,48.60021901130676,48.32001805305481,48.62022614479065,dot,"[0.1, 0.1, 0.1, 0.1, 0.06, 0.06, 0.06, 0.06, 0.06, 0.06, 0.08, 0.08, 0.08, 0.1, 0.06, 0.06, 0.06, 0.06, 0.1, 0.06]","[[-0.5514132324228982, 0.23030376302308017], [-0.3436630080378077, 0.021177371058883288], [0.5331222587474737, 0.15306192150451742], [-0.231995187412323, -0.35676746587794517], [0.05369914042372104, 0.02871915964474614], [0.19185871609778604, -0.3121127924427076], [0.28040508159334343, -0.015595896484082994], [-0.01571483754831915, -0.3408551849270595], [0.4001436517433442, -0.35931578020696486], [-0.10157725973974574, 0.3005563121754392], [0.4284875532496736, 0.38612590500223476], [-0.007217185422380035, 0.5217997975131881], [-0.20199882838540112, 0.5342053810893619], [-0.3984006383398513, 0.4145703794196958], [0.18669160996543166, 0.1858478685531575], [0.1403901337002893, -0.5030350227674147], [-0.17372821118502174, -0.1034276353953692], [0.20634887266408852, 0.5125598801143093], [-0.5359741749764528, -0.24986692178100825], [-0.6002478491821319, 0.012480554636852118]]",density,black,,,D004,visual,1,[],"['1', '2', '3', '4']",1,2023.2.3,harveyvisual,2.1,[],8,0.75,
0,pause,0.4,None,None,None,0,133,133,133,,,,,,,,,,,,,D004,visual,1,[],"['1', '2', '3', '4']",1,2023.2.3,harveyvisual,2.1,[],8,0.75,
20,dot,0.3,['dot'],['density'],black,0,134,134,134,,,49.30022311210632,49.02000904083252,49.32000207901001,dot,"[0.06, 0.08, 0.08, 0.08, 0.08, 0.1, 0.1, 0.06, 0.06, 0.06, 0.06, 0.06, 0.1, 0.1, 0.1, 0.06, 0.08, 0.1, 0.08, 0.08]","[[-0.19916397610413694, -0.42301396296770166], [0.384436593608386, 0.4428751503441503], [-0.11228825544716359, 0.04385861069638142], [0.020727327606056112, 0.47441024867060666], [0.10053576769663541, 0.018606758905143517], [0.31225220229888506, -0.2022209402412541], [-0.28696248470259933, 0.4040900062658538], [-0.5781141884874301, 0.06174146577330983], [0.5300033162360213, -0.20833838873386695], [0.5736992488744065, 0.15660899492684027], [-0.4503305000501615, 0.23411905504253405], [-0.00036549121628537407, -0.5966985249899104], [-0.20894406837111174, 0.21775952601511062], [-0.4482877235955872, -0.10724762580426656], [0.11334154479832381, -0.30351023173172453], [0.3246066873921071, -0.4236799492131205], [-0.39697663721286813, -0.4086985680673607], [-0.08790852416090811, -0.1540801423286004], [0.11942191773426436, 0.21711628020770768], [0.4490531066974587, -0.020078542881111272]]",density,black,,,D004,visual,1,[],"['1', '2', '3', '4']",1,2023.2.3,harveyvisual,2.1,[],8,0.75,
0,pause,0.4,None,None,None,0,135,135,135,,,,,,,,,,,,,D004,visual,1,[],"['1', '2', '3', '4']",1,2023.2.3,harveyvisual,2.1,[],8,0.75,
20,dot,0.3,['dot'],['density'],white,0,136,136,136,,,50.000216007232666,49.72019720077515,50.019973039627075,dot,"[0.06, 0.1, 0.1, 0.06, 0.06, 0.1, 0.08, 0.08, 0.1, 0.06, 0.06, 0.1, 0.08, 0.1, 0.08, 0.06, 0.08, 0.08, 0.1, 0.06]","[[-0.13107352050810128, -0.29474988714437256], [-0.3716244900428133, 0.22940698949429705], [0.3211793244851585, -0.18528811597474565], [-0.6014560208552275, -0.007820352526973814], [-0.011786558404453973, 0.19169999820845318], [0.1904312171811593, 0.02751753806534185], [0.10552269301855044, -0.2567987065414847], [-0.48381981378483274, -0.2686235729287555], [0.5192675287581566, -0.26805634257244987], [-0.1221891911649226, 0.4310697600143819], [-0.3946810309297262, -0.0655845183545779], [-0.1804935625995835, -0.5188326074455961], [0.26751855811316627, 0.5132262863370173], [0.4004858741071867, 0.3375867206977807], [0.5433008529060518, -0.06761667416546055], [-0.3167404323337688, 0.485381753041089], [0.08635112029147762, -0.5784994174492629], [0.5584986954994146, 0.13791386493281843], [0.31517557847952815, -0.42774730605571554], [0.022511759097328166, -0.08502365298433645]]",density,white,,,D004,visual,1,[],"['1', '2', '3', '4']",1,2023.2.3,harveyvisual,2.1,[],8,0.75,
0,pause,0.4,None,None,None,0,137,137,137,,,,,,,,,,,1,49.70355010032654,D004,visual,1,[],"['1', '2', '3', '4']",1,2023.2.3,harveyvisual,2.1,[],8,0.75,
20,dot,0.3,['dot'],['density'],black,0,138,138,138,,,50.7002170085907,50.42024803161621,50.7202250957489,dot,"[0.1, 0.08, 0.1, 0.08, 0.06, 0.06, 0.1, 0.1, 0.06, 0.1, 0.06, 0.1, 0.08, 0.06, 0.08, 0.08, 0.1, 0.1, 0.08, 0.1]","[[0.24918318381407845, 0.029940080085866794], [0.07848809673086199, -0.05404848056930989], [-0.15828502552239, -0.24676994702873623], [-0.39448596222173227, 0.3984034404483788], [0.11564197083896788, -0.37259979349287786], [-0.049080481574037105, 0.13776590482620288], [-0.4289533825141765, -0.16087639712471324], [0.5100381637449455, -0.1388337035313288], [0.5012084122448658, 0.21162407091495083], [0.46728615846904387, -0.3719495676337351], [-0.07516534665759, 0.4914126722579262], [0.25128172658412284, -0.5294196354811797], [-0.21400427734297683, -0.446866181264064], [-0.39090619725697295, -0.3481963456601401], [0.3662339198963127, 0.44723272892214433], [-0.5318868424195624, 0.2303362715295617], [0.017828905960742047, -0.5575385393550892], [-0.3509171587370053, 0.1657335496794512], [-0.5108023770622198, 0.015120388240009108], [-0.2682202475341478, -0.01795111674076899]]",density,black,,,D004,visual,1,[],"['1', '2', '3', '4']",1,2023.2.3,harveyvisual,2.1,[],8,0.75,
0,pause,0.4,None,None,None,0,139,139,139,,,,,,,,,,,,,D004,visual,1,[],"['1', '2', '3', '4']",1,2023.2.3,harveyvisual,2.1,[],8,0.75,
20,dot,0.3,['dot'],['density'],black,0,140,140,140,,,51.400222063064575,51.11995315551758,51.42012310028076,dot,"[0.06, 0.08, 0.08, 0.08, 0.1, 0.06, 0.08, 0.1, 0.08, 0.06, 0.1, 0.1, 0.08, 0.08, 0.1, 0.08, 0.06, 0.06, 0.1, 0.06]","[[0.05737362597724416, 0.47036037630211913], [-0.542291685669507, 0.15588716023572108], [0.1200530543574263, -0.08202378667165877], [0.4827204575657075, 0.22881032286644892], [-0.6021787112589404, -0.024383892563438057], [0.5136759694900866, 0.010099295979583978], [0.3411790229575842, 0.44525352084262015], [-0.35672160437153466, 0.4610492312581975], [-0.2960573441376799, -0.25249841957581004], [0.44439282960036885, -0.2926137116042261], [-0.3434015614687137, 0.06727813722059672], [-0.022004924672452186, -0.21495735741651611], [0.1589517612193101, 0.1513727078725532], [-0.18996068979195957, 0.19392200127705084], [0.14418293763324086, -0.3219319458204531], [0.3334874145938219, -0.07818537872400538], [-0.1603032342274343, -0.3890527211824771], [-0.49354267568761184, -0.2649279066160299], [-0.02909264653717203, -0.6016519887245781], [-0.14286641547671325, 0.48986863176096296]]",density,black,,,D004,visual,1,[],"['1', '2', '3', '4']",1,2023.2.3,harveyvisual,2.1,[],8,0.75,
0,pause,0.4,None,None,None,0,141,141,141,,,,,,,,,,,,,D004,visual,1,[],"['1', '2', '3', '4']",1,2023.2.3,harveyvisual,2.1,[],8,0.75,
20,dot,0.3,['dot'],['density'],black,0,142,142,142,,,52.100226163864136,51.82010817527771,52.119922161102295,dot,"[0.1, 0.08, 0.1, 0.1, 0.08, 0.06, 0.08, 0.1, 0.06, 0.08, 0.08, 0.1, 0.06, 0.08, 0.06, 0.08, 0.1, 0.1, 0.1, 0.1]","[[-0.4676266515324833, -0.1800943265104157], [0.39715851177273176, -0.11618665661927913], [-0.2883032693218842, 0.4017785823701169], [-0.5986638709798164, -0.030624327326557683], [0.03069348402012162, 0.0036837885412490667], [-0.5125784957858113, 0.23741985307255892], [-0.15722067663402556, -0.4180938699406407], [0.2613060775338568, 0.23124195604833275], [-0.4679446535631514, -0.37206817771068124], [-0.1773793882629936, -0.05546945344647747], [0.14439416089048895, -0.35715897629018967], [0.5568804610844139, 0.20038316988917446], [0.4422061989024074, 0.4053120998633036], [-0.21829037775192078, 0.21102534534261064], [0.45621849246561375, -0.3719521374356759], [-0.008787447899106238, 0.22900166846762837], [0.22897068785511066, 0.45117567253440594], [-0.04198667343433149, 0.502271968663372], [0.016954392858511413, -0.5625558745158984], [0.14469054717298158, -0.16758931016588074]]",density,black,,,D004,visual,1,[],"['1', '2', '3', '4']",1,2023.2.3,harveyvisual,2.1,[],8,0.75,
0,pause,0.4,None,None,None,0,143,143,143,,,,,,,,,,,,,D004,visual,1,[],"['1', '2', '3', '4']",1,2023.2.3,harveyvisual,2.1,[],8,0.75,
20,dot,0.3,['dot'],['density'],black,0,144,144,144,,,52.800212144851685,52.52008605003357,52.819908142089844,dot,"[0.08, 0.1, 0.1, 0.1, 0.08, 0.1, 0.06, 0.06, 0.06, 0.06, 0.08, 0.08, 0.06, 0.1, 0.08, 0.06, 0.1, 0.1, 0.06, 0.08]","[[0.4149656053568155, -0.25154000618665695], [-0.10480374300784645, 0.17504804825806242], [-0.5851661692633563, 0.060894504133843036], [-0.005231945632873214, 0.37256225631300544], [-0.34979573376439915, -0.060909280289574985], [-0.2810772139564826, 0.4763444957145998], [0.015092322696112492, -0.5398089971081826], [0.15770689127029602, -0.37456844019147917], [0.5022108802153483, 0.3069672497286223], [0.18336416471498562, 0.21311845610537206], [-0.4910830790346763, 0.329659620370118], [0.0940749075931715, -0.1275953644582768], [0.57344095413079, 0.05789166238012011], [-0.2801751840541441, -0.28118489135770225], [-0.35409356791880503, -0.46986450692626774], [0.32133761313986564, 0.40912720502672484], [-0.29863676657365124, 0.25558924919885284], [-0.125225740362023, 0.5872683766856378], [0.24836701917563175, -0.5476827795962514], [-0.05377186631512065, -0.2692335805141948]]",density,black,,,D004,visual,1,[],"['1', '2', '3', '4']",1,2023.2.3,harveyvisual,2.1,[],8,0.75,
0,pause,0.4,None,None,None,0,145,145,145,,,,,,,,,,,,,D004,visual,1,[],"['1', '2', '3', '4']",1,2023.2.3,harveyvisual,2.1,[],8,0.75,
20,dot,0.3,['dot'],['density'],black,0,146,146,146,,,53.500208139419556,53.219895124435425,53.52009415626526,dot,"[0.08, 0.06, 0.08, 0.08, 0.08, 0.1, 0.08, 0.06, 0.08, 0.1, 0.06, 0.06, 0.06, 0.06, 0.06, 0.1, 0.06, 0.06, 0.1, 0.1]","[[-0.3990471300000731, 0.4317908210557127], [0.38721989948069924, 0.01396784523327299], [-0.05439843760933305, 0.21438954502644525], [-0.5578597795775913, 0.102467220969326], [0.18319950202879343, -0.38070047292179415], [0.41737174029840796, -0.22243252355775134], [-0.0026668845937618535, -0.110807121066475], [0.02431207133181057, 0.4928898205237181], [-0.24820290326641892, -0.06745083543648767], [-0.11238654889529587, -0.4524416885659811], [0.26230441205527144, 0.49740460062633796], [-0.5697674617682462, -0.09530019959579465], [-0.44752162068372, -0.3766963348109855], [-0.29673519237518986, 0.22333904097995727], [0.4602950320075462, 0.3625615229525375], [0.565752012265368, 0.2041392020568573], [0.1786568677760042, -0.17500540656319363], [-0.17441246745262534, 0.41368445868673553], [0.35299520756482117, -0.4653380208527994], [0.1580807996477298, 0.2943683703543153]]",density,black,,,D004,visual,1,[],"['1', '2', '3', '4']",1,2023.2.3,harveyvisual,2.1,[],8,0.75,
0,pause,0.4,None,None,None,0,147,147,147,,,,,,,,,,,,,D004,visual,1,[],"['1', '2', '3', '4']",1,2023.2.3,harveyvisual,2.1,[],8,0.75,
20,dot,0.3,['dot'],['density'],black,0,148,148,148,,,54.20022916793823,53.91988706588745,54.219866037368774,dot,"[0.06, 0.08, 0.08, 0.08, 0.1, 0.06, 0.1, 0.1, 0.06, 0.06, 0.08, 0.08, 0.08, 0.06, 0.1, 0.08, 0.08, 0.08, 0.08, 0.08]","[[-0.14330776433646386, 0.4674629817615895], [0.44930228942805084, 0.15217629875273697], [0.4564774241254882, -0.15180605585029108], [0.14077852670754643, -0.004942753332142336], [-0.47123030359460716, 0.3028374761354271], [-0.4006050527984, -0.183837821452996], [-0.3401244853678836, 0.10048415163923763], [0.04987372986006178, 0.5830597651962649], [0.3469127871076958, 0.36988550953027266], [0.331542121099179, 0.00016926437502162717], [-0.5237589014254029, 0.049180739683278685], [0.2298963390184614, -0.44776054539371307], [-0.34560506067506763, 0.45379755349478945], [-0.05172815153871513, -0.4976967602008093], [-0.06896977841678642, -0.11896791092665304], [0.08091859084247177, -0.27481764077479615], [-0.12250509711602214, 0.1854784578845292], [-0.2743593023983268, -0.4993365933242754], [0.43290288029848145, -0.3908807411009431], [0.18471856519712293, 0.23090164251576595]]",density,black,,,D004,visual,1,[],"['1', '2', '3', '4']",1,2023.2.3,harveyvisual,2.1,[],8,0.75,
0,pause,0.4,None,None,None,0,149,149,149,,,,,,,,,,,,,D004,visual,1,[],"['1', '2', '3', '4']",1,2023.2.3,harveyvisual,2.1,[],8,0.75,
20,dot,0.3,['dot'],['density'],black,0,150,150,150,,,54.900233030319214,54.62011003494263,54.91984415054321,dot,"[0.1, 0.1, 0.08, 0.06, 0.1, 0.08, 0.1, 0.1, 0.06, 0.1, 0.1, 0.1, 0.1, 0.06, 0.1, 0.1, 0.08, 0.1, 0.06, 0.08]","[[0.12704599614872203, 0.4326969276278181], [-0.5475518974320295, 0.23780309050592252], [-0.3872841049763568, 0.09979555677903185], [-0.5626833885613223, -0.13513752947579927], [-0.187857274879279, 0.43262411129118983], [0.23720889685183943, 0.27487879745188504], [0.4336153589634576, 0.3471048361234003], [0.48409401610122893, -0.2820900772279861], [-0.16128226850347988, -0.4363877241126467], [0.5730439775671458, 0.18812664733965964], [-0.17279039441765315, -0.21931782605133232], [-0.1631146725063301, 0.11732942814434133], [0.0827219413414757, -0.2311800206279777], [-0.3876992122904596, -0.23801125232086914], [0.5097379052920984, -0.02452942863043145], [0.10082690035120445, 0.11044758712569003], [0.1613222691774907, -0.5680942382486925], [0.32121443894536283, 0.04641049155025079], [0.2893435154991527, -0.28341211058392113], [-0.029932963411725577, 0.5844992434801949]]",density,black,,,D004,visual,1,[],"['1', '2', '3', '4']",1,2023.2.3,harveyvisual,2.1,[],8,0.75,
0,pause,0.4,None,None,None,0,151,151,151,,,,,,,,,,,,,D004,visual,1,[],"['1', '2', '3', '4']",1,2023.2.3,harveyvisual,2.1,[],8,0.75,
20,dot,0.3,['dot'],['density'],black,0,152,152,152,,,55.600229024887085,55.31983518600464,55.62000012397766,dot,"[0.06, 0.06, 0.06, 0.08, 0.08, 0.06, 0.1, 0.1, 0.08, 0.08, 0.08, 0.1, 0.1, 0.08, 0.1, 0.1, 0.08, 0.06, 0.08, 0.08]","[[0.5980178036020091, 0.04739702299120334], [-0.13417208468668884, 0.10697348259373896], [0.34122338354782866, -0.3782419910683442], [0.14543530516840963, -0.18847866187583895], [-0.043727470652040745, 0.40908262615119784], [-0.490787259116137, 0.239473792124548], [-0.3770329759993629, 0.4183918421265789], [-0.4762548840089697, -0.09297627681871928], [-0.33643190692800684, -0.41707540797077924], [0.4614499780586615, -0.13160978085158326], [0.12304650404160511, 0.5082373561476559], [-0.32825067418587733, 0.14200516514371575], [0.40774387139279356, 0.07038981469156252], [-0.1149166553242601, -0.42766097046816226], [0.06824400259587016, -0.4790239455859967], [0.13625406892455239, 0.22553476774172776], [-0.2971533621965054, -0.18833836370997192], [0.28525649687127297, 0.3793223417259456], [-0.011169455206389345, -0.060193213402036316], [0.21798434884544005, 0.02690940776646622]]",density,black,,,D004,visual,1,[],"['1', '2', '3', '4']",1,2023.2.3,harveyvisual,2.1,[],8,0.75,
0,pause,0.4,None,None,None,0,153,153,153,,,,,,,,,,,,,D004,visual,1,[],"['1', '2', '3', '4']",1,2023.2.3,harveyvisual,2.1,[],8,0.75,
20,dot,0.3,['dot'],['density'],black,0,154,154,154,,,56.30021119117737,56.019838094711304,56.31981801986694,dot,"[0.06, 0.1, 0.06, 0.08, 0.06, 0.1, 0.08, 0.06, 0.08, 0.08, 0.06, 0.1, 0.1, 0.06, 0.08, 0.1, 0.1, 0.06, 0.1, 0.06]","[[-0.0347810551110308, 0.4793253196206332], [-0.350209946744589, -0.4154883009413861], [0.2543089950397248, 0.4819737420615672], [0.3701215547786656, -0.3697181263851502], [0.08413469406372998, -0.5799428685779515], [-0.18626348320528124, 0.14806999029547863], [-0.358234089381325, 0.2979493199859332], [0.2393383797591373, 0.16011127066131003], [-0.04328117734048009, -0.3607649526134993], [0.4456249925731651, 0.19178694666917245], [0.5654624632991384, 0.03227724097194151], [-0.5911269038794402, -0.10716592506148317], [0.3411448168534673, -0.17266483906522034], [0.15926803285302793, -0.05603674081226595], [-0.3466513180165056, -0.02767716331816855], [-0.1839010686673651, -0.15839944678425005], [-0.046744796329984184, 0.29007940673636656], [-0.4859903863559754, 0.11580323527130598], [0.010662784595584895, 0.09538114135384279], [-0.13557365499453877, -0.5855295909422294]]",density,black,,,D004,visual,1,[],"['1', '2', '3', '4']",1,2023.2.3,harveyvisual,2.1,[],8,0.75,
0,pause,0.4,None,None,None,0,155,155,155,,,,,,,,,,,,,D004,visual,1,[],"['1', '2', '3', '4']",1,2023.2.3,harveyvisual,2.1,[],8,0.75,
9,dot,0.3,['dot'],['density'],black,0,156,156,156,,,57.000235080718994,56.719964027404785,57.01978802680969,dot,"[0.1, 0.06, 0.1, 0.06, 0.06, 0.06, 0.06, 0.06, 0.08]","[[-0.03413633707233166, 0.539775862693792], [0.03045342777742709, 0.14881397110038386], [0.3968101769942594, 0.3516381959676015], [-0.12464897846505978, 0.27513009849494485], [0.24828272947848068, 0.13372878599656182], [0.1825630446668698, 0.5466865974155928], [-0.40057775338259505, 0.3148646888607764], [0.06988801613907401, -0.06658504348068199], [0.07277149512897427, 0.3699912437376705]]",density,black,,,D004,visual,1,[],"['1', '2', '3', '4']",1,2023.2.3,harveyvisual,2.1,[],8,0.75,
0,pause,0.4,None,None,None,0,157,157,157,,,,,,,,,,,,,D004,visual,1,[],"['1', '2', '3', '4']",1,2023.2.3,harveyvisual,2.1,[],8,0.75,
9,dot,0.3,['dot'],['density'],black,0,158,158,158,,,57.70021414756775,57.41999006271362,57.719786167144775,dot,"[0.08, 0.1, 0.08, 0.08, 0.06, 0.08, 0.06, 0.06, 0.08]","[[0.08305850914464513, -0.5442468290176591], [0.035628337695759515, -0.10623885656661826], [-0.40455734034313895, -0.4103448572564978], [-0.27695520492017833, -0.22921059622728732], [-0.0679181879583315, -0.31282249044743377], [0.15394835823740735, -0.27999833282003045], [0.36545074601266236, -0.2024769979494575], [-0.18616414474285772, -0.004612976462616847], [-0.15152437179077458, -0.5570863580044498]]",density,black,,,D004,visual,1,[],"['1', '2', '3', '4']",1,2023.2.3,harveyvisual,2.1,[],8,0.75,
0,pause,0.4,None,None,None,0,159,159,159,,,,,,,,,,,,,D004,visual,1,[],"['1', '2', '3', '4']",1,2023.2.3,harveyvisual,2.1,[],8,0.75,
9,dot,0.3,['dot'],['density'],black,0,160,160,160,,,58.400214195251465,58.11977219581604,58.41994500160217,dot,"[0.1, 0.08, 0.1, 0.08, 0.08, 0.1, 0.1, 0.06, 0.1]","[[-0.03413633707233166, 0.539775862693792], [0.03045342777742709, 0.14881397110038386], [0.3968101769942594, 0.3516381959676015], [-0.12464897846505978, 0.27513009849494485], [0.24828272947848068, 0.13372878599656182], [0.1825630446668698, 0.5466865974155928], [-0.40057775338259505, 0.3148646888607764], [0.06988801613907401, -0.06658504348068199], [0.07277149512897427, 0.3699912437376705]]",density,black,,,D004,visual,1,[],"['1', '2', '3', '4']",1,2023.2.3,harveyvisual,2.1,[],8,0.75,
0,pause,0.4,None,None,None,0,161,161,161,,,,,,,,,,,,,D004,visual,1,[],"['1', '2', '3', '4']",1,2023.2.3,harveyvisual,2.1,[],8,0.75,
9,dot,0.3,['dot'],['density'],black,0,162,162,162,,,59.10022807121277,58.819916009902954,59.119739055633545,dot,"[0.06, 0.08, 0.08, 0.08, 0.08, 0.1, 0.1, 0.08, 0.08]","[[-0.08351644510687262, 0.021707353155035948], [0.11173555070370329, 0.3931220271068859], [-0.15396522232717408, 0.3423719725559184], [0.23829169989725132, 0.186218803300476], [-0.29008049122260166, 0.17395274189193027], [0.2491440638781109, -0.04662568063892593], [-0.2854023508218629, -0.06307984259985559], [0.003596708871689959, 0.21717875760955796], [-0.47489413548496523, 0.030788186259843496]]",density,black,,,D004,visual,1,[],"['1', '2', '3', '4']",1,2023.2.3,harveyvisual,2.1,[],8,0.75,
0,pause,0.4,None,None,None,0,163,163,163,,,,,,,,,,,,,D004,visual,1,[],"['1', '2', '3', '4']",1,2023.2.3,harveyvisual,2.1,[],8,0.75,
9,dot,0.3,['dot'],['density'],black,0,164,164,164,,,59.800230979919434,59.5198860168457,59.8198721408844,dot,"[0.1, 0.08, 0.08, 0.08, 0.1, 0.08, 0.06, 0.1, 0.08]","[[0.38655548767220327, 0.3303110468779764], [-0.15062718332117264, 0.3263612679497012], [0.12850016508903517, 0.5435449351404695], [0.04975739233973968, 0.11256198773833849], [0.05418506391445401, 0.3174451450657875], [0.282644584802279, 0.13382110200906677], [0.4968372747528943, 0.11977440893831985], [-0.17748280977865974, 0.12733825933579754], [-0.16508880216336755, 0.5437291489982663]]",density,black,,,D004,visual,1,[],"['1', '2', '3', '4']",1,2023.2.3,harveyvisual,2.1,[],8,0.75,
0,pause,0.4,None,None,None,0,165,165,165,,,,,,,,,,,,,D004,visual,1,[],"['1', '2', '3', '4']",1,2023.2.3,harveyvisual,2.1,[],8,0.75,
9,dot,0.3,['dot'],['density'],black,0,166,166,166,,,60.50022602081299,60.21973204612732,60.51986503601074,dot,"[0.1, 0.06, 0.06, 0.06, 0.1, 0.08, 0.1, 0.06, 0.06]","[[-0.4219467838066047, -0.18114019941065054], [-0.2081543488995217, -0.4860059455967178], [-0.008274735502094755, -0.3457533902190916], [0.02376323820852766, -0.0891001390581758], [-0.4116277839025775, 0.058108040724694845], [-0.18144554169200455, -0.05292133149533743], [0.21944315682242976, -0.26450239569476724], [0.11466821484809545, 0.13327019789913197], [-0.2288148866166432, -0.2599929378926301]]",density,black,,,D004,visual,1,[],"['1', '2', '3', '4']",1,2023.2.3,harveyvisual,2.1,[],8,0.75,
0,pause,0.4,None,None,None,0,167,167,167,,,,,,,,,,,,,D004,visual,1,[],"['1', '2', '3', '4']",1,2023.2.3,harveyvisual,2.1,[],8,0.75,
8,dot,0.3,['dot'],['density'],black,0,168,168,168,,,61.20020914077759,60.91969919204712,61.219688177108765,dot,"[0.1, 0.06, 0.06, 0.08, 0.1, 0.1, 0.06, 0.06]","[[-0.3265204970111284, 0.22652760434067618], [0.11129643684023392, 0.07926950251467085], [0.07893474341784651, 0.4315681374945237], [-0.2000017914838315, -0.08445279674287073], [-0.29956068591909263, 0.4664910923320479], [-0.09828291121522204, 0.1483319570086381], [0.07400994184747142, -0.11883630301138211], [-0.12650192453358844, 0.35264367728062257]]",density,black,,,D004,visual,1,[],"['1', '2', '3', '4']",1,2023.2.3,harveyvisual,2.1,[],8,0.75,
0,pause,0.4,None,None,None,0,169,169,169,,,,,,,,,,,,,D004,visual,1,[],"['1', '2', '3', '4']",1,2023.2.3,harveyvisual,2.1,[],8,0.75,
8,dot,0.3,['dot'],['density'],black,0,170,170,170,,,61.900222063064575,61.61983299255371,61.91966104507446,dot,"[0.1, 0.08, 0.06, 0.08, 0.08, 0.06, 0.06, 0.1]","[[0.016639406518403475, -0.10031965053970064], [-0.49734137941811546, 0.023312718056099104], [0.03171158295547566, 0.2028207856397581], [-0.3777108616291506, 0.18827317115199685], [-0.2734124440264558, -0.20525012861841768], [-0.1742574757978524, 0.04093824739900491], [-0.17815403785603903, 0.26205888083036905], [-0.2502819750276768, 0.4804358206127844]]",density,black,,,D004,visual,1,[],"['1', '2', '3', '4']",1,2023.2.3,harveyvisual,2.1,[],8,0.75,
0,pause,0.4,None,None,None,0,171,171,171,,,,,,,,,,,,,D004,visual,1,[],"['1', '2', '3', '4']",1,2023.2.3,harveyvisual,2.1,[],8,0.75,
8,dot,0.3,['dot'],['density'],black,0,172,172,172,,,62.60021114349365,62.31966805458069,62.61980104446411,dot,"[0.06, 0.08, 0.06, 0.08, 0.08, 0.06, 0.1, 0.06]","[[0.3129921899656287, 0.2226642157048143], [0.41298599633021416, -0.001766323215076977], [0.013785601627645026, 0.39275307090924344], [-0.009407606244017683, 0.02333367620517349], [0.20163499737495916, -0.08731087547331118], [0.31235423233837933, 0.42762820752661124], [0.10705959187470679, 0.21318577255187057], [-0.13233007013452783, 0.20605257250075132]]",density,black,,,D004,visual,1,[],"['1', '2', '3', '4']",1,2023.2.3,harveyvisual,2.1,[],8,0.75,
0,pause,0.4,None,None,None,0,173,173,173,,,,,,,,,,,,,D004,visual,1,[],"['1', '2', '3', '4']",1,2023.2.3,harveyvisual,2.1,[],8,0.75,
8,dot,0.3,['dot'],['density'],white,0,174,174,174,,,63.30022120475769,63.0196430683136,63.31964707374573,dot,"[0.06, 0.1, 0.08, 0.1, 0.06, 0.1, 0.06, 0.08]","[[0.08034727882022866, 0.21485544138691295], [0.4485208087802622, -0.24912681836757106], [0.26129939989417056, 0.09257513963058502], [0.557413308755299, 0.1511846349250138], [0.2634990941728302, -0.1333032593777782], [0.3632073825345479, 0.269269938976799], [-0.13869722159995554, 0.017464377414806956], [0.4339652718412117, -0.009910074233595774]]",density,white,,,D004,visual,1,[],"['1', '2', '3', '4']",1,2023.2.3,harveyvisual,2.1,[],8,0.75,
0,pause,0.4,None,None,None,0,175,175,175,,,,,,,,,,,1,62.90633201599121,D004,visual,1,[],"['1', '2', '3', '4']",1,2023.2.3,harveyvisual,2.1,[],8,0.75,
8,dot,0.3,['dot'],['density'],black,0,176,176,176,,,64.00023317337036,63.719643115997314,64.01960802078247,dot,"[0.1, 0.08, 0.1, 0.1, 0.1, 0.06, 0.1, 0.06]","[[0.43039348711459674, -0.2176132953198537], [0.11499515674856413, 0.2899266495440316], [0.12808102003139596, -0.009244067984354065], [-0.030386771168905473, -0.2551920291624523], [0.3118809155168881, 0.2081403981228026], [-0.06282563634610334, 0.11114412413027695], [0.22944900542930163, -0.23921835558115082], [0.33219925311336224, 0.0035410395788749187]]",density,black,,,D004,visual,1,[],"['1', '2', '3', '4']",1,2023.2.3,harveyvisual,2.1,[],8,0.75,
0,pause,0.4,None,None,None,0,177,177,177,,,,,,,,,,,,,D004,visual,1,[],"['1', '2', '3', '4']",1,2023.2.3,harveyvisual,2.1,[],8,0.75,
8,dot,0.3,['dot'],['density'],black,0,178,178,178,,,64.7002170085907,64.41978907585144,64.7196102142334,dot,"[0.08, 0.1, 0.1, 0.08, 0.06, 0.06, 0.08, 0.08]","[[0.3129921899656287, 0.2226642157048143], [0.41298599633021416, -0.001766323215076977], [0.013785601627645026, 0.39275307090924344], [-0.009407606244017683, 0.02333367620517349], [0.20163499737495916, -0.08731087547331118], [0.31235423233837933, 0.42762820752661124], [0.10705959187470679, 0.21318577255187057], [-0.13233007013452783, 0.20605257250075132]]",density,black,,,D004,visual,1,[],"['1', '2', '3', '4']",1,2023.2.3,harveyvisual,2.1,[],8,0.75,
0,pause,0.4,None,None,None,0,179,179,179,,,,,,,,,,,,,D004,visual,1,[],"['1', '2', '3', '4']",1,2023.2.3,harveyvisual,2.1,[],8,0.75,
7,dot,0.3,['dot'],['density'],black,0,180,180,180,,,65.40022802352905,65.11958503723145,65.41959619522095,dot,"[0.08, 0.1, 0.06, 0.08, 0.1, 0.08, 0.08]","[[-0.026372969700101213, 0.05085620782211805], [-0.16304282038196347, -0.3616501386780019], [-0.013762327205412121, -0.14910430285435466], [0.14729449770710015, -0.3647544547161306], [-0.22494517313234175, -0.12035103032643314], [-0.36514670174418407, -0.33057163197754225], [0.21417125919861074, -0.06627923590771367]]",density,black,,,D004,visual,1,[],"['1', '2', '3', '4']",1,2023.2.3,harveyvisual,2.1,[],8,0.75,
0,pause,0.4,None,None,None,0,181,181,181,,,,,,,,,,,,,D004,visual,1,[],"['1', '2', '3', '4']",1,2023.2.3,harveyvisual,2.1,[],8,0.75,
7,dot,0.3,['dot'],['density'],black,0,182,182,182,,,66.10023808479309,65.81972312927246,66.11955308914185,dot,"[0.08, 0.1, 0.1, 0.08, 0.08, 0.08, 0.06]","[[0.12902113605384963, -0.35167066519854956], [0.3838909825822851, -0.05572740120406059], [-0.02857767273637445, 0.1549795872955612], [0.19333287999408408, 0.10698923431715611], [-0.08146847087507005, -0.06064403559207536], [0.18020694687254563, -0.15550905334431223], [-0.07225335190945896, -0.28606481362007624]]",density,black,,,D004,visual,1,[],"['1', '2', '3', '4']",1,2023.2.3,harveyvisual,2.1,[],8,0.75,
0,pause,0.4,None,None,None,0,183,183,183,,,,,,,,,,,,,D004,visual,1,[],"['1', '2', '3', '4']",1,2023.2.3,harveyvisual,2.1,[],8,0.75,
7,dot,0.3,['dot'],['density'],black,0,184,184,184,,,66.80021905899048,66.51971220970154,66.81968402862549,dot,"[0.08, 0.08, 0.06, 0.06, 0.1, 0.08, 0.1]","[[-0.3616029487054454, 0.4456424486886853], [-0.1496406170718537, 0.08450683720449656], [-0.4229793897960434, 0.19545916586121675], [-0.050735401720141765, 0.4582308035931027], [-0.23416009772798219, 0.28880413379285297], [0.00916417092529717, 0.20866532064640267], [0.0895043828575618, 0.020292244516940467]]",density,black,,,D004,visual,1,[],"['1', '2', '3', '4']",1,2023.2.3,harveyvisual,2.1,[],8,0.75,
0,pause,0.4,None,None,None,0,185,185,185,,,,,,,,,,,,,D004,visual,1,[],"['1', '2', '3', '4']",1,2023.2.3,harveyvisual,2.1,[],8,0.75,
7,dot,0.3,['dot'],['density'],black,0,186,186,186,,,67.50022506713867,67.2195360660553,67.5196840763092,dot,"[0.06, 0.06, 0.06, 0.06, 0.06, 0.1, 0.08]","[[-0.1635229753841098, 0.12186382262109141], [0.03437657187081179, 0.5178389267683822], [0.324184412335695, 0.17931743601205324], [0.08929018524031027, 0.11005745596178185], [-0.1318259817332877, 0.4026967659136047], [-0.053046683696667, -0.06058584598870606], [0.042745683665752716, 0.304616966822181]]",density,black,,,D004,visual,1,[],"['1', '2', '3', '4']",1,2023.2.3,harveyvisual,2.1,[],8,0.75,
0,pause,0.4,None,None,None,0,187,187,187,,,,,,,,,,,,,D004,visual,1,[],"['1', '2', '3', '4']",1,2023.2.3,harveyvisual,2.1,[],8,0.75,
7,dot,0.3,['dot'],['density'],black,0,188,188,188,,,68.20021510124207,67.91953015327454,68.21950507164001,dot,"[0.1, 0.06, 0.1, 0.08, 0.08, 0.06, 0.08]","[[0.2966712274604575, -0.2131825579980761], [-0.1186836204372937, -0.4965034514665913], [-0.01440301872015537, -0.0403072600505146], [0.1950017499803942, -0.04023412759326238], [0.279011892689379, -0.46996203863525404], [-0.05628257964606558, -0.24364929332980273], [0.11956786588335709, -0.3438640467385331]]",density,black,,,D004,visual,1,[],"['1', '2', '3', '4']",1,2023.2.3,harveyvisual,2.1,[],8,0.75,
0,pause,0.4,None,None,None,0,189,189,189,,,,,,,,,,,,,D004,visual,1,[],"['1', '2', '3', '4']",1,2023.2.3,harveyvisual,2.1,[],8,0.75,
7,dot,0.3,['dot'],['density'],black,0,190,190,190,,,68.90023303031921,68.61965918540955,68.91949319839478,dot,"[0.1, 0.08, 0.08, 0.08, 0.1, 0.08, 0.06]","[[-0.3242652666020733, -0.24505345323409705], [-0.563286395470885, 0.11160295583497896], [-0.1647097641571906, 0.12111961656459011], [-0.36052488434271157, 0.18805397786199418], [-0.09510517377503278, -0.06720219285628748], [-0.3867432997129629, -0.05120750304069932], [-0.32798962767594847, 0.38554234766764234]]",density,black,,,D004,visual,1,[],"['1', '2', '3', '4']",1,2023.2.3,harveyvisual,2.1,[],8,0.75,
0,pause,0.4,None,None,None,0,191,191,191,,,,,,,,,,,,,D004,visual,1,[],"['1', '2', '3', '4']",1,2023.2.3,harveyvisual,2.1,[],8,0.75,
6,dot,0.3,['dot'],['density'],black,0,192,192,192,,,69.60023617744446,69.31946110725403,69.61962103843689,dot,"[0.06, 0.1, 0.08, 0.08, 0.08, 0.08]","[[0.4249538099490167, -0.025354946498656116], [0.305005901383002, 0.397829445973664], [0.04954868862097969, 0.09819418046919175], [0.452299537631068, 0.2574679639516015], [0.21081936584905453, -0.08903757916275208], [0.27954488569289765, 0.14103100078867375]]",density,black,,,D004,visual,1,[],"['1', '2', '3', '4']",1,2023.2.3,harveyvisual,2.1,[],8,0.75,
0,pause,0.4,None,None,None,0,193,193,193,,,,,,,,,,,,,D004,visual,1,[],"['1', '2', '3', '4']",1,2023.2.3,harveyvisual,2.1,[],8,0.75,
6,dot,0.3,['dot'],['density'],black,0,194,194,194,,,70.30023717880249,70.01945400238037,70.31944417953491,dot,"[0.08, 0.06, 0.08, 0.1, 0.1, 0.1]","[[-0.24492162854676555, 0.16704436901929823], [-0.3861886513150086, 0.35601694661450933], [-0.48514013682315105, 0.15596888098880124], [-0.5451465436738104, -0.12931683943359434], [-0.11772959853104834, 0.007676420150436517], [-0.35755989064212684, -0.03355234579502648]]",density,black,,,D004,visual,1,[],"['1', '2', '3', '4']",1,2023.2.3,harveyvisual,2.1,[],8,0.75,
0,pause,0.4,None,None,None,0,195,195,195,,,,,,,,,,,,,D004,visual,1,[],"['1', '2', '3', '4']",1,2023.2.3,harveyvisual,2.1,[],8,0.75,
6,dot,0.3,['dot'],['density'],white,0,196,196,196,,,71.00021505355835,70.71958804130554,71.01943302154541,dot,"[0.06, 0.1, 0.06, 0.1, 0.1, 0.1]","[[-0.521575560759306, -0.09896409503936293], [-0.11005055439098525, 0.007412765662050641], [-0.2691644509192311, -0.32034241736757013], [-0.33082776037640693, 0.11579187391948328], [-0.031037041641207554, -0.21820435357846482], [-0.2943013415457968, -0.09543215727460275]]",density,white,,,D004,visual,1,[],"['1', '2', '3', '4']",1,2023.2.3,harveyvisual,2.1,[],8,0.75,
0,pause,0.4,None,None,None,0,197,197,197,,,,,,,,,,,1,70.78524613380432,D004,visual,1,[],"['1', '2', '3', '4']",1,2023.2.3,harveyvisual,2.1,[],8,0.75,
6,dot,0.3,['dot'],['density'],black,0,198,198,198,,,71.70022201538086,71.41957020759583,71.7194139957428,dot,"[0.1, 0.1, 0.06, 0.08, 0.06, 0.08]","[[0.01776890784276672, 0.3448500499300058], [-0.18238616215991446, 0.4840889924469993], [-0.2129582374372363, 0.07157874559070018], [-0.41549008775918617, 0.14353268657608398], [0.019487844458329944, 0.1389587799501653], [-0.21004805074000235, 0.2837936954907191]]",density,black,,,D004,visual,1,[],"['1', '2', '3', '4']",1,2023.2.3,harveyvisual,2.1,[],8,0.75,
0,pause,0.4,None,None,None,0,199,199,199,,,,,,,,,,,,,D004,visual,1,[],"['1', '2', '3', '4']",1,2023.2.3,harveyvisual,2.1,[],8,0.75,
6,dot,0.3,['dot'],['density'],black,0,200,200,200,,,72.40021204948425,72.1193962097168,72.41941618919373,dot,"[0.1, 0.1, 0.06, 0.08, 0.06, 0.06]","[[0.1344939073868, 0.11682503965153783], [0.2622842826516073, -0.1576809643807538], [0.491422654665352, 0.2653315688189552], [0.5669231994484553, 0.0667155191364867], [0.2299276458131091, 0.29835232047215776], [0.3356420801536577, 0.10517090915368521]]",density,black,,,D004,visual,1,[],"['1', '2', '3', '4']",1,2023.2.3,harveyvisual,2.1,[],8,0.75,
0,pause,0.4,None,None,None,0,201,201,201,,,,,,,,,,,,,D004,visual,1,[],"['1', '2', '3', '4']",1,2023.2.3,harveyvisual,2.1,[],8,0.75,
6,dot,0.3,['dot'],['density'],black,0,202,202,202,,,73.10022902488708,72.81938409805298,73.11936902999878,dot,"[0.08, 0.08, 0.1, 0.08, 0.06, 0.08]","[[-0.4130096743352808, -0.09152271377164663], [-0.19778223104980006, -0.03862987845790588], [-0.5782793278508197, 0.04067119283421001], [-0.2942915267906656, -0.3673297053134895], [-0.33560074172492643, 0.119885218799542], [-0.5263932498355091, -0.25924495598585295]]",density,black,,,D004,visual,1,[],"['1', '2', '3', '4']",1,2023.2.3,harveyvisual,2.1,[],8,0.75,
0,pause,0.4,None,None,None,0,203,203,203,,,,,,,,,,,,,D004,visual,1,[],"['1', '2', '3', '4']",1,2023.2.3,harveyvisual,2.1,[],8,0.75,
5,dot,0.3,['dot'],['density'],white,0,204,204,204,,,73.80023503303528,73.51952314376831,73.81934809684753,dot,"[0.06, 0.06, 0.08, 0.1, 0.06]","[[-0.07969108163070573, 0.258241044050758], [-0.3301768112222262, 0.22562982972330062], [-0.16453040906828167, -0.1622271318141552], [-0.21753854086321037, 0.04365873274764029], [0.030347216865940038, 0.07834852794011457]]",density,white,,,D004,visual,1,[],"['1', '2', '3', '4']",1,2023.2.3,harveyvisual,2.1,[],8,0.75,
0,pause,0.4,None,None,None,0,205,205,205,,,,,,,,,,,1,73.46349310874939,D004,visual,1,[],"['1', '2', '3', '4']",1,2023.2.3,harveyvisual,2.1,[],8,0.75,
5,dot,0.3,['dot'],['density'],black,0,206,206,206,,,74.50021719932556,74.21934413909912,74.51950216293335,dot,"[0.06, 0.06, 0.06, 0.1, 0.06]","[[0.34746533592570195, 0.16118282603596082], [0.14457128296481445, 0.28865621170929245], [0.4549189851861922, 0.34228556952890804], [0.008483415068308318, 0.44103246018778014], [0.27150044131742485, 0.4621652121832405]]",density,black,,,D004,visual,1,[],"['1', '2', '3', '4']",1,2023.2.3,harveyvisual,2.1,[],8,0.75,
0,pause,0.4,None,None,None,0,207,207,207,,,,,,,,,,,,,D004,visual,1,[],"['1', '2', '3', '4']",1,2023.2.3,harveyvisual,2.1,[],8,0.75,
5,dot,0.3,['dot'],['density'],black,0,208,208,208,,,75.2002341747284,74.91948199272156,75.21931314468384,dot,"[0.1, 0.06, 0.1, 0.1, 0.08]","[[0.08548847697718086, 0.4135790235028826], [-0.012611048966726563, 0.22662400259503446], [0.27435170057987585, 0.4853016025774898], [-0.23063129862993442, 0.3109017384705433], [-0.11887524344887646, 0.49040580377695175]]",density,black,,,D004,visual,1,[],"['1', '2', '3', '4']",1,2023.2.3,harveyvisual,2.1,[],8,0.75,
0,pause,0.4,None,None,None,0,209,209,209,,,,,,,,,,,,,D004,visual,1,[],"['1', '2', '3', '4']",1,2023.2.3,harveyvisual,2.1,[],8,0.75,
5,dot,0.3,['dot'],['density'],black,0,210,210,210,,,75.90022110939026,75.61946320533752,75.91931009292603,dot,"[0.08, 0.06, 0.06, 0.08, 0.08]","[[-0.2338402938730933, 0.15846616122991625], [-0.3229678957369872, -0.0901175890533356], [-0.5034912146055804, 0.021834460539281654], [-0.23914892391179104, -0.28496604153387733], [-0.10132718886958789, -0.1172648190903725]]",density,black,,,D004,visual,1,[],"['1', '2', '3', '4']",1,2023.2.3,harveyvisual,2.1,[],8,0.75,
0,pause,0.4,None,None,None,0,211,211,211,,,,,,,,,,,,,D004,visual,1,[],"['1', '2', '3', '4']",1,2023.2.3,harveyvisual,2.1,[],8,0.75,
5,dot,0.3,['dot'],['density'],black,0,212,212,212,,,76.60023403167725,76.31929302215576,76.61928009986877,dot,"[0.1, 0.1, 0.08, 0.1, 0.1]","[[0.10558973120531606, -0.20428866875977839], [-0.0893225412758366, 0.16524926947551877], [-0.05793580974794309, -0.07826743033729393], [0.11130747138107101, 0.10875249109580729], [0.28035132100960686, -0.09064984251937742]]",density,black,,,D004,visual,1,[],"['1', '2', '3', '4']",1,2023.2.3,harveyvisual,2.1,[],8,0.75,
0,pause,0.4,None,None,None,0,213,213,213,,,,,,,,,,,,,D004,visual,1,[],"['1', '2', '3', '4']",1,2023.2.3,harveyvisual,2.1,[],8,0.75,
5,dot,0.3,['dot'],['density'],black,0,214,214,214,,,77.30022716522217,77.0192711353302,77.31923317909241,dot,"[0.08, 0.08, 0.1, 0.06, 0.06]","[[-0.3632963637400461, -0.33792544526642676], [-0.48189922448633543, -0.036156829306921726], [-0.2958020468624338, 0.07292024124872273], [-0.10639492237515816, -0.0008972940205680791], [-0.20818262001932955, -0.17666930306052683]]",density,black,,,D004,visual,1,[],"['1', '2', '3', '4']",1,2023.2.3,harveyvisual,2.1,[],8,0.75,
0,pause,0.4,None,None,None,0,215,215,215,,,,,,,,,,,,,D004,visual,1,[],"['1', '2', '3', '4']",1,2023.2.3,harveyvisual,2.1,[],8,0.75,
4,dot,0.3,['dot'],['density'],black,0,216,216,216,,,78.00023317337036,77.71941900253296,78.01924109458923,dot,"[0.06, 0.1, 0.06, 0.06]","[[0.5195678262777355, 0.06634869171649047], [0.11508779247300271, 0.04459464887784077], [0.27862218446352316, 0.18290230777407274], [0.28701832247091064, -0.08209332131291468]]",density,black,,,D004,visual,1,[],"['1', '2', '3', '4']",1,2023.2.3,harveyvisual,2.1,[],8,0.75,
0,pause,0.4,None,None,None,0,217,217,217,,,,,,,,,,,,,D004,visual,1,[],"['1', '2', '3', '4']",1,2023.2.3,harveyvisual,2.1,[],8,0.75,
4,dot,0.3,['dot'],['density'],white,0,218,218,218,,,78.70023798942566,78.4192271232605,78.71942806243896,dot,"[0.1, 0.1, 0.1, 0.08]","[[0.08172100217045614, 0.5402562525463245], [-0.024891988969352973, 0.31595276793208527], [-0.14685316472848742, 0.5184788481920529], [-0.2646655063210597, 0.3159281349431851]]",density,white,,,D004,visual,1,[],"['1', '2', '3', '4']",1,2023.2.3,harveyvisual,2.1,[],8,0.75,
0,pause,0.4,None,None,None,0,219,219,219,,,,,,,,,,,1,78.34991192817688,D004,visual,1,[],"['1', '2', '3', '4']",1,2023.2.3,harveyvisual,2.1,[],8,0.75,
4,dot,0.3,['dot'],['density'],black,0,220,220,220,,,79.40023016929626,79.11921715736389,79.41921019554138,dot,"[0.1, 0.08, 0.06, 0.1]","[[0.2472118047986834, -0.10298318101898082], [0.5832669122255578, -0.0503561045998346], [0.411076479450662, -0.2641061246578253], [0.42907679660555237, 0.09101913809416001]]",density,black,,,D004,visual,1,[],"['1', '2', '3', '4']",1,2023.2.3,harveyvisual,2.1,[],8,0.75,
0,pause,0.4,None,None,None,0,221,221,221,,,,,,,,,,,,,D004,visual,1,[],"['1', '2', '3', '4']",1,2023.2.3,harveyvisual,2.1,[],8,0.75,
4,dot,0.3,['dot'],['density'],black,0,222,222,222,,,80.10023212432861,79.8194580078125,80.11918520927429,dot,"[0.06, 0.06, 0.06, 0.1]","[[-0.22375678750486633, 0.16938766720995918], [-0.03438308412182927, 0.2632029670309489], [0.15312837370161694, 0.1265605786946886], [-0.035433382102469414, 0.014828983441921377]]",density,black,,,D004,visual,1,[],"['1', '2', '3', '4']",1,2023.2.3,harveyvisual,2.1,[],8,0.75,
0,pause,0.4,None,None,None,0,223,223,223,,,,,,,,,,,,,D004,visual,1,[],"['1', '2', '3', '4']",1,2023.2.3,harveyvisual,2.1,[],8,0.75,
4,dot,0.3,['dot'],['density'],black,0,224,224,224,,,80.80021500587463,80.51919317245483,80.81918501853943,dot,"[0.08, 0.08, 0.06, 0.08]","[[-0.46485289602757673, 0.3603628353310837], [-0.30733625211232357, 0.21626236973196436], [-0.38991578213366157, 0.024479253410336757], [-0.570234662048439, 0.14093512067028166]]",density,black,,,D004,visual,1,[],"['1', '2', '3', '4']",1,2023.2.3,harveyvisual,2.1,[],8,0.75,
0,pause,0.4,None,None,None,0,225,225,225,,,,,,,,,,,,,D004,visual,1,[],"['1', '2', '3', '4']",1,2023.2.3,harveyvisual,2.1,[],8,0.75,
4,dot,0.3,['dot'],['density'],black,0,226,226,226,,,81.50021505355835,81.2191550731659,81.51958703994751,dot,"[0.06, 0.1, 0.06, 0.08]","[[0.0004228548582206217, 0.4437421379736539], [0.24572762857664815, 0.2260868474052859], [0.007756854070108054, 0.1846819218217072], [0.22099789303306372, 0.4278063517398125]]",density,black,,,D004,visual,1,[],"['1', '2', '3', '4']",1,2023.2.3,harveyvisual,2.1,[],8,0.75,
0,pause,0.4,None,None,None,0,227,227,227,,,,,,,,,,,,,D004,visual,1,[],"['1', '2', '3', '4']",1,2023.2.3,harveyvisual,2.1,[],8,0.75,
3,dot,0.3,['dot'],['density'],black,0,228,228,228,,,82.20021510124207,81.91912817955017,82.21919202804565,dot,"[0.08, 0.1, 0.08]","[[-0.15188894406744968, -0.195193050272512], [6.772800145782267e-05, -0.040844811103836635], [-0.2045693439875358, 0.0038115475482788236]]",density,black,,,D004,visual,1,[],"['1', '2', '3', '4']",1,2023.2.3,harveyvisual,2.1,[],8,0.75,
0,pause,0.4,None,None,None,0,229,229,229,,,,,,,,,,,,,D004,visual,1,[],"['1', '2', '3', '4']",1,2023.2.3,harveyvisual,2.1,[],8,0.75,
3,dot,0.3,['dot'],['density'],black,0,230,230,230,,,82.90023899078369,82.61913919448853,82.91910600662231,dot,"[0.06, 0.1, 0.06]","[[0.5383732683216915, 0.24050044654635605], [0.337973319445641, 0.36292363064724675], [0.3422154310588786, 0.14570949010333048]]",density,black,,,D004,visual,1,[],"['1', '2', '3', '4']",1,2023.2.3,harveyvisual,2.1,[],8,0.75,
0,pause,0.4,None,None,None,0,231,231,231,,,,,,,,,,,,,D004,visual,1,[],"['1', '2', '3', '4']",1,2023.2.3,harveyvisual,2.1,[],8,0.75,
3,dot,0.3,['dot'],['density'],white,0,232,232,232,,,83.60022616386414,83.31911706924438,83.61910915374756,dot,"[0.1, 0.06, 0.08]","[[0.03752440580708033, 0.5298990797186869], [-0.14535247226304113, 0.44143535861080874], [0.07857889528852925, 0.30774558950641073]]",density,white,,,D004,visual,1,[],"['1', '2', '3', '4']",1,2023.2.3,harveyvisual,2.1,[],8,0.75,
0,pause,0.4,None,None,None,0,233,233,233,,,,,,,,,,,1,83.22468209266663,D004,visual,1,[],"['1', '2', '3', '4']",1,2023.2.3,harveyvisual,2.1,[],8,0.75,
3,dot,0.3,['dot'],['density'],black,0,234,234,234,,,84.300222158432,84.01908802986145,84.31907510757446,dot,"[0.1, 0.08, 0.1]","[[-0.17720328293608806, -0.4514300161601115], [0.022754438065530718, -0.42143894503716073], [-0.10940085810899225, -0.24791511077847575]]",density,black,,,D004,visual,1,[],"['1', '2', '3', '4']",1,2023.2.3,harveyvisual,2.1,[],8,0.75,
0,pause,0.4,None,None,None,0,235,235,235,,,,,,,,,,,,,D004,visual,1,[],"['1', '2', '3', '4']",1,2023.2.3,harveyvisual,2.1,[],8,0.75,
3,dot,0.3,['dot'],['density'],black,0,236,236,236,,,85.00023603439331,84.719083070755,85.01905703544617,dot,"[0.08, 0.06, 0.1]","[[0.2768253388883432, 0.03346297355107007], [0.11287187477499526, -0.09417797505773098], [0.09003622344097514, 0.12370024427926096]]",density,black,,,D004,visual,1,[],"['1', '2', '3', '4']",1,2023.2.3,harveyvisual,2.1,[],8,0.75,
0,pause,0.4,None,None,None,0,237,237,237,,,,,,,,,,,,,D004,visual,1,[],"['1', '2', '3', '4']",1,2023.2.3,harveyvisual,2.1,[],8,0.75,
3,dot,0.3,['dot'],['density'],black,0,238,238,238,,,85.7002170085907,85.41905307769775,85.71903920173645,dot,"[0.06, 0.08, 0.06]","[[-0.015545778166788895, 0.3668732894324268], [-0.08169376046335623, 0.5804400028356697], [-0.24536523618143577, 0.46292967544173164]]",density,black,,,D004,visual,1,[],"['1', '2', '3', '4']",1,2023.2.3,harveyvisual,2.1,[],8,0.75,
0,pause,0.4,None,None,None,0,239,239,239,,,,,,,,,,,,,D004,visual,1,[],"['1', '2', '3', '4']",1,2023.2.3,harveyvisual,2.1,[],8,0.75,
2,dot,0.3,['dot'],['density'],black,0,240,240,240,,,86.40022420883179,86.11902618408203,86.4190320968628,dot,"[0.06, 0.08]","[[0.510744558366804, -0.07965895932329134], [0.5183014925016622, -0.2796299572401246]]",density,black,,,D004,visual,1,[],"['1', '2', '3', '4']",1,2023.2.3,harveyvisual,2.1,[],8,0.75,
0,pause,0.4,None,None,None,0,241,241,241,,,,,,,,,,,,,D004,visual,1,[],"['1', '2', '3', '4']",1,2023.2.3,harveyvisual,2.1,[],8,0.75,
2,dot,0.3,['dot'],['density'],black,0,242,242,242,,,87.10023903846741,86.81918001174927,87.11901617050171,dot,"[0.08, 0.08]","[[0.1652621768884792, -0.40183218801656556], [-0.03337249546828684, -0.4281924369736378]]",density,black,,,D004,visual,1,[],"['1', '2', '3', '4']",1,2023.2.3,harveyvisual,2.1,[],8,0.75,
0,pause,0.4,None,None,None,0,243,243,243,,,,,,,,,,,,,D004,visual,1,[],"['1', '2', '3', '4']",1,2023.2.3,harveyvisual,2.1,[],8,0.75,
2,dot,0.3,['dot'],['density'],white,0,244,244,244,,,87.80021405220032,87.51896810531616,87.81914210319519,dot,"[0.1, 0.08]","[[0.06661886780735636, -0.3109770134588511], [-0.03502229105109153, -0.4833380692870097]]",density,white,,,D004,visual,1,[],"['1', '2', '3', '4']",1,2023.2.3,harveyvisual,2.1,[],8,0.75,
0,pause,0.4,None,None,None,0,245,245,245,,,,,,,,,,,1,87.44525504112244,D004,visual,1,[],"['1', '2', '3', '4']",1,2023.2.3,harveyvisual,2.1,[],8,0.75,
2,dot,0.3,['dot'],['density'],black,0,246,246,246,,,88.50023102760315,88.21895718574524,88.51898407936096,dot,"[0.08, 0.06]","[[0.24818458179829028, -0.5230613829255512], [0.05315527151035717, -0.47711981276458415]]",density,black,,,D004,visual,1,[],"['1', '2', '3', '4']",1,2023.2.3,harveyvisual,2.1,[],8,0.75,
0,pause,0.4,None,None,None,0,247,247,247,,,,,,,,,,,,,D004,visual,1,[],"['1', '2', '3', '4']",1,2023.2.3,harveyvisual,2.1,[],8,0.75,
2,dot,0.3,['dot'],['density'],black,0,248,248,248,,,89.20022320747375,88.91909909248352,89.21892213821411,dot,"[0.1, 0.08]","[[0.075840462383643, -0.21806900392302264], [0.2761252679018853, -0.22101292055433702]]",density,black,,,D004,visual,1,[],"['1', '2', '3', '4']",1,2023.2.3,harveyvisual,2.1,[],8,0.75,
0,pause,0.4,None,None,None,0,249,249,249,,,,,,,,,,,,,D004,visual,1,[],"['1', '2', '3', '4']",1,2023.2.3,harveyvisual,2.1,[],8,0.75,
2,dot,0.3,['dot'],['density'],black,0,250,250,250,,,89.90022301673889,89.6191291809082,89.91890621185303,dot,"[0.1, 0.06]","[[0.07059805578258149, -0.2458188734665979], [0.058763118304238846, -0.4455693812784497]]",density,black,,,D004,visual,1,[],"['1', '2', '3', '4']",1,2023.2.3,harveyvisual,2.1,[],8,0.75,
0,pause,0.4,None,None,None,0,251,251,251,,,,,,,,,,,,,D004,visual,1,[],"['1', '2', '3', '4']",1,2023.2.3,harveyvisual,2.1,[],8,0.75,
1,dot,0.3,['dot'],['density'],black,0,252,252,252,,,90.60021615028381,90.31891012191772,90.61906599998474,dot,[0.1],"[0.19623115665255414, 0.1676894875529279]",density,black,,,D004,visual,1,[],"['1', '2', '3', '4']",1,2023.2.3,harveyvisual,2.1,[],8,0.75,
0,pause,0.4,None,None,None,0,253,253,253,,,,,,,,,,,,,D004,visual,1,[],"['1', '2', '3', '4']",1,2023.2.3,harveyvisual,2.1,[],8,0.75,
1,dot,0.3,['dot'],['density'],black,0,254,254,254,,,91.30022120475769,91.01889419555664,91.31888604164124,dot,[0.1],"[0.1771264825789444, 0.012298414170669998]",density,black,,,D004,visual,1,[],"['1', '2', '3', '4']",1,2023.2.3,harveyvisual,2.1,[],8,0.75,
0,pause,0.4,None,None,None,0,255,255,255,,,,,,,,,,,,,D004,visual,1,[],"['1', '2', '3', '4']",1,2023.2.3,harveyvisual,2.1,[],8,0.75,
1,dot,0.3,['dot'],['density'],black,0,256,256,256,,,92.00024008750916,91.71887612342834,92.0188660621643,dot,[0.08],"[-0.4913090862596544, 0.31587628757091063]",density,black,,,D004,visual,1,[],"['1', '2', '3', '4']",1,2023.2.3,harveyvisual,2.1,[],8,0.75,
0,pause,0.4,None,None,None,0,257,257,257,,,,,,,,,,,,,D004,visual,1,[],"['1', '2', '3', '4']",1,2023.2.3,harveyvisual,2.1,[],8,0.75,
1,dot,0.3,['dot'],['density'],black,0,258,258,258,,,92.70023703575134,92.41885900497437,92.7188491821289,dot,[0.08],"[-0.4913090862596544, 0.31587628757091063]",density,black,,,D004,visual,1,[],"['1', '2', '3', '4']",1,2023.2.3,harveyvisual,2.1,[],8,0.75,
0,pause,0.4,None,None,None,0,259,259,259,,,,,,,,,,,,,D004,visual,1,[],"['1', '2', '3', '4']",1,2023.2.3,harveyvisual,2.1,[],8,0.75,
1,dot,0.3,['dot'],['density'],black,0,260,260,260,,,93.40023303031921,93.11883807182312,93.41882920265198,dot,[0.08],"[0.5286010678554951, -0.2554598500704326]",density,black,,,D004,visual,1,[],"['1', '2', '3', '4']",1,2023.2.3,harveyvisual,2.1,[],8,0.75,
0,pause,0.4,None,None,None,0,261,261,261,,,,,,,,,,,,,D004,visual,1,[],"['1', '2', '3', '4']",1,2023.2.3,harveyvisual,2.1,[],8,0.75,
1,dot,0.3,['dot'],['density'],black,0,262,262,262,,,94.10023617744446,93.81900215148926,94.1187961101532,dot,[0.06],"[-0.1989246115662565, -0.15069844343359862]",density,black,,,D004,visual,1,[],"['1', '2', '3', '4']",1,2023.2.3,harveyvisual,2.1,[],8,0.75,
0,pause,0.4,None,None,None,0,263,263,263,,,,,,,,,,,,,D004,visual,1,[],"['1', '2', '3', '4']",1,2023.2.3,harveyvisual,2.1,[],8,0.75,
20,dot,0.3,['dot'],['density'],black,0,264,264,264,,,94.80023002624512,94.51896119117737,94.81894516944885,dot,"[0.08, 0.06, 0.08, 0.06, 0.1, 0.08, 0.06, 0.06, 0.08, 0.08, 0.1, 0.1, 0.08, 0.06, 0.06, 0.06, 0.1, 0.06, 0.08, 0.1]","[[-0.04442755548895516, -0.3855527273742676], [0.3751458512818666, 0.08300746809028187], [-0.3620747375322243, -0.45181477619489774], [-0.6020242940016645, 0.052663582002882], [-0.2470754170722793, -0.09207335669141542], [0.038932115016048985, 0.5368872525049246], [0.39089672950166177, 0.33243930708863834], [0.4165661087314064, -0.3863522459977617], [-0.1432505076308228, 0.3189998575428832], [-0.09395037923773941, 0.08416637993654541], [0.5892442191561665, -0.1287278957164864], [-0.47669735701330596, -0.16155498458463752], [-0.4817563335250064, 0.35278782114449264], [0.2824840819113592, -0.1613665462525421], [0.2591760296727448, -0.5291998138570992], [0.22832755569490581, 0.4603647465574211], [0.12793578599259603, -0.04530920642027647], [0.5511694553046643, 0.22096545439969306], [-0.24284936122323209, 0.5509158198718], [-0.3903732878654928, 0.10408715365837318]]",density,black,,,D004,visual,1,[],"['1', '2', '3', '4']",1,2023.2.3,harveyvisual,2.1,[],8,0.75,
0,pause,0.4,None,None,None,0,265,265,265,,,,,,,,,,,,,D004,visual,1,[],"['1', '2', '3', '4']",1,2023.2.3,harveyvisual,2.1,[],8,0.75,
20,dot,0.3,['dot'],['density'],black,0,266,266,266,,,95.50023198127747,95.21877908706665,95.51892018318176,dot,"[0.08, 0.06, 0.08, 0.06, 0.06, 0.08, 0.08, 0.1, 0.06, 0.06, 0.06, 0.06, 0.1, 0.06, 0.06, 0.08, 0.06, 0.08, 0.1, 0.1]","[[-0.3207476420806087, 0.48479782249498393], [-0.02378751099224541, -0.013199829752759684], [0.1881220624516321, 0.21827183070113654], [-0.2521863816886119, 0.04070344054263331], [0.4794970150059489, 0.2021150607997818], [-0.3148986131418651, 0.2868876713653725], [-0.5600841122566828, -0.0898073649038233], [0.4908086221767153, -0.1963718507787489], [0.29314119967339547, -0.13190024322923127], [0.07897325936922872, 0.4374571123598975], [-0.08529245139873465, -0.2545025071379053], [-0.4917601602177593, 0.18883837689356692], [0.17589829676256408, -0.3631690644559182], [0.3650776052899545, 0.3621768196552913], [0.09931683356987397, -0.5666239231880534], [-0.49062023043863195, -0.3135678837447806], [-0.08426871424436422, 0.2952171546275747], [-0.29803255850599664, -0.3572016251003769], [0.5968550771075057, 0.0009139653345757448], [0.3801386851383952, -0.3928961760810225]]",density,black,,,D004,visual,1,[],"['1', '2', '3', '4']",1,2023.2.3,harveyvisual,2.1,[],8,0.75,
0,pause,0.4,None,None,None,0,267,267,267,,,,,,,,,,,,,D004,visual,1,[],"['1', '2', '3', '4']",1,2023.2.3,harveyvisual,2.1,[],8,0.75,
