num,mod,duration,shape,ll_cond,colors,.thisRepN,.thisTrialN,.thisN,.thisIndex,thisRow.t,notes,raw_global_time,t_start,t_stop,shapes,size,pos,cond,color,button,RT,participant,session,starting_run,left button (match/odd),right button (non-match/even),samples_per_block,psychopy version,expName,offset,audio,number_runs,radius,
1,dot,0.3,['dot'],['density'],black,0,0,0,0,,,2.4001951217651367,2.112842082977295,2.4127681255340576,dot,[0.1],"[0.2830289625583117, -0.03026882548871228]",density,black,,,D004,visual,1,[],"['1', '2', '3', '4']",1,2023.2.3,harveyvisual,2.1,[],8,0.75,
0,pause,0.4,None,None,None,0,1,1,1,,,,,,,,,,,,,D004,visual,1,[],"['1', '2', '3', '4']",1,2023.2.3,harveyvisual,2.1,[],8,0.75,
1,dot,0.3,['dot'],['density'],black,0,2,2,2,,,3.1002120971679688,2.8127620220184326,3.113269090652466,dot,[0.06],"[-0.4309303250570785, -0.37878052449928096]",density,black,,,D004,visual,1,[],"['1', '2', '3', '4']",1,2023.2.3,harveyvisual,2.1,[],8,0.75,
0,pause,0.4,None,None,None,0,3,3,3,,,,,,,,,,,,,D004,visual,1,[],"['1', '2', '3', '4']",1,2023.2.3,harveyvisual,2.1,[],8,0.75,
1,dot,0.3,['dot'],['density'],black,0,4,4,4,,,3.800206184387207,3.513267993927002,3.8132550716400146,dot,[0.08],"[0.0956549371127339, 0.09579573331985794]",density,black,,,D004,visual,1,[],"['1', '2', '3', '4']",1,2023.2.3,harveyvisual,2.1,[],8,0.75,
0,pause,0.4,None,None,None,0,5,5,5,,,,,,,,,,,,,D004,visual,1,[],"['1', '2', '3', '4']",1,2023.2.3,harveyvisual,2.1,[],8,0.75,
1,dot,0.3,['dot'],['density'],black,0,6,6,6,,,4.500198125839233,4.213244199752808,4.513231992721558,dot,[0.1],"[0.2287398259034258, -0.3932960849464651]",density,black,,,D004,visual,1,[],"['1', '2', '3', '4']",1,2023.2.3,harveyvisual,2.1,[],8,0.75,
0,pause,0.4,None,None,None,0,7,7,7,,,,,,,,,,,,,D004,visual,1,[],"['1', '2', '3', '4']",1,2023.2.3,harveyvisual,2.1,[],8,0.75,
1,dot,0.3,['dot'],['density'],black,0,8,8,8,,,5.200201034545898,4.913228988647461,5.213215112686157,dot,[0.1],"[0.43730911014729085, 0.38068286015665653]",density,black,,,D004,visual,1,[],"['1', '2', '3', '4']",1,2023.2.3,harveyvisual,2.1,[],8,0.75,
0,pause,0.4,None,None,None,0,9,9,9,,,,,,,,,,,,,D004,visual,1,[],"['1', '2', '3', '4']",1,2023.2.3,harveyvisual,2.1,[],8,0.75,
1,dot,0.3,['dot'],['density'],black,0,10,10,10,,,5.900196075439453,5.6144139766693115,5.914415121078491,dot,[0.08],"[0.5286010678554951, -0.2554598500704326]",density,black,,,D004,visual,1,[],"['1', '2', '3', '4']",1,2023.2.3,harveyvisual,2.1,[],8,0.75,
0,pause,0.4,None,None,None,0,11,11,11,,,,,,,,,,,,,D004,visual,1,[],"['1', '2', '3', '4']",1,2023.2.3,harveyvisual,2.1,[],8,0.75,
2,dot,0.3,['dot'],['density'],black,0,12,12,12,,,6.600200176239014,6.3143980503082275,6.614374160766602,dot,"[0.08, 0.06]","[[0.1652621768884792, -0.40183218801656556], [-0.03337249546828684, -0.4281924369736378]]",density,black,,,D004,visual,1,[],"['1', '2', '3', '4']",1,2023.2.3,harveyvisual,2.1,[],8,0.75,
0,pause,0.4,None,None,None,0,13,13,13,,,,,,,,,,,,,D004,visual,1,[],"['1', '2', '3', '4']",1,2023.2.3,harveyvisual,2.1,[],8,0.75,
2,dot,0.3,['dot'],['density'],black,0,14,14,14,,,7.30020809173584,7.01437520980835,7.314362049102783,dot,"[0.06, 0.06]","[[0.06661886780735636, -0.3109770134588511], [-0.03502229105109153, -0.4833380692870097]]",density,black,,,D004,visual,1,[],"['1', '2', '3', '4']",1,2023.2.3,harveyvisual,2.1,[],8,0.75,
0,pause,0.4,None,None,None,0,15,15,15,,,,,,,,,,,,,D004,visual,1,[],"['1', '2', '3', '4']",1,2023.2.3,harveyvisual,2.1,[],8,0.75,
2,dot,0.3,['dot'],['density'],black,0,16,16,16,,,8.000205993652344,7.714368104934692,8.014343976974487,dot,"[0.1, 0.08]","[[0.24265818653156754, -0.3775895252336694], [0.4224299169789366, -0.289759305909148]]",density,black,,,D004,visual,1,[],"['1', '2', '3', '4']",1,2023.2.3,harveyvisual,2.1,[],8,0.75,
0,pause,0.4,None,None,None,0,17,17,17,,,,,,,,,,,,,D004,visual,1,[],"['1', '2', '3', '4']",1,2023.2.3,harveyvisual,2.1,[],8,0.75,
2,dot,0.3,['dot'],['density'],black,0,18,18,18,,,8.700204133987427,8.414334058761597,8.714336156845093,dot,"[0.08, 0.08]","[[0.29932439847351855, -0.2783039550742582], [0.14276117392638485, -0.15345139110726028]]",density,black,,,D004,visual,1,[],"['1', '2', '3', '4']",1,2023.2.3,harveyvisual,2.1,[],8,0.75,
0,pause,0.4,None,None,None,0,19,19,19,,,,,,,,,,,,,D004,visual,1,[],"['1', '2', '3', '4']",1,2023.2.3,harveyvisual,2.1,[],8,0.75,
2,dot,0.3,['dot'],['density'],white,0,20,20,20,,,9.40021300315857,9.114330053329468,9.414311170578003,dot,"[0.08, 0.1]","[[0.4162662019019998, 0.09129510669171749], [0.33420900269466314, 0.27427456354974017]]",density,white,,,D004,visual,1,[],"['1', '2', '3', '4']",1,2023.2.3,harveyvisual,2.1,[],8,0.75,
0,pause,0.4,None,None,None,0,21,21,21,,,,,,,,,,,1,9.62787413597107,D004,visual,1,[],"['1', '2', '3', '4']",1,2023.2.3,harveyvisual,2.1,[],8,0.75,
2,dot,0.3,['dot'],['density'],black,0,22,22,22,,,10.100202083587646,9.814300060272217,10.114294052124023,dot,"[0.1, 0.08]","[[0.4101371699595759, -0.046236245446824746], [0.42481245787877703, -0.24684889303111815]]",density,black,,,D004,visual,1,[],"['1', '2', '3', '4']",1,2023.2.3,harveyvisual,2.1,[],8,0.75,
0,pause,0.4,None,None,None,0,23,23,23,,,,,,,,,,,,,D004,visual,1,[],"['1', '2', '3', '4']",1,2023.2.3,harveyvisual,2.1,[],8,0.75,
3,dot,0.3,['dot'],['density'],black,0,24,24,24,,,10.800197124481201,10.514286041259766,10.814284086227417,dot,"[0.1, 0.08, 0.1]","[[-0.15188894406744968, -0.195193050272512], [6.772800145782267e-05, -0.040844811103836635], [-0.2045693439875358, 0.0038115475482788236]]",density,black,,,D004,visual,1,[],"['1', '2', '3', '4']",1,2023.2.3,harveyvisual,2.1,[],8,0.75,
0,pause,0.4,None,None,None,0,25,25,25,,,,,,,,,,,,,D004,visual,1,[],"['1', '2', '3', '4']",1,2023.2.3,harveyvisual,2.1,[],8,0.75,
3,dot,0.3,['dot'],['density'],black,0,26,26,26,,,11.500200033187866,11.214275121688843,11.514257192611694,dot,"[0.08, 0.06, 0.1]","[[-0.5081709494874314, 0.1572673197774781], [-0.37009835501087307, 0.006965763417246156], [-0.5707172634768017, -0.07177594851347295]]",density,black,,,D004,visual,1,[],"['1', '2', '3', '4']",1,2023.2.3,harveyvisual,2.1,[],8,0.75,
0,pause,0.4,None,None,None,0,27,27,27,,,,,,,,,,,,,D004,visual,1,[],"['1', '2', '3', '4']",1,2023.2.3,harveyvisual,2.1,[],8,0.75,
3,dot,0.3,['dot'],['density'],black,0,28,28,28,,,12.200213193893433,11.914261102676392,12.214233160018921,dot,"[0.1, 0.06, 0.1]","[[-0.15674404860239688, -0.25078459247658497], [0.006578924124220241, -0.41324131210186005], [0.06959682433872849, -0.20549031443856539]]",density,black,,,D004,visual,1,[],"['1', '2', '3', '4']",1,2023.2.3,harveyvisual,2.1,[],8,0.75,
0,pause,0.4,None,None,None,0,29,29,29,,,,,,,,,,,,,D004,visual,1,[],"['1', '2', '3', '4']",1,2023.2.3,harveyvisual,2.1,[],8,0.75,
3,dot,0.3,['dot'],['density'],white,0,30,30,30,,,12.900199174880981,12.614235162734985,12.91422700881958,dot,"[0.08, 0.08, 0.08]","[[-0.32624451712468355, -0.43854848545497693], [-0.39409142490376414, -0.22516425170789148], [-0.152352104904091, -0.33204091051628687]]",density,white,,,D004,visual,1,[],"['1', '2', '3', '4']",1,2023.2.3,harveyvisual,2.1,[],8,0.75,
0,pause,0.4,None,None,None,0,31,31,31,,,,,,,,,,,1,13.073283195495605,D004,visual,1,[],"['1', '2', '3', '4']",1,2023.2.3,harveyvisual,2.1,[],8,0.75,
3,dot,0.3,['dot'],['density'],white,0,32,32,32,,,13.600198030471802,13.314218044281006,13.614217042922974,dot,"[0.06, 0.08, 0.08]","[[-0.3082868261871679, -0.3137599619928766], [-0.14816041357862977, -0.19371393562593295], [-0.35304767783039576, -0.10610354059871957]]",density,white,,,D004,visual,1,[],"['1', '2', '3', '4']",1,2023.2.3,harveyvisual,2.1,[],8,0.75,
0,pause,0.4,None,None,None,0,33,33,33,,,,,,,,,,,1,13.752394199371338,D004,visual,1,[],"['1', '2', '3', '4']",1,2023.2.3,harveyvisual,2.1,[],8,0.75,
3,dot,0.3,['dot'],['density'],white,0,34,34,34,,,14.30019998550415,14.014199018478394,14.314188003540039,dot,"[0.06, 0.06, 0.08]","[[0.16698284004709638, 0.14340522813657522], [0.014382160343152013, -0.0120418799203457], [0.17626274868444566, -0.13037823744598942]]",density,white,,,D004,visual,1,[],"['1', '2', '3', '4']",1,2023.2.3,harveyvisual,2.1,[],8,0.75,
0,pause,0.4,None,None,None,0,35,35,35,,,,,,,,,,,1,14.32049012184143,D004,visual,1,[],"['1', '2', '3', '4']",1,2023.2.3,harveyvisual,2.1,[],8,0.75,
4,dot,0.3,['dot'],['density'],black,0,36,36,36,,,15.000214099884033,14.714171171188354,15.014177083969116,dot,"[0.1, 0.08, 0.06, 0.1]","[[0.012521055699324385, 0.11356654047594222], [0.23234191260135498, 0.08597184236642744], [-0.1711309036876675, 0.020891973622313913], [0.11376048882462075, -0.09104804463782627]]",density,black,,,D004,visual,1,[],"['1', '2', '3', '4']",1,2023.2.3,harveyvisual,2.1,[],8,0.75,
0,pause,0.4,None,None,None,0,37,37,37,,,,,,,,,,,,,D004,visual,1,[],"['1', '2', '3', '4']",1,2023.2.3,harveyvisual,2.1,[],8,0.75,
4,dot,0.3,['dot'],['density'],black,0,38,38,38,,,15.70020318031311,15.414168119430542,15.714142084121704,dot,"[0.06, 0.08, 0.06, 0.1]","[[0.28769160010247724, 0.4706884012140322], [0.03735362687931127, 0.4645781312677133], [0.33102019499247487, 0.1847810932959147], [0.1685132699603264, 0.30497059043407926]]",density,black,,,D004,visual,1,[],"['1', '2', '3', '4']",1,2023.2.3,harveyvisual,2.1,[],8,0.75,
0,pause,0.4,None,None,None,0,39,39,39,,,,,,,,,,,,,D004,visual,1,[],"['1', '2', '3', '4']",1,2023.2.3,harveyvisual,2.1,[],8,0.75,
4,dot,0.3,['dot'],['density'],black,0,40,40,40,,,16.400217056274414,16.114164113998413,16.414148092269897,dot,"[0.08, 0.1, 0.06, 0.06]","[[0.08172100217045614, 0.5402562525463245], [-0.024891988969352973, 0.31595276793208527], [-0.14685316472848742, 0.5184788481920529], [-0.2646655063210597, 0.3159281349431851]]",density,black,,,D004,visual,1,[],"['1', '2', '3', '4']",1,2023.2.3,harveyvisual,2.1,[],8,0.75,
0,pause,0.4,None,None,None,0,41,41,41,,,,,,,,,,,,,D004,visual,1,[],"['1', '2', '3', '4']",1,2023.2.3,harveyvisual,2.1,[],8,0.75,
4,dot,0.3,['dot'],['density'],black,0,42,42,42,,,17.100210189819336,16.814127206802368,17.11411213874817,dot,"[0.08, 0.06, 0.1, 0.08]","[[0.15462156444594843, 0.0379601134824338], [-0.046642739949193296, 0.06510400621286498], [0.12320708371464141, 0.2499967514902957], [-0.13279798436850673, 0.2624558601457805]]",density,black,,,D004,visual,1,[],"['1', '2', '3', '4']",1,2023.2.3,harveyvisual,2.1,[],8,0.75,
0,pause,0.4,None,None,None,0,43,43,43,,,,,,,,,,,,,D004,visual,1,[],"['1', '2', '3', '4']",1,2023.2.3,harveyvisual,2.1,[],8,0.75,
4,dot,0.3,['dot'],['density'],black,0,44,44,44,,,17.8001971244812,17.514114141464233,17.81409502029419,dot,"[0.1, 0.1, 0.06, 0.06]","[[-0.3130108772186628, 0.4658633188731559], [0.06875292536802097, 0.3619778545149697], [-0.12928423743784842, 0.28835211797578114], [-0.08764786508193922, 0.5151731075523892]]",density,black,,,D004,visual,1,[],"['1', '2', '3', '4']",1,2023.2.3,harveyvisual,2.1,[],8,0.75,
0,pause,0.4,None,None,None,0,45,45,45,,,,,,,,,,,,,D004,visual,1,[],"['1', '2', '3', '4']",1,2023.2.3,harveyvisual,2.1,[],8,0.75,
4,dot,0.3,['dot'],['density'],black,0,46,46,46,,,18.50019598007202,18.214109182357788,18.51407814025879,dot,"[0.08, 0.1, 0.08, 0.06]","[[0.15462156444594843, 0.0379601134824338], [-0.046642739949193296, 0.06510400621286498], [0.12320708371464141, 0.2499967514902957], [-0.13279798436850673, 0.2624558601457805]]",density,black,,,D004,visual,1,[],"['1', '2', '3', '4']",1,2023.2.3,harveyvisual,2.1,[],8,0.75,
0,pause,0.4,None,None,None,0,47,47,47,,,,,,,,,,,,,D004,visual,1,[],"['1', '2', '3', '4']",1,2023.2.3,harveyvisual,2.1,[],8,0.75,
5,dot,0.3,['dot'],['density'],black,0,48,48,48,,,19.2002170085907,18.91407012939453,19.214059114456177,dot,"[0.06, 0.08, 0.1, 0.1, 0.08]","[[-0.47409275164437775, -0.17842554437930905], [-0.28800513042966097, -0.4059597382025641], [-0.20075697267214665, 0.008887320625593834], [-0.2708677629513771, -0.1868162154653106], [-0.0886924353013077, -0.2820475711339636]]",density,black,,,D004,visual,1,[],"['1', '2', '3', '4']",1,2023.2.3,harveyvisual,2.1,[],8,0.75,
0,pause,0.4,None,None,None,0,49,49,49,,,,,,,,,,,,,D004,visual,1,[],"['1', '2', '3', '4']",1,2023.2.3,harveyvisual,2.1,[],8,0.75,
5,dot,0.3,['dot'],['density'],black,0,50,50,50,,,19.90021014213562,19.614054203033447,19.91406011581421,dot,"[0.08, 0.1, 0.08, 0.06, 0.08]","[[-0.20882687658313398, 0.05979685123170853], [0.07709165915785691, 0.33819008637117026], [0.02323578322535992, 0.12175330968231063], [0.02522363087913582, -0.08718927316059993], [-0.12152044988768049, 0.28453648995279207]]",density,black,,,D004,visual,1,[],"['1', '2', '3', '4']",1,2023.2.3,harveyvisual,2.1,[],8,0.75,
0,pause,0.4,None,None,None,0,51,51,51,,,,,,,,,,,,,D004,visual,1,[],"['1', '2', '3', '4']",1,2023.2.3,harveyvisual,2.1,[],8,0.75,
5,dot,0.3,['dot'],['density'],black,0,52,52,52,,,20.600195169448853,20.31403398513794,20.614021062850952,dot,"[0.1, 0.06, 0.1, 0.08, 0.1]","[[0.2075830250205083, 0.5448960418430373], [0.010600229768786232, 0.45420498888786176], [-0.10187712889758427, 0.28364076042242115], [0.1691377395635631, 0.293820614486451], [-0.2596336492265815, 0.40815120909286945]]",density,black,,,D004,visual,1,[],"['1', '2', '3', '4']",1,2023.2.3,harveyvisual,2.1,[],8,0.75,
0,pause,0.4,None,None,None,0,53,53,53,,,,,,,,,,,,,D004,visual,1,[],"['1', '2', '3', '4']",1,2023.2.3,harveyvisual,2.1,[],8,0.75,
5,dot,0.3,['dot'],['density'],black,0,54,54,54,,,21.300202131271362,21.014007091522217,21.31402015686035,dot,"[0.1, 0.08, 0.1, 0.1, 0.06]","[[-0.4709100701083565, 0.02189337908226187], [-0.29145525575644754, 0.3795081276742083], [-0.23690205020139254, 0.016868774910060797], [-0.4278442329265702, 0.22919645259494104], [-0.09991604659712162, 0.23043195716445664]]",density,black,,,D004,visual,1,[],"['1', '2', '3', '4']",1,2023.2.3,harveyvisual,2.1,[],8,0.75,
0,pause,0.4,None,None,None,0,55,55,55,,,,,,,,,,,,,D004,visual,1,[],"['1', '2', '3', '4']",1,2023.2.3,harveyvisual,2.1,[],8,0.75,
5,dot,0.3,['dot'],['density'],black,0,56,56,56,,,22.000208139419556,21.714009046554565,22.014000177383423,dot,"[0.06, 0.08, 0.06, 0.1, 0.1]","[[0.2447541601906441, 0.3086669061463178], [0.2085849672204031, -0.04267428248465989], [0.44393754570968663, -0.061602228714441105], [0.027125763574429876, 0.05764502161176834], [0.36879828001487897, 0.1310025380577708]]",density,black,,,D004,visual,1,[],"['1', '2', '3', '4']",1,2023.2.3,harveyvisual,2.1,[],8,0.75,
0,pause,0.4,None,None,None,0,57,57,57,,,,,,,,,,,,,D004,visual,1,[],"['1', '2', '3', '4']",1,2023.2.3,harveyvisual,2.1,[],8,0.75,
5,dot,0.3,['dot'],['density'],black,0,58,58,58,,,22.700216054916382,22.414000034332275,22.713982105255127,dot,"[0.1, 0.1, 0.1, 0.1, 0.08]","[[-0.4702494158317004, 0.19352793081356498], [-0.36864189631283095, -0.2113573127283173], [-0.3573601989406874, -0.007363185939446715], [-0.15559938224235453, -0.02548680069503583], [-0.25069196230576396, 0.1747846118010945]]",density,black,,,D004,visual,1,[],"['1', '2', '3', '4']",1,2023.2.3,harveyvisual,2.1,[],8,0.75,
0,pause,0.4,None,None,None,0,59,59,59,,,,,,,,,,,,,D004,visual,1,[],"['1', '2', '3', '4']",1,2023.2.3,harveyvisual,2.1,[],8,0.75,
6,dot,0.3,['dot'],['density'],black,0,60,60,60,,,23.400204181671143,23.113969087600708,23.41395115852356,dot,"[0.08, 0.08, 0.1, 0.1, 0.1, 0.06]","[[0.4838288853419304, 0.012393783640839304], [0.3357737587390128, 0.3939464288632381], [0.48781910936274964, 0.21484656822060386], [0.038497076365425514, 0.2266532147795764], [0.13074852606734502, 0.009493629341700475], [0.2855531954453259, 0.1811044151544938]]",density,black,,,D004,visual,1,[],"['1', '2', '3', '4']",1,2023.2.3,harveyvisual,2.1,[],8,0.75,
0,pause,0.4,None,None,None,0,61,61,61,,,,,,,,,,,,,D004,visual,1,[],"['1', '2', '3', '4']",1,2023.2.3,harveyvisual,2.1,[],8,0.75,
6,dot,0.3,['dot'],['density'],black,0,62,62,62,,,24.10019612312317,23.813953161239624,24.11394500732422,dot,"[0.1, 0.06, 0.1, 0.06, 0.06, 0.1]","[[0.4249538099490167, -0.025354946498656116], [0.305005901383002, 0.397829445973664], [0.04954868862097969, 0.09819418046919175], [0.452299537631068, 0.2574679639516015], [0.21081936584905453, -0.08903757916275208], [0.27954488569289765, 0.14103100078867375]]",density,black,,,D004,visual,1,[],"['1', '2', '3', '4']",1,2023.2.3,harveyvisual,2.1,[],8,0.75,
0,pause,0.4,None,None,None,0,63,63,63,,,,,,,,,,,,,D004,visual,1,[],"['1', '2', '3', '4']",1,2023.2.3,harveyvisual,2.1,[],8,0.75,
6,dot,0.3,['dot'],['density'],black,0,64,64,64,,,24.800204038619995,24.513925075531006,24.81393313407898,dot,"[0.1, 0.08, 0.08, 0.06, 0.08, 0.1]","[[0.500827999951601, -0.23304028533624072], [0.20916386845998064, 0.08030245107060778], [0.27809793757338463, -0.1905950399710685], [0.08327260932553728, -0.13599284299194644], [0.16768982653485215, -0.38480252821003114], [0.4174962964646186, 0.01069632702004041]]",density,black,,,D004,visual,1,[],"['1', '2', '3', '4']",1,2023.2.3,harveyvisual,2.1,[],8,0.75,
0,pause,0.4,None,None,None,0,65,65,65,,,,,,,,,,,,,D004,visual,1,[],"['1', '2', '3', '4']",1,2023.2.3,harveyvisual,2.1,[],8,0.75,
6,dot,0.3,['dot'],['density'],black,0,66,66,66,,,25.50021004676819,25.21390414237976,25.513899087905884,dot,"[0.1, 0.06, 0.1, 0.08, 0.08, 0.06]","[[0.23041567882598732, 0.45619944218456715], [0.5278859611842325, 0.18245830030246968], [0.08738225171760033, 0.1578384040678088], [0.20561463112105705, -0.03996865664556224], [0.3021721310554224, 0.21718230064421146], [0.4273755636869532, 0.38341374408431883]]",density,black,,,D004,visual,1,[],"['1', '2', '3', '4']",1,2023.2.3,harveyvisual,2.1,[],8,0.75,
0,pause,0.4,None,None,None,0,67,67,67,,,,,,,,,,,,,D004,visual,1,[],"['1', '2', '3', '4']",1,2023.2.3,harveyvisual,2.1,[],8,0.75,
6,dot,0.3,['dot'],['density'],black,0,68,68,68,,,26.20020818710327,25.91389298439026,26.21388602256775,dot,"[0.1, 0.06, 0.06, 0.1, 0.1, 0.08]","[[0.4249538099490167, -0.025354946498656116], [0.305005901383002, 0.397829445973664], [0.04954868862097969, 0.09819418046919175], [0.452299537631068, 0.2574679639516015], [0.21081936584905453, -0.08903757916275208], [0.27954488569289765, 0.14103100078867375]]",density,black,,,D004,visual,1,[],"['1', '2', '3', '4']",1,2023.2.3,harveyvisual,2.1,[],8,0.75,
0,pause,0.4,None,None,None,0,69,69,69,,,,,,,,,,,,,D004,visual,1,[],"['1', '2', '3', '4']",1,2023.2.3,harveyvisual,2.1,[],8,0.75,
6,dot,0.3,['dot'],['density'],black,0,70,70,70,,,26.900202989578247,26.613887071609497,26.91387414932251,dot,"[0.06, 0.06, 0.08, 0.08, 0.1, 0.08]","[[-0.21871154593458392, 0.523205648483303], [-0.10311842393244862, 0.3355489225101837], [0.008055670172287269, 0.5366903261171385], [0.1303263863168633, 0.3782575370349718], [0.03185769749340688, 0.17145177849191712], [-0.2810167974491763, 0.15418865533644557]]",density,black,,,D004,visual,1,[],"['1', '2', '3', '4']",1,2023.2.3,harveyvisual,2.1,[],8,0.75,
0,pause,0.4,None,None,None,0,71,71,71,,,,,,,,,,,,,D004,visual,1,[],"['1', '2', '3', '4']",1,2023.2.3,harveyvisual,2.1,[],8,0.75,
7,dot,0.3,['dot'],['density'],black,0,72,72,72,,,27.600205183029175,27.313852071762085,27.613855123519897,dot,"[0.06, 0.1, 0.1, 0.08, 0.08, 0.1, 0.06]","[[0.373835093542847, 0.13553027784675922], [0.025265531087721685, -0.15487691700731251], [0.38086488534306906, -0.0720131222026176], [0.4315741710459581, -0.28075472739566504], [0.18097069018870113, 0.01647246612045595], [0.1962900518120967, -0.2624101628120604], [0.08955660480178401, 0.2127528718980948]]",density,black,,,D004,visual,1,[],"['1', '2', '3', '4']",1,2023.2.3,harveyvisual,2.1,[],8,0.75,
0,pause,0.4,None,None,None,0,73,73,73,,,,,,,,,,,,,D004,visual,1,[],"['1', '2', '3', '4']",1,2023.2.3,harveyvisual,2.1,[],8,0.75,
7,dot,0.3,['dot'],['density'],white,0,74,74,74,,,28.300206184387207,28.013836145401,28.3138370513916,dot,"[0.08, 0.1, 0.08, 0.1, 0.1, 0.08, 0.08]","[[0.2966712274604575, -0.2131825579980761], [-0.1186836204372937, -0.4965034514665913], [-0.01440301872015537, -0.0403072600505146], [0.1950017499803942, -0.04023412759326238], [0.279011892689379, -0.46996203863525404], [-0.05628257964606558, -0.24364929332980273], [0.11956786588335709, -0.3438640467385331]]",density,white,,,D004,visual,1,[],"['1', '2', '3', '4']",1,2023.2.3,harveyvisual,2.1,[],8,0.75,
0,pause,0.4,None,None,None,0,75,75,75,,,,,,,,,,,1,28.48505210876465,D004,visual,1,[],"['1', '2', '3', '4']",1,2023.2.3,harveyvisual,2.1,[],8,0.75,
7,dot,0.3,['dot'],['density'],black,0,76,76,76,,,29.00021719932556,28.71383309364319,29.013805150985718,dot,"[0.06, 0.06, 0.1, 0.1, 0.1, 0.1, 0.06]","[[-0.2877807563129739, -0.2392998172879968], [-0.4930284393840153, 0.02918626900802282], [-0.13307942101536208, -0.4135874564509098], [-0.1727922191076213, -0.04289663127052677], [-0.3943840059764042, -0.4351600913800347], [-0.03321109949484203, -0.21096883087625085], [-0.5418728138863746, -0.1990057631286019]]",density,black,,,D004,visual,1,[],"['1', '2', '3', '4']",1,2023.2.3,harveyvisual,2.1,[],8,0.75,
0,pause,0.4,None,None,None,0,77,77,77,,,,,,,,,,,,,D004,visual,1,[],"['1', '2', '3', '4']",1,2023.2.3,harveyvisual,2.1,[],8,0.75,
7,dot,0.3,['dot'],['density'],black,0,78,78,78,,,29.700200080871582,29.413809061050415,29.71379804611206,dot,"[0.06, 0.1, 0.08, 0.08, 0.08, 0.1, 0.1]","[[0.12902113605384963, -0.35167066519854956], [0.3838909825822851, -0.05572740120406059], [-0.02857767273637445, 0.1549795872955612], [0.19333287999408408, 0.10698923431715611], [-0.08146847087507005, -0.06064403559207536], [0.18020694687254563, -0.15550905334431223], [-0.07225335190945896, -0.28606481362007624]]",density,black,,,D004,visual,1,[],"['1', '2', '3', '4']",1,2023.2.3,harveyvisual,2.1,[],8,0.75,
0,pause,0.4,None,None,None,0,79,79,79,,,,,,,,,,,,,D004,visual,1,[],"['1', '2', '3', '4']",1,2023.2.3,harveyvisual,2.1,[],8,0.75,
7,dot,0.3,['dot'],['density'],black,0,80,80,80,,,30.400207042694092,30.11379599571228,30.413771152496338,dot,"[0.1, 0.08, 0.1, 0.1, 0.06, 0.08, 0.06]","[[-0.2314520007693297, 0.33838000150240727], [-0.18132207761103206, 0.5552670473927488], [0.017458222085991553, 0.32213086183097556], [0.10538257653630445, 0.5364165263315271], [-0.32661765694444117, 0.13553859080651098], [0.2001110614088519, 0.2352342526365964], [-0.07707990285528175, 0.1388757586163816]]",density,black,,,D004,visual,1,[],"['1', '2', '3', '4']",1,2023.2.3,harveyvisual,2.1,[],8,0.75,
0,pause,0.4,None,None,None,0,81,81,81,,,,,,,,,,,,,D004,visual,1,[],"['1', '2', '3', '4']",1,2023.2.3,harveyvisual,2.1,[],8,0.75,
7,dot,0.3,['dot'],['density'],black,0,82,82,82,,,31.100195169448853,30.813783168792725,31.113765001296997,dot,"[0.08, 0.06, 0.08, 0.06, 0.08, 0.1, 0.1]","[[0.06935229908748385, 0.4911641494940837], [-0.19266199922505295, 0.07836852906048222], [0.055274369019684175, 0.020452523162812593], [0.26239471350362015, 0.1001529216481179], [-0.06036973858781391, 0.3360513952533211], [-0.2638544135394649, 0.29089327984911306], [0.14813816713374972, 0.28344041791591096]]",density,black,,,D004,visual,1,[],"['1', '2', '3', '4']",1,2023.2.3,harveyvisual,2.1,[],8,0.75,
0,pause,0.4,None,None,None,0,83,83,83,,,,,,,,,,,,,D004,visual,1,[],"['1', '2', '3', '4']",1,2023.2.3,harveyvisual,2.1,[],8,0.75,
8,dot,0.3,['dot'],['density'],white,0,84,84,84,,,31.800217151641846,31.513750076293945,31.813735008239746,dot,"[0.1, 0.1, 0.08, 0.08, 0.06, 0.06, 0.08, 0.06]","[[-0.3167478768396544, -0.2124469325344782], [0.11150510454677101, -0.25361932254341324], [0.17657050060311263, -0.496926349220185], [0.20833757931744315, -0.0002320808252021913], [-0.0015234955214533466, 0.034722119540356526], [-0.10690598217119997, -0.19846612199298916], [0.32498422138424443, -0.23444872628509345], [-0.054741640541526956, -0.4230750989992696]]",density,white,,,D004,visual,1,[],"['1', '2', '3', '4']",1,2023.2.3,harveyvisual,2.1,[],8,0.75,
0,pause,0.4,None,None,None,0,85,85,85,,,,,,,,,,,1,31.90248203277588,D004,visual,1,[],"['1', '2', '3', '4']",1,2023.2.3,harveyvisual,2.1,[],8,0.75,
8,dot,0.3,['dot'],['density'],black,0,86,86,86,,,32.50022315979004,32.21374797821045,32.51371717453003,dot,"[0.1, 0.06, 0.06, 0.1, 0.1, 0.1, 0.06, 0.06]","[[0.15461278376755175, 0.017690045563684864], [0.4404146441246234, 0.21813023399178458], [0.05487595867990863, 0.4084021637362207], [-0.13585566436679766, 0.08658391491112073], [0.3753260993018466, -0.0029057217730488138], [0.24206240898487613, 0.3367355195829085], [0.06992318211572668, 0.2078151862649802], [0.2541279777615451, -0.17357647893213385]]",density,black,,,D004,visual,1,[],"['1', '2', '3', '4']",1,2023.2.3,harveyvisual,2.1,[],8,0.75,
0,pause,0.4,None,None,None,0,87,87,87,,,,,,,,,,,,,D004,visual,1,[],"['1', '2', '3', '4']",1,2023.2.3,harveyvisual,2.1,[],8,0.75,
8,dot,0.3,['dot'],['density'],white,0,88,88,88,,,33.20021319389343,32.91373109817505,33.21371412277222,dot,"[0.1, 0.06, 0.1, 0.1, 0.08, 0.08, 0.08, 0.06]","[[-0.258715538922871, 0.3828151050353194], [-0.4384035523576633, -0.18689856672911037], [-0.5586779833045601, 0.15056420889708766], [-0.1699372658897842, -0.04883432605429875], [-0.36053016753151684, 0.02858569738219561], [-0.199221799186684, 0.1876786431210615], [0.004458053620249285, 0.1240038339062716], [0.019420137312414813, -0.16023679021787893]]",density,white,,,D004,visual,1,[],"['1', '2', '3', '4']",1,2023.2.3,harveyvisual,2.1,[],8,0.75,
0,pause,0.4,None,None,None,0,89,89,89,,,,,,,,,,,1,33.320744037628174,D004,visual,1,[],"['1', '2', '3', '4']",1,2023.2.3,harveyvisual,2.1,[],8,0.75,
8,dot,0.3,['dot'],['density'],black,0,90,90,90,,,33.90021014213562,33.61368918418884,33.913676023483276,dot,"[0.06, 0.06, 0.08, 0.06, 0.06, 0.06, 0.08, 0.1]","[[-0.3306282708070712, -0.09459634407206743], [0.17708038186302957, -0.36794437316098305], [-0.34368294577136044, -0.39688855169369486], [-0.16397220561896333, 0.03033928826277653], [-0.08476975953586025, -0.41834960305423746], [-0.16765121495786453, -0.2265743681515788], [0.0449590487082352, -0.10546915507075137], [-0.5574709661459258, -0.15664368712912546]]",density,black,,,D004,visual,1,[],"['1', '2', '3', '4']",1,2023.2.3,harveyvisual,2.1,[],8,0.75,
0,pause,0.4,None,None,None,0,91,91,91,,,,,,,,,,,,,D004,visual,1,[],"['1', '2', '3', '4']",1,2023.2.3,harveyvisual,2.1,[],8,0.75,
8,dot,0.3,['dot'],['density'],black,0,92,92,92,,,34.60021901130676,34.31368112564087,34.61366105079651,dot,"[0.08, 0.06, 0.1, 0.08, 0.08, 0.1, 0.06, 0.08]","[[-0.19469543066458847, -0.326291241472255], [0.30343637985980976, -0.10925869102227477], [-0.1969922581528186, -0.11664339975312436], [0.2570255161168456, -0.3247060146943647], [0.10684135558856425, -0.18174565546534566], [0.03482742583321104, -0.4893606045609451], [-0.015658395544436696, -0.0001692298399926468], [0.11980560642279467, 0.15585563517441894]]",density,black,,,D004,visual,1,[],"['1', '2', '3', '4']",1,2023.2.3,harveyvisual,2.1,[],8,0.75,
0,pause,0.4,None,None,None,0,93,93,93,,,,,,,,,,,,,D004,visual,1,[],"['1', '2', '3', '4']",1,2023.2.3,harveyvisual,2.1,[],8,0.75,
8,dot,0.3,['dot'],['density'],black,0,94,94,94,,,35.30020499229431,35.01366209983826,35.31366419792175,dot,"[0.06, 0.1, 0.06, 0.06, 0.06, 0.08, 0.06, 0.08]","[[0.2695774744445919, -0.006239189610034271], [0.562582848369008, 0.10338967896652898], [0.24075709842543627, 0.2415297589697605], [0.16944247952526825, 0.43473569867318385], [0.009973801462114143, 0.2622623098226203], [0.4378981685404615, 0.30984992123658367], [0.345623627049791, -0.19390063473497438], [0.01218861403819752, 6.35764658527089e-05]]",density,black,,,D004,visual,1,[],"['1', '2', '3', '4']",1,2023.2.3,harveyvisual,2.1,[],8,0.75,
0,pause,0.4,None,None,None,0,95,95,95,,,,,,,,,,,,,D004,visual,1,[],"['1', '2', '3', '4']",1,2023.2.3,harveyvisual,2.1,[],8,0.75,
9,dot,0.3,['dot'],['density'],black,0,96,96,96,,,36.00021505355835,35.713643074035645,36.013641119003296,dot,"[0.06, 0.06, 0.06, 0.1, 0.1, 0.1, 0.1, 0.06, 0.1]","[[-0.1410632352740557, -0.317905811010377], [-0.01624442214728049, 0.1794094022286925], [0.09468404279643694, -0.24727132108451297], [-0.2758455249254349, -0.14491344886434532], [-0.07397021974914944, -0.09933967896750957], [-0.3580751224104431, 0.12641846535160695], [0.3672464474339042, -0.09947208873420914], [0.14679994141956812, -0.049441009882571184], [0.20049431506903384, 0.1443691092520585]]",density,black,,,D004,visual,1,[],"['1', '2', '3', '4']",1,2023.2.3,harveyvisual,2.1,[],8,0.75,
0,pause,0.4,None,None,None,0,97,97,97,,,,,,,,,,,,,D004,visual,1,[],"['1', '2', '3', '4']",1,2023.2.3,harveyvisual,2.1,[],8,0.75,
9,dot,0.3,['dot'],['density'],black,0,98,98,98,,,36.70021319389343,36.41361618041992,36.71362805366516,dot,"[0.1, 0.1, 0.08, 0.1, 0.06, 0.1, 0.06, 0.06, 0.08]","[[-0.3143165991636532, -0.4594448536910345], [-0.2552048841139852, -0.06866208597721758], [-0.4539914907372049, -0.019462523532982], [-0.0016330512078212595, -0.20036737320767878], [-0.1856154264835833, -0.2915493351998931], [-0.41369389823818076, -0.2734186166626005], [0.2388286227728169, -0.07063581723838416], [0.0412368179136257, 0.05808754956878123], [-0.37802967984412894, 0.19285536194211775]]",density,black,,,D004,visual,1,[],"['1', '2', '3', '4']",1,2023.2.3,harveyvisual,2.1,[],8,0.75,
0,pause,0.4,None,None,None,0,99,99,99,,,,,,,,,,,,,D004,visual,1,[],"['1', '2', '3', '4']",1,2023.2.3,harveyvisual,2.1,[],8,0.75,
9,dot,0.3,['dot'],['density'],white,0,100,100,100,,,37.4002251625061,37.11360502243042,37.4135901927948,dot,"[0.1, 0.1, 0.1, 0.08, 0.08, 0.06, 0.1, 0.08, 0.06]","[[-0.5242180236495622, 0.2097960018926228], [-0.2671382220306689, 0.3003190330968159], [-0.06183693718886379, 0.22592490829479475], [-0.2001015593906042, -0.14641750634996328], [-0.09246193223873551, 0.43765994221656135], [-0.29330373087767303, 0.05285487614136386], [0.007094383220706952, 0.008748553761596398], [0.1465325421295601, 0.294910430799518], [0.04425292235957525, -0.2230758375085622]]",density,white,,,D004,visual,1,[],"['1', '2', '3', '4']",1,2023.2.3,harveyvisual,2.1,[],8,0.75,
0,pause,0.4,None,None,None,0,101,101,101,,,,,,,,,,,1,37.57532811164856,D004,visual,1,[],"['1', '2', '3', '4']",1,2023.2.3,harveyvisual,2.1,[],8,0.75,
9,dot,0.3,['dot'],['density'],black,0,102,102,102,,,38.100224018096924,37.81359505653381,38.113569021224976,dot,"[0.08, 0.06, 0.06, 0.1, 0.08, 0.06, 0.1, 0.1, 0.06]","[[-0.39546702852536103, 0.05887767166707298], [0.0019437857506851024, 0.07006750722115952], [0.08809400946991845, -0.15083790972035777], [-0.35358057288562594, -0.14123029179452673], [-0.18893042820243505, -0.004761820558363635], [-0.16054322822148615, -0.2701644482013472], [-0.3593088451216199, 0.2649120528395154], [-0.09346394646241396, -0.4621051997984888], [-0.5526246027455071, -0.11781718335669726]]",density,black,,,D004,visual,1,[],"['1', '2', '3', '4']",1,2023.2.3,harveyvisual,2.1,[],8,0.75,
0,pause,0.4,None,None,None,0,103,103,103,,,,,,,,,,,,,D004,visual,1,[],"['1', '2', '3', '4']",1,2023.2.3,harveyvisual,2.1,[],8,0.75,
9,dot,0.3,['dot'],['density'],black,0,104,104,104,,,38.80020713806152,38.513571977615356,38.81355905532837,dot,"[0.1, 0.1, 0.1, 0.08, 0.08, 0.1, 0.08, 0.06, 0.06]","[[0.34043128493099817, 0.2271075800100716], [0.2702764120171402, -0.10456749967376819], [-0.1274635928921129, -0.04210317806044915], [-0.03460273614387521, 0.1795356259369138], [0.14470969472881007, 0.3391925298523705], [0.06761060508642219, 0.0060094309834155335], [0.5117869412029185, -0.12050585585317111], [0.07404675892906432, -0.22660478390602867], [0.35723900661310204, -0.3185591288757]]",density,black,,,D004,visual,1,[],"['1', '2', '3', '4']",1,2023.2.3,harveyvisual,2.1,[],8,0.75,
0,pause,0.4,None,None,None,0,105,105,105,,,,,,,,,,,,,D004,visual,1,[],"['1', '2', '3', '4']",1,2023.2.3,harveyvisual,2.1,[],8,0.75,
9,dot,0.3,['dot'],['density'],black,0,106,106,106,,,39.50020408630371,39.21356916427612,39.51354217529297,dot,"[0.08, 0.08, 0.08, 0.08, 0.06, 0.06, 0.08, 0.1, 0.06]","[[0.02295687172906439, -0.4555612238154966], [0.343534432465795, -0.2595759245515751], [-0.16187815285083418, -0.09052449078383604], [0.11251247888811697, -0.27313237114007116], [0.30947849701411384, 0.04064216277921932], [0.06991680920562879, 0.010838090335221196], [-0.17538857600721916, -0.30040513178321704], [-0.11470383471809205, 0.10558329706542706], [-0.35883798189287325, -0.15372405551062507]]",density,black,,,D004,visual,1,[],"['1', '2', '3', '4']",1,2023.2.3,harveyvisual,2.1,[],8,0.75,
0,pause,0.4,None,None,None,0,107,107,107,,,,,,,,,,,,,D004,visual,1,[],"['1', '2', '3', '4']",1,2023.2.3,harveyvisual,2.1,[],8,0.75,
20,dot,0.3,['dot'],['density'],black,0,108,108,108,,,40.200215101242065,39.913536071777344,40.213521003723145,dot,"[0.08, 0.1, 0.06, 0.1, 0.06, 0.06, 0.06, 0.08, 0.1, 0.1, 0.06, 0.1, 0.1, 0.06, 0.06, 0.1, 0.1, 0.1, 0.06, 0.1]","[[0.2145332481022051, -0.0031718948565085947], [-0.06687593585816809, -0.1080024528748662], [-0.29674083433019893, 0.4479053767149661], [-0.32799159347242435, -0.09906795937873786], [0.18808903859040305, 0.48426482626000134], [0.4674098217038588, 0.08426352988881064], [-0.16345045256424684, -0.45905081179740037], [0.12253784944812751, -0.51283956929641], [0.4434164998744964, -0.3745079700605038], [0.22713446080847732, -0.3220406384507795], [-0.3641951192043882, -0.390824473297698], [-0.11391083554370707, 0.5914662505053881], [-0.5197970289681365, -0.2495083858360666], [0.5750061388685807, -0.1542897630351132], [-0.4921365874990977, 0.03968531095450184], [-0.38686696173742763, 0.27600195140826306], [0.03636074869271111, -0.2770216151308109], [0.3782420657634856, 0.4583182503683581], [0.01238609794173029, 0.3889120344692235], [-0.10617433174875551, 0.08321404047452152]]",density,black,,,D004,visual,1,[],"['1', '2', '3', '4']",1,2023.2.3,harveyvisual,2.1,[],8,0.75,
0,pause,0.4,None,None,None,0,109,109,109,,,,,,,,,,,,,D004,visual,1,[],"['1', '2', '3', '4']",1,2023.2.3,harveyvisual,2.1,[],8,0.75,
20,dot,0.3,['dot'],['density'],black,0,110,110,110,,,40.90020203590393,40.61353302001953,40.9135000705719,dot,"[0.08, 0.1, 0.1, 0.08, 0.08, 0.1, 0.08, 0.1, 0.08, 0.06, 0.1, 0.1, 0.06, 0.1, 0.1, 0.08, 0.08, 0.08, 0.1, 0.06]","[[0.4984905451412104, -0.06555860345898529], [-0.17790104321944317, -0.39868552472147156], [-0.1589714414678033, 0.5243228067335337], [-0.3433079622706158, 0.3680158405499395], [0.14966070761960792, -0.22489229614368544], [0.23004988090861, 0.28459064813377377], [-0.4214180215648604, 0.06557154038324653], [-0.6021179401031436, -0.03732131449447211], [0.34938825775847016, -0.35600226613324004], [0.428053325865292, 0.36604324534260135], [-0.16537818827261735, 0.156235234425237], [0.5324136108007348, -0.2807631792271058], [0.24483836372486478, -0.022558862576793404], [0.4283864776543763, 0.14251245995983047], [0.03350205823637864, 0.4192110017475217], [0.06212648512318408, -0.514070221438068], [-0.2058530124862677, -0.1126742736641177], [0.23087630008057858, 0.5260104552911089], [-0.3970934245877137, -0.18121520841115624], [0.03701911557359483, 0.08105761534624689]]",density,black,,,D004,visual,1,[],"['1', '2', '3', '4']",1,2023.2.3,harveyvisual,2.1,[],8,0.75,
0,pause,0.4,None,None,None,0,111,111,111,,,,,,,,,,,,,D004,visual,1,[],"['1', '2', '3', '4']",1,2023.2.3,harveyvisual,2.1,[],8,0.75,
20,dot,0.3,['dot'],['density'],black,0,112,112,112,,,41.60020303726196,41.3135039806366,41.61348509788513,dot,"[0.08, 0.06, 0.06, 0.06, 0.08, 0.08, 0.08, 0.1, 0.1, 0.06, 0.08, 0.08, 0.08, 0.06, 0.08, 0.06, 0.06, 0.08, 0.1, 0.1]","[[0.4454027486017379, -0.37793079387691614], [0.6031243110663095, 0.0105292106233014], [-0.02517502783182568, 0.47887879287541435], [0.29612731543537696, 0.49465745396341054], [-0.3226528027928492, -0.006625984124898343], [-0.1341850007912036, -0.1844839478414932], [0.09756240128799065, -0.05364095435565819], [0.10381271977852458, 0.17497850374293877], [-0.5244946271390787, -0.0962855337798535], [-0.36126267730933126, -0.21084399361613632], [0.1678377335022957, -0.5249192323202253], [0.47729093566536485, 0.16999282288063794], [0.3278962012303702, 0.018220577044746333], [-0.35337259001758903, 0.41131137076217944], [-0.5156920356788248, 0.09358791578558817], [0.10576692250707143, -0.2671349315178823], [-0.04908769607036889, -0.4296754357349008], [0.2606499241294208, 0.30393187439684133], [-0.06349524252702965, 0.06555892844871491], [-0.3627708337835414, -0.4082509262493215]]",density,black,,,D004,visual,1,[],"['1', '2', '3', '4']",1,2023.2.3,harveyvisual,2.1,[],8,0.75,
0,pause,0.4,None,None,None,0,113,113,113,,,,,,,,,,,,,D004,visual,1,[],"['1', '2', '3', '4']",1,2023.2.3,harveyvisual,2.1,[],8,0.75,
20,dot,0.3,['dot'],['density'],black,0,114,114,114,,,42.300209045410156,42.013495206832886,42.313467025756836,dot,"[0.1, 0.06, 0.06, 0.06, 0.08, 0.08, 0.06, 0.1, 0.08, 0.06, 0.08, 0.08, 0.06, 0.08, 0.06, 0.06, 0.06, 0.1, 0.08, 0.06]","[[-0.37936594296446474, 0.3853399932252254], [0.46940319425045807, 0.03618651131265832], [-0.18351530579608794, 0.4028520353907923], [-0.10982981040888962, -0.031381847140118824], [-0.030035511597412246, 0.27637218249896756], [0.5310534640460381, 0.22370885047502231], [-0.28931815933841476, 0.06716613585189746], [-0.12781114614742783, -0.312520262543441], [0.0871891350698758, -0.4872154469866626], [-0.5528858423664182, 0.11331137624554385], [0.2992626173183429, 0.39095282433028256], [-0.4413193672271155, -0.16511618234204656], [0.24833978156206515, -0.329678375417103], [-0.2243010096626512, -0.5484419545751366], [0.1385901503103314, 0.11420212832285082], [0.10967635508329288, -0.08783022040366228], [0.4781587167083382, -0.22410006941393484], [0.06318508772979059, 0.6000996405138594], [-0.4318543703592289, -0.3649447091197363], [0.31981725204087885, 0.19158212750800518]]",density,black,,,D004,visual,1,[],"['1', '2', '3', '4']",1,2023.2.3,harveyvisual,2.1,[],8,0.75,
0,pause,0.4,None,None,None,0,115,115,115,,,,,,,,,,,,,D004,visual,1,[],"['1', '2', '3', '4']",1,2023.2.3,harveyvisual,2.1,[],8,0.75,
20,dot,0.3,['dot'],['density'],white,0,116,116,116,,,43.00022602081299,42.71347498893738,43.01345109939575,dot,"[0.06, 0.06, 0.1, 0.1, 0.06, 0.1, 0.06, 0.06, 0.08, 0.1, 0.06, 0.06, 0.08, 0.08, 0.1, 0.08, 0.1, 0.08, 0.06, 0.1]","[[0.054477093668445, 0.34157242370929286], [-0.13925764153697584, 0.44488086352572176], [-0.2845412089931314, -0.4564166875029525], [-0.5466575993831722, 0.004776870793766708], [0.12064166961704093, 0.5383887513842333], [-0.3103545200338537, -0.13084017674287246], [0.3234050829363102, -0.23551957654285288], [0.0015472037103143599, -0.3323709155648811], [0.31558914480732225, 0.22144376191691773], [-0.4043464089371136, 0.14447478590205615], [0.03994371120831419, 0.1373360336958196], [-0.016648100332960936, -0.08175861513042304], [-0.0002780170882298316, -0.5307058449834213], [0.579590508905465, 0.02379578695563145], [0.2577545834424103, -0.05359751837125626], [0.2468855240831579, -0.43196775408092314], [-0.1560656485531085, 0.08981681460608948], [0.5552551265345506, 0.23094622940422416], [-0.5070746468650159, -0.1898946051672084], [0.4226152295339908, 0.4181072082880215]]",density,white,,,D004,visual,1,[],"['1', '2', '3', '4']",1,2023.2.3,harveyvisual,2.1,[],8,0.75,
0,pause,0.4,None,None,None,0,117,117,117,,,,,,,,,,,1,43.18486714363098,D004,visual,1,[],"['1', '2', '3', '4']",1,2023.2.3,harveyvisual,2.1,[],8,0.75,
20,dot,0.3,['dot'],['density'],black,0,118,118,118,,,43.70021319389343,43.41343712806702,43.71344518661499,dot,"[0.08, 0.06, 0.1, 0.06, 0.06, 0.06, 0.08, 0.08, 0.06, 0.1, 0.1, 0.06, 0.1, 0.06, 0.06, 0.08, 0.1, 0.06, 0.1, 0.08]","[[-0.031062827039472052, -0.1019802816729769], [-0.07227371151802464, 0.213860064934851], [-0.2657149236803169, 0.38295855853296756], [0.25720318945304765, 0.22365918439364496], [0.30470324253553516, -0.23246237117434043], [0.5387204508518791, -0.03441991776034525], [-0.5538557716676159, -0.24163607098562104], [-0.38892974131171676, -0.356311253054721], [-0.0011947947306181206, 0.5077071111304273], [-0.4746119358353196, 0.016932548879986353], [-0.10447914723159057, -0.2978700617223785], [0.4736122927864016, 0.3214588925423057], [0.20113954246228005, -0.002019862382472093], [-0.2659387423838427, -0.5195527298583634], [0.1419659084509246, 0.3784496284472193], [-0.42676692049276416, 0.2664104496783563], [-0.23364226287381923, -0.14725804152699795], [0.2255880671259739, -0.421472298860405], [-0.019680509399889634, -0.5395492630518264], [-0.19792130738567643, 0.04245697951529159]]",density,black,,,D004,visual,1,[],"['1', '2', '3', '4']",1,2023.2.3,harveyvisual,2.1,[],8,0.75,
0,pause,0.4,None,None,None,0,119,119,119,,,,,,,,,,,,,D004,visual,1,[],"['1', '2', '3', '4']",1,2023.2.3,harveyvisual,2.1,[],8,0.75,
20,dot,0.3,['dot'],['density'],black,0,120,120,120,,,44.40020203590393,44.11343717575073,44.41342306137085,dot,"[0.06, 0.1, 0.08, 0.06, 0.06, 0.1, 0.1, 0.06, 0.06, 0.08, 0.1, 0.08, 0.1, 0.1, 0.06, 0.1, 0.08, 0.1, 0.08, 0.1]","[[-0.24589578592341332, 0.18851111287849975], [-0.2683675871698045, -0.06693317946126726], [-0.4669140407075647, 0.15135824268502557], [0.11233155276197826, 0.20220083494284713], [0.1664043615050793, 0.5124895171511558], [-0.010058600940237472, -0.019415560428846845], [0.5634171944794916, 0.1812568002130576], [0.5913133147837332, -0.03455038070613575], [0.0010669111818760735, -0.4742740082093626], [-0.24676847663481638, -0.5078773973295077], [-0.23643193153502018, 0.4716528842002833], [0.39580270048448984, 0.2987307975044352], [-0.5006863617248117, -0.13246248615444517], [-0.26666314497134797, -0.2739595606028523], [0.3949009887999996, -0.4145548828327129], [0.20782494815992847, -0.49741800534712666], [0.3420749647773621, -0.036623350942608046], [-0.06051063659411582, -0.2791566104619475], [0.2354743282245817, -0.2074719393599656], [-0.4377788839124115, 0.33901154705675]]",density,black,,,D004,visual,1,[],"['1', '2', '3', '4']",1,2023.2.3,harveyvisual,2.1,[],8,0.75,
0,pause,0.4,None,None,None,0,121,121,121,,,,,,,,,,,,,D004,visual,1,[],"['1', '2', '3', '4']",1,2023.2.3,harveyvisual,2.1,[],8,0.75,
20,dot,0.3,['dot'],['density'],black,0,122,122,122,,,45.10022521018982,44.81341600418091,45.11340618133545,dot,"[0.1, 0.06, 0.1, 0.1, 0.06, 0.06, 0.06, 0.06, 0.08, 0.08, 0.1, 0.1, 0.1, 0.1, 0.1, 0.06, 0.08, 0.06, 0.06, 0.1]","[[0.27971866213933294, 0.4393874477219374], [-0.4946913400189653, 0.12567075975792702], [-0.07656457021251095, -0.20038703780815587], [0.5929746148288352, 0.012767816351758138], [-0.29101123755724007, 0.41844027598657985], [-0.35526613065440776, -0.46610716366660165], [0.22278752140913516, 0.06664207426414215], [-0.36104658123709954, -0.14814762932553255], [0.04988737390534981, 0.5409794212369683], [0.31979702073105476, -0.4107453130018149], [-0.252130697462045, 0.05930544664478188], [-0.10961920991342766, 0.29004886144861075], [-0.5330009760242904, -0.265517247099116], [0.5104195398980241, 0.28711660514583126], [-0.011452468065130339, 0.07376474101605357], [0.4053136294282652, -0.20342690682741246], [-0.1281812218277366, -0.5827092410077889], [0.11222995036540417, -0.2639208029960277], [0.19847419271404143, 0.260038947041319], [-0.4590029609377369, 0.3156126841875619]]",density,black,,,D004,visual,1,[],"['1', '2', '3', '4']",1,2023.2.3,harveyvisual,2.1,[],8,0.75,
0,pause,0.4,None,None,None,0,123,123,123,,,,,,,,,,,,,D004,visual,1,[],"['1', '2', '3', '4']",1,2023.2.3,harveyvisual,2.1,[],8,0.75,
20,dot,0.3,['dot'],['density'],black,0,124,124,124,,,45.80021119117737,45.51340103149414,45.81339120864868,dot,"[0.1, 0.08, 0.06, 0.06, 0.08, 0.08, 0.06, 0.08, 0.06, 0.06, 0.06, 0.08, 0.06, 0.06, 0.08, 0.08, 0.06, 0.08, 0.08, 0.08]","[[0.32681489239368855, -0.27259188345913987], [-0.32386965467288603, -0.32907140799545026], [-0.5382167065204765, -0.18368839031893064], [-0.28666947878514076, -0.09472130313325383], [-0.5688442651259664, 0.12076340426111318], [0.6038402323717514, -0.024990167022746663], [0.5280870757642185, 0.19591593998238754], [0.0920076353112631, 0.05020416559151197], [0.31023207328102254, 0.38879793725251055], [-0.1734120332848449, 0.5604501979041817], [0.024153009204955445, 0.4584580246785649], [-0.04366573776662808, 0.20889790518827345], [-0.053963714239009475, -0.1253827550328051], [-0.4416705550581188, 0.286324829028525], [-0.33068590846923884, 0.1194764729808313], [0.438398474619479, -0.11945588988266026], [0.014526662212775099, -0.32001872315057023], [0.24799404906742706, -0.057702085664727676], [0.01200630471812758, -0.602962426843621], [0.2681757118045244, 0.13563138005944342]]",density,black,,,D004,visual,1,[],"['1', '2', '3', '4']",1,2023.2.3,harveyvisual,2.1,[],8,0.75,
0,pause,0.4,None,None,None,0,125,125,125,,,,,,,,,,,,,D004,visual,1,[],"['1', '2', '3', '4']",1,2023.2.3,harveyvisual,2.1,[],8,0.75,
20,dot,0.3,['dot'],['density'],black,0,126,126,126,,,46.50021505355835,46.213375091552734,46.5133581161499,dot,"[0.1, 0.08, 0.1, 0.06, 0.08, 0.1, 0.06, 0.1, 0.06, 0.06, 0.06, 0.1, 0.1, 0.06, 0.08, 0.1, 0.06, 0.1, 0.08, 0.06]","[[0.5293765161553966, 0.001772752775932307], [0.4875934801564302, 0.21354996443879687], [0.42962933583050156, -0.3107180977296116], [-0.29116915031604323, -0.14818992684611143], [-0.5389449787363156, -0.07457169538825092], [0.3401467596004021, 0.3930070507631247], [-0.3556974706373817, 0.33428960526384827], [0.23290081091404546, 0.11414367895105726], [-0.05894953167632133, -0.4246288263462945], [0.2014698550232319, -0.4369973101157133], [-0.13073099082254658, 0.33207744360470326], [-0.02718829421358837, -0.05027179722962216], [-0.28560493010109234, 0.12191833531302676], [0.2636460910513343, -0.15141934895128156], [0.05918514438318856, 0.34292897615136264], [-0.4863371481869112, -0.3402425755719802], [-0.26806515931614805, -0.41737278423831226], [-0.5657585684645544, 0.1542335426007955], [-0.014643599743001223, 0.5294009711166351], [0.1876637309354512, 0.5398205988403173]]",density,black,,,D004,visual,1,[],"['1', '2', '3', '4']",1,2023.2.3,harveyvisual,2.1,[],8,0.75,
0,pause,0.4,None,None,None,0,127,127,127,,,,,,,,,,,,,D004,visual,1,[],"['1', '2', '3', '4']",1,2023.2.3,harveyvisual,2.1,[],8,0.75,
20,dot,0.3,['dot'],['density'],black,0,128,128,128,,,47.200210094451904,46.91336798667908,47.213338136672974,dot,"[0.06, 0.06, 0.1, 0.08, 0.06, 0.1, 0.1, 0.06, 0.08, 0.1, 0.1, 0.1, 0.08, 0.08, 0.06, 0.08, 0.06, 0.1, 0.06, 0.08]","[[-0.5723051335240388, 0.18202150710181575], [0.194762911626019, -0.1210330318809934], [0.514246208087611, -0.07489086462496311], [0.3652710289764761, 0.1663431211025384], [-0.1357413318230538, 0.1128031535953451], [-0.22518612609487382, 0.36389219342059653], [0.20116620168652932, 0.3588762138948136], [0.2829129240261592, -0.39320325928463834], [-0.4753535071777991, -0.24338191634509], [-0.015147481583859257, 0.408706371276523], [-0.33863526586792325, 0.14795730932594608], [0.5657947353655822, 0.212454493054943], [-0.2344615938075576, -0.18960561348043975], [0.026065376580849287, -0.5490885817238463], [0.1560411548384424, 0.07359504673704687], [-0.22080715190099615, -0.4739843314266626], [0.04188754498039782, -0.337014908328342], [0.3447446269450344, 0.494476543559998], [-0.6008300376587333, -0.016816210604935454], [-0.016390824627395162, -0.1498327964840367]]",density,black,,,D004,visual,1,[],"['1', '2', '3', '4']",1,2023.2.3,harveyvisual,2.1,[],8,0.75,
0,pause,0.4,None,None,None,0,129,129,129,,,,,,,,,,,,,D004,visual,1,[],"['1', '2', '3', '4']",1,2023.2.3,harveyvisual,2.1,[],8,0.75,
20,dot,0.3,['dot'],['density'],black,0,130,130,130,,,47.90021204948425,47.61335015296936,47.913321018218994,dot,"[0.08, 0.1, 0.06, 0.1, 0.06, 0.1, 0.08, 0.08, 0.06, 0.06, 0.08, 0.06, 0.06, 0.06, 0.1, 0.06, 0.06, 0.08, 0.1, 0.08]","[[0.49233065649279706, 0.20483543787225938], [-0.33353423346482963, -0.3117181235117149], [-0.5327089528558244, -0.05211808664711773], [-0.028524002943253968, 0.25091528713469713], [0.34793363556637036, -0.08559691558380184], [0.46416252848283046, -0.3252558185058204], [0.10684823430867296, -0.4531653569295143], [-0.3137850117302927, 0.013811945259890268], [0.5653758348553058, 0.0031382884617335016], [-0.5658769271609931, 0.14880211540974506], [0.13593416262995883, 0.5064730391500485], [-0.037036538223490956, -0.32704270819471687], [-0.04218822296319735, -0.042441627561975115], [-0.2627117895138029, 0.41836339246516385], [0.17833443488436873, 0.12451823528313177], [0.32556788857348495, 0.44823160238310067], [0.30586351147813684, -0.5050449134140951], [-0.06239413716968578, -0.5957908696515437], [-0.4062211451068668, 0.2509083432460786], [0.2132801386173726, -0.284662908479622]]",density,black,,,D004,visual,1,[],"['1', '2', '3', '4']",1,2023.2.3,harveyvisual,2.1,[],8,0.75,
0,pause,0.4,None,None,None,0,131,131,131,,,,,,,,,,,,,D004,visual,1,[],"['1', '2', '3', '4']",1,2023.2.3,harveyvisual,2.1,[],8,0.75,
20,dot,0.3,['dot'],['density'],black,0,132,132,132,,,48.60021901130676,48.313324213027954,48.61330699920654,dot,"[0.1, 0.08, 0.06, 0.06, 0.06, 0.06, 0.06, 0.1, 0.08, 0.1, 0.1, 0.06, 0.08, 0.1, 0.1, 0.08, 0.1, 0.1, 0.08, 0.08]","[[0.42562456999778686, 0.2743956927874515], [0.09788506708756506, -0.14695062052670665], [0.10310831054010117, 0.40990372869455327], [-0.38201798287230404, 0.4388096916974866], [-0.18349610725899002, -0.45603042019106727], [-0.008089542226907498, -0.32980743819274977], [-0.451863407897437, 0.022296219678577367], [0.5099676780585128, -0.3009380950587251], [-0.02165844760380231, -0.5910018010179258], [-0.08515854181726978, 0.5344571402896139], [0.5901483125888577, 0.08188551180059578], [0.3270015209119601, -0.1398452952475176], [-0.1308040448729365, 0.2862889437933076], [0.18433957652902744, -0.4383026782826195], [-0.12354003535270663, -0.11219208614544063], [-0.23810740406378894, 0.0877969440892119], [-0.5548007532247557, -0.1904092049348311], [-0.5284264628819701, 0.2153783775393418], [-0.32146389205710285, -0.1626382197967482], [0.03440452972670571, 0.15950332001023204]]",density,black,,,D004,visual,1,[],"['1', '2', '3', '4']",1,2023.2.3,harveyvisual,2.1,[],8,0.75,
0,pause,0.4,None,None,None,0,133,133,133,,,,,,,,,,,,,D004,visual,1,[],"['1', '2', '3', '4']",1,2023.2.3,harveyvisual,2.1,[],8,0.75,
20,dot,0.3,['dot'],['density'],black,0,134,134,134,,,49.300225019454956,49.013303995132446,49.31329107284546,dot,"[0.08, 0.1, 0.1, 0.08, 0.1, 0.06, 0.1, 0.08, 0.08, 0.06, 0.1, 0.08, 0.1, 0.08, 0.08, 0.1, 0.08, 0.08, 0.06, 0.1]","[[-0.4879773146149199, -0.3569590320209964], [0.5533301936400837, -0.21843441070459435], [0.36897630638534307, 0.47798870126761106], [-0.56970870080068, 0.017128846112144797], [0.08238628126511782, -0.33064992865478404], [-0.3113300483625346, 0.2828941854422361], [0.2820797714099569, -0.38709452451445414], [0.06059484188043629, 0.05675216383009163], [-0.20421066590148723, -0.4082213870819195], [0.4377056434642915, 0.27158342509296995], [0.5502989120593335, -0.008872538424195164], [0.19201213345395707, 0.22803161065501965], [-0.3309903454825605, 0.05908462303026518], [-0.49638766451849187, 0.20655254939763562], [-0.31308668418621655, -0.2218648853746769], [-0.005905944877077518, 0.5007605171293887], [0.36497807214522093, 0.08555480112104774], [-0.0049670888772404, 0.2810657315352758], [0.029019916040297855, -0.13104604939427716], [0.2660233114369902, -0.15199028270934456]]",density,black,,,D004,visual,1,[],"['1', '2', '3', '4']",1,2023.2.3,harveyvisual,2.1,[],8,0.75,
0,pause,0.4,None,None,None,0,135,135,135,,,,,,,,,,,,,D004,visual,1,[],"['1', '2', '3', '4']",1,2023.2.3,harveyvisual,2.1,[],8,0.75,
20,dot,0.3,['dot'],['density'],black,0,136,136,136,,,50.00020503997803,49.71328616142273,50.01328802108765,dot,"[0.1, 0.08, 0.1, 0.1, 0.06, 0.1, 0.1, 0.1, 0.08, 0.1, 0.1, 0.06, 0.06, 0.1, 0.08, 0.06, 0.08, 0.1, 0.08, 0.06]","[[-0.09992598836398459, -0.23456757009496088], [-0.24017430057082634, -0.4185759507539427], [0.33719031018131296, 0.385893023570099], [0.11422115244364284, -0.016396299195117647], [0.08431993541920402, 0.5990064654580903], [-0.42595097304243434, -0.10699305239951423], [0.48722290437548843, -0.2272087107966919], [-0.36572190833436513, 0.2837553113062249], [0.06338551867462361, 0.19425317547883392], [0.20830751291501437, -0.47023752561144666], [-0.23900980016076162, 0.007786542780844563], [-0.15020442947862983, 0.17985945103541956], [-0.5758557739377179, 0.12438925045463756], [0.5620022834166113, 0.03332305004621347], [-0.09923976338098417, -0.5548714594742712], [0.27439142911529846, 0.18132826934819846], [-0.427913393333742, -0.38275780170986806], [0.1600752128908517, -0.28661892699772534], [0.08521863565182652, 0.3982610239163882], [-0.13889652232866717, 0.45166922319977854]]",density,black,,,D004,visual,1,[],"['1', '2', '3', '4']",1,2023.2.3,harveyvisual,2.1,[],8,0.75,
0,pause,0.4,None,None,None,0,137,137,137,,,,,,,,,,,,,D004,visual,1,[],"['1', '2', '3', '4']",1,2023.2.3,harveyvisual,2.1,[],8,0.75,
20,dot,0.3,['dot'],['density'],black,0,138,138,138,,,50.70021605491638,50.413269996643066,50.7132670879364,dot,"[0.06, 0.1, 0.08, 0.08, 0.1, 0.06, 0.06, 0.06, 0.1, 0.1, 0.06, 0.06, 0.1, 0.08, 0.06, 0.06, 0.06, 0.08, 0.1, 0.06]","[[-0.43956625895124657, 0.11402190146284191], [-0.0409994603553584, -0.28207922977897554], [0.1971812484635007, -0.36611177143438844], [0.5240158354533543, 0.2478775926253154], [-0.5967682698016527, -0.016408906660273365], [0.40871978549343735, -0.43419974355737], [-0.1055426667191724, -0.06280499766944281], [-0.0016488158680264542, 0.4996859239839021], [-0.28417280951057705, 0.3061759463907664], [-0.36983506446757647, -0.255266706006656], [-0.0825915294422751, -0.5405189661086552], [0.5946690865624845, -0.01557457702148704], [0.4159555491943242, -0.14667795584369986], [0.07516312827429783, 0.21418689093233478], [0.26558276994268604, 0.4414274960983262], [-0.24849248589938655, 0.5295075618520787], [0.12784975023585132, -0.03696978394493], [0.33624702714657895, 0.10549205597319844], [-0.28688127864164137, -0.5149742644535019], [0.12398205232908144, -0.5792263006904723]]",density,black,,,D004,visual,1,[],"['1', '2', '3', '4']",1,2023.2.3,harveyvisual,2.1,[],8,0.75,
0,pause,0.4,None,None,None,0,139,139,139,,,,,,,,,,,,,D004,visual,1,[],"['1', '2', '3', '4']",1,2023.2.3,harveyvisual,2.1,[],8,0.75,
20,dot,0.3,['dot'],['density'],black,0,140,140,140,,,51.40022611618042,51.11325120925903,51.41324305534363,dot,"[0.06, 0.1, 0.1, 0.06, 0.1, 0.1, 0.08, 0.06, 0.06, 0.1, 0.06, 0.08, 0.1, 0.1, 0.06, 0.1, 0.1, 0.06, 0.06, 0.08]","[[-0.42361258686361136, 0.052156930996710316], [0.46126467376022806, 0.3784646061271033], [-0.17818036333433063, -0.27404090546801124], [0.006958326714676111, -0.2020650388339496], [-0.5943243078487752, -0.09579449698497933], [-0.07125150348679687, 0.26633601413569385], [0.3633823207746212, 0.21450550083929892], [-0.3434882180098354, 0.45529694486355676], [0.26319837115620803, -0.3332106832128476], [0.5602198816223621, -0.024633810816327012], [0.1107480399185854, 0.471392377338439], [0.35031042649578514, -0.12046545602884012], [-0.4939186528106312, 0.3003371924858402], [0.5137028087961065, -0.2573416625165962], [-0.13765645753596423, 0.5159575523538623], [-0.06806065253940985, 0.050253471037223774], [0.1679166145426103, -0.011840340235075741], [-0.04900949922482445, -0.4747013663007672], [-0.37461663288339386, -0.21057821299088025], [0.15264891171451267, -0.5332869854281186]]",density,black,,,D004,visual,1,[],"['1', '2', '3', '4']",1,2023.2.3,harveyvisual,2.1,[],8,0.75,
0,pause,0.4,None,None,None,0,141,141,141,,,,,,,,,,,,,D004,visual,1,[],"['1', '2', '3', '4']",1,2023.2.3,harveyvisual,2.1,[],8,0.75,
20,dot,0.3,['dot'],['density'],white,0,142,142,142,,,52.1002140045166,51.81324219703674,52.11323404312134,dot,"[0.08, 0.1, 0.08, 0.08, 0.08, 0.06, 0.08, 0.08, 0.1, 0.08, 0.08, 0.08, 0.08, 0.06, 0.06, 0.1, 0.1, 0.08, 0.08, 0.06]","[[-0.5571524669505632, -0.1265442052727516], [0.13885349032934724, -0.22148256838273955], [0.35055970040515005, 0.36290797152216936], [-0.2346807736049661, 0.23727022179029378], [0.5238203381217189, 0.0809406598048738], [0.11629241230459697, -0.5649326302381802], [-0.19518624943458063, -0.34265514797489727], [0.504636516569532, -0.2897362826300014], [0.16164556727681945, 0.529387976225494], [-0.10505003229751009, -0.0323109411777972], [-0.14659374264573066, -0.5671370500322953], [-0.08716001121420558, 0.5964608184502309], [0.20827464167282317, 0.10052858808868492], [0.28452397570932275, -0.4376674649195888], [-0.3157925889794238, -0.022135670105164595], [-0.39821199076682134, -0.25165912969771154], [-0.053702304379765864, 0.3889543117324742], [0.36197978705379985, -0.14786398010914026], [-0.5180097948197557, 0.1968150957071811], [-0.024331472369363394, 0.15484452163782458]]",density,white,,,D004,visual,1,[],"['1', '2', '3', '4']",1,2023.2.3,harveyvisual,2.1,[],8,0.75,
0,pause,0.4,None,None,None,0,143,143,143,,,,,,,,,,,1,52.33416414260864,D004,visual,1,[],"['1', '2', '3', '4']",1,2023.2.3,harveyvisual,2.1,[],8,0.75,
20,dot,0.3,['dot'],['density'],black,0,144,144,144,,,52.800217151641846,52.5132269859314,52.81319713592529,dot,"[0.06, 0.06, 0.08, 0.08, 0.1, 0.08, 0.08, 0.06, 0.08, 0.08, 0.06, 0.08, 0.08, 0.1, 0.08, 0.1, 0.1, 0.08, 0.08, 0.1]","[[-0.4826093073322893, 0.059247951611289096], [-0.1068782213185564, -0.1660863907677248], [-0.23906959117421483, 0.08994390850294853], [0.23026352277509698, -0.11951058099013206], [0.08473777857873643, -0.2434840262815613], [0.21705773326154687, 0.35460271275592936], [-0.1743917280822052, 0.2941015160754882], [0.2963573275553175, -0.5119605572030428], [-0.4918814710734239, 0.30776980167741724], [-0.2860592839326968, 0.5326379364019584], [0.3252607698279397, 0.1437159699599122], [-0.3975850422838255, -0.24036147129496377], [0.4644863576575621, -0.38530711375272964], [0.46354196710220863, 0.012338196146182312], [0.002932645092946884, -0.4874708992201031], [-0.2346797357252361, -0.4487790374990574], [-0.060563090668006025, 0.4527034309324556], [0.5824602602440939, -0.14295757849091978], [0.007997871541345458, 0.20223003926841476], [0.3966048225769826, 0.423765351044125]]",density,black,,,D004,visual,1,[],"['1', '2', '3', '4']",1,2023.2.3,harveyvisual,2.1,[],8,0.75,
0,pause,0.4,None,None,None,0,145,145,145,,,,,,,,,,,,,D004,visual,1,[],"['1', '2', '3', '4']",1,2023.2.3,harveyvisual,2.1,[],8,0.75,
20,dot,0.3,['dot'],['density'],black,0,146,146,146,,,53.50020503997803,53.21319913864136,53.51319408416748,dot,"[0.06, 0.08, 0.06, 0.06, 0.1, 0.1, 0.1, 0.06, 0.06, 0.1, 0.06, 0.1, 0.06, 0.06, 0.08, 0.1, 0.1, 0.08, 0.06, 0.06]","[[-0.46257057742737456, 0.13866237711297902], [0.57806280405788, -0.014694058473166516], [0.07969522211282842, 0.3201417108645682], [0.3669438637588939, -0.0714296622779872], [0.20820557358408232, -0.46626307719583726], [-0.07079283719155682, 0.09652120001874298], [0.33004541091432094, 0.26163845053345636], [-0.41219970572732134, 0.358833384682137], [-0.5008067488638778, -0.2320249247035629], [-0.35016076608747804, -0.45954165310945105], [-0.12763920693087394, -0.35087182186501553], [-0.604884164121447, -0.007317879991305672], [0.5238963278438006, 0.19248331006526598], [-0.24012293360925202, -0.11396760514017207], [-0.11271307125018615, 0.5780477114619293], [-0.17279607674852593, 0.27955302484430133], [0.18008538422311204, -0.23363659838480572], [0.27140040743460414, 0.49653127760050597], [0.13691948991999192, 0.06299505204555234], [-0.048639123741439305, -0.5913030061976206]]",density,black,,,D004,visual,1,[],"['1', '2', '3', '4']",1,2023.2.3,harveyvisual,2.1,[],8,0.75,
0,pause,0.4,None,None,None,0,147,147,147,,,,,,,,,,,,,D004,visual,1,[],"['1', '2', '3', '4']",1,2023.2.3,harveyvisual,2.1,[],8,0.75,
20,dot,0.3,['dot'],['density'],white,0,148,148,148,,,54.200201988220215,53.913172006607056,54.213152170181274,dot,"[0.1, 0.1, 0.08, 0.1, 0.1, 0.08, 0.1, 0.1, 0.08, 0.1, 0.08, 0.06, 0.1, 0.08, 0.06, 0.08, 0.08, 0.08, 0.08, 0.08]","[[-0.17681227604063687, 0.3959675359267576], [-0.44663924452311093, 0.30404634307581074], [0.0811726152127289, 0.3265892167395379], [-0.030382048750702495, 0.08917713702102226], [0.40076636439907076, 0.09735358129986843], [-0.5548259712183445, 0.10326968383485996], [0.256315471921543, 0.5222802935330346], [0.5476137177304689, -0.09211679285133606], [-0.3380710358497913, -0.3435002585717642], [-0.02882393753190482, -0.3782547629451569], [-0.3436354133501092, -0.06128567646796673], [0.463512789364238, -0.3133137215223877], [0.16547399438791688, -0.01755399676856184], [0.25359785430566684, -0.22412782578839585], [0.4160928552072839, 0.4072914799924054], [0.01748035155535288, 0.5337270094098491], [-0.5280052298251484, -0.12406989920343442], [-0.14446359326419905, -0.2213320599389923], [0.22571828392593873, -0.43151349701806974], [-0.22415202000846723, 0.17494734568284898]]",density,white,,,D004,visual,1,[],"['1', '2', '3', '4']",1,2023.2.3,harveyvisual,2.1,[],8,0.75,
0,pause,0.4,None,None,None,0,149,149,149,,,,,,,,,,,1,54.35840201377869,D004,visual,1,[],"['1', '2', '3', '4']",1,2023.2.3,harveyvisual,2.1,[],8,0.75,
20,dot,0.3,['dot'],['density'],black,0,150,150,150,,,54.900209188461304,54.613150119781494,54.913127183914185,dot,"[0.1, 0.08, 0.08, 0.08, 0.08, 0.1, 0.1, 0.1, 0.08, 0.1, 0.1, 0.08, 0.1, 0.08, 0.06, 0.06, 0.08, 0.06, 0.08, 0.1]","[[0.1035347151062197, 0.2615760815388668], [-0.19501379581026806, -0.3956599022228583], [-0.20334698624248626, -0.19147406528061994], [0.5532768942664764, -0.051915590808493145], [0.38577693149165815, -0.4230854911363773], [-0.2344202485990693, 0.11884212499848845], [-0.48683430057791516, 0.32240326582661283], [-0.42288049595145666, -0.1047525916046923], [0.3908188788540051, -0.16237534085958932], [0.09350458926585903, 0.5608867446357069], [0.3268019741637229, 0.2254962414997813], [-0.46908697583408915, 0.11264561309518634], [-0.1935555445234034, 0.43316064618797423], [0.257620875544486, 0.04404265804921348], [0.10442818199292647, -0.10165333721117403], [0.08809884013572244, -0.5864642164630903], [0.17888983975374062, -0.3508997042892794], [-0.11390338721799581, -0.5828651912810856], [-0.43395457857698183, -0.4096651641859926], [0.5565269879013958, 0.1958772760463389]]",density,black,,,D004,visual,1,[],"['1', '2', '3', '4']",1,2023.2.3,harveyvisual,2.1,[],8,0.75,
0,pause,0.4,None,None,None,0,151,151,151,,,,,,,,,,,,,D004,visual,1,[],"['1', '2', '3', '4']",1,2023.2.3,harveyvisual,2.1,[],8,0.75,
20,dot,0.3,['dot'],['density'],black,0,152,152,152,,,55.60021901130676,55.31313109397888,55.61312913894653,dot,"[0.06, 0.08, 0.06, 0.08, 0.08, 0.06, 0.1, 0.06, 0.06, 0.1, 0.1, 0.1, 0.08, 0.08, 0.1, 0.1, 0.06, 0.08, 0.08, 0.1]","[[0.15259529071644362, -0.508095121195871], [0.5636768475261552, -0.045055700307969515], [0.005326168764374195, 0.5176744914979556], [-0.4433838150628493, 0.2928264626504019], [0.5049896381768294, 0.31503606332827233], [-0.6038568108539054, -0.018772802738275546], [-0.05271108387973544, -0.27028554316862924], [-0.2732076508289975, -0.4134633381932642], [0.27718502684093105, 0.24764052620480814], [0.003332038474156751, 0.292456714806552], [-0.21599197386070645, 0.37410725467976924], [0.3127375763064947, -0.3893260157674962], [-0.2289289973690532, 0.048295188639221553], [-0.40273425464490353, -0.10674876905240249], [-0.20268422580521028, -0.1434816573588874], [0.21207139702729583, 0.5425462272656215], [0.4748591549668614, 0.12616099208840215], [0.3962137364528934, -0.201910424496615], [-0.4771068032251697, -0.32791852261600346], [0.03507638236328192, -0.052174284506990465]]",density,black,,,D004,visual,1,[],"['1', '2', '3', '4']",1,2023.2.3,harveyvisual,2.1,[],8,0.75,
0,pause,0.4,None,None,None,0,153,153,153,,,,,,,,,,,,,D004,visual,1,[],"['1', '2', '3', '4']",1,2023.2.3,harveyvisual,2.1,[],8,0.75,
20,dot,0.3,['dot'],['density'],black,0,154,154,154,,,56.300212144851685,56.0131151676178,56.31309914588928,dot,"[0.06, 0.06, 0.08, 0.1, 0.1, 0.1, 0.06, 0.06, 0.08, 0.08, 0.06, 0.06, 0.06, 0.06, 0.06, 0.08, 0.08, 0.1, 0.06, 0.06]","[[0.10550187873919337, -0.5344868030680165], [0.5062369993363741, 0.2223975678759622], [-0.06721482138704993, -0.02894306850863093], [0.4447359132457446, -0.07445572227940384], [0.11698974644388715, -0.19208380006743692], [-0.13433211396850392, 0.5244419766667384], [-0.3882056961770443, -0.013790343097184798], [0.5156146309504815, -0.28435513607613694], [-0.5614024920209015, 0.17305066721773382], [-0.4431937550795863, -0.2646686731823463], [-0.2385578090646363, 0.22311143151978674], [-0.10010575348520867, -0.4582030755959773], [0.10967812423236656, 0.23987188058838915], [-0.24761004461324126, -0.30981970641403556], [0.3603837267067538, -0.44794889256275566], [0.2775356039401009, 0.45916548651514644], [-0.07568573599684247, -0.22395087207120423], [0.07365890828174348, 0.553487977236271], [-0.4742810077606365, 0.36264092050345176], [-0.5989437133110326, -0.08437570247491144]]",density,black,,,D004,visual,1,[],"['1', '2', '3', '4']",1,2023.2.3,harveyvisual,2.1,[],8,0.75,
0,pause,0.4,None,None,None,0,155,155,155,,,,,,,,,,,,,D004,visual,1,[],"['1', '2', '3', '4']",1,2023.2.3,harveyvisual,2.1,[],8,0.75,
9,dot,0.3,['dot'],['density'],black,0,156,156,156,,,57.00021505355835,56.71308898925781,57.01307916641235,dot,"[0.1, 0.1, 0.08, 0.08, 0.06, 0.1, 0.06, 0.1, 0.08]","[[0.11766436913102363, -0.04327704920019282], [0.17973489876850246, -0.2957558932143311], [0.4322853556796634, 0.1292829237047714], [-0.0348924626991882, -0.2091692004054023], [0.511593351462966, -0.2715393032181878], [0.39631341359825684, -0.10388811790353111], [0.1759041025424718, 0.35783279634564974], [-0.11077337801993212, 0.08002505665429639], [0.1915495233696259, 0.15329463501335125]]",density,black,,,D004,visual,1,[],"['1', '2', '3', '4']",1,2023.2.3,harveyvisual,2.1,[],8,0.75,
0,pause,0.4,None,None,None,0,157,157,157,,,,,,,,,,,,,D004,visual,1,[],"['1', '2', '3', '4']",1,2023.2.3,harveyvisual,2.1,[],8,0.75,
9,dot,0.3,['dot'],['density'],black,0,158,158,158,,,57.70021414756775,57.41307806968689,57.713075160980225,dot,"[0.1, 0.08, 0.08, 0.06, 0.1, 0.08, 0.1, 0.1, 0.06]","[[0.26246064217380705, -0.20881461689055444], [-0.05738061480455322, -0.2104867327221427], [-0.15279665209492657, -0.4570696492981838], [-0.25848085101471047, 0.03539482855188907], [0.05438928923437074, -0.041842351158073866], [-0.266438460152573, -0.22510974363943476], [-0.08630847597628627, 0.16925380219028288], [0.1378984379274782, 0.16880467564350782], [0.14927440204233722, -0.41110624343475755]]",density,black,,,D004,visual,1,[],"['1', '2', '3', '4']",1,2023.2.3,harveyvisual,2.1,[],8,0.75,
0,pause,0.4,None,None,None,0,159,159,159,,,,,,,,,,,,,D004,visual,1,[],"['1', '2', '3', '4']",1,2023.2.3,harveyvisual,2.1,[],8,0.75,
9,dot,0.3,['dot'],['density'],black,0,160,160,160,,,58.400214195251465,58.11305809020996,58.4130380153656,dot,"[0.06, 0.08, 0.08, 0.1, 0.06, 0.1, 0.1, 0.06, 0.1]","[[-0.03413633707233166, 0.539775862693792], [0.03045342777742709, 0.14881397110038386], [0.3968101769942594, 0.3516381959676015], [-0.12464897846505978, 0.27513009849494485], [0.24828272947848068, 0.13372878599656182], [0.1825630446668698, 0.5466865974155928], [-0.40057775338259505, 0.3148646888607764], [0.06988801613907401, -0.06658504348068199], [0.07277149512897427, 0.3699912437376705]]",density,black,,,D004,visual,1,[],"['1', '2', '3', '4']",1,2023.2.3,harveyvisual,2.1,[],8,0.75,
0,pause,0.4,None,None,None,0,161,161,161,,,,,,,,,,,,,D004,visual,1,[],"['1', '2', '3', '4']",1,2023.2.3,harveyvisual,2.1,[],8,0.75,
9,dot,0.3,['dot'],['density'],black,0,162,162,162,,,59.10021209716797,58.81303405761719,59.11303114891052,dot,"[0.1, 0.1, 0.06, 0.06, 0.08, 0.06, 0.1, 0.1, 0.1]","[[0.31750259908069645, 0.09103062301409195], [-0.10814993995151222, -0.14883262012051235], [0.2615101699546999, -0.13245952524223892], [0.014531427323725789, 0.3887544696515085], [-0.1117096847062306, 0.09593752649312724], [0.07810272484559946, -0.019955638642360052], [-0.26173373106631487, 0.2840804484106463], [0.4370020372247476, 0.2669512546191977], [0.11115841416421544, 0.18722161068425575]]",density,black,,,D004,visual,1,[],"['1', '2', '3', '4']",1,2023.2.3,harveyvisual,2.1,[],8,0.75,
0,pause,0.4,None,None,None,0,163,163,163,,,,,,,,,,,,,D004,visual,1,[],"['1', '2', '3', '4']",1,2023.2.3,harveyvisual,2.1,[],8,0.75,
9,dot,0.3,['dot'],['density'],black,0,164,164,164,,,59.800217151641846,59.51302409172058,59.81300711631775,dot,"[0.08, 0.08, 0.06, 0.1, 0.06, 0.06, 0.08, 0.06, 0.1]","[[-0.15654783233563613, 0.5456880468186037], [-0.24757731968740795, 0.34117179271889175], [0.237608115185398, 0.5379153628426676], [0.0469559873873498, 0.0609843963705915], [0.17872629641391088, 0.30721368784738284], [-0.014663874177430473, 0.385293302856951], [-0.1034840675008618, 0.1993866575147459], [0.37552485507684036, 0.26074226948317425], [-0.1631567374159006, -0.0021534685146951615]]",density,black,,,D004,visual,1,[],"['1', '2', '3', '4']",1,2023.2.3,harveyvisual,2.1,[],8,0.75,
0,pause,0.4,None,None,None,0,165,165,165,,,,,,,,,,,,,D004,visual,1,[],"['1', '2', '3', '4']",1,2023.2.3,harveyvisual,2.1,[],8,0.75,
9,dot,0.3,['dot'],['density'],black,0,166,166,166,,,60.500200033187866,60.21301198005676,60.51299810409546,dot,"[0.06, 0.06, 0.06, 0.06, 0.08, 0.08, 0.08, 0.06, 0.06]","[[0.08305850914464513, -0.5442468290176591], [0.035628337695759515, -0.10623885656661826], [-0.40455734034313895, -0.4103448572564978], [-0.27695520492017833, -0.22921059622728732], [-0.0679181879583315, -0.31282249044743377], [0.15394835823740735, -0.27999833282003045], [0.36545074601266236, -0.2024769979494575], [-0.18616414474285772, -0.004612976462616847], [-0.15152437179077458, -0.5570863580044498]]",density,black,,,D004,visual,1,[],"['1', '2', '3', '4']",1,2023.2.3,harveyvisual,2.1,[],8,0.75,
0,pause,0.4,None,None,None,0,167,167,167,,,,,,,,,,,,,D004,visual,1,[],"['1', '2', '3', '4']",1,2023.2.3,harveyvisual,2.1,[],8,0.75,
8,dot,0.3,['dot'],['density'],black,0,168,168,168,,,61.20022702217102,60.912994146347046,61.21297597885132,dot,"[0.06, 0.08, 0.08, 0.1, 0.08, 0.08, 0.06, 0.08]","[[-0.4462313073918426, 0.10595449025715867], [0.022923871415176152, 0.06290918987699953], [-0.12461589820496316, 0.4830175517012745], [-0.29730306390741434, 0.2752084497958106], [-0.2195410516364439, 0.056871795648565045], [0.008916049516666445, 0.2907399105306955], [-0.08256048209355603, -0.11638226771844133], [-0.4106304257826301, -0.09222594144079917]]",density,black,,,D004,visual,1,[],"['1', '2', '3', '4']",1,2023.2.3,harveyvisual,2.1,[],8,0.75,
0,pause,0.4,None,None,None,0,169,169,169,,,,,,,,,,,,,D004,visual,1,[],"['1', '2', '3', '4']",1,2023.2.3,harveyvisual,2.1,[],8,0.75,
8,dot,0.3,['dot'],['density'],black,0,170,170,170,,,61.90021109580994,61.61296820640564,61.912957191467285,dot,"[0.08, 0.1, 0.08, 0.06, 0.08, 0.08, 0.08, 0.08]","[[-0.13470540342303577, 0.06408260861786476], [-0.32633744656496655, 0.15045505181492372], [-0.2908673593763413, -0.0762007135190446], [-0.5368971138264618, 0.18470905249118252], [0.055331558945424124, 0.1732254888039505], [-0.30909967543404826, 0.3845911877556102], [-0.0777863596696305, 0.41921053595603236], [0.03181857584637903, -0.08967320215721851]]",density,black,,,D004,visual,1,[],"['1', '2', '3', '4']",1,2023.2.3,harveyvisual,2.1,[],8,0.75,
0,pause,0.4,None,None,None,0,171,171,171,,,,,,,,,,,,,D004,visual,1,[],"['1', '2', '3', '4']",1,2023.2.3,harveyvisual,2.1,[],8,0.75,
8,dot,0.3,['dot'],['density'],black,0,172,172,172,,,62.60022711753845,62.31295204162598,62.61293911933899,dot,"[0.08, 0.08, 0.08, 0.08, 0.1, 0.1, 0.08, 0.08]","[[-0.08486713456805763, -0.4233549652310786], [-0.34121661687321897, 0.009931669871959016], [0.06179899905610707, -0.01287726204627424], [-0.01080387642187049, -0.20774715314808884], [-0.2259787915635077, -0.2257096572683263], [-0.31087639520469923, -0.4457762681120083], [-0.07938707884489006, 0.17996906985975966], [-0.13919465900414296, -0.03133413505419433]]",density,black,,,D004,visual,1,[],"['1', '2', '3', '4']",1,2023.2.3,harveyvisual,2.1,[],8,0.75,
0,pause,0.4,None,None,None,0,173,173,173,,,,,,,,,,,,,D004,visual,1,[],"['1', '2', '3', '4']",1,2023.2.3,harveyvisual,2.1,[],8,0.75,
8,dot,0.3,['dot'],['density'],black,0,174,174,174,,,63.300215005874634,63.012930154800415,63.31293201446533,dot,"[0.1, 0.08, 0.06, 0.06, 0.08, 0.08, 0.06, 0.08]","[[0.34834348934164344, -0.28812382596974456], [-0.10329597477015798, -0.5243874580500916], [0.11080732975293575, -0.39067626210733153], [-0.006800183936578442, -0.10390350920236302], [0.17453264242573352, -0.004648084789036161], [-0.11839138898177409, -0.2765800857961495], [-0.2122949223397977, -0.08354151726817095], [0.0010823045536620208, 0.09995244087301837]]",density,black,,,D004,visual,1,[],"['1', '2', '3', '4']",1,2023.2.3,harveyvisual,2.1,[],8,0.75,
0,pause,0.4,None,None,None,0,175,175,175,,,,,,,,,,,,,D004,visual,1,[],"['1', '2', '3', '4']",1,2023.2.3,harveyvisual,2.1,[],8,0.75,
8,dot,0.3,['dot'],['density'],black,0,176,176,176,,,64.00020718574524,63.71291399002075,64.01290106773376,dot,"[0.06, 0.1, 0.1, 0.1, 0.06, 0.06, 0.1, 0.06]","[[-0.3869743371455666, 0.15388434217336297], [0.11424038932868294, 0.18734519769139274], [-0.06602262913525138, -0.20199883598953133], [-0.13221522482970946, 0.16661696891490863], [-0.2408224703751142, -0.03724946932993881], [-0.01219752370661542, -0.004327099574405561], [-0.20345141844285677, 0.44978546357431476], [0.2450906497331586, -0.012808503174003826]]",density,black,,,D004,visual,1,[],"['1', '2', '3', '4']",1,2023.2.3,harveyvisual,2.1,[],8,0.75,
0,pause,0.4,None,None,None,0,177,177,177,,,,,,,,,,,,,D004,visual,1,[],"['1', '2', '3', '4']",1,2023.2.3,harveyvisual,2.1,[],8,0.75,
8,dot,0.3,['dot'],['density'],white,0,178,178,178,,,64.70020699501038,64.41289710998535,64.7128791809082,dot,"[0.06, 0.08, 0.08, 0.06, 0.08, 0.1, 0.08, 0.08]","[[-0.2395708272612018, -0.3613018167456044], [-0.39529086986423073, -0.13116056396528103], [0.016143118738118, -0.3000453801144436], [-0.10247857353615338, 0.12176090555598315], [0.11784264820349834, -0.12422453235794288], [-0.1468533202112338, -0.18280007972172757], [-0.31504288856899026, 0.06147683711297207], [0.2614313121475242, -0.33215718180641224]]",density,white,,,D004,visual,1,[],"['1', '2', '3', '4']",1,2023.2.3,harveyvisual,2.1,[],8,0.75,
0,pause,0.4,None,None,None,0,179,179,179,,,,,,,,,,,1,64.88054513931274,D004,visual,1,[],"['1', '2', '3', '4']",1,2023.2.3,harveyvisual,2.1,[],8,0.75,
7,dot,0.3,['dot'],['density'],black,0,180,180,180,,,65.40022110939026,65.11290216445923,65.41287612915039,dot,"[0.08, 0.1, 0.1, 0.08, 0.1, 0.08, 0.08]","[[-0.3423230189937584, -0.41219609722212536], [-0.1182323968952694, -0.35552357509158045], [-0.4111032443031386, -0.006313161275750597], [-0.5095560862941229, -0.2529410328503813], [-0.2588176969072235, -0.18091026219072012], [-0.0026253510642934245, -0.12197054074907589], [-0.16586784627322051, 0.0941069694468023]]",density,black,,,D004,visual,1,[],"['1', '2', '3', '4']",1,2023.2.3,harveyvisual,2.1,[],8,0.75,
0,pause,0.4,None,None,None,0,181,181,181,,,,,,,,,,,,,D004,visual,1,[],"['1', '2', '3', '4']",1,2023.2.3,harveyvisual,2.1,[],8,0.75,
7,dot,0.3,['dot'],['density'],black,0,182,182,182,,,66.10020518302917,65.81285619735718,66.11285209655762,dot,"[0.1, 0.08, 0.08, 0.06, 0.08, 0.1, 0.06]","[[-0.23675386446936744, -0.019099737415117023], [-0.3793299299598963, 0.3840296974489508], [0.16444052853698826, 0.25964081185693966], [-0.17441972694422359, 0.2376971805458075], [0.025313303261310992, 0.0859287266400301], [-0.3760941870171968, 0.1722047307528389], [-0.012854506600276856, 0.3778399739802858]]",density,black,,,D004,visual,1,[],"['1', '2', '3', '4']",1,2023.2.3,harveyvisual,2.1,[],8,0.75,
0,pause,0.4,None,None,None,0,183,183,183,,,,,,,,,,,,,D004,visual,1,[],"['1', '2', '3', '4']",1,2023.2.3,harveyvisual,2.1,[],8,0.75,
7,dot,0.3,['dot'],['density'],black,0,184,184,184,,,66.80021810531616,66.51286911964417,66.81283020973206,dot,"[0.1, 0.06, 0.1, 0.08, 0.06, 0.1, 0.06]","[[0.3350011905151264, 0.09255159473130091], [-0.07424962927914175, -0.2643067362759337], [-0.0068732696698998825, 0.04948606721470151], [0.12855319879406235, -0.3381192636220083], [0.11551090787938859, 0.24000211478775196], [0.3415900712266813, -0.1269386107563701], [0.14228147320501944, -0.08533637750285226]]",density,black,,,D004,visual,1,[],"['1', '2', '3', '4']",1,2023.2.3,harveyvisual,2.1,[],8,0.75,
0,pause,0.4,None,None,None,0,185,185,185,,,,,,,,,,,,,D004,visual,1,[],"['1', '2', '3', '4']",1,2023.2.3,harveyvisual,2.1,[],8,0.75,
7,dot,0.3,['dot'],['density'],black,0,186,186,186,,,67.50020599365234,67.21282005310059,67.51280808448792,dot,"[0.08, 0.1, 0.08, 0.06, 0.06, 0.06, 0.1]","[[-0.3025445156539714, -0.42280529123536587], [0.12162933753582021, -0.2851722644810181], [-0.2753205641105948, -0.038672864930592576], [-0.4202189534315163, -0.18742991959605093], [-0.15636117447925973, -0.27217203193286355], [-0.09967880665522989, -0.47242523529006747], [-0.06261398545311019, -0.08879309989794046]]",density,black,,,D004,visual,1,[],"['1', '2', '3', '4']",1,2023.2.3,harveyvisual,2.1,[],8,0.75,
0,pause,0.4,None,None,None,0,187,187,187,,,,,,,,,,,,,D004,visual,1,[],"['1', '2', '3', '4']",1,2023.2.3,harveyvisual,2.1,[],8,0.75,
7,dot,0.3,['dot'],['density'],black,0,188,188,188,,,68.20020318031311,67.91281199455261,68.2127890586853,dot,"[0.08, 0.08, 0.1, 0.08, 0.06, 0.08, 0.08]","[[0.3302081014073935, 0.19448071361351732], [-0.22286629369238187, 0.3450023392305547], [-0.11533339293480348, 0.13926201039730488], [0.12023407780451623, 0.21240672508650668], [0.2659789407074307, 0.3894086603790018], [0.026604934602130894, 0.39133200849180605], [0.212400253920387, 0.027377351413115796]]",density,black,,,D004,visual,1,[],"['1', '2', '3', '4']",1,2023.2.3,harveyvisual,2.1,[],8,0.75,
0,pause,0.4,None,None,None,0,189,189,189,,,,,,,,,,,,,D004,visual,1,[],"['1', '2', '3', '4']",1,2023.2.3,harveyvisual,2.1,[],8,0.75,
7,dot,0.3,['dot'],['density'],black,0,190,190,190,,,68.90022301673889,68.61278820037842,68.91278409957886,dot,"[0.06, 0.08, 0.08, 0.08, 0.08, 0.1, 0.08]","[[-0.1635229753841098, 0.12186382262109141], [0.03437657187081179, 0.5178389267683822], [0.324184412335695, 0.17931743601205324], [0.08929018524031027, 0.11005745596178185], [-0.1318259817332877, 0.4026967659136047], [-0.053046683696667, -0.06058584598870606], [0.042745683665752716, 0.304616966822181]]",density,black,,,D004,visual,1,[],"['1', '2', '3', '4']",1,2023.2.3,harveyvisual,2.1,[],8,0.75,
0,pause,0.4,None,None,None,0,191,191,191,,,,,,,,,,,,,D004,visual,1,[],"['1', '2', '3', '4']",1,2023.2.3,harveyvisual,2.1,[],8,0.75,
6,dot,0.3,['dot'],['density'],black,0,192,192,192,,,69.60022020339966,69.31278014183044,69.61277103424072,dot,"[0.06, 0.08, 0.06, 0.06, 0.1, 0.06]","[[0.26568550625605564, -0.48823100126060537], [0.030589778490880962, -0.34307155488476027], [0.2920158589989485, -0.005481777194348812], [0.4969139129819881, -0.3034402107212153], [0.2924968692334099, -0.2393606426967254], [0.09404279540557291, -0.1505005030192783]]",density,black,,,D004,visual,1,[],"['1', '2', '3', '4']",1,2023.2.3,harveyvisual,2.1,[],8,0.75,
0,pause,0.4,None,None,None,0,193,193,193,,,,,,,,,,,,,D004,visual,1,[],"['1', '2', '3', '4']",1,2023.2.3,harveyvisual,2.1,[],8,0.75,
6,dot,0.3,['dot'],['density'],black,0,194,194,194,,,70.30021905899048,70.012766122818,70.31274509429932,dot,"[0.08, 0.1, 0.06, 0.08, 0.06, 0.06]","[[0.285926512064941, -0.24481785515673876], [0.418595730147314, -0.41068201076939437], [0.08023911914447063, -0.2907744195836184], [0.5255309086764915, -0.21900298349449057], [0.21619509519697316, -0.004828458463526469], [0.21043770887025895, -0.4594541383061854]]",density,black,,,D004,visual,1,[],"['1', '2', '3', '4']",1,2023.2.3,harveyvisual,2.1,[],8,0.75,
0,pause,0.4,None,None,None,0,195,195,195,,,,,,,,,,,,,D004,visual,1,[],"['1', '2', '3', '4']",1,2023.2.3,harveyvisual,2.1,[],8,0.75,
6,dot,0.3,['dot'],['density'],black,0,196,196,196,,,71.00022721290588,70.71274614334106,71.01272916793823,dot,"[0.1, 0.06, 0.06, 0.1, 0.08, 0.08]","[[0.3299424372810393, 0.4114780133894161], [0.051944887288218326, -0.03233758374135307], [0.4337222981537534, -0.07578498258626121], [0.10477943773033714, 0.1703675017914044], [0.3400878522727408, 0.20016066552806494], [0.2510029109880425, 0.01747244452819591]]",density,black,,,D004,visual,1,[],"['1', '2', '3', '4']",1,2023.2.3,harveyvisual,2.1,[],8,0.75,
0,pause,0.4,None,None,None,0,197,197,197,,,,,,,,,,,,,D004,visual,1,[],"['1', '2', '3', '4']",1,2023.2.3,harveyvisual,2.1,[],8,0.75,
6,dot,0.3,['dot'],['density'],black,0,198,198,198,,,71.7002182006836,71.41272020339966,71.7127091884613,dot,"[0.06, 0.1, 0.1, 0.1, 0.1, 0.06]","[[-0.3622751979984162, 0.41275935807220604], [-0.5464806003183257, 0.06358334875023645], [-0.15518785678585886, 0.34969079698534317], [-0.3231370338359737, -0.02193421190541931], [-0.3473470749510941, 0.19885557425221048], [-0.12382976466594668, 0.04156566071734393]]",density,black,,,D004,visual,1,[],"['1', '2', '3', '4']",1,2023.2.3,harveyvisual,2.1,[],8,0.75,
0,pause,0.4,None,None,None,0,199,199,199,,,,,,,,,,,,,D004,visual,1,[],"['1', '2', '3', '4']",1,2023.2.3,harveyvisual,2.1,[],8,0.75,
6,dot,0.3,['dot'],['density'],black,0,200,200,200,,,72.40022206306458,72.11270904541016,72.41268301010132,dot,"[0.1, 0.08, 0.1, 0.06, 0.08, 0.1]","[[0.285926512064941, -0.24481785515673876], [0.418595730147314, -0.41068201076939437], [0.08023911914447063, -0.2907744195836184], [0.5255309086764915, -0.21900298349449057], [0.21619509519697316, -0.004828458463526469], [0.21043770887025895, -0.4594541383061854]]",density,black,,,D004,visual,1,[],"['1', '2', '3', '4']",1,2023.2.3,harveyvisual,2.1,[],8,0.75,
0,pause,0.4,None,None,None,0,201,201,201,,,,,,,,,,,,,D004,visual,1,[],"['1', '2', '3', '4']",1,2023.2.3,harveyvisual,2.1,[],8,0.75,
6,dot,0.3,['dot'],['density'],black,0,202,202,202,,,73.10021615028381,72.81267714500427,73.11265707015991,dot,"[0.1, 0.06, 0.08, 0.06, 0.06, 0.06]","[[-0.25052904509636076, -0.46440103658729176], [-0.12772535636451293, 0.010821502090106766], [-0.031043743050516784, -0.3649555915866845], [-0.3754529733759062, -0.18839395716731677], [0.07378414788444272, -0.15062955699655364], [-0.17220243018048728, -0.20498996683935267]]",density,black,,,D004,visual,1,[],"['1', '2', '3', '4']",1,2023.2.3,harveyvisual,2.1,[],8,0.75,
0,pause,0.4,None,None,None,0,203,203,203,,,,,,,,,,,,,D004,visual,1,[],"['1', '2', '3', '4']",1,2023.2.3,harveyvisual,2.1,[],8,0.75,
5,dot,0.3,['dot'],['density'],white,0,204,204,204,,,73.80022501945496,73.51267313957214,73.81267619132996,dot,"[0.08, 0.06, 0.06, 0.08, 0.08]","[[0.11182935554897071, 0.3084500478813638], [0.20284409002608467, 0.5199666233992849], [0.31882748915707354, 0.1252782162051447], [0.39083404861423326, 0.3494221689807338], [0.1196046891632849, 0.10173499350566408]]",density,white,,,D004,visual,1,[],"['1', '2', '3', '4']",1,2023.2.3,harveyvisual,2.1,[],8,0.75,
0,pause,0.4,None,None,None,0,205,205,205,,,,,,,,,,,1,74.01581811904907,D004,visual,1,[],"['1', '2', '3', '4']",1,2023.2.3,harveyvisual,2.1,[],8,0.75,
5,dot,0.3,['dot'],['density'],white,0,206,206,206,,,74.50023007392883,74.21266198158264,74.51263809204102,dot,"[0.1, 0.06, 0.08, 0.08, 0.08]","[[-0.26965218803342234, -0.06061691990321757], [-0.44412238708790114, -0.1605793459593267], [-0.2738608688716076, -0.33598391440877745], [-0.06160694910013377, -0.19463283807086704], [-0.16469008497891707, 0.13324638745272324]]",density,white,,,D004,visual,1,[],"['1', '2', '3', '4']",1,2023.2.3,harveyvisual,2.1,[],8,0.75,
0,pause,0.4,None,None,None,0,207,207,207,,,,,,,,,,,1,74.61591815948486,D004,visual,1,[],"['1', '2', '3', '4']",1,2023.2.3,harveyvisual,2.1,[],8,0.75,
5,dot,0.3,['dot'],['density'],black,0,208,208,208,,,75.20021104812622,74.91264200210571,75.21262502670288,dot,"[0.08, 0.1, 0.08, 0.1, 0.1]","[[0.11182935554897071, 0.3084500478813638], [0.20284409002608467, 0.5199666233992849], [0.31882748915707354, 0.1252782162051447], [0.39083404861423326, 0.3494221689807338], [0.1196046891632849, 0.10173499350566408]]",density,black,,,D004,visual,1,[],"['1', '2', '3', '4']",1,2023.2.3,harveyvisual,2.1,[],8,0.75,
0,pause,0.4,None,None,None,0,209,209,209,,,,,,,,,,,,,D004,visual,1,[],"['1', '2', '3', '4']",1,2023.2.3,harveyvisual,2.1,[],8,0.75,
5,dot,0.3,['dot'],['density'],black,0,210,210,210,,,75.90021705627441,75.612624168396,75.9126091003418,dot,"[0.06, 0.06, 0.1, 0.08, 0.1]","[[-0.2338402938730933, 0.15846616122991625], [-0.3229678957369872, -0.0901175890533356], [-0.5034912146055804, 0.021834460539281654], [-0.23914892391179104, -0.28496604153387733], [-0.10132718886958789, -0.1172648190903725]]",density,black,,,D004,visual,1,[],"['1', '2', '3', '4']",1,2023.2.3,harveyvisual,2.1,[],8,0.75,
0,pause,0.4,None,None,None,0,211,211,211,,,,,,,,,,,,,D004,visual,1,[],"['1', '2', '3', '4']",1,2023.2.3,harveyvisual,2.1,[],8,0.75,
5,dot,0.3,['dot'],['density'],black,0,212,212,212,,,76.60022521018982,76.31259298324585,76.61258721351624,dot,"[0.1, 0.06, 0.1, 0.08, 0.1]","[[0.2075830250205083, 0.5448960418430373], [0.010600229768786232, 0.45420498888786176], [-0.10187712889758427, 0.28364076042242115], [0.1691377395635631, 0.293820614486451], [-0.2596336492265815, 0.40815120909286945]]",density,black,,,D004,visual,1,[],"['1', '2', '3', '4']",1,2023.2.3,harveyvisual,2.1,[],8,0.75,
0,pause,0.4,None,None,None,0,213,213,213,,,,,,,,,,,,,D004,visual,1,[],"['1', '2', '3', '4']",1,2023.2.3,harveyvisual,2.1,[],8,0.75,
5,dot,0.3,['dot'],['density'],black,0,214,214,214,,,77.30022120475769,77.01258707046509,77.31257915496826,dot,"[0.08, 0.08, 0.1, 0.06, 0.06]","[[-0.16255238243643175, 0.17860987090823105], [-0.3708934258622909, -0.17994308192218272], [-0.3873401471382859, 0.23755408526324856], [-0.3082462149465763, 0.01808515368093923], [-0.09381294098683406, -0.04001219282613638]]",density,black,,,D004,visual,1,[],"['1', '2', '3', '4']",1,2023.2.3,harveyvisual,2.1,[],8,0.75,
0,pause,0.4,None,None,None,0,215,215,215,,,,,,,,,,,,,D004,visual,1,[],"['1', '2', '3', '4']",1,2023.2.3,harveyvisual,2.1,[],8,0.75,
4,dot,0.3,['dot'],['density'],black,0,216,216,216,,,78.00021505355835,77.71256399154663,78.01255011558533,dot,"[0.1, 0.1, 0.1, 0.06]","[[0.14909032788103166, -0.4768554918693636], [0.26071220381864263, -0.20018841858473793], [0.02634252458519163, -0.30967292471165575], [0.3541358554053611, -0.43808560323820217]]",density,black,,,D004,visual,1,[],"['1', '2', '3', '4']",1,2023.2.3,harveyvisual,2.1,[],8,0.75,
0,pause,0.4,None,None,None,0,217,217,217,,,,,,,,,,,,,D004,visual,1,[],"['1', '2', '3', '4']",1,2023.2.3,harveyvisual,2.1,[],8,0.75,
4,dot,0.3,['dot'],['density'],black,0,218,218,218,,,78.70020818710327,78.4125599861145,78.71254706382751,dot,"[0.1, 0.08, 0.06, 0.06]","[[-0.43942495523079517, -0.22401056498097033], [-0.009260832099230759, -0.1633376679159051], [-0.21598309108097546, -0.10172603009605206], [-0.2278206133413005, -0.33154874685782076]]",density,black,,,D004,visual,1,[],"['1', '2', '3', '4']",1,2023.2.3,harveyvisual,2.1,[],8,0.75,
0,pause,0.4,None,None,None,0,219,219,219,,,,,,,,,,,,,D004,visual,1,[],"['1', '2', '3', '4']",1,2023.2.3,harveyvisual,2.1,[],8,0.75,
4,dot,0.3,['dot'],['density'],black,0,220,220,220,,,79.40022611618042,79.11253619194031,79.4125280380249,dot,"[0.1, 0.08, 0.1, 0.1]","[[-0.24231220575667195, -0.22966258239168486], [-0.5136420973432148, -0.13696856920477488], [-0.4300726721285167, 0.13088957628356482], [-0.3148289313469241, -0.03851715211982174]]",density,black,,,D004,visual,1,[],"['1', '2', '3', '4']",1,2023.2.3,harveyvisual,2.1,[],8,0.75,
0,pause,0.4,None,None,None,0,221,221,221,,,,,,,,,,,,,D004,visual,1,[],"['1', '2', '3', '4']",1,2023.2.3,harveyvisual,2.1,[],8,0.75,
4,dot,0.3,['dot'],['density'],black,0,222,222,222,,,80.10022616386414,79.81251907348633,80.1124951839447,dot,"[0.1, 0.08, 0.08, 0.08]","[[0.0004228548582206217, 0.4437421379736539], [0.24572762857664815, 0.2260868474052859], [0.007756854070108054, 0.1846819218217072], [0.22099789303306372, 0.4278063517398125]]",density,black,,,D004,visual,1,[],"['1', '2', '3', '4']",1,2023.2.3,harveyvisual,2.1,[],8,0.75,
0,pause,0.4,None,None,None,0,223,223,223,,,,,,,,,,,,,D004,visual,1,[],"['1', '2', '3', '4']",1,2023.2.3,harveyvisual,2.1,[],8,0.75,
4,dot,0.3,['dot'],['density'],black,0,224,224,224,,,80.80022811889648,80.51248502731323,80.81249618530273,dot,"[0.06, 0.1, 0.1, 0.08]","[[0.010836700166572746, 0.3385055392368038], [-0.21755291078517647, 0.23172276430217797], [0.04881011250022837, 0.13413393103699342], [-0.16894730197854985, 0.4434327172909165]]",density,black,,,D004,visual,1,[],"['1', '2', '3', '4']",1,2023.2.3,harveyvisual,2.1,[],8,0.75,
0,pause,0.4,None,None,None,0,225,225,225,,,,,,,,,,,,,D004,visual,1,[],"['1', '2', '3', '4']",1,2023.2.3,harveyvisual,2.1,[],8,0.75,
4,dot,0.3,['dot'],['density'],black,0,226,226,226,,,81.50022602081299,81.21248316764832,81.5124762058258,dot,"[0.06, 0.06, 0.06, 0.08]","[[-0.4771446773377139, 0.25157103962592786], [-0.4259846000875058, -0.15982147080050188], [-0.5514119563937664, 0.017569371675289724], [-0.3400083930451492, 0.09263869595453958]]",density,black,,,D004,visual,1,[],"['1', '2', '3', '4']",1,2023.2.3,harveyvisual,2.1,[],8,0.75,
0,pause,0.4,None,None,None,0,227,227,227,,,,,,,,,,,,,D004,visual,1,[],"['1', '2', '3', '4']",1,2023.2.3,harveyvisual,2.1,[],8,0.75,
3,dot,0.3,['dot'],['density'],black,0,228,228,228,,,82.20022106170654,81.91245913505554,82.21243500709534,dot,"[0.1, 0.06, 0.08]","[[0.1555504186016049, 0.15532406847092056], [-0.0680535881648269, 0.26220909641571793], [0.08533315121688807, 0.39122308779032533]]",density,black,,,D004,visual,1,[],"['1', '2', '3', '4']",1,2023.2.3,harveyvisual,2.1,[],8,0.75,
0,pause,0.4,None,None,None,0,229,229,229,,,,,,,,,,,,,D004,visual,1,[],"['1', '2', '3', '4']",1,2023.2.3,harveyvisual,2.1,[],8,0.75,
3,dot,0.3,['dot'],['density'],black,0,230,230,230,,,82.90022206306458,82.61242818832397,82.91241216659546,dot,"[0.06, 0.1, 0.08]","[[-0.15188894406744968, -0.195193050272512], [6.772800145782267e-05, -0.040844811103836635], [-0.2045693439875358, 0.0038115475482788236]]",density,black,,,D004,visual,1,[],"['1', '2', '3', '4']",1,2023.2.3,harveyvisual,2.1,[],8,0.75,
0,pause,0.4,None,None,None,0,231,231,231,,,,,,,,,,,,,D004,visual,1,[],"['1', '2', '3', '4']",1,2023.2.3,harveyvisual,2.1,[],8,0.75,
3,dot,0.3,['dot'],['density'],black,0,232,232,232,,,83.6002151966095,83.31241202354431,83.61239504814148,dot,"[0.06, 0.1, 0.08]","[[-0.10589639487257244, 0.35295021258352427], [0.12780035046084517, 0.3479378296372768], [0.013663645537612555, 0.51889388118174]]",density,black,,,D004,visual,1,[],"['1', '2', '3', '4']",1,2023.2.3,harveyvisual,2.1,[],8,0.75,
0,pause,0.4,None,None,None,0,233,233,233,,,,,,,,,,,,,D004,visual,1,[],"['1', '2', '3', '4']",1,2023.2.3,harveyvisual,2.1,[],8,0.75,
3,dot,0.3,['dot'],['density'],black,0,234,234,234,,,84.30022120475769,84.0123860836029,84.31237506866455,dot,"[0.08, 0.08, 0.08]","[[0.315495050057846, 0.10724904305018564], [0.5180852452909619, 0.013799590611742229], [0.3819545826159732, -0.1334380777916547]]",density,black,,,D004,visual,1,[],"['1', '2', '3', '4']",1,2023.2.3,harveyvisual,2.1,[],8,0.75,
0,pause,0.4,None,None,None,0,235,235,235,,,,,,,,,,,,,D004,visual,1,[],"['1', '2', '3', '4']",1,2023.2.3,harveyvisual,2.1,[],8,0.75,
3,dot,0.3,['dot'],['density'],black,0,236,236,236,,,85.0002191066742,84.71237516403198,85.0123701095581,dot,"[0.1, 0.1, 0.08]","[[0.07700183490032705, -0.35627018624379625], [-0.11838355721398923, -0.41989981358322065], [0.04553884901650391, -0.5822363694770394]]",density,black,,,D004,visual,1,[],"['1', '2', '3', '4']",1,2023.2.3,harveyvisual,2.1,[],8,0.75,
0,pause,0.4,None,None,None,0,237,237,237,,,,,,,,,,,,,D004,visual,1,[],"['1', '2', '3', '4']",1,2023.2.3,harveyvisual,2.1,[],8,0.75,
3,dot,0.3,['dot'],['density'],black,0,238,238,238,,,85.70020508766174,85.41235113143921,85.71233606338501,dot,"[0.08, 0.08, 0.06]","[[0.2768253388883432, 0.03346297355107007], [0.11287187477499526, -0.09417797505773098], [0.09003622344097514, 0.12370024427926096]]",density,black,,,D004,visual,1,[],"['1', '2', '3', '4']",1,2023.2.3,harveyvisual,2.1,[],8,0.75,
0,pause,0.4,None,None,None,0,239,239,239,,,,,,,,,,,,,D004,visual,1,[],"['1', '2', '3', '4']",1,2023.2.3,harveyvisual,2.1,[],8,0.75,
2,dot,0.3,['dot'],['density'],black,0,240,240,240,,,86.40021014213562,86.11234021186829,86.41232800483704,dot,"[0.1, 0.06]","[[0.17083311991776792, -0.05558111512160733], [0.1461049568064877, -0.25438559320493304]]",density,black,,,D004,visual,1,[],"['1', '2', '3', '4']",1,2023.2.3,harveyvisual,2.1,[],8,0.75,
0,pause,0.4,None,None,None,0,241,241,241,,,,,,,,,,,,,D004,visual,1,[],"['1', '2', '3', '4']",1,2023.2.3,harveyvisual,2.1,[],8,0.75,
2,dot,0.3,['dot'],['density'],black,0,242,242,242,,,87.10021209716797,86.81232213973999,87.11231017112732,dot,"[0.08, 0.1]","[[0.06661886780735636, -0.3109770134588511], [-0.03502229105109153, -0.4833380692870097]]",density,black,,,D004,visual,1,[],"['1', '2', '3', '4']",1,2023.2.3,harveyvisual,2.1,[],8,0.75,
0,pause,0.4,None,None,None,0,243,243,243,,,,,,,,,,,,,D004,visual,1,[],"['1', '2', '3', '4']",1,2023.2.3,harveyvisual,2.1,[],8,0.75,
2,dot,0.3,['dot'],['density'],black,0,244,244,244,,,87.80022811889648,87.51229810714722,87.81229305267334,dot,"[0.08, 0.08]","[[0.1734117655345296, 0.46860731914486053], [-0.01847566562869785, 0.52581935004857]]",density,black,,,D004,visual,1,[],"['1', '2', '3', '4']",1,2023.2.3,harveyvisual,2.1,[],8,0.75,
0,pause,0.4,None,None,None,0,245,245,245,,,,,,,,,,,,,D004,visual,1,[],"['1', '2', '3', '4']",1,2023.2.3,harveyvisual,2.1,[],8,0.75,
2,dot,0.3,['dot'],['density'],black,0,246,246,246,,,88.5002191066742,88.21229004859924,88.51226902008057,dot,"[0.1, 0.08]","[[-0.21141336561075566, 0.4273762957479495], [-0.1407142259739198, 0.23984948612333498]]",density,black,,,D004,visual,1,[],"['1', '2', '3', '4']",1,2023.2.3,harveyvisual,2.1,[],8,0.75,
0,pause,0.4,None,None,None,0,247,247,247,,,,,,,,,,,,,D004,visual,1,[],"['1', '2', '3', '4']",1,2023.2.3,harveyvisual,2.1,[],8,0.75,
2,dot,0.3,['dot'],['density'],white,0,248,248,248,,,89.20020914077759,88.91226005554199,89.2122631072998,dot,"[0.08, 0.1]","[[0.002249876020969301, 0.20442088447143333], [-0.056293345030126195, 0.39599742374220376]]",density,white,,,D004,visual,1,[],"['1', '2', '3', '4']",1,2023.2.3,harveyvisual,2.1,[],8,0.75,
0,pause,0.4,None,None,None,0,249,249,249,,,,,,,,,,,1,89.53272414207458,D004,visual,1,[],"['1', '2', '3', '4']",1,2023.2.3,harveyvisual,2.1,[],8,0.75,
2,dot,0.3,['dot'],['density'],black,0,250,250,250,,,89.90021920204163,89.61224007606506,89.91223216056824,dot,"[0.08, 0.08]","[[-0.19266755722762574, -0.036106715323925336], [-0.096675332858716, 0.13967695308521302]]",density,black,,,D004,visual,1,[],"['1', '2', '3', '4']",1,2023.2.3,harveyvisual,2.1,[],8,0.75,
0,pause,0.4,None,None,None,0,251,251,251,,,,,,,,,,,,,D004,visual,1,[],"['1', '2', '3', '4']",1,2023.2.3,harveyvisual,2.1,[],8,0.75,
1,dot,0.3,['dot'],['density'],black,0,252,252,252,,,90.6002311706543,90.31222820281982,90.61221218109131,dot,[0.08],"[0.00661777001411412, 0.39634766145863237]",density,black,,,D004,visual,1,[],"['1', '2', '3', '4']",1,2023.2.3,harveyvisual,2.1,[],8,0.75,
0,pause,0.4,None,None,None,0,253,253,253,,,,,,,,,,,,,D004,visual,1,[],"['1', '2', '3', '4']",1,2023.2.3,harveyvisual,2.1,[],8,0.75,
1,dot,0.3,['dot'],['density'],black,0,254,254,254,,,91.30023407936096,91.01220798492432,91.31219220161438,dot,[0.06],"[0.4123293050259286, 0.03564095151647579]",density,black,,,D004,visual,1,[],"['1', '2', '3', '4']",1,2023.2.3,harveyvisual,2.1,[],8,0.75,
0,pause,0.4,None,None,None,0,255,255,255,,,,,,,,,,,,,D004,visual,1,[],"['1', '2', '3', '4']",1,2023.2.3,harveyvisual,2.1,[],8,0.75,
1,dot,0.3,['dot'],['density'],black,0,256,256,256,,,92.0002121925354,91.71218609809875,92.01217412948608,dot,[0.06],"[0.01430498756481247, 0.36429701967127975]",density,black,,,D004,visual,1,[],"['1', '2', '3', '4']",1,2023.2.3,harveyvisual,2.1,[],8,0.75,
0,pause,0.4,None,None,None,0,257,257,257,,,,,,,,,,,,,D004,visual,1,[],"['1', '2', '3', '4']",1,2023.2.3,harveyvisual,2.1,[],8,0.75,
1,dot,0.3,['dot'],['density'],black,0,258,258,258,,,92.70022916793823,92.41217112541199,92.71216106414795,dot,[0.08],"[0.14557363600905707, -0.03994760510263185]",density,black,,,D004,visual,1,[],"['1', '2', '3', '4']",1,2023.2.3,harveyvisual,2.1,[],8,0.75,
0,pause,0.4,None,None,None,0,259,259,259,,,,,,,,,,,,,D004,visual,1,[],"['1', '2', '3', '4']",1,2023.2.3,harveyvisual,2.1,[],8,0.75,
1,dot,0.3,['dot'],['density'],black,0,260,260,260,,,93.40022611618042,93.11216020584106,93.41213512420654,dot,[0.08],"[0.39967490259390637, -0.2576437183111264]",density,black,,,D004,visual,1,[],"['1', '2', '3', '4']",1,2023.2.3,harveyvisual,2.1,[],8,0.75,
0,pause,0.4,None,None,None,0,261,261,261,,,,,,,,,,,,,D004,visual,1,[],"['1', '2', '3', '4']",1,2023.2.3,harveyvisual,2.1,[],8,0.75,
1,dot,0.3,['dot'],['density'],black,0,262,262,262,,,94.10023498535156,93.81213402748108,94.11211800575256,dot,[0.1],"[-0.22356924330877379, 0.41145231278245986]",density,black,,,D004,visual,1,[],"['1', '2', '3', '4']",1,2023.2.3,harveyvisual,2.1,[],8,0.75,
0,pause,0.4,None,None,None,0,263,263,263,,,,,,,,,,,,,D004,visual,1,[],"['1', '2', '3', '4']",1,2023.2.3,harveyvisual,2.1,[],8,0.75,
20,dot,0.3,['dot'],['density'],black,0,264,264,264,,,94.80023407936096,94.51211309432983,94.81211304664612,dot,"[0.1, 0.06, 0.1, 0.06, 0.08, 0.08, 0.08, 0.06, 0.06, 0.08, 0.1, 0.08, 0.1, 0.1, 0.08, 0.08, 0.06, 0.1, 0.1, 0.1]","[[0.25995811599017105, 0.4725392263500693], [0.21272112546300814, -0.4262345718095624], [-0.0600607100424726, 0.23979925299393845], [-0.5272217808337354, -0.20873427181803594], [0.2248739497323382, 0.19569281225205437], [-0.03699633935194002, -0.5156500117391378], [0.27632599617188125, -0.21361746759319228], [-0.0422465291069164, 0.5231525159273445], [-0.26130727739284076, -0.33877255145133683], [-0.298760270770442, -0.1352756551095713], [-0.5789565039121373, -0.009999734330083387], [-0.34829960139843047, 0.32525705002821914], [0.0786147433551615, -0.21547383285199057], [0.5739242448366598, -0.00045049014058390346], [-0.3890534399433728, 0.05938861851813115], [-0.10755877049843965, -0.17580376051522273], [-0.010898453891697524, 0.05435394760370571], [0.5672790373486462, 0.20850328543682087], [0.45592212842997937, -0.3374208285457676], [0.2046012726994938, -0.015925380719116533]]",density,black,,,D004,visual,1,[],"['1', '2', '3', '4']",1,2023.2.3,harveyvisual,2.1,[],8,0.75,
0,pause,0.4,None,None,None,0,265,265,265,,,,,,,,,,,,,D004,visual,1,[],"['1', '2', '3', '4']",1,2023.2.3,harveyvisual,2.1,[],8,0.75,
20,dot,0.3,['dot'],['density'],black,0,266,266,266,,,95.50023412704468,95.21211814880371,95.51209115982056,dot,"[0.08, 0.08, 0.06, 0.08, 0.06, 0.06, 0.1, 0.1, 0.06, 0.1, 0.06, 0.06, 0.1, 0.08, 0.08, 0.06, 0.1, 0.1, 0.06, 0.08]","[[0.2621358913797791, 0.4104158961287683], [0.13276809690162628, -0.40874409874093165], [-0.40391004335572495, -0.37575679333501233], [-0.08223648930708805, 0.5581421482794564], [-0.331748416318556, 0.2471243126357845], [0.3712779205272585, -0.33979673706588204], [-0.08427056122134002, 0.16528246088127085], [-0.4418691921890255, -0.060427849293539615], [-0.01128805695861268, -0.5495437711650143], [0.5869967923423948, 0.037245697432278096], [0.19442666532027975, 0.003163457645114054], [0.4202793174521672, 0.18843739520955316], [-0.19637783447223817, -0.06982813676244448], [-0.06085264384195832, -0.2253498040363882], [0.10352404888971456, 0.19941597796759647], [-0.5300936097049286, 0.14301050755904865], [-0.22238126151311244, -0.48759155232529033], [0.5471301572100521, -0.16364678162630752], [0.3016617347041777, -0.15411856988099298], [-0.2875468454120409, 0.5093600665137308]]",density,black,,,D004,visual,1,[],"['1', '2', '3', '4']",1,2023.2.3,harveyvisual,2.1,[],8,0.75,
0,pause,0.4,None,None,None,0,267,267,267,,,,,,,,,,,,,D004,visual,1,[],"['1', '2', '3', '4']",1,2023.2.3,harveyvisual,2.1,[],8,0.75,
