num,mod,duration,shape,ll_cond,colors,.thisRepN,.thisTrialN,.thisN,.thisIndex,thisRow.t,notes,raw_global_time,t_start,t_stop,shapes,size,pos,cond,color,button,RT,participant,session,starting_run,left button (match/odd),right button (non-match/even),samples_per_block,psychopy version,expName,offset,audio,number_runs,radius,
1,dot,0.3,['dot'],['density'],black,0,0,0,0,,,2.4002020359039307,2.112579107284546,2.4124090671539307,dot,[0.06],"[0.21839164384074103, 0.06179923858190914]",density,black,,,D004,visual,5,[],"['1', '2', '3', '4']",1,2023.2.3,harveyvisual,2.1,[],8,0.75,
0,pause,0.4,None,None,None,0,1,1,1,,,,,,,,,,,,,D004,visual,5,[],"['1', '2', '3', '4']",1,2023.2.3,harveyvisual,2.1,[],8,0.75,
1,dot,0.3,['dot'],['density'],black,0,2,2,2,,,3.100213050842285,2.8125081062316895,3.1134819984436035,dot,[0.1],"[0.25023401086931774, -0.3984124620602511]",density,black,,,D004,visual,5,[],"['1', '2', '3', '4']",1,2023.2.3,harveyvisual,2.1,[],8,0.75,
0,pause,0.4,None,None,None,0,3,3,3,,,,,,,,,,,,,D004,visual,5,[],"['1', '2', '3', '4']",1,2023.2.3,harveyvisual,2.1,[],8,0.75,
1,dot,0.3,['dot'],['density'],black,0,4,4,4,,,3.8001902103424072,3.512928009033203,3.8129281997680664,dot,[0.06],"[-0.43105706563061386, -0.18359692062194616]",density,black,,,D004,visual,5,[],"['1', '2', '3', '4']",1,2023.2.3,harveyvisual,2.1,[],8,0.75,
0,pause,0.4,None,None,None,0,5,5,5,,,,,,,,,,,,,D004,visual,5,[],"['1', '2', '3', '4']",1,2023.2.3,harveyvisual,2.1,[],8,0.75,
1,dot,0.3,['dot'],['density'],black,0,6,6,6,,,4.500202178955078,4.2129011154174805,4.512900114059448,dot,[0.1],"[0.0956549371127339, 0.09579573331985794]",density,black,,,D004,visual,5,[],"['1', '2', '3', '4']",1,2023.2.3,harveyvisual,2.1,[],8,0.75,
0,pause,0.4,None,None,None,0,7,7,7,,,,,,,,,,,,,D004,visual,5,[],"['1', '2', '3', '4']",1,2023.2.3,harveyvisual,2.1,[],8,0.75,
1,dot,0.3,['dot'],['density'],black,0,8,8,8,,,5.200201034545898,4.91289210319519,5.212871074676514,dot,[0.08],"[0.19623115665255414, 0.1676894875529279]",density,black,,,D004,visual,5,[],"['1', '2', '3', '4']",1,2023.2.3,harveyvisual,2.1,[],8,0.75,
0,pause,0.4,None,None,None,0,9,9,9,,,,,,,,,,,,,D004,visual,5,[],"['1', '2', '3', '4']",1,2023.2.3,harveyvisual,2.1,[],8,0.75,
1,dot,0.3,['dot'],['density'],black,0,10,10,10,,,5.90021014213562,5.615134000778198,5.915101051330566,dot,[0.1],"[0.4230572171255965, 0.15564154118015242]",density,black,,,D004,visual,5,[],"['1', '2', '3', '4']",1,2023.2.3,harveyvisual,2.1,[],8,0.75,
0,pause,0.4,None,None,None,0,11,11,11,,,,,,,,,,,,,D004,visual,5,[],"['1', '2', '3', '4']",1,2023.2.3,harveyvisual,2.1,[],8,0.75,
2,dot,0.3,['dot'],['density'],black,0,12,12,12,,,6.600191116333008,6.3151280879974365,6.615106105804443,dot,"[0.1, 0.1]","[[0.19540278997321237, -0.319457995891214], [0.34462774624387493, -0.4544903302695001]]",density,black,,,D004,visual,5,[],"['1', '2', '3', '4']",1,2023.2.3,harveyvisual,2.1,[],8,0.75,
0,pause,0.4,None,None,None,0,13,13,13,,,,,,,,,,,,,D004,visual,5,[],"['1', '2', '3', '4']",1,2023.2.3,harveyvisual,2.1,[],8,0.75,
2,dot,0.3,['dot'],['density'],black,0,14,14,14,,,7.300206184387207,7.01507306098938,7.317131996154785,dot,"[0.06, 0.08]","[[0.06661886780735636, -0.3109770134588511], [-0.03502229105109153, -0.4833380692870097]]",density,black,,,D004,visual,5,[],"['1', '2', '3', '4']",1,2023.2.3,harveyvisual,2.1,[],8,0.75,
0,pause,0.4,None,None,None,0,15,15,15,,,,,,,,,,,,,D004,visual,5,[],"['1', '2', '3', '4']",1,2023.2.3,harveyvisual,2.1,[],8,0.75,
2,dot,0.3,['dot'],['density'],black,0,16,16,16,,,8.00019121170044,7.71523118019104,8.015214204788208,dot,"[0.06, 0.1]","[[-0.22226122312079244, -0.00806926593831646], [-0.023245446524914906, -0.037240983575548024]]",density,black,,,D004,visual,5,[],"['1', '2', '3', '4']",1,2023.2.3,harveyvisual,2.1,[],8,0.75,
0,pause,0.4,None,None,None,0,17,17,17,,,,,,,,,,,,,D004,visual,5,[],"['1', '2', '3', '4']",1,2023.2.3,harveyvisual,2.1,[],8,0.75,
2,dot,0.3,['dot'],['density'],white,0,18,18,18,,,8.70019817352295,8.415074110031128,8.715189218521118,dot,"[0.1, 0.1]","[[-0.5356907773971091, -0.01454049690556478], [-0.3936553319468624, 0.1263392020735458]]",density,white,,,D004,visual,5,[],"['1', '2', '3', '4']",1,2023.2.3,harveyvisual,2.1,[],8,0.75,
0,pause,0.4,None,None,None,0,19,19,19,,,,,,,,,,,1,8.980847120285034,D004,visual,5,[],"['1', '2', '3', '4']",1,2023.2.3,harveyvisual,2.1,[],8,0.75,
2,dot,0.3,['dot'],['density'],white,0,20,20,20,,,9.40021014213562,9.11518120765686,9.415188074111938,dot,"[0.08, 0.1]","[[-0.4149324818804315, 0.28007444048998836], [-0.5260390884397633, 0.11347960973083408]]",density,white,,,D004,visual,5,[],"['1', '2', '3', '4']",1,2023.2.3,harveyvisual,2.1,[],8,0.75,
0,pause,0.4,None,None,None,0,21,21,21,,,,,,,,,,,1,9.498954057693481,D004,visual,5,[],"['1', '2', '3', '4']",1,2023.2.3,harveyvisual,2.1,[],8,0.75,
2,dot,0.3,['dot'],['density'],white,0,22,22,22,,,10.100206136703491,9.815041065216064,10.115154027938843,dot,"[0.08, 0.08]","[[-0.19482721327365293, -0.5079820576301489], [-0.36119809377872014, -0.396546877814361]]",density,white,,,D004,visual,5,[],"['1', '2', '3', '4']",1,2023.2.3,harveyvisual,2.1,[],8,0.75,
0,pause,0.4,None,None,None,0,23,23,23,,,,,,,,,,,1,10.183083057403564,D004,visual,5,[],"['1', '2', '3', '4']",1,2023.2.3,harveyvisual,2.1,[],8,0.75,
3,dot,0.3,['dot'],['density'],black,0,24,24,24,,,10.80022120475769,10.515139102935791,10.814987182617188,dot,"[0.1, 0.1, 0.1]","[[0.29938275938101017, 0.44415474715472736], [0.13070782598704628, 0.5557174004537693], [0.11832456902218637, 0.3273615767427578]]",density,black,,,D004,visual,5,[],"['1', '2', '3', '4']",1,2023.2.3,harveyvisual,2.1,[],8,0.75,
0,pause,0.4,None,None,None,0,25,25,25,,,,,,,,,,,,,D004,visual,5,[],"['1', '2', '3', '4']",1,2023.2.3,harveyvisual,2.1,[],8,0.75,
3,dot,0.3,['dot'],['density'],white,0,26,26,26,,,11.500208139419556,11.214975118637085,11.514963150024414,dot,"[0.06, 0.1, 0.08]","[[-0.05604225559701161, -0.5082314702914299], [0.10137377066920354, -0.3837858820064252], [-0.12802807887251882, -0.3142638921214105]]",density,white,,,D004,visual,5,[],"['1', '2', '3', '4']",1,2023.2.3,harveyvisual,2.1,[],8,0.75,
0,pause,0.4,None,None,None,0,27,27,27,,,,,,,,,,,1,11.594064235687256,D004,visual,5,[],"['1', '2', '3', '4']",1,2023.2.3,harveyvisual,2.1,[],8,0.75,
3,dot,0.3,['dot'],['density'],black,0,28,28,28,,,12.200202226638794,11.914952993392944,12.214951992034912,dot,"[0.06, 0.08, 0.06]","[[-0.021384933427115945, -0.26055744462645497], [0.16478637362895734, -0.404980755917603], [-0.025077849445719256, -0.48190209473619267]]",density,black,,,D004,visual,5,[],"['1', '2', '3', '4']",1,2023.2.3,harveyvisual,2.1,[],8,0.75,
0,pause,0.4,None,None,None,0,29,29,29,,,,,,,,,,,,,D004,visual,5,[],"['1', '2', '3', '4']",1,2023.2.3,harveyvisual,2.1,[],8,0.75,
3,dot,0.3,['dot'],['density'],black,0,30,30,30,,,12.900204181671143,12.614934206008911,12.914927005767822,dot,"[0.08, 0.1, 0.1]","[[-0.1591938184585166, 0.2573970255855866], [-0.049574382916532336, 0.44031337398050124], [0.08264166875933507, 0.262381570646859]]",density,black,,,D004,visual,5,[],"['1', '2', '3', '4']",1,2023.2.3,harveyvisual,2.1,[],8,0.75,
0,pause,0.4,None,None,None,0,31,31,31,,,,,,,,,,,,,D004,visual,5,[],"['1', '2', '3', '4']",1,2023.2.3,harveyvisual,2.1,[],8,0.75,
3,dot,0.3,['dot'],['density'],black,0,32,32,32,,,13.600203037261963,13.314916133880615,13.614903211593628,dot,"[0.06, 0.08, 0.08]","[[-0.27441186418729774, -0.31428620701652393], [-0.10438281902574013, -0.2032379983598837], [-0.31523395761825285, -0.08768035506307631]]",density,black,,,D004,visual,5,[],"['1', '2', '3', '4']",1,2023.2.3,harveyvisual,2.1,[],8,0.75,
0,pause,0.4,None,None,None,0,33,33,33,,,,,,,,,,,,,D004,visual,5,[],"['1', '2', '3', '4']",1,2023.2.3,harveyvisual,2.1,[],8,0.75,
3,dot,0.3,['dot'],['density'],black,0,34,34,34,,,14.300193071365356,14.014888048171997,14.314908027648926,dot,"[0.08, 0.1, 0.08]","[[0.2656832518280197, 0.0014864193765316018], [0.3503107158811183, -0.1826455867164705], [0.5188928509039705, -0.04177453376365527]]",density,black,,,D004,visual,5,[],"['1', '2', '3', '4']",1,2023.2.3,harveyvisual,2.1,[],8,0.75,
0,pause,0.4,None,None,None,0,35,35,35,,,,,,,,,,,,,D004,visual,5,[],"['1', '2', '3', '4']",1,2023.2.3,harveyvisual,2.1,[],8,0.75,
4,dot,0.3,['dot'],['density'],black,0,36,36,36,,,15.000198125839233,14.714929103851318,15.01507019996643,dot,"[0.1, 0.1, 0.06, 0.08]","[[0.14909032788103166, -0.4768554918693636], [0.26071220381864263, -0.20018841858473793], [0.02634252458519163, -0.30967292471165575], [0.3541358554053611, -0.43808560323820217]]",density,black,,,D004,visual,5,[],"['1', '2', '3', '4']",1,2023.2.3,harveyvisual,2.1,[],8,0.75,
0,pause,0.4,None,None,None,0,37,37,37,,,,,,,,,,,,,D004,visual,5,[],"['1', '2', '3', '4']",1,2023.2.3,harveyvisual,2.1,[],8,0.75,
4,dot,0.3,['dot'],['density'],black,0,38,38,38,,,15.700196027755737,15.415082216262817,15.715028047561646,dot,"[0.08, 0.1, 0.1, 0.08]","[[-0.035956560563939345, -0.32709283091503677], [-0.2190429995428959, -0.2035699502326352], [-0.06992348234594314, -0.5664776463754845], [-0.220471277594294, -0.41208836036752056]]",density,black,,,D004,visual,5,[],"['1', '2', '3', '4']",1,2023.2.3,harveyvisual,2.1,[],8,0.75,
0,pause,0.4,None,None,None,0,39,39,39,,,,,,,,,,,,,D004,visual,5,[],"['1', '2', '3', '4']",1,2023.2.3,harveyvisual,2.1,[],8,0.75,
4,dot,0.3,['dot'],['density'],black,0,40,40,40,,,16.40019202232361,16.115045070648193,16.415019035339355,dot,"[0.06, 0.06, 0.1, 0.06]","[[0.2593869086993074, -0.26887741013308497], [0.09674879007849839, -0.39609983087723066], [-0.011093693993988496, -0.14004324908426333], [0.28630805459639813, -0.4681830009867555]]",density,black,,,D004,visual,5,[],"['1', '2', '3', '4']",1,2023.2.3,harveyvisual,2.1,[],8,0.75,
0,pause,0.4,None,None,None,0,41,41,41,,,,,,,,,,,,,D004,visual,5,[],"['1', '2', '3', '4']",1,2023.2.3,harveyvisual,2.1,[],8,0.75,
4,dot,0.3,['dot'],['density'],black,0,42,42,42,,,17.100208044052124,16.815047025680542,17.11487603187561,dot,"[0.06, 0.08, 0.06, 0.08]","[[-0.46485289602757673, 0.3603628353310837], [-0.30733625211232357, 0.21626236973196436], [-0.38991578213366157, 0.024479253410336757], [-0.570234662048439, 0.14093512067028166]]",density,black,,,D004,visual,5,[],"['1', '2', '3', '4']",1,2023.2.3,harveyvisual,2.1,[],8,0.75,
0,pause,0.4,None,None,None,0,43,43,43,,,,,,,,,,,,,D004,visual,5,[],"['1', '2', '3', '4']",1,2023.2.3,harveyvisual,2.1,[],8,0.75,
4,dot,0.3,['dot'],['density'],black,0,44,44,44,,,17.8001971244812,17.51506209373474,17.81504511833191,dot,"[0.06, 0.08, 0.08, 0.06]","[[-0.47693618450386616, -0.1525114564248906], [-0.12413069550496705, 0.03327587270375396], [-0.32964510574757994, -0.012304557788591533], [-0.22851041427491325, -0.22018408257550984]]",density,black,,,D004,visual,5,[],"['1', '2', '3', '4']",1,2023.2.3,harveyvisual,2.1,[],8,0.75,
0,pause,0.4,None,None,None,0,45,45,45,,,,,,,,,,,,,D004,visual,5,[],"['1', '2', '3', '4']",1,2023.2.3,harveyvisual,2.1,[],8,0.75,
4,dot,0.3,['dot'],['density'],white,0,46,46,46,,,18.500222206115723,18.21503710746765,18.514780044555664,dot,"[0.08, 0.06, 0.1, 0.06]","[[-0.5372831058023291, 0.07679305146548565], [-0.47746952625478134, -0.11455356156484316], [-0.2888199447118168, 0.02804534169422597], [-0.3317661241759115, -0.2533775510137967]]",density,white,,,D004,visual,5,[],"['1', '2', '3', '4']",1,2023.2.3,harveyvisual,2.1,[],8,0.75,
0,pause,0.4,None,None,None,0,47,47,47,,,,,,,,,,,1,18.702908039093018,D004,visual,5,[],"['1', '2', '3', '4']",1,2023.2.3,harveyvisual,2.1,[],8,0.75,
5,dot,0.3,['dot'],['density'],white,0,48,48,48,,,19.200215101242065,18.914860010147095,19.214770078659058,dot,"[0.06, 0.06, 0.08, 0.08, 0.06]","[[0.05896558140131438, -0.5342250951568444], [0.41924064092593105, -0.38742881471212404], [0.0789485457987589, -0.15857793529431863], [0.19859038409043042, -0.3300393182504279], [-0.04229804568701367, -0.31959008629620334]]",density,white,,,D004,visual,5,[],"['1', '2', '3', '4']",1,2023.2.3,harveyvisual,2.1,[],8,0.75,
0,pause,0.4,None,None,None,0,49,49,49,,,,,,,,,,,1,19.381006002426147,D004,visual,5,[],"['1', '2', '3', '4']",1,2023.2.3,harveyvisual,2.1,[],8,0.75,
5,dot,0.3,['dot'],['density'],black,0,50,50,50,,,19.90019917488098,19.614756107330322,19.914740085601807,dot,"[0.08, 0.08, 0.1, 0.08, 0.1]","[[-0.19096480170835262, 0.2202776521134577], [0.009488999043989208, 0.5721548226574139], [0.16477125949827795, 0.3732973518003487], [0.07476286221063107, 0.1476230553836633], [-0.051949696108355745, 0.36609537475325354]]",density,black,,,D004,visual,5,[],"['1', '2', '3', '4']",1,2023.2.3,harveyvisual,2.1,[],8,0.75,
0,pause,0.4,None,None,None,0,51,51,51,,,,,,,,,,,,,D004,visual,5,[],"['1', '2', '3', '4']",1,2023.2.3,harveyvisual,2.1,[],8,0.75,
5,dot,0.3,['dot'],['density'],black,0,52,52,52,,,20.600197076797485,20.31473422050476,20.614713191986084,dot,"[0.08, 0.06, 0.06, 0.08, 0.1]","[[-0.0036269740154891753, 0.5431219823242713], [-0.2646325594942043, 0.5073179604697073], [-0.41902475937036154, 0.37311436690984484], [-0.007163214206743488, 0.2887893175302695], [-0.2156098228659233, 0.2684642371109035]]",density,black,,,D004,visual,5,[],"['1', '2', '3', '4']",1,2023.2.3,harveyvisual,2.1,[],8,0.75,
0,pause,0.4,None,None,None,0,53,53,53,,,,,,,,,,,,,D004,visual,5,[],"['1', '2', '3', '4']",1,2023.2.3,harveyvisual,2.1,[],8,0.75,
5,dot,0.3,['dot'],['density'],black,0,54,54,54,,,21.300196170806885,21.014713048934937,21.31469202041626,dot,"[0.06, 0.08, 0.06, 0.1, 0.08]","[[-0.19096480170835262, 0.2202776521134577], [0.009488999043989208, 0.5721548226574139], [0.16477125949827795, 0.3732973518003487], [0.07476286221063107, 0.1476230553836633], [-0.051949696108355745, 0.36609537475325354]]",density,black,,,D004,visual,5,[],"['1', '2', '3', '4']",1,2023.2.3,harveyvisual,2.1,[],8,0.75,
0,pause,0.4,None,None,None,0,55,55,55,,,,,,,,,,,,,D004,visual,5,[],"['1', '2', '3', '4']",1,2023.2.3,harveyvisual,2.1,[],8,0.75,
5,dot,0.3,['dot'],['density'],black,0,56,56,56,,,22.0002121925354,21.714722156524658,22.014716148376465,dot,"[0.08, 0.06, 0.1, 0.08, 0.08]","[[-0.08906257038347729, 0.3326351968500321], [0.2173987091792188, 0.026220721131276364], [0.07996259445097068, 0.4821024141609844], [0.14345365083950706, 0.2501481494916038], [-0.03323208063638199, 0.08804517681276208]]",density,black,,,D004,visual,5,[],"['1', '2', '3', '4']",1,2023.2.3,harveyvisual,2.1,[],8,0.75,
0,pause,0.4,None,None,None,0,57,57,57,,,,,,,,,,,,,D004,visual,5,[],"['1', '2', '3', '4']",1,2023.2.3,harveyvisual,2.1,[],8,0.75,
5,dot,0.3,['dot'],['density'],black,0,58,58,58,,,22.700216054916382,22.414982080459595,22.71483302116394,dot,"[0.1, 0.1, 0.1, 0.08, 0.1]","[[0.4409169755572007, 0.017856988789309493], [0.10933872532765951, -0.20637645515835812], [0.27728831588229885, 0.198954967346464], [0.3100556643305453, -0.16532657838491105], [0.11148968869271939, 0.006469487304542018]]",density,black,,,D004,visual,5,[],"['1', '2', '3', '4']",1,2023.2.3,harveyvisual,2.1,[],8,0.75,
0,pause,0.4,None,None,None,0,59,59,59,,,,,,,,,,,,,D004,visual,5,[],"['1', '2', '3', '4']",1,2023.2.3,harveyvisual,2.1,[],8,0.75,
6,dot,0.3,['dot'],['density'],black,0,60,60,60,,,23.40021514892578,23.114827156066895,23.414687156677246,dot,"[0.1, 0.06, 0.08, 0.1, 0.08, 0.1]","[[0.0015484977009578463, -0.37153509484940705], [-0.24631791352898516, -0.16063896847060222], [-0.21037316856202723, -0.37491302730087106], [-0.14520134419833938, 0.05228402714841561], [-0.41979900021501537, -0.27073368115662844], [-0.020720382871846178, -0.14076137757070492]]",density,black,,,D004,visual,5,[],"['1', '2', '3', '4']",1,2023.2.3,harveyvisual,2.1,[],8,0.75,
0,pause,0.4,None,None,None,0,61,61,61,,,,,,,,,,,,,D004,visual,5,[],"['1', '2', '3', '4']",1,2023.2.3,harveyvisual,2.1,[],8,0.75,
6,dot,0.3,['dot'],['density'],black,0,62,62,62,,,24.10021209716797,23.814682006835938,24.114800214767456,dot,"[0.08, 0.1, 0.06, 0.06, 0.06, 0.06]","[[-0.06594826066790033, 0.1051940440944823], [0.15491437476435005, 0.24610541937573027], [-0.07004887042171212, 0.3755397070333221], [0.22920853754483062, 0.04629278748534093], [0.14611265926610215, 0.46549762069565603], [0.352938231914746, 0.33060025924169734]]",density,black,,,D004,visual,5,[],"['1', '2', '3', '4']",1,2023.2.3,harveyvisual,2.1,[],8,0.75,
0,pause,0.4,None,None,None,0,63,63,63,,,,,,,,,,,,,D004,visual,5,[],"['1', '2', '3', '4']",1,2023.2.3,harveyvisual,2.1,[],8,0.75,
6,dot,0.3,['dot'],['density'],black,0,64,64,64,,,24.800204038619995,24.514799118041992,24.814675092697144,dot,"[0.06, 0.06, 0.1, 0.06, 0.08, 0.1]","[[-0.25052904509636076, -0.46440103658729176], [-0.12772535636451293, 0.010821502090106766], [-0.031043743050516784, -0.3649555915866845], [-0.3754529733759062, -0.18839395716731677], [0.07378414788444272, -0.15062955699655364], [-0.17220243018048728, -0.20498996683935267]]",density,black,,,D004,visual,5,[],"['1', '2', '3', '4']",1,2023.2.3,harveyvisual,2.1,[],8,0.75,
0,pause,0.4,None,None,None,0,65,65,65,,,,,,,,,,,,,D004,visual,5,[],"['1', '2', '3', '4']",1,2023.2.3,harveyvisual,2.1,[],8,0.75,
6,dot,0.3,['dot'],['density'],black,0,66,66,66,,,25.500200033187866,25.21462917327881,25.514767169952393,dot,"[0.1, 0.08, 0.06, 0.08, 0.06, 0.06]","[[-0.25199583264674774, 0.1645076628059283], [-0.30980015185235615, -0.30059811601219943], [-0.3416104032120793, -0.08609002542292095], [-0.44539923421558947, 0.10453038353258776], [-0.10444623085343022, 0.0009067836503606603], [-0.5495015018291214, -0.1770200348029928]]",density,black,,,D004,visual,5,[],"['1', '2', '3', '4']",1,2023.2.3,harveyvisual,2.1,[],8,0.75,
0,pause,0.4,None,None,None,0,67,67,67,,,,,,,,,,,,,D004,visual,5,[],"['1', '2', '3', '4']",1,2023.2.3,harveyvisual,2.1,[],8,0.75,
6,dot,0.3,['dot'],['density'],black,0,68,68,68,,,26.20020604133606,25.91475510597229,26.21461820602417,dot,"[0.08, 0.06, 0.06, 0.1, 0.06, 0.06]","[[-0.4130096743352808, -0.09152271377164663], [-0.19778223104980006, -0.03862987845790588], [-0.5782793278508197, 0.04067119283421001], [-0.2942915267906656, -0.3673297053134895], [-0.33560074172492643, 0.119885218799542], [-0.5263932498355091, -0.25924495598585295]]",density,black,,,D004,visual,5,[],"['1', '2', '3', '4']",1,2023.2.3,harveyvisual,2.1,[],8,0.75,
0,pause,0.4,None,None,None,0,69,69,69,,,,,,,,,,,,,D004,visual,5,[],"['1', '2', '3', '4']",1,2023.2.3,harveyvisual,2.1,[],8,0.75,
6,dot,0.3,['dot'],['density'],white,0,70,70,70,,,26.90020513534546,26.614610195159912,26.91471219062805,dot,"[0.1, 0.1, 0.1, 0.1, 0.08, 0.1]","[[0.20407874700173578, -0.003607462636592132], [0.19900023894327637, 0.3924983297162132], [0.3038969651674081, 0.19297037853131338], [-0.03476334221878716, -0.0007504963676470482], [-0.04769005191199877, 0.33834827157296915], [0.0832402191747092, 0.1716866405281877]]",density,white,,,D004,visual,5,[],"['1', '2', '3', '4']",1,2023.2.3,harveyvisual,2.1,[],8,0.75,
0,pause,0.4,None,None,None,0,71,71,71,,,,,,,,,,,1,27.12395215034485,D004,visual,5,[],"['1', '2', '3', '4']",1,2023.2.3,harveyvisual,2.1,[],8,0.75,
7,dot,0.3,['dot'],['density'],black,0,72,72,72,,,27.600220203399658,27.314547061920166,27.614533185958862,dot,"[0.06, 0.1, 0.08, 0.08, 0.1, 0.08, 0.1]","[[-0.3025445156539714, -0.42280529123536587], [0.12162933753582021, -0.2851722644810181], [-0.2753205641105948, -0.038672864930592576], [-0.4202189534315163, -0.18742991959605093], [-0.15636117447925973, -0.27217203193286355], [-0.09967880665522989, -0.47242523529006747], [-0.06261398545311019, -0.08879309989794046]]",density,black,,,D004,visual,5,[],"['1', '2', '3', '4']",1,2023.2.3,harveyvisual,2.1,[],8,0.75,
0,pause,0.4,None,None,None,0,73,73,73,,,,,,,,,,,,,D004,visual,5,[],"['1', '2', '3', '4']",1,2023.2.3,harveyvisual,2.1,[],8,0.75,
7,dot,0.3,['dot'],['density'],black,0,74,74,74,,,28.30020022392273,28.014541149139404,28.314537048339844,dot,"[0.08, 0.1, 0.1, 0.06, 0.08, 0.1, 0.06]","[[-0.0009033409944170771, 0.42006327366100915], [0.07504475251916, -0.022201311189229547], [-0.3616170585675141, 0.16750883091546095], [0.025412283732210435, 0.18669523424894663], [-0.17132175432412022, 0.2677160973152203], [-0.13541388111710323, 0.00927786556165188], [-0.3032959001003911, -0.13806764794565113]]",density,black,,,D004,visual,5,[],"['1', '2', '3', '4']",1,2023.2.3,harveyvisual,2.1,[],8,0.75,
0,pause,0.4,None,None,None,0,75,75,75,,,,,,,,,,,,,D004,visual,5,[],"['1', '2', '3', '4']",1,2023.2.3,harveyvisual,2.1,[],8,0.75,
7,dot,0.3,['dot'],['density'],white,0,76,76,76,,,29.000208139419556,28.714519023895264,29.01450204849243,dot,"[0.06, 0.06, 0.06, 0.1, 0.08, 0.1, 0.06]","[[-0.3423230189937584, -0.41219609722212536], [-0.1182323968952694, -0.35552357509158045], [-0.4111032443031386, -0.006313161275750597], [-0.5095560862941229, -0.2529410328503813], [-0.2588176969072235, -0.18091026219072012], [-0.0026253510642934245, -0.12197054074907589], [-0.16586784627322051, 0.0941069694468023]]",density,white,,,D004,visual,5,[],"['1', '2', '3', '4']",1,2023.2.3,harveyvisual,2.1,[],8,0.75,
0,pause,0.4,None,None,None,0,77,77,77,,,,,,,,,,,1,29.293222188949585,D004,visual,5,[],"['1', '2', '3', '4']",1,2023.2.3,harveyvisual,2.1,[],8,0.75,
7,dot,0.3,['dot'],['density'],black,0,78,78,78,,,29.70021414756775,29.414501190185547,29.714486122131348,dot,"[0.06, 0.1, 0.06, 0.06, 0.08, 0.06, 0.06]","[[-0.15204905838880944, -0.5333107186751418], [-0.1519936835116667, -0.2986813487337615], [0.3123805602017952, -0.370842296180838], [-0.04397638837772695, -0.01669328424437847], [0.11716920447009348, -0.14912816843546053], [0.1067198166566748, -0.5553575834591685], [0.04038917577175449, -0.3541606866516689]]",density,black,,,D004,visual,5,[],"['1', '2', '3', '4']",1,2023.2.3,harveyvisual,2.1,[],8,0.75,
0,pause,0.4,None,None,None,0,79,79,79,,,,,,,,,,,,,D004,visual,5,[],"['1', '2', '3', '4']",1,2023.2.3,harveyvisual,2.1,[],8,0.75,
7,dot,0.3,['dot'],['density'],black,0,80,80,80,,,30.400206089019775,30.11451816558838,30.414490222930908,dot,"[0.1, 0.06, 0.1, 0.08, 0.1, 0.1, 0.1]","[[0.06935229908748385, 0.4911641494940837], [-0.19266199922505295, 0.07836852906048222], [0.055274369019684175, 0.020452523162812593], [0.26239471350362015, 0.1001529216481179], [-0.06036973858781391, 0.3360513952533211], [-0.2638544135394649, 0.29089327984911306], [0.14813816713374972, 0.28344041791591096]]",density,black,,,D004,visual,5,[],"['1', '2', '3', '4']",1,2023.2.3,harveyvisual,2.1,[],8,0.75,
0,pause,0.4,None,None,None,0,81,81,81,,,,,,,,,,,,,D004,visual,5,[],"['1', '2', '3', '4']",1,2023.2.3,harveyvisual,2.1,[],8,0.75,
7,dot,0.3,['dot'],['density'],black,0,82,82,82,,,31.1002140045166,30.81448721885681,31.114479064941406,dot,"[0.1, 0.06, 0.06, 0.08, 0.1, 0.06, 0.06]","[[0.3350011905151264, 0.09255159473130091], [-0.07424962927914175, -0.2643067362759337], [-0.0068732696698998825, 0.04948606721470151], [0.12855319879406235, -0.3381192636220083], [0.11551090787938859, 0.24000211478775196], [0.3415900712266813, -0.1269386107563701], [0.14228147320501944, -0.08533637750285226]]",density,black,,,D004,visual,5,[],"['1', '2', '3', '4']",1,2023.2.3,harveyvisual,2.1,[],8,0.75,
0,pause,0.4,None,None,None,0,83,83,83,,,,,,,,,,,,,D004,visual,5,[],"['1', '2', '3', '4']",1,2023.2.3,harveyvisual,2.1,[],8,0.75,
8,dot,0.3,['dot'],['density'],black,0,84,84,84,,,31.800220012664795,31.51447319984436,31.814467191696167,dot,"[0.1, 0.08, 0.08, 0.06, 0.1, 0.06, 0.1, 0.1]","[[0.15461278376755175, 0.017690045563684864], [0.4404146441246234, 0.21813023399178458], [0.05487595867990863, 0.4084021637362207], [-0.13585566436679766, 0.08658391491112073], [0.3753260993018466, -0.0029057217730488138], [0.24206240898487613, 0.3367355195829085], [0.06992318211572668, 0.2078151862649802], [0.2541279777615451, -0.17357647893213385]]",density,black,,,D004,visual,5,[],"['1', '2', '3', '4']",1,2023.2.3,harveyvisual,2.1,[],8,0.75,
0,pause,0.4,None,None,None,0,85,85,85,,,,,,,,,,,,,D004,visual,5,[],"['1', '2', '3', '4']",1,2023.2.3,harveyvisual,2.1,[],8,0.75,
8,dot,0.3,['dot'],['density'],black,0,86,86,86,,,32.500208139419556,32.21463918685913,32.514569997787476,dot,"[0.1, 0.1, 0.1, 0.1, 0.1, 0.1, 0.1, 0.08]","[[-0.25621621658373334, -0.516505587173681], [-0.1662036889407214, -0.08514196380588028], [-0.18387329975925823, -0.32724781719236296], [0.018951322384734254, -0.28276580262079387], [-0.4257935961758009, -0.11165978892152287], [-0.38337046113926315, -0.34678862335127664], [0.08447884857343574, -0.4920123821830729], [0.02561025798733424, 0.0007844895199748298]]",density,black,,,D004,visual,5,[],"['1', '2', '3', '4']",1,2023.2.3,harveyvisual,2.1,[],8,0.75,
0,pause,0.4,None,None,None,0,87,87,87,,,,,,,,,,,,,D004,visual,5,[],"['1', '2', '3', '4']",1,2023.2.3,harveyvisual,2.1,[],8,0.75,
8,dot,0.3,['dot'],['density'],black,0,88,88,88,,,33.200199127197266,32.91441011428833,33.2144341468811,dot,"[0.1, 0.06, 0.1, 0.08, 0.08, 0.08, 0.06, 0.1]","[[0.2715518471235014, -0.4245138665073026], [0.03602391524707561, -0.40638782213015096], [0.4828297141312073, -0.09119901312376678], [0.02835794216237903, 0.028275321652194735], [-0.0895445032969687, -0.19822740391127236], [0.3178997883629752, 0.08245100984997318], [0.21920060966397442, -0.22342839817001514], [0.46807969757011175, -0.32427319705723295]]",density,black,,,D004,visual,5,[],"['1', '2', '3', '4']",1,2023.2.3,harveyvisual,2.1,[],8,0.75,
0,pause,0.4,None,None,None,0,89,89,89,,,,,,,,,,,,,D004,visual,5,[],"['1', '2', '3', '4']",1,2023.2.3,harveyvisual,2.1,[],8,0.75,
8,dot,0.3,['dot'],['density'],black,0,90,90,90,,,33.900214195251465,33.61455321311951,33.9144229888916,dot,"[0.06, 0.06, 0.06, 0.1, 0.08, 0.08, 0.1, 0.08]","[[-0.258715538922871, 0.3828151050353194], [-0.4384035523576633, -0.18689856672911037], [-0.5586779833045601, 0.15056420889708766], [-0.1699372658897842, -0.04883432605429875], [-0.36053016753151684, 0.02858569738219561], [-0.199221799186684, 0.1876786431210615], [0.004458053620249285, 0.1240038339062716], [0.019420137312414813, -0.16023679021787893]]",density,black,,,D004,visual,5,[],"['1', '2', '3', '4']",1,2023.2.3,harveyvisual,2.1,[],8,0.75,
0,pause,0.4,None,None,None,0,91,91,91,,,,,,,,,,,,,D004,visual,5,[],"['1', '2', '3', '4']",1,2023.2.3,harveyvisual,2.1,[],8,0.75,
8,dot,0.3,['dot'],['density'],black,0,92,92,92,,,34.600218057632446,34.314383029937744,34.61441421508789,dot,"[0.1, 0.08, 0.06, 0.06, 0.1, 0.1, 0.06, 0.06]","[[0.32983457944800887, -0.09988122376634187], [0.002544499336209532, 0.05447162498302279], [0.49322357980250997, 0.04173156098678792], [0.3398992085464782, -0.3241559212022164], [0.12656458423521935, -0.36323236959635974], [0.5072737450674915, -0.19500703868861743], [0.06482113683766944, -0.1422911224505784], [0.25865538318477954, 0.20042726536108785]]",density,black,,,D004,visual,5,[],"['1', '2', '3', '4']",1,2023.2.3,harveyvisual,2.1,[],8,0.75,
0,pause,0.4,None,None,None,0,93,93,93,,,,,,,,,,,,,D004,visual,5,[],"['1', '2', '3', '4']",1,2023.2.3,harveyvisual,2.1,[],8,0.75,
8,dot,0.3,['dot'],['density'],black,0,94,94,94,,,35.30022120475769,35.014421224594116,35.314401149749756,dot,"[0.08, 0.08, 0.1, 0.1, 0.1, 0.06, 0.1, 0.08]","[[0.11895989691250043, -0.4531686673706004], [-0.16516506104640707, -0.03240926074491446], [0.03539791161122963, 0.017706842047032937], [0.2602726326243711, -0.2021454296306109], [-0.07993394910368964, -0.42305571474287856], [-0.2833532244481061, -0.22994433794129646], [0.3633812293108319, -0.4186270945829863], [-0.04042382183071007, -0.1991401458565282]]",density,black,,,D004,visual,5,[],"['1', '2', '3', '4']",1,2023.2.3,harveyvisual,2.1,[],8,0.75,
0,pause,0.4,None,None,None,0,95,95,95,,,,,,,,,,,,,D004,visual,5,[],"['1', '2', '3', '4']",1,2023.2.3,harveyvisual,2.1,[],8,0.75,
9,dot,0.3,['dot'],['density'],black,0,96,96,96,,,36.00019907951355,35.71439218521118,36.01432704925537,dot,"[0.1, 0.1, 0.1, 0.1, 0.1, 0.1, 0.08, 0.08, 0.06]","[[0.050129075631511706, -0.29659829200500587], [0.1522424042566208, -0.02012498145544232], [-0.31773020450764894, 0.09756431981266957], [-0.25388767024787284, -0.20865833148222632], [-0.06549152868915667, -0.10253084504872755], [-0.047012852932693645, 0.11741599898337682], [0.26526013051082903, -0.18996189821299347], [0.2442588296558726, 0.17404051307925203], [0.053323608967773835, 0.34462047536600726]]",density,black,,,D004,visual,5,[],"['1', '2', '3', '4']",1,2023.2.3,harveyvisual,2.1,[],8,0.75,
0,pause,0.4,None,None,None,0,97,97,97,,,,,,,,,,,,,D004,visual,5,[],"['1', '2', '3', '4']",1,2023.2.3,harveyvisual,2.1,[],8,0.75,
9,dot,0.3,['dot'],['density'],black,0,98,98,98,,,36.70021104812622,36.414355993270874,36.71431612968445,dot,"[0.1, 0.08, 0.1, 0.06, 0.1, 0.1, 0.1, 0.08, 0.08]","[[-0.3143165991636532, -0.4594448536910345], [-0.2552048841139852, -0.06866208597721758], [-0.4539914907372049, -0.019462523532982], [-0.0016330512078212595, -0.20036737320767878], [-0.1856154264835833, -0.2915493351998931], [-0.41369389823818076, -0.2734186166626005], [0.2388286227728169, -0.07063581723838416], [0.0412368179136257, 0.05808754956878123], [-0.37802967984412894, 0.19285536194211775]]",density,black,,,D004,visual,5,[],"['1', '2', '3', '4']",1,2023.2.3,harveyvisual,2.1,[],8,0.75,
0,pause,0.4,None,None,None,0,99,99,99,,,,,,,,,,,,,D004,visual,5,[],"['1', '2', '3', '4']",1,2023.2.3,harveyvisual,2.1,[],8,0.75,
9,dot,0.3,['dot'],['density'],black,0,100,100,100,,,37.40021514892578,37.114341020584106,37.41433310508728,dot,"[0.08, 0.08, 0.06, 0.1, 0.1, 0.1, 0.1, 0.06, 0.06]","[[-0.05049485011715354, 0.3013521193238899], [0.15354596755057998, 0.36785015051376163], [0.22995749783639982, 0.07309138415424772], [0.13460311710395165, -0.18603378415368982], [0.33097739113381164, -0.13822260855557728], [-0.16464148731134703, 0.07190493829483618], [0.521154897315396, -0.007803673430992942], [0.02684304494395013, 0.0018704401699241912], [-0.15545279255173522, -0.15329938800760382]]",density,black,,,D004,visual,5,[],"['1', '2', '3', '4']",1,2023.2.3,harveyvisual,2.1,[],8,0.75,
0,pause,0.4,None,None,None,0,101,101,101,,,,,,,,,,,,,D004,visual,5,[],"['1', '2', '3', '4']",1,2023.2.3,harveyvisual,2.1,[],8,0.75,
9,dot,0.3,['dot'],['density'],black,0,102,102,102,,,38.100224018096924,37.814282178878784,38.11430621147156,dot,"[0.06, 0.06, 0.06, 0.06, 0.06, 0.1, 0.06, 0.08, 0.06]","[[0.5633060189111645, -0.020447411670609934], [0.24486306384976717, 0.44476630120442473], [0.18428866344346043, -0.051083701103786204], [0.30165572131442664, 0.2239114093385097], [-0.0017431279865323516, 0.11759053127645673], [0.36864926730470376, 0.029118730319846676], [0.08307425003498874, 0.31712463906399285], [0.26393370779995823, -0.24286541122091637], [0.5109425385251136, 0.2557989077594731]]",density,black,,,D004,visual,5,[],"['1', '2', '3', '4']",1,2023.2.3,harveyvisual,2.1,[],8,0.75,
0,pause,0.4,None,None,None,0,103,103,103,,,,,,,,,,,,,D004,visual,5,[],"['1', '2', '3', '4']",1,2023.2.3,harveyvisual,2.1,[],8,0.75,
9,dot,0.3,['dot'],['density'],black,0,104,104,104,,,38.80021405220032,38.51435399055481,38.8144690990448,dot,"[0.1, 0.08, 0.1, 0.06, 0.06, 0.06, 0.08, 0.06, 0.08]","[[-0.08351644510687262, 0.021707353155035948], [0.11173555070370329, 0.3931220271068859], [-0.15396522232717408, 0.3423719725559184], [0.23829169989725132, 0.186218803300476], [-0.29008049122260166, 0.17395274189193027], [0.2491440638781109, -0.04662568063892593], [-0.2854023508218629, -0.06307984259985559], [0.003596708871689959, 0.21717875760955796], [-0.47489413548496523, 0.030788186259843496]]",density,black,,,D004,visual,5,[],"['1', '2', '3', '4']",1,2023.2.3,harveyvisual,2.1,[],8,0.75,
0,pause,0.4,None,None,None,0,105,105,105,,,,,,,,,,,,,D004,visual,5,[],"['1', '2', '3', '4']",1,2023.2.3,harveyvisual,2.1,[],8,0.75,
9,dot,0.3,['dot'],['density'],black,0,106,106,106,,,39.50021505355835,39.21442103385925,39.51440620422363,dot,"[0.1, 0.1, 0.06, 0.06, 0.1, 0.06, 0.08, 0.1, 0.1]","[[0.4907720478217397, -0.04420899316542184], [0.34945142516086164, 0.15252383324094793], [0.5574461082468273, 0.19132091369540322], [0.27860246559707486, -0.040271372914082004], [0.05137088633600719, 0.3166781443626957], [0.3859483744724672, 0.35594746641407654], [0.08124150308634055, -0.11830714188255424], [-0.07254784919135501, 0.1430213671552253], [0.33979531306265204, -0.26214422422440126]]",density,black,,,D004,visual,5,[],"['1', '2', '3', '4']",1,2023.2.3,harveyvisual,2.1,[],8,0.75,
0,pause,0.4,None,None,None,0,107,107,107,,,,,,,,,,,,,D004,visual,5,[],"['1', '2', '3', '4']",1,2023.2.3,harveyvisual,2.1,[],8,0.75,
20,dot,0.3,['dot'],['density'],black,0,108,108,108,,,40.200202226638794,39.91439700126648,40.214407205581665,dot,"[0.1, 0.06, 0.1, 0.1, 0.1, 0.1, 0.08, 0.06, 0.1, 0.08, 0.1, 0.06, 0.08, 0.06, 0.06, 0.08, 0.1, 0.1, 0.1, 0.08]","[[-0.46947697070632144, -0.22604450590663686], [0.5650932922483788, -0.13478136889705095], [0.4031570473076128, 0.20592895200023092], [-0.25166462697976755, 0.16443231405231185], [0.2896052517447515, 0.03978038684029206], [0.044132779066242356, -0.5272379767021078], [0.022997261647414446, 0.20600180991991746], [-0.15533839845212793, 0.41203072823261344], [-0.4114141994522371, 0.2692734158962648], [-0.0962556369059332, -0.2363865109105428], [0.055083825744107084, -0.00026220961897160944], [0.22944267857685696, -0.4324603476359374], [-0.5834211257780904, -0.0038361289143585553], [0.2886800990815318, 0.3899977218842028], [0.16074514848645582, -0.2476447719988238], [-0.22076991744059266, -0.4841649187780754], [0.0697267460870471, 0.5952377176215503], [0.4322230870636846, -0.37141573964349867], [0.3826062962174085, -0.1859112238609431], [-0.37797629656635445, 0.01400369249500033]]",density,black,,,D004,visual,5,[],"['1', '2', '3', '4']",1,2023.2.3,harveyvisual,2.1,[],8,0.75,
0,pause,0.4,None,None,None,0,109,109,109,,,,,,,,,,,,,D004,visual,5,[],"['1', '2', '3', '4']",1,2023.2.3,harveyvisual,2.1,[],8,0.75,
20,dot,0.3,['dot'],['density'],black,0,110,110,110,,,40.900222063064575,40.61440920829773,40.91424012184143,dot,"[0.1, 0.06, 0.1, 0.06, 0.06, 0.1, 0.08, 0.06, 0.1, 0.08, 0.08, 0.06, 0.1, 0.1, 0.08, 0.08, 0.08, 0.1, 0.06, 0.06]","[[-0.33628850640784047, -0.05989277108862179], [-0.2558081832974723, 0.1298268337218882], [-0.5537350311471658, -0.05299433056962577], [-0.10566906849367985, 0.3363161045381199], [0.5924606963547004, -0.023525354763790307], [0.17761397296767722, 0.40296234088013394], [0.03101234172418721, 0.026453232494672796], [0.01028416455666925, -0.5345236116713562], [0.3130990759134411, -0.18096632511731459], [-0.5422918152041275, -0.24711640734748894], [-0.32764721961238646, -0.38219352910285465], [-0.508707943767688, 0.21734469929048472], [0.3104420302011217, -0.4374705084786567], [-0.25625014921394834, 0.464806752601049], [-0.16222135758619805, -0.22207185286834208], [0.3654763918795022, 0.2637252760791757], [-0.20548281770372429, -0.5386350190512631], [0.5611360288661559, 0.2043885938148113], [0.10695114771500613, -0.2510289865260486], [0.29545633715642283, 0.031003572750259445]]",density,black,,,D004,visual,5,[],"['1', '2', '3', '4']",1,2023.2.3,harveyvisual,2.1,[],8,0.75,
0,pause,0.4,None,None,None,0,111,111,111,,,,,,,,,,,,,D004,visual,5,[],"['1', '2', '3', '4']",1,2023.2.3,harveyvisual,2.1,[],8,0.75,
20,dot,0.3,['dot'],['density'],black,0,112,112,112,,,41.600208044052124,41.31422805786133,41.61435604095459,dot,"[0.06, 0.08, 0.1, 0.1, 0.1, 0.08, 0.1, 0.1, 0.08, 0.1, 0.06, 0.1, 0.08, 0.08, 0.1, 0.1, 0.1, 0.06, 0.1, 0.08]","[[0.2405227753645507, -0.06553271155110124], [-0.2215820785309085, 0.3632134387727076], [0.4465584794591041, -0.2990291097333353], [0.21682724198336556, 0.31166124508379955], [-0.098605956791332, -0.2527753015675207], [0.25786713774217696, -0.5109043197285711], [0.504600220756097, -0.024281908984696787], [-0.15098477071476774, 0.5809317415378747], [-0.5991169367035237, -0.0003330227794984403], [-0.26737237389162105, -0.050362885547696135], [-0.3300692156397159, -0.4129612126528369], [-0.4131905515096381, 0.10311136508553276], [0.14365633310498827, 0.10557413842732533], [-0.10157736636987769, 0.15756820602913568], [-0.09412459415839958, -0.5254433958427112], [0.4291137950559768, 0.21626247854242525], [-0.5317053404680956, -0.22430338505559266], [-0.48568393335824844, 0.31753208232359575], [-0.008569878024772493, 0.4070717644522426], [0.400517187907644, 0.42451262394477174]]",density,black,,,D004,visual,5,[],"['1', '2', '3', '4']",1,2023.2.3,harveyvisual,2.1,[],8,0.75,
0,pause,0.4,None,None,None,0,113,113,113,,,,,,,,,,,,,D004,visual,5,[],"['1', '2', '3', '4']",1,2023.2.3,harveyvisual,2.1,[],8,0.75,
20,dot,0.3,['dot'],['density'],black,0,114,114,114,,,42.300228118896484,42.0143461227417,42.31426119804382,dot,"[0.06, 0.06, 0.08, 0.1, 0.1, 0.1, 0.08, 0.1, 0.08, 0.1, 0.1, 0.06, 0.08, 0.08, 0.06, 0.1, 0.06, 0.06, 0.06, 0.08]","[[-0.3546823067262932, -0.3170030590447991], [0.5455738575680337, 0.17158974051908293], [0.06925269537396628, 0.16669206776881784], [0.17082806336009315, -0.15270247830754746], [0.2555049565450316, 0.20275780632010976], [-0.5819587960833527, 0.14010628964281086], [-0.0996606964582265, -0.01854067182731478], [-0.3127325275605817, 0.03990447683844822], [0.1519650727183518, 0.5627846069238192], [-0.13762298476183882, -0.23044458492499192], [0.010777690121611117, -0.5814403374133889], [0.5963343527745083, -0.05846651397800638], [-0.06781860877978307, 0.4400989274990642], [0.42805348868730475, 0.4034161776892773], [-0.5218487360402054, -0.22274029516577437], [0.2414082967751887, -0.4493794944113673], [-0.2522207445330579, 0.49121301734894984], [0.3837942751644001, -0.17867412434714408], [-0.41461696081138066, 0.296340706880387], [0.38687779529320865, 0.05443825455327328]]",density,black,,,D004,visual,5,[],"['1', '2', '3', '4']",1,2023.2.3,harveyvisual,2.1,[],8,0.75,
0,pause,0.4,None,None,None,0,115,115,115,,,,,,,,,,,,,D004,visual,5,[],"['1', '2', '3', '4']",1,2023.2.3,harveyvisual,2.1,[],8,0.75,
20,dot,0.3,['dot'],['density'],black,0,116,116,116,,,43.00021815299988,42.7142231464386,43.01420021057129,dot,"[0.06, 0.08, 0.08, 0.08, 0.1, 0.06, 0.06, 0.08, 0.06, 0.08, 0.1, 0.1, 0.1, 0.08, 0.1, 0.08, 0.06, 0.06, 0.1, 0.06]","[[-0.4564062915854523, -0.15393076604647302], [-0.012001451124240892, -0.1341049709401036], [-0.540519892488534, 0.16338437759761787], [0.5553406248282885, -0.11349898002842107], [0.17453753952347528, -0.01158589744781946], [0.25875879884599406, 0.26224868381228517], [-0.38564525406172667, 0.3427951025019045], [0.04157445400821069, -0.40195262586979885], [-0.13855373527121112, 0.5355157677344474], [0.4743388113017263, 0.21945239591675164], [0.4365948918162684, -0.4037952195976353], [-0.08580132264181728, 0.17545764265830877], [-0.1623486068712413, -0.3147377305069889], [-0.16286159031055686, -0.5412552736360374], [0.28254629736342174, -0.2391387072527288], [0.2128900847063886, 0.4699883645539996], [-0.41431041026955207, -0.3819038843232737], [0.15795541498525012, -0.5764858226641236], [-0.3643212744807345, 0.024415504594008486], [0.36562453489954994, -0.003626105086769693]]",density,black,,,D004,visual,5,[],"['1', '2', '3', '4']",1,2023.2.3,harveyvisual,2.1,[],8,0.75,
0,pause,0.4,None,None,None,0,117,117,117,,,,,,,,,,,,,D004,visual,5,[],"['1', '2', '3', '4']",1,2023.2.3,harveyvisual,2.1,[],8,0.75,
20,dot,0.3,['dot'],['density'],black,0,118,118,118,,,43.70019602775574,43.414199113845825,43.71418619155884,dot,"[0.06, 0.06, 0.08, 0.1, 0.06, 0.08, 0.06, 0.06, 0.08, 0.1, 0.06, 0.1, 0.1, 0.06, 0.08, 0.08, 0.08, 0.06, 0.06, 0.1]","[[-0.06883131028016609, -0.4406975286914615], [-0.20247054768105077, 0.19529146981109546], [0.2982853731552152, 0.5218065703015659], [-0.5994410541158429, -0.08358914022484205], [-0.28445371255426105, -0.3766317970218914], [-0.20803971040854757, 0.5465447322898653], [0.5518273499493357, 0.08187970232207425], [0.06094980874880296, -0.04844907136792742], [0.435266236257554, 0.32645383568330155], [0.581899669606016, -0.16283846023673146], [-0.5186036706797789, 0.2821356460620273], [-0.32086028728102844, 0.38657733843806064], [0.1730811294944431, 0.34553311222656735], [-0.4851442026397766, -0.34396904432076547], [0.1949558153171873, -0.2867006190584871], [-0.1135023191614295, -0.23838081131822908], [0.14361294685236015, 0.1405403995066804], [0.35761702196142975, -0.0467524828968775], [-0.2366352427690686, -0.03493415942082456], [0.380909547872455, -0.3324493938844421]]",density,black,,,D004,visual,5,[],"['1', '2', '3', '4']",1,2023.2.3,harveyvisual,2.1,[],8,0.75,
0,pause,0.4,None,None,None,0,119,119,119,,,,,,,,,,,,,D004,visual,5,[],"['1', '2', '3', '4']",1,2023.2.3,harveyvisual,2.1,[],8,0.75,
20,dot,0.3,['dot'],['density'],black,0,120,120,120,,,44.400214195251465,44.11416220664978,44.41414403915405,dot,"[0.08, 0.1, 0.06, 0.08, 0.1, 0.06, 0.06, 0.1, 0.1, 0.08, 0.1, 0.06, 0.08, 0.08, 0.08, 0.06, 0.08, 0.06, 0.1, 0.06]","[[0.5535829074489756, 0.2322323176547125], [0.1355797972499453, -0.20353825484187715], [-0.5009178575477208, -0.008754849590142333], [0.1526545754203188, 0.19275994346469194], [-0.45062643353378795, 0.3447268814254009], [0.4651436205635292, -0.2574592100334102], [-0.042745769592759, 0.408547869881718], [-0.2350175139509158, -0.35167662813367895], [0.1522169895995985, -0.5572818648300101], [-0.2306755040039083, 0.27968226891270853], [-0.2504894787308771, -0.01725709357070815], [0.2176746235817043, 0.5511647080115762], [-0.06272129366479817, -0.15606014467214246], [-0.0261944068610932, -0.42424394514009106], [-0.46325642424451646, -0.23558158993422632], [0.5864723470816263, -0.023718613024795526], [0.22995920705675754, -0.022031069093269462], [0.36083341295806015, 0.34159159411558615], [-0.3084586726910575, 0.5175634722098187], [-0.09050806064743933, 0.5927102991528287]]",density,black,,,D004,visual,5,[],"['1', '2', '3', '4']",1,2023.2.3,harveyvisual,2.1,[],8,0.75,
0,pause,0.4,None,None,None,0,121,121,121,,,,,,,,,,,,,D004,visual,5,[],"['1', '2', '3', '4']",1,2023.2.3,harveyvisual,2.1,[],8,0.75,
20,dot,0.3,['dot'],['density'],white,0,122,122,122,,,45.100218057632446,44.81418204307556,45.11412501335144,dot,"[0.08, 0.08, 0.06, 0.06, 0.06, 0.08, 0.06, 0.1, 0.08, 0.1, 0.08, 0.06, 0.08, 0.06, 0.06, 0.06, 0.1, 0.06, 0.08, 0.1]","[[0.3989648119560468, -0.09236503349222103], [-0.4286656621189462, -0.3018650221277378], [-0.10604636065782053, 0.11525265790549155], [-0.4540093282678207, 0.02431161666102949], [0.332002218038304, 0.12328298732195353], [-0.26517113245213686, 0.5177848334826811], [0.29889153898412824, 0.3919519419740709], [-0.059653235513001834, -0.30505510342995273], [-0.24395467836204981, -0.04105252918578306], [-0.5140887985835835, 0.23745492927410422], [-0.05687143616957502, -0.5331534679598715], [-0.28311499948929814, 0.24883053281657752], [0.4162559074553621, -0.4136677499338511], [0.5341691237543823, 0.19905477740494454], [0.06146829293849565, 0.5401661539044106], [0.10586457931605076, 0.030877831709863246], [0.058488397319816365, 0.33126639025061455], [0.1625271385104542, -0.557997280644215], [0.2452819199751768, -0.31655053268228905], [-0.23702087168142155, -0.4710713739428762]]",density,white,,,D004,visual,5,[],"['1', '2', '3', '4']",1,2023.2.3,harveyvisual,2.1,[],8,0.75,
0,pause,0.4,None,None,None,0,123,123,123,,,,,,,,,,,1,45.401183128356934,D004,visual,5,[],"['1', '2', '3', '4']",1,2023.2.3,harveyvisual,2.1,[],8,0.75,
20,dot,0.3,['dot'],['density'],black,0,124,124,124,,,45.80020809173584,45.514159202575684,45.814144134521484,dot,"[0.1, 0.1, 0.1, 0.08, 0.06, 0.08, 0.1, 0.08, 0.08, 0.08, 0.08, 0.06, 0.1, 0.06, 0.08, 0.1, 0.1, 0.08, 0.06, 0.06]","[[-0.24015750094193467, 0.03458230659957018], [-0.5930622407171154, -0.11912847430372993], [-0.3811507382135484, 0.3895004901673739], [0.2469114428316257, -0.4756962742088187], [0.07952302977418557, 0.3099573099533369], [0.41328826274130337, 0.04254770267097918], [-0.2914850006606568, -0.23296683846562322], [0.0946016482444535, 0.08239141496444358], [-0.1259563833731125, 0.24220538078480391], [0.3129526129578899, 0.3242153560398605], [0.5297173169080468, -0.1554158250134137], [0.05722715780679799, -0.1336242940690981], [0.5010968636699108, 0.2921387218635301], [0.3566923169347246, -0.24112888051295123], [-0.25892033169905415, -0.5463693860953238], [-0.09021714245187451, 0.5771675027529656], [0.017913952710169934, -0.4571206929645599], [-0.516758374065607, -0.29927986118638167], [0.14289110994536747, 0.5222611241508658], [0.24535972607840784, -0.056821404977245527]]",density,black,,,D004,visual,5,[],"['1', '2', '3', '4']",1,2023.2.3,harveyvisual,2.1,[],8,0.75,
0,pause,0.4,None,None,None,0,125,125,125,,,,,,,,,,,,,D004,visual,5,[],"['1', '2', '3', '4']",1,2023.2.3,harveyvisual,2.1,[],8,0.75,
20,dot,0.3,['dot'],['density'],white,0,126,126,126,,,46.500205993652344,46.21413207054138,46.51411414146423,dot,"[0.08, 0.06, 0.08, 0.06, 0.08, 0.06, 0.1, 0.1, 0.06, 0.1, 0.1, 0.08, 0.06, 0.08, 0.08, 0.06, 0.06, 0.08, 0.06, 0.1]","[[0.50847758573284, 0.29587944231169144], [-0.5778079336815684, -0.13254973732924424], [-0.07597013599032476, 0.40780741936337483], [0.5589000464837192, -0.04928067205184705], [-0.31576612740074644, 0.05637047948807128], [0.2688785455998617, 0.5287906526445108], [-0.08455644435403065, -0.18766451776557902], [0.2595556258262003, -0.010078095778619844], [-0.3327620709784821, 0.49226318127531876], [0.10507243925488718, 0.18076664207512416], [0.04186327651152588, -0.5012211416432008], [0.49963619444582175, -0.3328462985069421], [0.23233614792948998, -0.46613827081375714], [0.12116713773929755, -0.17291891823722177], [-0.4363626477981094, -0.35500282854502474], [-0.055327907229230644, 0.06499941825265176], [0.06851708730174966, 0.5445023713990489], [-0.569841048854857, 0.08801443798749373], [-0.2964378395349521, 0.27292803072620475], [0.2940526107141398, 0.3191041900271916]]",density,white,,,D004,visual,5,[],"['1', '2', '3', '4']",1,2023.2.3,harveyvisual,2.1,[],8,0.75,
0,pause,0.4,None,None,None,0,127,127,127,,,,,,,,,,,1,46.60132908821106,D004,visual,5,[],"['1', '2', '3', '4']",1,2023.2.3,harveyvisual,2.1,[],8,0.75,
20,dot,0.3,['dot'],['density'],black,0,128,128,128,,,47.20019817352295,46.91409420967102,47.214091062545776,dot,"[0.1, 0.1, 0.06, 0.08, 0.1, 0.08, 0.08, 0.08, 0.06, 0.1, 0.08, 0.08, 0.1, 0.1, 0.08, 0.08, 0.1, 0.1, 0.1, 0.1]","[[0.5034681421886998, -0.33166482937236985], [-0.4670938759368949, -0.17152632184587496], [-0.015412423540320574, 0.5670684396026396], [0.3549793618929158, 0.07569931458704915], [0.25649569386151405, 0.36519678166938674], [0.002753826149592853, 0.11398457215167368], [0.08699210806415236, -0.49473439613377435], [-0.5986114528408664, 0.002465809457468049], [0.46904371433154746, 0.3772492719029767], [-0.41634100783446837, -0.3934353406048494], [-0.3304491579783032, 0.22591950455615983], [0.5379690760911612, -0.13091437098754058], [0.03183085227270466, 0.3653488771761684], [-0.4253358691874731, 0.39217091246733754], [-0.18966851544365287, -0.010498368533088831], [0.3295258126908196, -0.1506370558591133], [-0.19595271307694223, -0.41119269840553946], [0.5954010949196816, 0.10829708229031303], [0.12675141430232328, -0.06598468570893867], [0.09110028297337358, -0.2581211395375935]]",density,black,,,D004,visual,5,[],"['1', '2', '3', '4']",1,2023.2.3,harveyvisual,2.1,[],8,0.75,
0,pause,0.4,None,None,None,0,129,129,129,,,,,,,,,,,,,D004,visual,5,[],"['1', '2', '3', '4']",1,2023.2.3,harveyvisual,2.1,[],8,0.75,
20,dot,0.3,['dot'],['density'],black,0,130,130,130,,,47.90022301673889,47.61422109603882,47.914199113845825,dot,"[0.08, 0.1, 0.06, 0.1, 0.1, 0.08, 0.08, 0.06, 0.1, 0.1, 0.08, 0.08, 0.06, 0.08, 0.06, 0.1, 0.1, 0.1, 0.1, 0.1]","[[-0.5467308921543521, 0.019857871092667956], [-0.036590227556429045, -0.3764608556917398], [-0.27095430117538416, -0.28991769745830126], [0.43666724691924774, 0.24829431584017642], [-0.15805030422108224, 0.46733872559894807], [0.39034260790089015, -0.33257937089199285], [0.24477128347150312, 0.531435388368172], [0.38861297170103437, -0.038399047678390585], [-0.09988278727618327, -0.10183529282299625], [0.12928798825717536, 0.07388617264138497], [0.08613020635594582, 0.3576308927988324], [-0.4459038042317953, 0.21143339530055166], [0.5733115769598481, 0.04557540328907647], [0.09227720677063733, -0.12716119188263453], [-0.12984126682937275, 0.10576683145053578], [-0.4090824555799113, 0.4136041732905925], [0.298030630700003, -0.5032778645295273], [0.545984672346825, -0.18405313361975284], [-0.434894848006079, -0.1783207995203558], [0.1603646901630248, -0.3333055683487539]]",density,black,,,D004,visual,5,[],"['1', '2', '3', '4']",1,2023.2.3,harveyvisual,2.1,[],8,0.75,
0,pause,0.4,None,None,None,0,131,131,131,,,,,,,,,,,,,D004,visual,5,[],"['1', '2', '3', '4']",1,2023.2.3,harveyvisual,2.1,[],8,0.75,
20,dot,0.3,['dot'],['density'],black,0,132,132,132,,,48.600218057632446,48.31418704986572,48.614073038101196,dot,"[0.1, 0.1, 0.1, 0.06, 0.08, 0.1, 0.1, 0.08, 0.1, 0.06, 0.06, 0.1, 0.1, 0.06, 0.06, 0.08, 0.1, 0.1, 0.06, 0.06]","[[0.5823217510857873, 0.1124555146627502], [0.2238408547138181, 0.5105882667454058], [0.3145566904175634, -0.06290184701905005], [0.3168396198066118, -0.3947680718204482], [-0.05249106966985817, -0.24209016057696897], [-0.23817047947048858, 0.0016671934239288477], [-0.4277485012478247, 0.010866430223861356], [-0.2740445418803228, -0.2155245582828454], [-0.20006358064779117, 0.4346962906078379], [0.5654667779036212, -0.17495056192909697], [-0.5062090033207785, -0.2638351250070019], [0.029220681070388, -0.5802240973059464], [-0.4002969956694319, 0.4251006234053886], [-0.38420991442027946, 0.20698884570701054], [0.16908129058240806, -0.250870242619667], [0.3405884726152153, 0.3481084569602133], [0.06848275248529867, 0.020396697961582944], [0.0994521527746225, 0.273688780820426], [-0.25446834097791166, -0.4362966593891223], [-0.06595949002155621, 0.5978950962071301]]",density,black,,,D004,visual,5,[],"['1', '2', '3', '4']",1,2023.2.3,harveyvisual,2.1,[],8,0.75,
0,pause,0.4,None,None,None,0,133,133,133,,,,,,,,,,,,,D004,visual,5,[],"['1', '2', '3', '4']",1,2023.2.3,harveyvisual,2.1,[],8,0.75,
20,dot,0.3,['dot'],['density'],black,0,134,134,134,,,49.30020618438721,49.01421618461609,49.31403207778931,dot,"[0.06, 0.06, 0.08, 0.08, 0.06, 0.1, 0.1, 0.1, 0.1, 0.1, 0.06, 0.08, 0.06, 0.08, 0.06, 0.08, 0.1, 0.1, 0.08, 0.1]","[[-0.24350716450061105, 0.37990458825572715], [-0.5468099913313713, -0.20474448531490028], [-0.44546388368172035, 0.39459292459546247], [-0.00810382747902938, -0.40443068562341744], [0.44777542311354923, -0.11461059581176308], [0.004638207774402492, -0.10601854293437651], [-0.32698339953721933, -0.2262191187592164], [0.09258561472520632, 0.4549736000136524], [-0.08855533424470663, 0.13689064538443885], [0.2911744439475549, 0.1315658774089793], [0.43119966687707645, 0.3900830490508294], [-0.5150839276858663, 0.10713563548673083], [0.32458163457916844, -0.3285699846092588], [-0.33159202545394767, 0.0333188283632565], [0.5478103043193813, 0.1988669297917851], [0.06265605505399252, -0.5986473350924761], [-0.25127451755615854, -0.5435634163115269], [-0.12821957315307203, 0.5764524044451558], [-0.45361838550153344, -0.38177739010005707], [0.27413826863306456, -0.5111770178930323]]",density,black,,,D004,visual,5,[],"['1', '2', '3', '4']",1,2023.2.3,harveyvisual,2.1,[],8,0.75,
0,pause,0.4,None,None,None,0,135,135,135,,,,,,,,,,,,,D004,visual,5,[],"['1', '2', '3', '4']",1,2023.2.3,harveyvisual,2.1,[],8,0.75,
20,dot,0.3,['dot'],['density'],black,0,136,136,136,,,50.00020122528076,49.714004039764404,50.014026165008545,dot,"[0.06, 0.1, 0.1, 0.06, 0.06, 0.06, 0.08, 0.08, 0.08, 0.08, 0.1, 0.08, 0.06, 0.06, 0.08, 0.06, 0.06, 0.06, 0.1, 0.06]","[[0.5187303258738728, -0.1924193540552977], [-0.4298664157926555, -0.35852355712473377], [0.4595972926404107, 0.2482738936912537], [-0.5705901259275187, 0.030451760284705642], [-0.060967344007983204, -0.37954217292940373], [-0.4029469821483189, 0.37969835443481864], [-0.18034900543736, -0.05571224786360873], [0.5854177658875065, 0.05932534391708394], [-0.11193064815427561, 0.5412008002221956], [-0.2412859792308633, -0.305469350318767], [-0.034016634073669394, -0.18787905775611524], [0.1855810951918223, 0.34019284682540607], [-0.48169027249853597, 0.20222563925991494], [0.4553009039371553, -0.37112522529471814], [0.35674979409223584, 0.05180396669683729], [0.15910795485310658, 0.060485147174988096], [0.26657934324834986, -0.3102254574524506], [-0.0909631544680296, 0.1325912785331378], [-0.3871462054922935, -0.08910895350596293], [-0.30199324497310265, -0.5165259330299861]]",density,black,,,D004,visual,5,[],"['1', '2', '3', '4']",1,2023.2.3,harveyvisual,2.1,[],8,0.75,
0,pause,0.4,None,None,None,0,137,137,137,,,,,,,,,,,,,D004,visual,5,[],"['1', '2', '3', '4']",1,2023.2.3,harveyvisual,2.1,[],8,0.75,
20,dot,0.3,['dot'],['density'],black,0,138,138,138,,,50.70020604133606,50.414226055145264,50.71398210525513,dot,"[0.08, 0.1, 0.08, 0.06, 0.06, 0.1, 0.1, 0.1, 0.1, 0.06, 0.08, 0.08, 0.06, 0.06, 0.06, 0.08, 0.1, 0.1, 0.06, 0.06]","[[0.4074717982956476, 0.23071866241846511], [0.307546757105696, 0.035991554505435674], [-0.060477149299045685, 0.5774058680315631], [-0.5279166028253988, -0.12839426600453277], [-0.13089742583656166, -0.41409662363722377], [-0.27316361973452846, -0.07884237613402939], [0.5956388316577991, 0.06325761355592253], [0.09732277609694429, 0.4446080038803234], [0.3650301811432213, -0.3468225351867142], [0.36777086290856564, 0.4583872346156604], [-0.5315478123232912, 0.14214115952281664], [0.0898146631744936, -0.004424351157596984], [-0.43893531694655813, 0.33421297436881825], [0.00832933285444748, -0.19740408132885584], [-0.08563117979826107, 0.23149116825204274], [-0.24408395964397328, 0.5097868602962806], [-0.30181277743243196, -0.32092151638743843], [0.07255227056505165, -0.5183566547654392], [0.15859030498339977, -0.33622512600898047], [0.40099599623680626, -0.15658764986787843]]",density,black,,,D004,visual,5,[],"['1', '2', '3', '4']",1,2023.2.3,harveyvisual,2.1,[],8,0.75,
0,pause,0.4,None,None,None,0,139,139,139,,,,,,,,,,,,,D004,visual,5,[],"['1', '2', '3', '4']",1,2023.2.3,harveyvisual,2.1,[],8,0.75,
20,dot,0.3,['dot'],['density'],black,0,140,140,140,,,51.40021800994873,51.113970041275024,51.413952112197876,dot,"[0.1, 0.1, 0.1, 0.1, 0.1, 0.1, 0.06, 0.08, 0.06, 0.06, 0.08, 0.06, 0.06, 0.1, 0.06, 0.1, 0.08, 0.08, 0.06, 0.08]","[[-0.3409048460817743, -0.49537827733610446], [-0.5012681059718977, 0.04539282736470818], [-0.2687159598969356, 0.13948813679965244], [0.3453613552096235, 0.2515710995094817], [-0.100828428411746, 0.38634353914057307], [0.0677605434799482, -0.1504639347594921], [-0.18305992143867744, -0.3323198005338106], [-0.373527109308347, -0.2701863154592953], [0.3643976697327985, -0.4270873084706013], [0.30744442604796585, 0.4453497725123251], [0.5830303216080471, 0.07540188331627923], [0.3021240521382982, -0.16360520410304125], [0.5242765408518774, -0.23631668421886415], [0.04594288668574109, -0.4426247052897054], [0.06448428372083825, 0.26637744262118057], [-0.5204350556432319, 0.26756909775784826], [-0.5709476647631057, -0.17571115146656408], [0.26132375128478647, 0.07407764251673654], [-0.2370755077181146, 0.530436819837105], [-0.2393080390658629, -0.10007370302423119]]",density,black,,,D004,visual,5,[],"['1', '2', '3', '4']",1,2023.2.3,harveyvisual,2.1,[],8,0.75,
0,pause,0.4,None,None,None,0,141,141,141,,,,,,,,,,,,,D004,visual,5,[],"['1', '2', '3', '4']",1,2023.2.3,harveyvisual,2.1,[],8,0.75,
20,dot,0.3,['dot'],['density'],black,0,142,142,142,,,52.10021114349365,51.813977003097534,52.11392903327942,dot,"[0.1, 0.1, 0.1, 0.06, 0.08, 0.06, 0.06, 0.1, 0.06, 0.08, 0.08, 0.1, 0.1, 0.08, 0.08, 0.08, 0.08, 0.06, 0.08, 0.06]","[[-0.5730030847829594, 0.08687638416748747], [-0.19773914129970788, -0.5203473955676065], [0.44824829915125985, 0.06225097639154986], [0.48511074333988635, 0.3302926222643406], [-0.4441898440943195, -0.30795125745167484], [0.18518669299217627, 0.14872178057697305], [-0.05984311047435775, -0.10349377310579366], [-0.15661553966406205, 0.5478117127594135], [-0.26210226096611333, -0.22385683156267994], [0.4308842316431779, -0.2783462632656393], [0.0711143774679639, -0.36869954411069517], [-0.3436399310424116, 0.06259552644072053], [-0.2529579286805611, 0.2738939763612215], [0.5665110349778198, -0.09585549116483105], [0.04937896366195693, 0.49997329980246275], [-0.5409661418578119, -0.11910671181328003], [0.3377972905422606, -0.4813863902827977], [0.0016480138060680494, 0.08575233965397866], [0.1445617893553216, -0.1379031497331925], [0.30192598683955074, 0.4962076259898779]]",density,black,,,D004,visual,5,[],"['1', '2', '3', '4']",1,2023.2.3,harveyvisual,2.1,[],8,0.75,
0,pause,0.4,None,None,None,0,143,143,143,,,,,,,,,,,,,D004,visual,5,[],"['1', '2', '3', '4']",1,2023.2.3,harveyvisual,2.1,[],8,0.75,
20,dot,0.3,['dot'],['density'],black,0,144,144,144,,,52.800213098526,52.51392221450806,52.81391406059265,dot,"[0.08, 0.1, 0.08, 0.06, 0.06, 0.08, 0.06, 0.08, 0.1, 0.06, 0.1, 0.06, 0.06, 0.1, 0.06, 0.1, 0.1, 0.1, 0.1, 0.06]","[[0.06042229739298488, -0.3674770330902942], [0.07733307509882725, 0.18985158301002247], [-0.36743263817354466, -0.46276570144235707], [0.1691160562061802, -0.19599750500927443], [0.23193519771062654, 0.4998896096832892], [-0.5461486266266304, -0.2396516754302198], [-0.28238370075602337, 0.2753565504225487], [-0.05548278585544397, -0.1781550100249017], [0.39279345596572457, 0.28981811548907244], [-0.19360896869456734, -0.3676685541848561], [-0.6028683593554985, 0.010813592466886526], [0.3707442457531044, -0.3603440382864149], [-0.05534681231234084, 0.42368022252069115], [-0.2500774971800625, 0.07984485831852539], [0.5763546498097755, 0.08926312176772111], [0.5379495041865804, -0.2294430150189701], [-0.3877788057861805, -0.10138154608921585], [0.295012277547272, -0.031488323674552066], [-0.48752945012697735, 0.18115045446522648], [0.21271491799450093, -0.559730284949634]]",density,black,,,D004,visual,5,[],"['1', '2', '3', '4']",1,2023.2.3,harveyvisual,2.1,[],8,0.75,
0,pause,0.4,None,None,None,0,145,145,145,,,,,,,,,,,,,D004,visual,5,[],"['1', '2', '3', '4']",1,2023.2.3,harveyvisual,2.1,[],8,0.75,
20,dot,0.3,['dot'],['density'],black,0,146,146,146,,,53.50022602081299,53.21389698982239,53.513880014419556,dot,"[0.08, 0.06, 0.1, 0.08, 0.06, 0.1, 0.1, 0.08, 0.1, 0.1, 0.1, 0.1, 0.06, 0.1, 0.1, 0.08, 0.06, 0.08, 0.08, 0.06]","[[0.15253685370014214, -0.3495130203315029], [0.5948609934094159, -0.10978406542632761], [0.1951704251930183, -0.03598487654436966], [-0.09336383402309367, -0.4124892451706456], [0.11105844744097748, 0.4525056606465271], [0.2598647121368498, -0.5328503866683153], [-0.6017267549277314, -0.04853007245091959], [-0.1878632520568863, -0.10243853634944666], [-0.08233575280015448, 0.26121318409223626], [-0.44870516181875636, 0.29328160488459615], [0.4355430179508065, 0.037655991547070944], [0.385854833458839, -0.2592243891191013], [-0.21900086792866996, 0.44162683062860353], [0.38929502000457816, 0.269789586019455], [-0.40756183784410177, -0.36434458755405197], [0.008618148055756114, -0.20278027807707288], [-0.42939107545552097, 0.04997242202568464], [0.1858320799411819, 0.15483943583771453], [-0.2476638070588728, 0.15965934366420598], [0.03220295683772689, -0.5898474262455234]]",density,black,,,D004,visual,5,[],"['1', '2', '3', '4']",1,2023.2.3,harveyvisual,2.1,[],8,0.75,
0,pause,0.4,None,None,None,0,147,147,147,,,,,,,,,,,,,D004,visual,5,[],"['1', '2', '3', '4']",1,2023.2.3,harveyvisual,2.1,[],8,0.75,
20,dot,0.3,['dot'],['density'],black,0,148,148,148,,,54.200210094451904,53.91388201713562,54.21386122703552,dot,"[0.08, 0.08, 0.06, 0.1, 0.08, 0.06, 0.08, 0.06, 0.06, 0.1, 0.08, 0.06, 0.06, 0.06, 0.06, 0.1, 0.06, 0.06, 0.06, 0.06]","[[-0.46947697070632144, -0.22604450590663686], [0.5650932922483788, -0.13478136889705095], [0.4031570473076128, 0.20592895200023092], [-0.25166462697976755, 0.16443231405231185], [0.2896052517447515, 0.03978038684029206], [0.044132779066242356, -0.5272379767021078], [0.022997261647414446, 0.20600180991991746], [-0.15533839845212793, 0.41203072823261344], [-0.4114141994522371, 0.2692734158962648], [-0.0962556369059332, -0.2363865109105428], [0.055083825744107084, -0.00026220961897160944], [0.22944267857685696, -0.4324603476359374], [-0.5834211257780904, -0.0038361289143585553], [0.2886800990815318, 0.3899977218842028], [0.16074514848645582, -0.2476447719988238], [-0.22076991744059266, -0.4841649187780754], [0.0697267460870471, 0.5952377176215503], [0.4322230870636846, -0.37141573964349867], [0.3826062962174085, -0.1859112238609431], [-0.37797629656635445, 0.01400369249500033]]",density,black,,,D004,visual,5,[],"['1', '2', '3', '4']",1,2023.2.3,harveyvisual,2.1,[],8,0.75,
0,pause,0.4,None,None,None,0,149,149,149,,,,,,,,,,,,,D004,visual,5,[],"['1', '2', '3', '4']",1,2023.2.3,harveyvisual,2.1,[],8,0.75,
20,dot,0.3,['dot'],['density'],black,0,150,150,150,,,54.900222063064575,54.61389517784119,54.91386008262634,dot,"[0.06, 0.06, 0.1, 0.1, 0.1, 0.06, 0.06, 0.1, 0.06, 0.06, 0.06, 0.06, 0.06, 0.06, 0.06, 0.1, 0.08, 0.08, 0.1, 0.1]","[[0.028889341338176222, 0.032400397044518914], [0.5369467868402266, -0.24409663607266097], [-0.20741982148292915, -0.29935998117439927], [-0.5553251645117145, 0.0011792331610929463], [-0.2833949158485509, -0.06271663597234889], [0.1088703108008372, 0.4392313096176843], [-0.1496835301506076, 0.3212687325092114], [0.2790571436251498, -0.37891803889378595], [0.0046113845079363, -0.4750531378669549], [0.33631762125338815, 0.1166457366617979], [-0.3450163281314845, 0.42856444982696607], [-0.25995471322303926, -0.49527396487765224], [-0.046692707169195935, 0.5711151958141798], [0.05605120226254534, -0.27644848065632766], [0.5253949700741117, 0.02809754529630315], [-0.5101433771410863, 0.19914588165246278], [0.39646897879994836, 0.3629654305915231], [-0.5387837609808523, -0.2699596562290312], [0.2407379480712445, -0.18739226258848152], [0.5400382116739292, 0.22104790797685575]]",density,black,,,D004,visual,5,[],"['1', '2', '3', '4']",1,2023.2.3,harveyvisual,2.1,[],8,0.75,
0,pause,0.4,None,None,None,0,151,151,151,,,,,,,,,,,,,D004,visual,5,[],"['1', '2', '3', '4']",1,2023.2.3,harveyvisual,2.1,[],8,0.75,
20,dot,0.3,['dot'],['density'],black,0,152,152,152,,,55.600205183029175,55.31398320198059,55.61383008956909,dot,"[0.06, 0.06, 0.06, 0.08, 0.1, 0.08, 0.1, 0.06, 0.06, 0.1, 0.08, 0.1, 0.06, 0.1, 0.1, 0.1, 0.08, 0.08, 0.08, 0.06]","[[0.26364351644293305, 0.023262862807873375], [0.3671372396225626, 0.4803863612056766], [0.4888338828576496, -0.010678270637375364], [-0.5694615882756738, -0.1433469076814544], [-0.4635423783567534, 0.05825591673136066], [0.2824556377069044, -0.49184806562276784], [-0.1962102608387249, 0.2594312035658056], [-0.031279414468527666, 0.3614543956938209], [-0.2049838386607819, -0.14224495284341876], [-0.12475288670611234, -0.5900787294981287], [-0.28763186916046674, 0.5037700036068072], [0.10108895585708055, 0.2238510462270178], [0.4051467623321722, 0.2155228833772347], [-0.01328975987618164, -0.40626818054580516], [-0.47727847899766734, 0.3388916321536108], [0.24188521191971313, -0.2417512784737087], [-0.3906782751010961, -0.40113097358181554], [0.06546937860916024, 0.5906033944175157], [0.4828173029958488, -0.3570378095744789], [0.02827744451912617, -0.10916111159008796]]",density,black,,,D004,visual,5,[],"['1', '2', '3', '4']",1,2023.2.3,harveyvisual,2.1,[],8,0.75,
0,pause,0.4,None,None,None,0,153,153,153,,,,,,,,,,,,,D004,visual,5,[],"['1', '2', '3', '4']",1,2023.2.3,harveyvisual,2.1,[],8,0.75,
20,dot,0.3,['dot'],['density'],black,0,154,154,154,,,56.30020999908447,56.013888120651245,56.31390309333801,dot,"[0.06, 0.06, 0.08, 0.06, 0.06, 0.06, 0.08, 0.06, 0.06, 0.1, 0.1, 0.1, 0.08, 0.06, 0.06, 0.1, 0.1, 0.08, 0.1, 0.06]","[[0.5332084159893277, -0.0352403638462267], [0.3190163462469333, -0.4763840613446805], [-0.4336918889173258, -0.03321706981633238], [-0.4803016028226361, 0.2428483269512442], [-0.19613313623729944, 0.3889142724640895], [0.22012494755722956, 0.22484427356942716], [0.34331057901589557, -0.10417140734220398], [-0.16807354103675276, -0.5308491707950964], [-0.1114823492468614, -0.016168837836524452], [0.032334781262365, -0.6012258560585213], [0.20991878924571927, 0.47218715653021115], [-0.36932413691674204, -0.2479510024658832], [0.43698745180148457, 0.16335350958121858], [-0.09272557711910268, -0.21442230687389047], [-0.013696694620652816, 0.596061289813386], [0.42683393612753584, 0.41955388964901347], [0.052378281764428714, -0.3867859312842294], [0.091095252895257, -0.04360478942425983], [0.170447961646515, -0.22350956211995338], [0.4559357663158138, -0.30123060175245714]]",density,black,,,D004,visual,5,[],"['1', '2', '3', '4']",1,2023.2.3,harveyvisual,2.1,[],8,0.75,
0,pause,0.4,None,None,None,0,155,155,155,,,,,,,,,,,,,D004,visual,5,[],"['1', '2', '3', '4']",1,2023.2.3,harveyvisual,2.1,[],8,0.75,
9,dot,0.3,['dot'],['density'],black,0,156,156,156,,,57.00020718574524,56.71382212638855,57.0138041973114,dot,"[0.1, 0.1, 0.1, 0.06, 0.08, 0.08, 0.06, 0.1, 0.08]","[[-0.03413633707233166, 0.539775862693792], [0.03045342777742709, 0.14881397110038386], [0.3968101769942594, 0.3516381959676015], [-0.12464897846505978, 0.27513009849494485], [0.24828272947848068, 0.13372878599656182], [0.1825630446668698, 0.5466865974155928], [-0.40057775338259505, 0.3148646888607764], [0.06988801613907401, -0.06658504348068199], [0.07277149512897427, 0.3699912437376705]]",density,black,,,D004,visual,5,[],"['1', '2', '3', '4']",1,2023.2.3,harveyvisual,2.1,[],8,0.75,
0,pause,0.4,None,None,None,0,157,157,157,,,,,,,,,,,,,D004,visual,5,[],"['1', '2', '3', '4']",1,2023.2.3,harveyvisual,2.1,[],8,0.75,
9,dot,0.3,['dot'],['density'],black,0,158,158,158,,,57.70020604133606,57.41382122039795,57.71380400657654,dot,"[0.08, 0.1, 0.1, 0.06, 0.08, 0.08, 0.08, 0.06, 0.1]","[[0.08305850914464513, -0.5442468290176591], [0.035628337695759515, -0.10623885656661826], [-0.40455734034313895, -0.4103448572564978], [-0.27695520492017833, -0.22921059622728732], [-0.0679181879583315, -0.31282249044743377], [0.15394835823740735, -0.27999833282003045], [0.36545074601266236, -0.2024769979494575], [-0.18616414474285772, -0.004612976462616847], [-0.15152437179077458, -0.5570863580044498]]",density,black,,,D004,visual,5,[],"['1', '2', '3', '4']",1,2023.2.3,harveyvisual,2.1,[],8,0.75,
0,pause,0.4,None,None,None,0,159,159,159,,,,,,,,,,,,,D004,visual,5,[],"['1', '2', '3', '4']",1,2023.2.3,harveyvisual,2.1,[],8,0.75,
9,dot,0.3,['dot'],['density'],black,0,160,160,160,,,58.400209188461304,58.11381506919861,58.41379404067993,dot,"[0.08, 0.1, 0.06, 0.08, 0.1, 0.1, 0.1, 0.1, 0.1]","[[-0.03413633707233166, 0.539775862693792], [0.03045342777742709, 0.14881397110038386], [0.3968101769942594, 0.3516381959676015], [-0.12464897846505978, 0.27513009849494485], [0.24828272947848068, 0.13372878599656182], [0.1825630446668698, 0.5466865974155928], [-0.40057775338259505, 0.3148646888607764], [0.06988801613907401, -0.06658504348068199], [0.07277149512897427, 0.3699912437376705]]",density,black,,,D004,visual,5,[],"['1', '2', '3', '4']",1,2023.2.3,harveyvisual,2.1,[],8,0.75,
0,pause,0.4,None,None,None,0,161,161,161,,,,,,,,,,,,,D004,visual,5,[],"['1', '2', '3', '4']",1,2023.2.3,harveyvisual,2.1,[],8,0.75,
9,dot,0.3,['dot'],['density'],black,0,162,162,162,,,59.100224018096924,58.813852071762085,59.113829135894775,dot,"[0.06, 0.08, 0.1, 0.08, 0.06, 0.1, 0.06, 0.06, 0.08]","[[-0.4007656520072294, -0.25517300445391483], [-0.002534053661406415, -0.03841937385778563], [0.03867088550537559, -0.37109058839216275], [0.14298263539714814, -0.19121790068267305], [-0.18592892280395246, 0.09800459324165622], [-0.17114407793371844, -0.47763389460370764], [0.20594417137152282, 0.033112046987541804], [-0.3669302527083935, -0.010624696365658668], [-0.20182203610849478, -0.19970173151634407]]",density,black,,,D004,visual,5,[],"['1', '2', '3', '4']",1,2023.2.3,harveyvisual,2.1,[],8,0.75,
0,pause,0.4,None,None,None,0,163,163,163,,,,,,,,,,,,,D004,visual,5,[],"['1', '2', '3', '4']",1,2023.2.3,harveyvisual,2.1,[],8,0.75,
9,dot,0.3,['dot'],['density'],black,0,164,164,164,,,59.80020499229431,59.513747215270996,59.81371712684631,dot,"[0.06, 0.1, 0.08, 0.1, 0.1, 0.1, 0.06, 0.1, 0.06]","[[-0.3974741157875733, -0.3691322615124248], [0.01813275331019438, -0.041305186939584786], [-0.297817964195003, 0.1404435238036691], [-0.24996212712231053, -0.10674501212047392], [-0.45607543705465475, -0.10954340680539053], [-0.5097726394514722, 0.08872958744943038], [-0.16376728557074105, -0.3354799619734228], [-0.07115584905184995, 0.17737469530672276], [-0.4529869372404742, 0.29851616761646654]]",density,black,,,D004,visual,5,[],"['1', '2', '3', '4']",1,2023.2.3,harveyvisual,2.1,[],8,0.75,
0,pause,0.4,None,None,None,0,165,165,165,,,,,,,,,,,,,D004,visual,5,[],"['1', '2', '3', '4']",1,2023.2.3,harveyvisual,2.1,[],8,0.75,
9,dot,0.3,['dot'],['density'],black,0,166,166,166,,,60.50021314620972,60.21375012397766,60.51371717453003,dot,"[0.06, 0.1, 0.08, 0.1, 0.1, 0.1, 0.06, 0.06, 0.06]","[[-0.5586095828397086, -0.08452232608263664], [-0.5120381862419278, 0.15370428824398014], [-0.08562135647518901, 0.024493186907675612], [-0.3204263364507457, 0.2397592637991136], [-0.21279117965626912, -0.18999926927512983], [-0.34615304282718484, -0.002506468551820401], [-0.32642794983948487, 0.4412976810435594], [-0.12278716272436474, 0.3390467791696382], [0.05505897535061007, 0.17426903254619158]]",density,black,,,D004,visual,5,[],"['1', '2', '3', '4']",1,2023.2.3,harveyvisual,2.1,[],8,0.75,
0,pause,0.4,None,None,None,0,167,167,167,,,,,,,,,,,,,D004,visual,5,[],"['1', '2', '3', '4']",1,2023.2.3,harveyvisual,2.1,[],8,0.75,
8,dot,0.3,['dot'],['density'],black,0,168,168,168,,,61.200206995010376,60.91371417045593,61.21368598937988,dot,"[0.1, 0.06, 0.1, 0.08, 0.06, 0.1, 0.1, 0.1]","[[-0.21605400050023119, -0.36806604112140096], [-0.4331556331222778, 0.1336594927324191], [-0.3157474098875971, -0.1371073420352747], [-0.10064365538588134, -0.10053754910436148], [0.10862445751928086, -0.04115753002163663], [-0.19663983546434133, 0.09424647547905109], [-0.5379272585723496, -0.06117038891009633], [0.023355790718173546, -0.2955553217846553]]",density,black,,,D004,visual,5,[],"['1', '2', '3', '4']",1,2023.2.3,harveyvisual,2.1,[],8,0.75,
0,pause,0.4,None,None,None,0,169,169,169,,,,,,,,,,,,,D004,visual,5,[],"['1', '2', '3', '4']",1,2023.2.3,harveyvisual,2.1,[],8,0.75,
8,dot,0.3,['dot'],['density'],black,0,170,170,170,,,61.90021109580994,61.613683223724365,61.913654088974,dot,"[0.06, 0.08, 0.08, 0.1, 0.08, 0.06, 0.08, 0.08]","[[-0.012034279999911439, 0.06556808781241986], [-0.3446774290598954, 0.11122635080299646], [0.22428040003470762, 0.1796687910302273], [-0.037221971777983635, 0.5300244249381355], [-0.1456717336157172, 0.2672263832914442], [0.040508406505222534, 0.3412803201140432], [-0.26975617824218623, 0.48628578621654683], [0.24128509790231628, 0.4122343446782376]]",density,black,,,D004,visual,5,[],"['1', '2', '3', '4']",1,2023.2.3,harveyvisual,2.1,[],8,0.75,
0,pause,0.4,None,None,None,0,171,171,171,,,,,,,,,,,,,D004,visual,5,[],"['1', '2', '3', '4']",1,2023.2.3,harveyvisual,2.1,[],8,0.75,
8,dot,0.3,['dot'],['density'],black,0,172,172,172,,,62.60020303726196,62.31365513801575,62.61365008354187,dot,"[0.1, 0.1, 0.1, 0.06, 0.08, 0.08, 0.1, 0.08]","[[-0.012034279999911439, 0.06556808781241986], [-0.3446774290598954, 0.11122635080299646], [0.22428040003470762, 0.1796687910302273], [-0.037221971777983635, 0.5300244249381355], [-0.1456717336157172, 0.2672263832914442], [0.040508406505222534, 0.3412803201140432], [-0.26975617824218623, 0.48628578621654683], [0.24128509790231628, 0.4122343446782376]]",density,black,,,D004,visual,5,[],"['1', '2', '3', '4']",1,2023.2.3,harveyvisual,2.1,[],8,0.75,
0,pause,0.4,None,None,None,0,173,173,173,,,,,,,,,,,,,D004,visual,5,[],"['1', '2', '3', '4']",1,2023.2.3,harveyvisual,2.1,[],8,0.75,
8,dot,0.3,['dot'],['density'],black,0,174,174,174,,,63.30020618438721,63.01364612579346,63.31363010406494,dot,"[0.06, 0.1, 0.08, 0.08, 0.06, 0.06, 0.06, 0.06]","[[0.4694715163891994, 0.13329625263481096], [0.14358160208090395, 0.35167434699812705], [0.41559735975202405, 0.3690190921299561], [-0.041805684447173724, 0.4315913723966695], [-0.04993254304034498, 0.2285123563850015], [0.25337459258073897, 0.16365346604105616], [0.18476510797087844, 0.5481483313560797], [0.14868800337579569, -0.10349430855878591]]",density,black,,,D004,visual,5,[],"['1', '2', '3', '4']",1,2023.2.3,harveyvisual,2.1,[],8,0.75,
0,pause,0.4,None,None,None,0,175,175,175,,,,,,,,,,,,,D004,visual,5,[],"['1', '2', '3', '4']",1,2023.2.3,harveyvisual,2.1,[],8,0.75,
8,dot,0.3,['dot'],['density'],black,0,176,176,176,,,64.00020408630371,63.71365809440613,64.01360702514648,dot,"[0.06, 0.08, 0.08, 0.06, 0.08, 0.1, 0.1, 0.06]","[[-0.3290570048964025, 0.45712517183014534], [-0.12351728740192595, 0.19722326774196852], [-0.44617383739254307, -0.0315435053038489], [0.05824565693526591, 0.08769012542188236], [-0.4904255353169048, 0.31423420558286136], [-0.32491150822629034, 0.16696319418744587], [-0.12614658653380179, 0.4043789036591275], [0.10044097339982726, 0.3130264767685494]]",density,black,,,D004,visual,5,[],"['1', '2', '3', '4']",1,2023.2.3,harveyvisual,2.1,[],8,0.75,
0,pause,0.4,None,None,None,0,177,177,177,,,,,,,,,,,,,D004,visual,5,[],"['1', '2', '3', '4']",1,2023.2.3,harveyvisual,2.1,[],8,0.75,
8,dot,0.3,['dot'],['density'],black,0,178,178,178,,,64.70022702217102,64.41360902786255,64.71359014511108,dot,"[0.08, 0.06, 0.08, 0.08, 0.1, 0.08, 0.08, 0.1]","[[-0.3869743371455666, 0.15388434217336297], [0.11424038932868294, 0.18734519769139274], [-0.06602262913525138, -0.20199883598953133], [-0.13221522482970946, 0.16661696891490863], [-0.2408224703751142, -0.03724946932993881], [-0.01219752370661542, -0.004327099574405561], [-0.20345141844285677, 0.44978546357431476], [0.2450906497331586, -0.012808503174003826]]",density,black,,,D004,visual,5,[],"['1', '2', '3', '4']",1,2023.2.3,harveyvisual,2.1,[],8,0.75,
0,pause,0.4,None,None,None,0,179,179,179,,,,,,,,,,,,,D004,visual,5,[],"['1', '2', '3', '4']",1,2023.2.3,harveyvisual,2.1,[],8,0.75,
7,dot,0.3,['dot'],['density'],black,0,180,180,180,,,65.40020203590393,65.11359810829163,65.41357421875,dot,"[0.08, 0.06, 0.08, 0.08, 0.1, 0.06, 0.1]","[[0.19245168201499255, -0.1876960705048169], [-0.3381443552002159, -0.23329338142126996], [-0.10497405195571721, -0.20200038512761503], [-0.19215049966389516, -0.01485034356210763], [-0.14804808022624072, 0.20187381879058183], [0.049390412829639754, -0.0077734514623590935], [0.08212821656350888, 0.19234027401595055]]",density,black,,,D004,visual,5,[],"['1', '2', '3', '4']",1,2023.2.3,harveyvisual,2.1,[],8,0.75,
0,pause,0.4,None,None,None,0,181,181,181,,,,,,,,,,,,,D004,visual,5,[],"['1', '2', '3', '4']",1,2023.2.3,harveyvisual,2.1,[],8,0.75,
7,dot,0.3,['dot'],['density'],black,0,182,182,182,,,66.1002151966095,65.81358218193054,66.11356806755066,dot,"[0.06, 0.08, 0.1, 0.06, 0.1, 0.08, 0.1]","[[-0.27819289690075527, 0.2483046813246476], [-0.5592260237138849, -0.07980801324287977], [-0.026637344717372308, -0.10521889364121585], [-0.16909952645659185, 0.05101222878256789], [-0.21868546305501066, -0.16482274839932262], [-0.3689572500107929, 0.03738969849335829], [-0.49227831811218986, 0.2063327632277477]]",density,black,,,D004,visual,5,[],"['1', '2', '3', '4']",1,2023.2.3,harveyvisual,2.1,[],8,0.75,
0,pause,0.4,None,None,None,0,183,183,183,,,,,,,,,,,,,D004,visual,5,[],"['1', '2', '3', '4']",1,2023.2.3,harveyvisual,2.1,[],8,0.75,
7,dot,0.3,['dot'],['density'],black,0,184,184,184,,,66.80022811889648,66.51361608505249,66.81360101699829,dot,"[0.08, 0.06, 0.08, 0.06, 0.1, 0.1, 0.08]","[[0.21536278937261513, -0.01733091677764761], [-0.08931035591216824, -0.05246349631749078], [0.21870610454298933, 0.21067491250041093], [-0.1587576617113587, 0.26068369883413384], [0.04623079518225047, 0.4568527369480977], [0.022942391481424712, 0.13939122930077608], [-0.27674911739568203, 0.09730719745121558]]",density,black,,,D004,visual,5,[],"['1', '2', '3', '4']",1,2023.2.3,harveyvisual,2.1,[],8,0.75,
0,pause,0.4,None,None,None,0,185,185,185,,,,,,,,,,,,,D004,visual,5,[],"['1', '2', '3', '4']",1,2023.2.3,harveyvisual,2.1,[],8,0.75,
7,dot,0.3,['dot'],['density'],black,0,186,186,186,,,67.50022721290588,67.2135820388794,67.51356601715088,dot,"[0.1, 0.06, 0.06, 0.1, 0.1, 0.1, 0.1]","[[0.2966712274604575, -0.2131825579980761], [-0.1186836204372937, -0.4965034514665913], [-0.01440301872015537, -0.0403072600505146], [0.1950017499803942, -0.04023412759326238], [0.279011892689379, -0.46996203863525404], [-0.05628257964606558, -0.24364929332980273], [0.11956786588335709, -0.3438640467385331]]",density,black,,,D004,visual,5,[],"['1', '2', '3', '4']",1,2023.2.3,harveyvisual,2.1,[],8,0.75,
0,pause,0.4,None,None,None,0,187,187,187,,,,,,,,,,,,,D004,visual,5,[],"['1', '2', '3', '4']",1,2023.2.3,harveyvisual,2.1,[],8,0.75,
7,dot,0.3,['dot'],['density'],black,0,188,188,188,,,68.20020413398743,67.91353011131287,68.21351313591003,dot,"[0.06, 0.06, 0.08, 0.06, 0.06, 0.06, 0.08]","[[-0.3025445156539714, -0.42280529123536587], [0.12162933753582021, -0.2851722644810181], [-0.2753205641105948, -0.038672864930592576], [-0.4202189534315163, -0.18742991959605093], [-0.15636117447925973, -0.27217203193286355], [-0.09967880665522989, -0.47242523529006747], [-0.06261398545311019, -0.08879309989794046]]",density,black,,,D004,visual,5,[],"['1', '2', '3', '4']",1,2023.2.3,harveyvisual,2.1,[],8,0.75,
0,pause,0.4,None,None,None,0,189,189,189,,,,,,,,,,,,,D004,visual,5,[],"['1', '2', '3', '4']",1,2023.2.3,harveyvisual,2.1,[],8,0.75,
7,dot,0.3,['dot'],['density'],black,0,190,190,190,,,68.90022420883179,68.61351013183594,68.91350317001343,dot,"[0.1, 0.1, 0.1, 0.06, 0.08, 0.08, 0.08]","[[0.3302081014073935, 0.19448071361351732], [-0.22286629369238187, 0.3450023392305547], [-0.11533339293480348, 0.13926201039730488], [0.12023407780451623, 0.21240672508650668], [0.2659789407074307, 0.3894086603790018], [0.026604934602130894, 0.39133200849180605], [0.212400253920387, 0.027377351413115796]]",density,black,,,D004,visual,5,[],"['1', '2', '3', '4']",1,2023.2.3,harveyvisual,2.1,[],8,0.75,
0,pause,0.4,None,None,None,0,191,191,191,,,,,,,,,,,,,D004,visual,5,[],"['1', '2', '3', '4']",1,2023.2.3,harveyvisual,2.1,[],8,0.75,
6,dot,0.3,['dot'],['density'],black,0,192,192,192,,,69.60020303726196,69.31348919868469,69.61349201202393,dot,"[0.06, 0.1, 0.06, 0.08, 0.06, 0.1]","[[0.285926512064941, -0.24481785515673876], [0.418595730147314, -0.41068201076939437], [0.08023911914447063, -0.2907744195836184], [0.5255309086764915, -0.21900298349449057], [0.21619509519697316, -0.004828458463526469], [0.21043770887025895, -0.4594541383061854]]",density,black,,,D004,visual,5,[],"['1', '2', '3', '4']",1,2023.2.3,harveyvisual,2.1,[],8,0.75,
0,pause,0.4,None,None,None,0,193,193,193,,,,,,,,,,,,,D004,visual,5,[],"['1', '2', '3', '4']",1,2023.2.3,harveyvisual,2.1,[],8,0.75,
6,dot,0.3,['dot'],['density'],black,0,194,194,194,,,70.30021619796753,70.01348304748535,70.31346821784973,dot,"[0.08, 0.08, 0.08, 0.06, 0.1, 0.1]","[[-0.3075905201299059, -0.4396409988488083], [-0.19740249700094745, -0.17714391351551703], [0.053731853964380204, -0.5240815929277938], [0.045148855841778586, -0.17580561296456876], [0.17596231810730836, -0.3386358025171148], [-0.08995737585576556, -0.36423659604885134]]",density,black,,,D004,visual,5,[],"['1', '2', '3', '4']",1,2023.2.3,harveyvisual,2.1,[],8,0.75,
0,pause,0.4,None,None,None,0,195,195,195,,,,,,,,,,,,,D004,visual,5,[],"['1', '2', '3', '4']",1,2023.2.3,harveyvisual,2.1,[],8,0.75,
6,dot,0.3,['dot'],['density'],white,0,196,196,196,,,71.0002191066742,70.7134621143341,71.01343607902527,dot,"[0.1, 0.08, 0.1, 0.1, 0.1, 0.08]","[[0.4838288853419304, 0.012393783640839304], [0.3357737587390128, 0.3939464288632381], [0.48781910936274964, 0.21484656822060386], [0.038497076365425514, 0.2266532147795764], [0.13074852606734502, 0.009493629341700475], [0.2855531954453259, 0.1811044151544938]]",density,white,,,D004,visual,5,[],"['1', '2', '3', '4']",1,2023.2.3,harveyvisual,2.1,[],8,0.75,
0,pause,0.4,None,None,None,0,197,197,197,,,,,,,,,,,,,D004,visual,5,[],"['1', '2', '3', '4']",1,2023.2.3,harveyvisual,2.1,[],8,0.75,
6,dot,0.3,['dot'],['density'],black,0,198,198,198,,,71.70024800300598,71.4134430885315,71.7134370803833,dot,"[0.06, 0.1, 0.08, 0.08, 0.1, 0.1]","[[-0.3495133471434448, -0.27378397825191725], [-0.13100446626766318, 0.13866361521721876], [-0.5155090776439144, 0.11776884681908774], [-0.4780287848267884, -0.11588239978167382], [-0.11897161770401087, -0.0933943475842369], [-0.303431097341306, -0.010759678588622423]]",density,black,1,71.60939812660217,D004,visual,5,[],"['1', '2', '3', '4']",1,2023.2.3,harveyvisual,2.1,[],8,0.75,
0,pause,0.4,None,None,None,0,199,199,199,,,,,,,,,,,,,D004,visual,5,[],"['1', '2', '3', '4']",1,2023.2.3,harveyvisual,2.1,[],8,0.75,
6,dot,0.3,['dot'],['density'],black,0,200,200,200,,,72.4002251625061,72.11347007751465,72.41340613365173,dot,"[0.06, 0.08, 0.06, 0.06, 0.08, 0.1]","[[-0.37443702985748106, 0.32648296684105377], [-0.5461381080049402, 0.20900463425646473], [-0.03667792491240075, 0.12745261621840673], [-0.13670974087354773, 0.4115775839407936], [-0.3800981804337871, 0.05314619565530939], [-0.23016292349935943, 0.18714801531232822]]",density,black,,,D004,visual,5,[],"['1', '2', '3', '4']",1,2023.2.3,harveyvisual,2.1,[],8,0.75,
0,pause,0.4,None,None,None,0,201,201,201,,,,,,,,,,,,,D004,visual,5,[],"['1', '2', '3', '4']",1,2023.2.3,harveyvisual,2.1,[],8,0.75,
6,dot,0.3,['dot'],['density'],black,0,202,202,202,,,73.10020804405212,72.81345701217651,73.11348509788513,dot,"[0.1, 0.08, 0.06, 0.1, 0.1, 0.06]","[[-0.36954580940820725, 0.05815165478813925], [-0.28534481837461456, -0.12375618373579561], [-0.26428406214372846, 0.28010711109252995], [-0.5657182147315603, -0.11096589427743007], [-0.1492704575467133, 0.06899119969773035], [-0.5584105255039638, 0.13196562846102936]]",density,black,,,D004,visual,5,[],"['1', '2', '3', '4']",1,2023.2.3,harveyvisual,2.1,[],8,0.75,
0,pause,0.4,None,None,None,0,203,203,203,,,,,,,,,,,,,D004,visual,5,[],"['1', '2', '3', '4']",1,2023.2.3,harveyvisual,2.1,[],8,0.75,
5,dot,0.3,['dot'],['density'],white,0,204,204,204,,,73.80021619796753,73.51340103149414,73.81337118148804,dot,"[0.08, 0.1, 0.06, 0.1, 0.1]","[[-0.3632963637400461, -0.33792544526642676], [-0.48189922448633543, -0.036156829306921726], [-0.2958020468624338, 0.07292024124872273], [-0.10639492237515816, -0.0008972940205680791], [-0.20818262001932955, -0.17666930306052683]]",density,white,,,D004,visual,5,[],"['1', '2', '3', '4']",1,2023.2.3,harveyvisual,2.1,[],8,0.75,
0,pause,0.4,None,None,None,0,205,205,205,,,,,,,,,,,1,73.92295813560486,D004,visual,5,[],"['1', '2', '3', '4']",1,2023.2.3,harveyvisual,2.1,[],8,0.75,
5,dot,0.3,['dot'],['density'],black,0,206,206,206,,,74.50020503997803,74.21337509155273,74.5133650302887,dot,"[0.1, 0.1, 0.08, 0.06, 0.1]","[[-0.08538919239777085, -0.3767281323802813], [0.14382612128503536, -0.4947333592336123], [0.2503732289573559, -0.06783159190520484], [0.07777572498152553, -0.21879460077906046], [0.26544561712664855, -0.2975172507008621]]",density,black,,,D004,visual,5,[],"['1', '2', '3', '4']",1,2023.2.3,harveyvisual,2.1,[],8,0.75,
0,pause,0.4,None,None,None,0,207,207,207,,,,,,,,,,,,,D004,visual,5,[],"['1', '2', '3', '4']",1,2023.2.3,harveyvisual,2.1,[],8,0.75,
5,dot,0.3,['dot'],['density'],black,0,208,208,208,,,75.20022320747375,74.91339302062988,75.21334218978882,dot,"[0.06, 0.06, 0.06, 0.1, 0.1]","[[0.2075830250205083, 0.5448960418430373], [0.010600229768786232, 0.45420498888786176], [-0.10187712889758427, 0.28364076042242115], [0.1691377395635631, 0.293820614486451], [-0.2596336492265815, 0.40815120909286945]]",density,black,,,D004,visual,5,[],"['1', '2', '3', '4']",1,2023.2.3,harveyvisual,2.1,[],8,0.75,
0,pause,0.4,None,None,None,0,209,209,209,,,,,,,,,,,,,D004,visual,5,[],"['1', '2', '3', '4']",1,2023.2.3,harveyvisual,2.1,[],8,0.75,
5,dot,0.3,['dot'],['density'],black,0,210,210,210,,,75.90020704269409,75.61340808868408,75.91341400146484,dot,"[0.08, 0.08, 0.1, 0.06, 0.1]","[[-0.07969108163070573, 0.258241044050758], [-0.3301768112222262, 0.22562982972330062], [-0.16453040906828167, -0.1622271318141552], [-0.21753854086321037, 0.04365873274764029], [0.030347216865940038, 0.07834852794011457]]",density,black,,,D004,visual,5,[],"['1', '2', '3', '4']",1,2023.2.3,harveyvisual,2.1,[],8,0.75,
0,pause,0.4,None,None,None,0,211,211,211,,,,,,,,,,,,,D004,visual,5,[],"['1', '2', '3', '4']",1,2023.2.3,harveyvisual,2.1,[],8,0.75,
5,dot,0.3,['dot'],['density'],black,0,212,212,212,,,76.60020899772644,76.31330513954163,76.61332607269287,dot,"[0.08, 0.1, 0.06, 0.1, 0.1]","[[-0.20882687658313398, 0.05979685123170853], [0.07709165915785691, 0.33819008637117026], [0.02323578322535992, 0.12175330968231063], [0.02522363087913582, -0.08718927316059993], [-0.12152044988768049, 0.28453648995279207]]",density,black,,,D004,visual,5,[],"['1', '2', '3', '4']",1,2023.2.3,harveyvisual,2.1,[],8,0.75,
0,pause,0.4,None,None,None,0,213,213,213,,,,,,,,,,,,,D004,visual,5,[],"['1', '2', '3', '4']",1,2023.2.3,harveyvisual,2.1,[],8,0.75,
5,dot,0.3,['dot'],['density'],black,0,214,214,214,,,77.30020117759705,77.01332020759583,77.31348013877869,dot,"[0.1, 0.08, 0.06, 0.1, 0.1]","[[-0.4702494158317004, 0.19352793081356498], [-0.36864189631283095, -0.2113573127283173], [-0.3573601989406874, -0.007363185939446715], [-0.15559938224235453, -0.02548680069503583], [-0.25069196230576396, 0.1747846118010945]]",density,black,,,D004,visual,5,[],"['1', '2', '3', '4']",1,2023.2.3,harveyvisual,2.1,[],8,0.75,
0,pause,0.4,None,None,None,0,215,215,215,,,,,,,,,,,,,D004,visual,5,[],"['1', '2', '3', '4']",1,2023.2.3,harveyvisual,2.1,[],8,0.75,
4,dot,0.3,['dot'],['density'],white,0,216,216,216,,,78.00021815299988,77.71349501609802,78.0132851600647,dot,"[0.08, 0.08, 0.1, 0.1]","[[-0.5133923796685119, -0.13567638448558317], [-0.3102378593599109, -0.17790160316510653], [-0.5338837235738882, 0.07316730980410076], [-0.255286731521037, 0.022123457211080083]]",density,white,,,D004,visual,5,[],"['1', '2', '3', '4']",1,2023.2.3,harveyvisual,2.1,[],8,0.75,
0,pause,0.4,None,None,None,0,217,217,217,,,,,,,,,,,1,78.22827315330505,D004,visual,5,[],"['1', '2', '3', '4']",1,2023.2.3,harveyvisual,2.1,[],8,0.75,
4,dot,0.3,['dot'],['density'],black,0,218,218,218,,,78.7002170085907,78.41328120231628,78.71348714828491,dot,"[0.06, 0.1, 0.1, 0.08]","[[0.06081986304483943, 0.35358512719402324], [0.4232304195196481, 0.14579533924648716], [0.12419639750553536, 0.133833625718984], [0.26609561976711055, 0.2970795792082364]]",density,black,,,D004,visual,5,[],"['1', '2', '3', '4']",1,2023.2.3,harveyvisual,2.1,[],8,0.75,
0,pause,0.4,None,None,None,0,219,219,219,,,,,,,,,,,,,D004,visual,5,[],"['1', '2', '3', '4']",1,2023.2.3,harveyvisual,2.1,[],8,0.75,
4,dot,0.3,['dot'],['density'],black,0,220,220,220,,,79.40020608901978,79.11348605155945,79.41323900222778,dot,"[0.1, 0.08, 0.1, 0.08]","[[0.2541297109701026, -0.03410267595110144], [0.396116024817599, -0.19002287009394117], [0.4303711222235913, 0.2602585224666286], [0.4446461975978109, 0.027516111316963392]]",density,black,,,D004,visual,5,[],"['1', '2', '3', '4']",1,2023.2.3,harveyvisual,2.1,[],8,0.75,
0,pause,0.4,None,None,None,0,221,221,221,,,,,,,,,,,,,D004,visual,5,[],"['1', '2', '3', '4']",1,2023.2.3,harveyvisual,2.1,[],8,0.75,
4,dot,0.3,['dot'],['density'],black,0,222,222,222,,,80.10020709037781,79.81321001052856,80.11322522163391,dot,"[0.1, 0.1, 0.1, 0.1]","[[0.1665887267295909, 0.08389582001604734], [0.4584359263982055, 0.26405512465689546], [0.4157764543415929, 0.03513878013061779], [0.2392225064082761, 0.29777239984320175]]",density,black,,,D004,visual,5,[],"['1', '2', '3', '4']",1,2023.2.3,harveyvisual,2.1,[],8,0.75,
0,pause,0.4,None,None,None,0,223,223,223,,,,,,,,,,,,,D004,visual,5,[],"['1', '2', '3', '4']",1,2023.2.3,harveyvisual,2.1,[],8,0.75,
4,dot,0.3,['dot'],['density'],black,0,224,224,224,,,80.80022406578064,80.5131950378418,80.81317615509033,dot,"[0.06, 0.1, 0.1, 0.06]","[[-0.03907102058372138, -0.1723346686752248], [0.13255167928633116, -0.03782047714335622], [0.2720101467217329, -0.23443565690461937], [0.07080951743106016, -0.35239766365090747]]",density,black,,,D004,visual,5,[],"['1', '2', '3', '4']",1,2023.2.3,harveyvisual,2.1,[],8,0.75,
0,pause,0.4,None,None,None,0,225,225,225,,,,,,,,,,,,,D004,visual,5,[],"['1', '2', '3', '4']",1,2023.2.3,harveyvisual,2.1,[],8,0.75,
4,dot,0.3,['dot'],['density'],black,0,226,226,226,,,81.50021719932556,81.21317505836487,81.513179063797,dot,"[0.08, 0.06, 0.1, 0.06]","[[-0.3130108772186628, 0.4658633188731559], [0.06875292536802097, 0.3619778545149697], [-0.12928423743784842, 0.28835211797578114], [-0.08764786508193922, 0.5151731075523892]]",density,black,,,D004,visual,5,[],"['1', '2', '3', '4']",1,2023.2.3,harveyvisual,2.1,[],8,0.75,
0,pause,0.4,None,None,None,0,227,227,227,,,,,,,,,,,,,D004,visual,5,[],"['1', '2', '3', '4']",1,2023.2.3,harveyvisual,2.1,[],8,0.75,
3,dot,0.3,['dot'],['density'],black,0,228,228,228,,,82.20022916793823,81.91316199302673,82.21314311027527,dot,"[0.08, 0.08, 0.1]","[[-0.05604225559701161, -0.5082314702914299], [0.10137377066920354, -0.3837858820064252], [-0.12802807887251882, -0.3142638921214105]]",density,black,,,D004,visual,5,[],"['1', '2', '3', '4']",1,2023.2.3,harveyvisual,2.1,[],8,0.75,
0,pause,0.4,None,None,None,0,229,229,229,,,,,,,,,,,,,D004,visual,5,[],"['1', '2', '3', '4']",1,2023.2.3,harveyvisual,2.1,[],8,0.75,
3,dot,0.3,['dot'],['density'],black,0,230,230,230,,,82.9002091884613,82.61315107345581,82.91315507888794,dot,"[0.1, 0.08, 0.08]","[[0.06695044750400271, -0.4036822973150869], [0.2898428615912539, -0.43752325319744867], [0.2484486434572057, -0.2241911098289173]]",density,black,,,D004,visual,5,[],"['1', '2', '3', '4']",1,2023.2.3,harveyvisual,2.1,[],8,0.75,
0,pause,0.4,None,None,None,0,231,231,231,,,,,,,,,,,,,D004,visual,5,[],"['1', '2', '3', '4']",1,2023.2.3,harveyvisual,2.1,[],8,0.75,
3,dot,0.3,['dot'],['density'],black,0,232,232,232,,,83.60022616386414,83.31315517425537,83.61312103271484,dot,"[0.1, 0.06, 0.1]","[[-0.36641147837046456, 0.28339849123565264], [-0.19108570342652328, 0.4628134959899303], [-0.16564092668537764, 0.24926372681875647]]",density,black,,,D004,visual,5,[],"['1', '2', '3', '4']",1,2023.2.3,harveyvisual,2.1,[],8,0.75,
0,pause,0.4,None,None,None,0,233,233,233,,,,,,,,,,,,,D004,visual,5,[],"['1', '2', '3', '4']",1,2023.2.3,harveyvisual,2.1,[],8,0.75,
3,dot,0.3,['dot'],['density'],black,0,234,234,234,,,84.30021810531616,84.01309514045715,84.31309509277344,dot,"[0.08, 0.1, 0.06]","[[0.4995185571857965, 0.14229679706320136], [0.2944600495073675, 0.23335097983198633], [0.330752226915583, 0.0299241169750933]]",density,black,,,D004,visual,5,[],"['1', '2', '3', '4']",1,2023.2.3,harveyvisual,2.1,[],8,0.75,
0,pause,0.4,None,None,None,0,235,235,235,,,,,,,,,,,,,D004,visual,5,[],"['1', '2', '3', '4']",1,2023.2.3,harveyvisual,2.1,[],8,0.75,
3,dot,0.3,['dot'],['density'],black,0,236,236,236,,,85.00022411346436,84.71308612823486,85.01307916641235,dot,"[0.08, 0.08, 0.08]","[[-0.32034981165049564, 0.18083778238314796], [-0.3344619052850136, -0.04022521570367012], [-0.13485517643248812, 0.10330846540140716]]",density,black,,,D004,visual,5,[],"['1', '2', '3', '4']",1,2023.2.3,harveyvisual,2.1,[],8,0.75,
0,pause,0.4,None,None,None,0,237,237,237,,,,,,,,,,,,,D004,visual,5,[],"['1', '2', '3', '4']",1,2023.2.3,harveyvisual,2.1,[],8,0.75,
3,dot,0.3,['dot'],['density'],black,0,238,238,238,,,85.70021414756775,85.4130802154541,85.71308612823486,dot,"[0.06, 0.08, 0.1]","[[-0.5649268285189266, -0.02945458741690218], [-0.36332336008090005, 0.05160617148840915], [-0.5004673786076542, 0.20230308468415367]]",density,black,,,D004,visual,5,[],"['1', '2', '3', '4']",1,2023.2.3,harveyvisual,2.1,[],8,0.75,
0,pause,0.4,None,None,None,0,239,239,239,,,,,,,,,,,,,D004,visual,5,[],"['1', '2', '3', '4']",1,2023.2.3,harveyvisual,2.1,[],8,0.75,
2,dot,0.3,['dot'],['density'],black,0,240,240,240,,,86.40021204948425,86.1130530834198,86.41304206848145,dot,"[0.06, 0.08]","[[0.24265818653156754, -0.3775895252336694], [0.4224299169789366, -0.289759305909148]]",density,black,,,D004,visual,5,[],"['1', '2', '3', '4']",1,2023.2.3,harveyvisual,2.1,[],8,0.75,
0,pause,0.4,None,None,None,0,241,241,241,,,,,,,,,,,,,D004,visual,5,[],"['1', '2', '3', '4']",1,2023.2.3,harveyvisual,2.1,[],8,0.75,
2,dot,0.3,['dot'],['density'],black,0,242,242,242,,,87.10020899772644,86.81304216384888,87.11301612854004,dot,"[0.08, 0.1]","[[0.5159928458027473, 0.13749655768121952], [0.38343727829172375, 0.28833164788761484]]",density,black,,,D004,visual,5,[],"['1', '2', '3', '4']",1,2023.2.3,harveyvisual,2.1,[],8,0.75,
0,pause,0.4,None,None,None,0,243,243,243,,,,,,,,,,,,,D004,visual,5,[],"['1', '2', '3', '4']",1,2023.2.3,harveyvisual,2.1,[],8,0.75,
2,dot,0.3,['dot'],['density'],black,0,244,244,244,,,87.80021905899048,87.51302313804626,87.81300520896912,dot,"[0.06, 0.08]","[[-0.09730612249650272, 0.4989075015380273], [-0.22752244688881013, 0.34485221713342457]]",density,black,,,D004,visual,5,[],"['1', '2', '3', '4']",1,2023.2.3,harveyvisual,2.1,[],8,0.75,
0,pause,0.4,None,None,None,0,245,245,245,,,,,,,,,,,,,D004,visual,5,[],"['1', '2', '3', '4']",1,2023.2.3,harveyvisual,2.1,[],8,0.75,
2,dot,0.3,['dot'],['density'],white,0,246,246,246,,,88.50020599365234,88.21298813819885,88.51299214363098,dot,"[0.06, 0.1]","[[-0.16440981108753766, 0.5378091218652469], [-0.08422838651173449, 0.35445914222875186]]",density,white,,,D004,visual,5,[],"['1', '2', '3', '4']",1,2023.2.3,harveyvisual,2.1,[],8,0.75,
0,pause,0.4,None,None,None,0,247,247,247,,,,,,,,,,,1,88.73160004615784,D004,visual,5,[],"['1', '2', '3', '4']",1,2023.2.3,harveyvisual,2.1,[],8,0.75,
2,dot,0.3,['dot'],['density'],black,0,248,248,248,,,89.20020818710327,88.91301012039185,89.2129590511322,dot,"[0.1, 0.06]","[[-0.22226122312079244, -0.00806926593831646], [-0.023245446524914906, -0.037240983575548024]]",density,black,,,D004,visual,5,[],"['1', '2', '3', '4']",1,2023.2.3,harveyvisual,2.1,[],8,0.75,
0,pause,0.4,None,None,None,0,249,249,249,,,,,,,,,,,,,D004,visual,5,[],"['1', '2', '3', '4']",1,2023.2.3,harveyvisual,2.1,[],8,0.75,
2,dot,0.3,['dot'],['density'],black,0,250,250,250,,,89.90022420883179,89.61296010017395,89.91295218467712,dot,"[0.08, 0.1]","[[0.510744558366804, -0.07965895932329134], [0.5183014925016622, -0.2796299572401246]]",density,black,,,D004,visual,5,[],"['1', '2', '3', '4']",1,2023.2.3,harveyvisual,2.1,[],8,0.75,
0,pause,0.4,None,None,None,0,251,251,251,,,,,,,,,,,,,D004,visual,5,[],"['1', '2', '3', '4']",1,2023.2.3,harveyvisual,2.1,[],8,0.75,
1,dot,0.3,['dot'],['density'],black,0,252,252,252,,,90.60022711753845,90.31294512748718,90.61293601989746,dot,[0.1],"[0.1771264825789444, 0.012298414170669998]",density,black,,,D004,visual,5,[],"['1', '2', '3', '4']",1,2023.2.3,harveyvisual,2.1,[],8,0.75,
0,pause,0.4,None,None,None,0,253,253,253,,,,,,,,,,,,,D004,visual,5,[],"['1', '2', '3', '4']",1,2023.2.3,harveyvisual,2.1,[],8,0.75,
1,dot,0.3,['dot'],['density'],black,0,254,254,254,,,91.300222158432,91.01293015480042,91.31291604042053,dot,[0.06],"[0.01430498756481247, 0.36429701967127975]",density,black,,,D004,visual,5,[],"['1', '2', '3', '4']",1,2023.2.3,harveyvisual,2.1,[],8,0.75,
0,pause,0.4,None,None,None,0,255,255,255,,,,,,,,,,,,,D004,visual,5,[],"['1', '2', '3', '4']",1,2023.2.3,harveyvisual,2.1,[],8,0.75,
1,dot,0.3,['dot'],['density'],black,0,256,256,256,,,92.00022220611572,91.71293306350708,92.01292419433594,dot,[0.06],"[-0.22356924330877379, 0.41145231278245986]",density,black,,,D004,visual,5,[],"['1', '2', '3', '4']",1,2023.2.3,harveyvisual,2.1,[],8,0.75,
0,pause,0.4,None,None,None,0,257,257,257,,,,,,,,,,,,,D004,visual,5,[],"['1', '2', '3', '4']",1,2023.2.3,harveyvisual,2.1,[],8,0.75,
1,dot,0.3,['dot'],['density'],black,0,258,258,258,,,92.70021510124207,92.41289210319519,92.71287798881531,dot,[0.08],"[-0.00037526000000685745, -0.027921386894572527]",density,black,,,D004,visual,5,[],"['1', '2', '3', '4']",1,2023.2.3,harveyvisual,2.1,[],8,0.75,
0,pause,0.4,None,None,None,0,259,259,259,,,,,,,,,,,,,D004,visual,5,[],"['1', '2', '3', '4']",1,2023.2.3,harveyvisual,2.1,[],8,0.75,
1,dot,0.3,['dot'],['density'],black,0,260,260,260,,,93.40022301673889,93.11287903785706,93.41288208961487,dot,[0.06],"[-0.06064478149429028, 0.10204082006191012]",density,black,,,D004,visual,5,[],"['1', '2', '3', '4']",1,2023.2.3,harveyvisual,2.1,[],8,0.75,
0,pause,0.4,None,None,None,0,261,261,261,,,,,,,,,,,,,D004,visual,5,[],"['1', '2', '3', '4']",1,2023.2.3,harveyvisual,2.1,[],8,0.75,
1,dot,0.3,['dot'],['density'],black,0,262,262,262,,,94.10021209716797,93.81290411949158,94.11287999153137,dot,[0.08],"[0.19623115665255414, 0.1676894875529279]",density,black,,,D004,visual,5,[],"['1', '2', '3', '4']",1,2023.2.3,harveyvisual,2.1,[],8,0.75,
0,pause,0.4,None,None,None,0,263,263,263,,,,,,,,,,,,,D004,visual,5,[],"['1', '2', '3', '4']",1,2023.2.3,harveyvisual,2.1,[],8,0.75,
20,dot,0.3,['dot'],['density'],black,0,264,264,264,,,94.80021405220032,94.51327514648438,94.81290102005005,dot,"[0.08, 0.06, 0.08, 0.1, 0.1, 0.08, 0.06, 0.1, 0.06, 0.1, 0.06, 0.06, 0.1, 0.08, 0.1, 0.08, 0.1, 0.1, 0.08, 0.06]","[[-0.5363959269716432, -0.2678753811462796], [0.3798128764964358, -0.10199158203243225], [0.07788845171588998, -0.2520973966540358], [-0.440833324239159, 0.13365192864599157], [-0.21307965066341183, 0.08524222159645078], [0.06797281506487762, 0.015288886005696112], [0.6026432040759512, -0.003962402164701742], [-0.2299417461650169, 0.46322214898949055], [-0.5213502892307622, -0.06881658736834512], [0.40968211110579145, 0.23904475365512212], [-0.12916523868716, -0.383354647147071], [-0.06600763189346437, 0.27926399407095004], [0.22242313270562186, 0.28346962160648437], [0.31829712772092444, 0.5057835613808823], [0.49041632540108415, -0.2633828833044115], [-0.05242119403980616, 0.5450221562102108], [-0.4085251665459374, -0.41538502695700597], [0.34702925985684674, -0.4447312382713325], [0.035400490862512624, -0.5366685372956455], [-0.23665257645816978, -0.12277199145385187]]",density,black,,,D004,visual,5,[],"['1', '2', '3', '4']",1,2023.2.3,harveyvisual,2.1,[],8,0.75,
0,pause,0.4,None,None,None,0,265,265,265,,,,,,,,,,,,,D004,visual,5,[],"['1', '2', '3', '4']",1,2023.2.3,harveyvisual,2.1,[],8,0.75,
20,dot,0.3,['dot'],['density'],black,0,266,266,266,,,95.50022602081299,95.21326208114624,95.51280808448792,dot,"[0.08, 0.08, 0.1, 0.06, 0.1, 0.06, 0.06, 0.08, 0.06, 0.06, 0.08, 0.08, 0.06, 0.1, 0.08, 0.06, 0.1, 0.08, 0.06, 0.08]","[[-0.4406012022963478, -0.0578112889961771], [0.012004080100405323, 0.24991783199543505], [0.33959754161897415, -0.049808189490478216], [-0.3780902787203786, -0.45365894613937563], [-0.5543360077969333, -0.23584486344425454], [-0.4324761337982289, 0.38792721825139914], [0.051014386878109885, 0.4531428874536536], [0.41705536701444, -0.3632505800413698], [0.3617685116142556, 0.2359905105935204], [-0.21056055398677448, -0.5483132874553971], [0.25603164693640157, 0.4012641099953088], [0.19757463792375152, -0.21197544437445737], [0.5729801099941939, 0.15493802714321933], [-0.16904027957217554, 0.042611070934803985], [-0.4872269703613978, 0.1679991363338189], [-0.23483728277140092, -0.14183902703951023], [-0.1784254678583666, 0.35676327363932536], [0.22778259592646244, -0.5257451085311019], [0.596384312697613, -0.06394628674741716], [0.15494650200085047, 0.02562685799919384]]",density,black,,,D004,visual,5,[],"['1', '2', '3', '4']",1,2023.2.3,harveyvisual,2.1,[],8,0.75,
0,pause,0.4,None,None,None,0,267,267,267,,,,,,,,,,,,,D004,visual,5,[],"['1', '2', '3', '4']",1,2023.2.3,harveyvisual,2.1,[],8,0.75,
