num,mod,duration,shape,ll_cond,colors,.thisRepN,.thisTrialN,.thisN,.thisIndex,thisRow.t,notes,raw_global_time,t_start,t_stop,shapes,size,pos,cond,color,button,RT,participant,session,starting_run,left button (match/odd),right button (non-match/even),samples_per_block,psychopy version,expName,offset,audio,number_runs,radius,
1,dot,0.3,['dot'],['density'],black,0,0,0,0,,,2.40021014213562,2.107362985610962,2.4072840213775635,dot,[0.08],"[-0.43105706563061386, -0.18359692062194616]",density,black,,,D001,visual,4,[],"['1', '2', '3', '4']",1,2023.2.3,harveyvisual,2.1,[],8,0.75,
0,pause,0.4,None,None,None,0,1,1,1,,,,,,,,,,,,,D001,visual,4,[],"['1', '2', '3', '4']",1,2023.2.3,harveyvisual,2.1,[],8,0.75,
1,dot,0.3,['dot'],['density'],white,0,2,2,2,,,3.1002161502838135,2.8072690963745117,3.107818126678467,dot,[0.08],"[-0.00037526000000685745, -0.027921386894572527]",density,white,,,D001,visual,4,[],"['1', '2', '3', '4']",1,2023.2.3,harveyvisual,2.1,[],8,0.75,
0,pause,0.4,None,None,None,0,3,3,3,,,,,,,,,,,1,3.213275194168091,D001,visual,4,[],"['1', '2', '3', '4']",1,2023.2.3,harveyvisual,2.1,[],8,0.75,
1,dot,0.3,['dot'],['density'],black,0,4,4,4,,,3.8002171516418457,3.507735013961792,3.8078110218048096,dot,[0.06],"[-0.00037526000000685745, -0.027921386894572527]",density,black,,,D001,visual,4,[],"['1', '2', '3', '4']",1,2023.2.3,harveyvisual,2.1,[],8,0.75,
0,pause,0.4,None,None,None,0,5,5,5,,,,,,,,,,,,,D001,visual,4,[],"['1', '2', '3', '4']",1,2023.2.3,harveyvisual,2.1,[],8,0.75,
1,dot,0.3,['dot'],['density'],black,0,6,6,6,,,4.500204086303711,4.20771598815918,4.5078771114349365,dot,[0.06],"[0.00661777001411412, 0.39634766145863237]",density,black,,,D001,visual,4,[],"['1', '2', '3', '4']",1,2023.2.3,harveyvisual,2.1,[],8,0.75,
0,pause,0.4,None,None,None,0,7,7,7,,,,,,,,,,,,,D001,visual,4,[],"['1', '2', '3', '4']",1,2023.2.3,harveyvisual,2.1,[],8,0.75,
1,dot,0.3,['dot'],['density'],black,0,8,8,8,,,5.200198173522949,4.9078099727630615,5.207846164703369,dot,[0.06],"[0.03111034986587176, -0.1137363894063533]",density,black,,,D001,visual,4,[],"['1', '2', '3', '4']",1,2023.2.3,harveyvisual,2.1,[],8,0.75,
0,pause,0.4,None,None,None,0,9,9,9,,,,,,,,,,,,,D001,visual,4,[],"['1', '2', '3', '4']",1,2023.2.3,harveyvisual,2.1,[],8,0.75,
1,dot,0.3,['dot'],['density'],black,0,10,10,10,,,5.900204181671143,5.610032081604004,5.909990072250366,dot,[0.06],"[0.03111034986587176, -0.1137363894063533]",density,black,,,D001,visual,4,[],"['1', '2', '3', '4']",1,2023.2.3,harveyvisual,2.1,[],8,0.75,
0,pause,0.4,None,None,None,0,11,11,11,,,,,,,,,,,,,D001,visual,4,[],"['1', '2', '3', '4']",1,2023.2.3,harveyvisual,2.1,[],8,0.75,
2,dot,0.3,['dot'],['density'],black,0,12,12,12,,,6.600203990936279,6.310009002685547,6.609991073608398,dot,"[0.1, 0.08]","[[0.1734117655345296, 0.46860731914486053], [-0.01847566562869785, 0.52581935004857]]",density,black,,,D001,visual,4,[],"['1', '2', '3', '4']",1,2023.2.3,harveyvisual,2.1,[],8,0.75,
0,pause,0.4,None,None,None,0,13,13,13,,,,,,,,,,,,,D001,visual,4,[],"['1', '2', '3', '4']",1,2023.2.3,harveyvisual,2.1,[],8,0.75,
2,dot,0.3,['dot'],['density'],black,0,14,14,14,,,7.300197124481201,7.010004043579102,7.309957027435303,dot,"[0.06, 0.1]","[[-0.22226122312079244, -0.00806926593831646], [-0.023245446524914906, -0.037240983575548024]]",density,black,,,D001,visual,4,[],"['1', '2', '3', '4']",1,2023.2.3,harveyvisual,2.1,[],8,0.75,
0,pause,0.4,None,None,None,0,15,15,15,,,,,,,,,,,,,D001,visual,4,[],"['1', '2', '3', '4']",1,2023.2.3,harveyvisual,2.1,[],8,0.75,
2,dot,0.3,['dot'],['density'],black,0,16,16,16,,,8.000198125839233,7.709969997406006,8.009989976882935,dot,"[0.1, 0.08]","[[0.075840462383643, -0.21806900392302264], [0.2761252679018853, -0.22101292055433702]]",density,black,,,D001,visual,4,[],"['1', '2', '3', '4']",1,2023.2.3,harveyvisual,2.1,[],8,0.75,
0,pause,0.4,None,None,None,0,17,17,17,,,,,,,,,,,,,D001,visual,4,[],"['1', '2', '3', '4']",1,2023.2.3,harveyvisual,2.1,[],8,0.75,
2,dot,0.3,['dot'],['density'],black,0,18,18,18,,,8.700212955474854,8.409945964813232,8.709964036941528,dot,"[0.06, 0.1]","[[-0.15489633838679245, 0.20775043904852977], [-0.02477214636975436, 0.05468251249351026]]",density,black,,,D001,visual,4,[],"['1', '2', '3', '4']",1,2023.2.3,harveyvisual,2.1,[],8,0.75,
0,pause,0.4,None,None,None,0,19,19,19,,,,,,,,,,,,,D001,visual,4,[],"['1', '2', '3', '4']",1,2023.2.3,harveyvisual,2.1,[],8,0.75,
2,dot,0.3,['dot'],['density'],black,0,20,20,20,,,9.400200128555298,9.110080003738403,9.41007113456726,dot,"[0.1, 0.08]","[[-0.4149324818804315, 0.28007444048998836], [-0.5260390884397633, 0.11347960973083408]]",density,black,,,D001,visual,4,[],"['1', '2', '3', '4']",1,2023.2.3,harveyvisual,2.1,[],8,0.75,
0,pause,0.4,None,None,None,0,21,21,21,,,,,,,,,,,,,D001,visual,4,[],"['1', '2', '3', '4']",1,2023.2.3,harveyvisual,2.1,[],8,0.75,
2,dot,0.3,['dot'],['density'],black,0,22,22,22,,,10.100198984146118,9.810072183609009,10.109930992126465,dot,"[0.08, 0.06]","[[0.2713647219188039, -0.029235290058335472], [0.46697437826705046, 0.014145112521712659]]",density,black,,,D001,visual,4,[],"['1', '2', '3', '4']",1,2023.2.3,harveyvisual,2.1,[],8,0.75,
0,pause,0.4,None,None,None,0,23,23,23,,,,,,,,,,,,,D001,visual,4,[],"['1', '2', '3', '4']",1,2023.2.3,harveyvisual,2.1,[],8,0.75,
3,dot,0.3,['dot'],['density'],black,0,24,24,24,,,10.800218105316162,10.509933948516846,10.809895038604736,dot,"[0.06, 0.1, 0.08]","[[-0.5081709494874314, 0.1572673197774781], [-0.37009835501087307, 0.006965763417246156], [-0.5707172634768017, -0.07177594851347295]]",density,black,,,D001,visual,4,[],"['1', '2', '3', '4']",1,2023.2.3,harveyvisual,2.1,[],8,0.75,
0,pause,0.4,None,None,None,0,25,25,25,,,,,,,,,,,,,D001,visual,4,[],"['1', '2', '3', '4']",1,2023.2.3,harveyvisual,2.1,[],8,0.75,
3,dot,0.3,['dot'],['density'],black,0,26,26,26,,,11.500213146209717,11.209897994995117,11.509878158569336,dot,"[0.06, 0.06, 0.1]","[[-0.021384933427115945, -0.26055744462645497], [0.16478637362895734, -0.404980755917603], [-0.025077849445719256, -0.48190209473619267]]",density,black,,,D001,visual,4,[],"['1', '2', '3', '4']",1,2023.2.3,harveyvisual,2.1,[],8,0.75,
0,pause,0.4,None,None,None,0,27,27,27,,,,,,,,,,,,,D001,visual,4,[],"['1', '2', '3', '4']",1,2023.2.3,harveyvisual,2.1,[],8,0.75,
3,dot,0.3,['dot'],['density'],black,0,28,28,28,,,12.200201988220215,11.90987515449524,12.20987606048584,dot,"[0.1, 0.1, 0.06]","[[-0.5599668940784417, -0.1503624274944763], [-0.33715825845103314, -0.1742393560729378], [-0.447658281307079, 0.035586458508876644]]",density,black,,,D001,visual,4,[],"['1', '2', '3', '4']",1,2023.2.3,harveyvisual,2.1,[],8,0.75,
0,pause,0.4,None,None,None,0,29,29,29,,,,,,,,,,,,,D001,visual,4,[],"['1', '2', '3', '4']",1,2023.2.3,harveyvisual,2.1,[],8,0.75,
3,dot,0.3,['dot'],['density'],black,0,30,30,30,,,12.900221109390259,12.609873056411743,12.909876108169556,dot,"[0.06, 0.06, 0.06]","[[-0.31319101668702665, 0.019781348947723338], [-0.5473895760332308, 0.024991247927059115], [-0.4494119348059314, -0.1602141851013313]]",density,black,,,D001,visual,4,[],"['1', '2', '3', '4']",1,2023.2.3,harveyvisual,2.1,[],8,0.75,
0,pause,0.4,None,None,None,0,31,31,31,,,,,,,,,,,,,D001,visual,4,[],"['1', '2', '3', '4']",1,2023.2.3,harveyvisual,2.1,[],8,0.75,
3,dot,0.3,['dot'],['density'],black,0,32,32,32,,,13.600219964981079,13.309856176376343,13.609856128692627,dot,"[0.08, 0.08, 0.1]","[[0.2768253388883432, 0.03346297355107007], [0.11287187477499526, -0.09417797505773098], [0.09003622344097514, 0.12370024427926096]]",density,black,,,D001,visual,4,[],"['1', '2', '3', '4']",1,2023.2.3,harveyvisual,2.1,[],8,0.75,
0,pause,0.4,None,None,None,0,33,33,33,,,,,,,,,,,,,D001,visual,4,[],"['1', '2', '3', '4']",1,2023.2.3,harveyvisual,2.1,[],8,0.75,
3,dot,0.3,['dot'],['density'],black,0,34,34,34,,,14.300209999084473,14.010025024414062,14.309820175170898,dot,"[0.06, 0.06, 0.06]","[[0.348550694073714, -0.26372109460002424], [0.5073713069625243, -0.14206826334288786], [0.3419709386041379, 0.005891602819957491]]",density,black,,,D001,visual,4,[],"['1', '2', '3', '4']",1,2023.2.3,harveyvisual,2.1,[],8,0.75,
0,pause,0.4,None,None,None,0,35,35,35,,,,,,,,,,,,,D001,visual,4,[],"['1', '2', '3', '4']",1,2023.2.3,harveyvisual,2.1,[],8,0.75,
4,dot,0.3,['dot'],['density'],black,0,36,36,36,,,15.00021505355835,14.709824085235596,15.009814977645874,dot,"[0.06, 0.1, 0.06, 0.1]","[[-0.5133923796685119, -0.13567638448558317], [-0.3102378593599109, -0.17790160316510653], [-0.5338837235738882, 0.07316730980410076], [-0.255286731521037, 0.022123457211080083]]",density,black,,,D001,visual,4,[],"['1', '2', '3', '4']",1,2023.2.3,harveyvisual,2.1,[],8,0.75,
0,pause,0.4,None,None,None,0,37,37,37,,,,,,,,,,,,,D001,visual,4,[],"['1', '2', '3', '4']",1,2023.2.3,harveyvisual,2.1,[],8,0.75,
4,dot,0.3,['dot'],['density'],black,0,38,38,38,,,15.700195074081421,15.409792184829712,15.709772109985352,dot,"[0.1, 0.08, 0.1, 0.1]","[[0.06326389353998313, -0.3457479010937814], [-0.07512051392095552, -0.02196355495157639], [0.09410934090401228, -0.14113260442523076], [-0.13717358852421138, -0.29916566844175635]]",density,black,,,D001,visual,4,[],"['1', '2', '3', '4']",1,2023.2.3,harveyvisual,2.1,[],8,0.75,
0,pause,0.4,None,None,None,0,39,39,39,,,,,,,,,,,,,D001,visual,4,[],"['1', '2', '3', '4']",1,2023.2.3,harveyvisual,2.1,[],8,0.75,
4,dot,0.3,['dot'],['density'],black,0,40,40,40,,,16.400211095809937,16.110859155654907,16.409757137298584,dot,"[0.08, 0.06, 0.1, 0.08]","[[-0.42715721775789556, -0.3806885655784049], [-0.5104054706627589, -0.18016651458941194], [-0.409412055521987, 0.008153849732111747], [-0.2456709064377862, -0.21492281530681134]]",density,black,,,D001,visual,4,[],"['1', '2', '3', '4']",1,2023.2.3,harveyvisual,2.1,[],8,0.75,
0,pause,0.4,None,None,None,0,41,41,41,,,,,,,,,,,,,D001,visual,4,[],"['1', '2', '3', '4']",1,2023.2.3,harveyvisual,2.1,[],8,0.75,
4,dot,0.3,['dot'],['density'],black,0,42,42,42,,,17.100197076797485,16.809882164001465,17.109863996505737,dot,"[0.1, 0.06, 0.1, 0.1]","[[0.15462156444594843, 0.0379601134824338], [-0.046642739949193296, 0.06510400621286498], [0.12320708371464141, 0.2499967514902957], [-0.13279798436850673, 0.2624558601457805]]",density,black,,,D001,visual,4,[],"['1', '2', '3', '4']",1,2023.2.3,harveyvisual,2.1,[],8,0.75,
0,pause,0.4,None,None,None,0,43,43,43,,,,,,,,,,,,,D001,visual,4,[],"['1', '2', '3', '4']",1,2023.2.3,harveyvisual,2.1,[],8,0.75,
4,dot,0.3,['dot'],['density'],black,0,44,44,44,,,17.80020499229431,17.509865045547485,17.80972194671631,dot,"[0.08, 0.06, 0.1, 0.1]","[[-0.0389916918612136, -0.388752419995929], [-0.2709884701808293, -0.36873671266769453], [0.09349318837137091, -0.23801008290575854], [-0.09100040788429245, -0.11490803606521542]]",density,black,,,D001,visual,4,[],"['1', '2', '3', '4']",1,2023.2.3,harveyvisual,2.1,[],8,0.75,
0,pause,0.4,None,None,None,0,45,45,45,,,,,,,,,,,,,D001,visual,4,[],"['1', '2', '3', '4']",1,2023.2.3,harveyvisual,2.1,[],8,0.75,
4,dot,0.3,['dot'],['density'],black,0,46,46,46,,,18.500218152999878,18.2097270488739,18.509714126586914,dot,"[0.08, 0.1, 0.08, 0.06]","[[0.2593869086993074, -0.26887741013308497], [0.09674879007849839, -0.39609983087723066], [-0.011093693993988496, -0.14004324908426333], [0.28630805459639813, -0.4681830009867555]]",density,black,,,D001,visual,4,[],"['1', '2', '3', '4']",1,2023.2.3,harveyvisual,2.1,[],8,0.75,
0,pause,0.4,None,None,None,0,47,47,47,,,,,,,,,,,,,D001,visual,4,[],"['1', '2', '3', '4']",1,2023.2.3,harveyvisual,2.1,[],8,0.75,
5,dot,0.3,['dot'],['density'],black,0,48,48,48,,,19.20019817352295,18.90970015525818,19.209702014923096,dot,"[0.08, 0.08, 0.1, 0.1, 0.1]","[[0.029171133319913545, -0.11913068329317353], [-0.2981845944788078, -0.46624640290839614], [-0.1844599491613969, -0.04126455345730423], [-0.2900988597239497, -0.2493716418714862], [-0.0791391532727178, -0.3057260733699829]]",density,black,,,D001,visual,4,[],"['1', '2', '3', '4']",1,2023.2.3,harveyvisual,2.1,[],8,0.75,
0,pause,0.4,None,None,None,0,49,49,49,,,,,,,,,,,,,D001,visual,4,[],"['1', '2', '3', '4']",1,2023.2.3,harveyvisual,2.1,[],8,0.75,
5,dot,0.3,['dot'],['density'],black,0,50,50,50,,,19.90020513534546,19.609692096710205,19.90967607498169,dot,"[0.06, 0.1, 0.1, 0.08, 0.1]","[[0.14370466841446422, -0.4636309982806098], [0.2961807471193908, -0.30487684838795487], [-0.08083516471444438, -0.49823911181902014], [0.057429843216129074, -0.22123310288296744], [-0.1653320673045236, -0.3160671692815837]]",density,black,,,D001,visual,4,[],"['1', '2', '3', '4']",1,2023.2.3,harveyvisual,2.1,[],8,0.75,
0,pause,0.4,None,None,None,0,51,51,51,,,,,,,,,,,,,D001,visual,4,[],"['1', '2', '3', '4']",1,2023.2.3,harveyvisual,2.1,[],8,0.75,
5,dot,0.3,['dot'],['density'],black,0,52,52,52,,,20.60021209716797,20.309677124023438,20.609660148620605,dot,"[0.06, 0.1, 0.1, 0.1, 0.06]","[[-0.3632963637400461, -0.33792544526642676], [-0.48189922448633543, -0.036156829306921726], [-0.2958020468624338, 0.07292024124872273], [-0.10639492237515816, -0.0008972940205680791], [-0.20818262001932955, -0.17666930306052683]]",density,black,,,D001,visual,4,[],"['1', '2', '3', '4']",1,2023.2.3,harveyvisual,2.1,[],8,0.75,
0,pause,0.4,None,None,None,0,53,53,53,,,,,,,,,,,,,D001,visual,4,[],"['1', '2', '3', '4']",1,2023.2.3,harveyvisual,2.1,[],8,0.75,
5,dot,0.3,['dot'],['density'],black,0,54,54,54,,,21.30020809173584,21.00964617729187,21.30966806411743,dot,"[0.08, 0.06, 0.08, 0.1, 0.06]","[[-0.3632963637400461, -0.33792544526642676], [-0.48189922448633543, -0.036156829306921726], [-0.2958020468624338, 0.07292024124872273], [-0.10639492237515816, -0.0008972940205680791], [-0.20818262001932955, -0.17666930306052683]]",density,black,,,D001,visual,4,[],"['1', '2', '3', '4']",1,2023.2.3,harveyvisual,2.1,[],8,0.75,
0,pause,0.4,None,None,None,0,55,55,55,,,,,,,,,,,,,D001,visual,4,[],"['1', '2', '3', '4']",1,2023.2.3,harveyvisual,2.1,[],8,0.75,
5,dot,0.3,['dot'],['density'],black,0,56,56,56,,,22.000218152999878,21.709656953811646,22.009624004364014,dot,"[0.1, 0.06, 0.06, 0.08, 0.08]","[[0.029171133319913545, -0.11913068329317353], [-0.2981845944788078, -0.46624640290839614], [-0.1844599491613969, -0.04126455345730423], [-0.2900988597239497, -0.2493716418714862], [-0.0791391532727178, -0.3057260733699829]]",density,black,,,D001,visual,4,[],"['1', '2', '3', '4']",1,2023.2.3,harveyvisual,2.1,[],8,0.75,
0,pause,0.4,None,None,None,0,57,57,57,,,,,,,,,,,,,D001,visual,4,[],"['1', '2', '3', '4']",1,2023.2.3,harveyvisual,2.1,[],8,0.75,
5,dot,0.3,['dot'],['density'],black,0,58,58,58,,,22.700209140777588,22.409618139266968,22.70961308479309,dot,"[0.1, 0.06, 0.06, 0.08, 0.06]","[[-0.4004020094395207, -0.04445243948850948], [-0.17181756668418613, -0.18180129995893848], [-0.46264198425852476, 0.17889071841303528], [-0.23640824159873003, 0.08340028676903545], [-0.2824747884808712, 0.2826805534387526]]",density,black,,,D001,visual,4,[],"['1', '2', '3', '4']",1,2023.2.3,harveyvisual,2.1,[],8,0.75,
0,pause,0.4,None,None,None,0,59,59,59,,,,,,,,,,,,,D001,visual,4,[],"['1', '2', '3', '4']",1,2023.2.3,harveyvisual,2.1,[],8,0.75,
6,dot,0.3,['dot'],['density'],black,0,60,60,60,,,23.400212049484253,23.10959005355835,23.409552097320557,dot,"[0.1, 0.06, 0.08, 0.08, 0.06, 0.1]","[[-0.36954580940820725, 0.05815165478813925], [-0.28534481837461456, -0.12375618373579561], [-0.26428406214372846, 0.28010711109252995], [-0.5657182147315603, -0.11096589427743007], [-0.1492704575467133, 0.06899119969773035], [-0.5584105255039638, 0.13196562846102936]]",density,black,,,D001,visual,4,[],"['1', '2', '3', '4']",1,2023.2.3,harveyvisual,2.1,[],8,0.75,
0,pause,0.4,None,None,None,0,61,61,61,,,,,,,,,,,,,D001,visual,4,[],"['1', '2', '3', '4']",1,2023.2.3,harveyvisual,2.1,[],8,0.75,
6,dot,0.3,['dot'],['density'],black,0,62,62,62,,,24.100207090377808,23.809575080871582,24.109601974487305,dot,"[0.06, 0.1, 0.08, 0.08, 0.08, 0.1]","[[-0.36874454135919904, -0.07559312273534534], [-0.010504004432700158, -0.20559114413973084], [-0.17044584652251332, 0.17221059634863578], [-0.26251446752681207, -0.3074850979938877], [0.06633568674208327, -0.020893677029436595], [-0.1538914639536258, -0.02772778393149798]]",density,black,,,D001,visual,4,[],"['1', '2', '3', '4']",1,2023.2.3,harveyvisual,2.1,[],8,0.75,
0,pause,0.4,None,None,None,0,63,63,63,,,,,,,,,,,,,D001,visual,4,[],"['1', '2', '3', '4']",1,2023.2.3,harveyvisual,2.1,[],8,0.75,
6,dot,0.3,['dot'],['density'],black,0,64,64,64,,,24.800196170806885,24.50953698158264,24.809511184692383,dot,"[0.08, 0.06, 0.1, 0.08, 0.08, 0.08]","[[-0.31609589870198396, -0.31007670116123803], [-0.4478311917512715, 0.10082722748193511], [-0.2864981571692688, -0.05140390439239721], [-0.09675803094031296, -0.12021517342888931], [-0.4941273593136662, -0.13098935533792763], [-0.1300426850498692, 0.1160403058404222]]",density,black,,,D001,visual,4,[],"['1', '2', '3', '4']",1,2023.2.3,harveyvisual,2.1,[],8,0.75,
0,pause,0.4,None,None,None,0,65,65,65,,,,,,,,,,,,,D001,visual,4,[],"['1', '2', '3', '4']",1,2023.2.3,harveyvisual,2.1,[],8,0.75,
6,dot,0.3,['dot'],['density'],black,0,66,66,66,,,25.50022006034851,25.20959496498108,25.50959300994873,dot,"[0.08, 0.1, 0.06, 0.1, 0.1, 0.1]","[[0.3299424372810393, 0.4114780133894161], [0.051944887288218326, -0.03233758374135307], [0.4337222981537534, -0.07578498258626121], [0.10477943773033714, 0.1703675017914044], [0.3400878522727408, 0.20016066552806494], [0.2510029109880425, 0.01747244452819591]]",density,black,,,D001,visual,4,[],"['1', '2', '3', '4']",1,2023.2.3,harveyvisual,2.1,[],8,0.75,
0,pause,0.4,None,None,None,0,67,67,67,,,,,,,,,,,,,D001,visual,4,[],"['1', '2', '3', '4']",1,2023.2.3,harveyvisual,2.1,[],8,0.75,
6,dot,0.3,['dot'],['density'],black,0,68,68,68,,,26.20020604133606,25.90956401824951,26.209598064422607,dot,"[0.1, 0.08, 0.08, 0.1, 0.1, 0.1]","[[-0.36874454135919904, -0.07559312273534534], [-0.010504004432700158, -0.20559114413973084], [-0.17044584652251332, 0.17221059634863578], [-0.26251446752681207, -0.3074850979938877], [0.06633568674208327, -0.020893677029436595], [-0.1538914639536258, -0.02772778393149798]]",density,black,,,D001,visual,4,[],"['1', '2', '3', '4']",1,2023.2.3,harveyvisual,2.1,[],8,0.75,
0,pause,0.4,None,None,None,0,69,69,69,,,,,,,,,,,,,D001,visual,4,[],"['1', '2', '3', '4']",1,2023.2.3,harveyvisual,2.1,[],8,0.75,
6,dot,0.3,['dot'],['density'],white,0,70,70,70,,,26.90021514892578,26.609498977661133,26.909528970718384,dot,"[0.06, 0.1, 0.08, 0.1, 0.06, 0.1]","[[-0.36904347190091025, 0.2789229011504548], [-0.01038079434194998, 0.053649704929766846], [-0.08735338951653393, 0.578282782753283], [5.153534382930422e-05, 0.38446941554394387], [-0.22753401468201206, 0.43210907521897474], [-0.14647282530567177, 0.24517240432070728]]",density,white,,,D001,visual,4,[],"['1', '2', '3', '4']",1,2023.2.3,harveyvisual,2.1,[],8,0.75,
0,pause,0.4,None,None,None,0,71,71,71,,,,,,,,,,,1,27.143266201019287,D001,visual,4,[],"['1', '2', '3', '4']",1,2023.2.3,harveyvisual,2.1,[],8,0.75,
7,dot,0.3,['dot'],['density'],black,0,72,72,72,,,27.600227117538452,27.309535026550293,27.60946798324585,dot,"[0.1, 0.08, 0.06, 0.1, 0.08, 0.06, 0.1]","[[-0.23895008888738212, 0.05027357720500052], [0.04847041368780161, 0.3376116924566045], [0.007425979130163878, -0.07582657330311053], [-0.16109724709992976, 0.33554312732420544], [-0.17199436159673825, -0.1887904434853683], [0.1858169564317131, 0.14031933770952934], [-0.038655615351801086, 0.15226176997737048]]",density,black,,,D001,visual,4,[],"['1', '2', '3', '4']",1,2023.2.3,harveyvisual,2.1,[],8,0.75,
0,pause,0.4,None,None,None,0,73,73,73,,,,,,,,,,,,,D001,visual,4,[],"['1', '2', '3', '4']",1,2023.2.3,harveyvisual,2.1,[],8,0.75,
7,dot,0.3,['dot'],['density'],black,0,74,74,74,,,28.30020308494568,28.009461164474487,28.30943512916565,dot,"[0.1, 0.06, 0.1, 0.08, 0.1, 0.06, 0.1]","[[-0.27819289690075527, 0.2483046813246476], [-0.5592260237138849, -0.07980801324287977], [-0.026637344717372308, -0.10521889364121585], [-0.16909952645659185, 0.05101222878256789], [-0.21868546305501066, -0.16482274839932262], [-0.3689572500107929, 0.03738969849335829], [-0.49227831811218986, 0.2063327632277477]]",density,black,,,D001,visual,4,[],"['1', '2', '3', '4']",1,2023.2.3,harveyvisual,2.1,[],8,0.75,
0,pause,0.4,None,None,None,0,75,75,75,,,,,,,,,,,,,D001,visual,4,[],"['1', '2', '3', '4']",1,2023.2.3,harveyvisual,2.1,[],8,0.75,
7,dot,0.3,['dot'],['density'],white,0,76,76,76,,,29.000200986862183,28.709447145462036,29.009422063827515,dot,"[0.1, 0.08, 0.08, 0.08, 0.08, 0.1, 0.1]","[[-0.39883248072855915, 0.30823732592088265], [-0.041341486549100435, 0.2390478988097413], [-0.013495537319202725, 0.5211111720540192], [-0.2415889716500472, 0.10795059447242317], [-0.023803066389735523, 0.02076064871433158], [0.14387498046506175, 0.3548008600093999], [-0.24331877599120405, 0.46521846842164205]]",density,white,,,D001,visual,4,[],"['1', '2', '3', '4']",1,2023.2.3,harveyvisual,2.1,[],8,0.75,
0,pause,0.4,None,None,None,0,77,77,77,,,,,,,,,,,1,29.272516012191772,D001,visual,4,[],"['1', '2', '3', '4']",1,2023.2.3,harveyvisual,2.1,[],8,0.75,
7,dot,0.3,['dot'],['density'],black,0,78,78,78,,,29.70021414756775,29.409477949142456,29.709434986114502,dot,"[0.06, 0.08, 0.08, 0.1, 0.08, 0.1, 0.08]","[[0.21536278937261513, -0.01733091677764761], [-0.08931035591216824, -0.05246349631749078], [0.21870610454298933, 0.21067491250041093], [-0.1587576617113587, 0.26068369883413384], [0.04623079518225047, 0.4568527369480977], [0.022942391481424712, 0.13939122930077608], [-0.27674911739568203, 0.09730719745121558]]",density,black,,,D001,visual,4,[],"['1', '2', '3', '4']",1,2023.2.3,harveyvisual,2.1,[],8,0.75,
0,pause,0.4,None,None,None,0,79,79,79,,,,,,,,,,,,,D001,visual,4,[],"['1', '2', '3', '4']",1,2023.2.3,harveyvisual,2.1,[],8,0.75,
7,dot,0.3,['dot'],['density'],black,0,80,80,80,,,30.400211095809937,30.109429121017456,30.409419059753418,dot,"[0.08, 0.08, 0.1, 0.08, 0.08, 0.08, 0.1]","[[-0.0009033409944170771, 0.42006327366100915], [0.07504475251916, -0.022201311189229547], [-0.3616170585675141, 0.16750883091546095], [0.025412283732210435, 0.18669523424894663], [-0.17132175432412022, 0.2677160973152203], [-0.13541388111710323, 0.00927786556165188], [-0.3032959001003911, -0.13806764794565113]]",density,black,,,D001,visual,4,[],"['1', '2', '3', '4']",1,2023.2.3,harveyvisual,2.1,[],8,0.75,
0,pause,0.4,None,None,None,0,81,81,81,,,,,,,,,,,,,D001,visual,4,[],"['1', '2', '3', '4']",1,2023.2.3,harveyvisual,2.1,[],8,0.75,
7,dot,0.3,['dot'],['density'],white,0,82,82,82,,,31.100219011306763,30.809405088424683,31.109364986419678,dot,"[0.1, 0.08, 0.1, 0.08, 0.08, 0.08, 0.06]","[[0.3350011905151264, 0.09255159473130091], [-0.07424962927914175, -0.2643067362759337], [-0.0068732696698998825, 0.04948606721470151], [0.12855319879406235, -0.3381192636220083], [0.11551090787938859, 0.24000211478775196], [0.3415900712266813, -0.1269386107563701], [0.14228147320501944, -0.08533637750285226]]",density,white,,,D001,visual,4,[],"['1', '2', '3', '4']",1,2023.2.3,harveyvisual,2.1,[],8,0.75,
0,pause,0.4,None,None,None,0,83,83,83,,,,,,,,,,,1,31.14881205558777,D001,visual,4,[],"['1', '2', '3', '4']",1,2023.2.3,harveyvisual,2.1,[],8,0.75,
8,dot,0.3,['dot'],['density'],black,0,84,84,84,,,31.800207138061523,31.509406089782715,31.809391975402832,dot,"[0.06, 0.1, 0.1, 0.06, 0.1, 0.1, 0.08, 0.08]","[[0.5011924336457421, -0.024432440978935197], [0.2806328112604475, -0.04317330297599672], [0.4832514634589159, 0.31109822070486504], [0.16408111659662816, 0.42847901077729456], [0.23688927214560462, 0.23559820796421724], [0.07772697954394367, 0.06196890701796274], [0.10192126774068293, -0.18867749580812243], [-0.012619648351882298, 0.24997239668137242]]",density,black,,,D001,visual,4,[],"['1', '2', '3', '4']",1,2023.2.3,harveyvisual,2.1,[],8,0.75,
0,pause,0.4,None,None,None,0,85,85,85,,,,,,,,,,,,,D001,visual,4,[],"['1', '2', '3', '4']",1,2023.2.3,harveyvisual,2.1,[],8,0.75,
8,dot,0.3,['dot'],['density'],white,0,86,86,86,,,32.50022315979004,32.21048402786255,32.50934815406799,dot,"[0.08, 0.1, 0.06, 0.06, 0.08, 0.08, 0.08, 0.08]","[[-0.17001050475317317, -0.17367687575201368], [0.3600613666554234, 0.010096468830953859], [-0.08326222131596324, 0.04242117989324811], [0.04296950773068638, 0.29875887990525135], [0.04919814700692566, -0.23206276490508926], [0.2733682510361541, 0.19343137942482672], [0.15974695196996483, -0.02827404827190698], [-0.2919014881818027, 0.0006738684867251376]]",density,white,,,D001,visual,4,[],"['1', '2', '3', '4']",1,2023.2.3,harveyvisual,2.1,[],8,0.75,
0,pause,0.4,None,None,None,0,87,87,87,,,,,,,,,,,1,32.5620059967041,D001,visual,4,[],"['1', '2', '3', '4']",1,2023.2.3,harveyvisual,2.1,[],8,0.75,
8,dot,0.3,['dot'],['density'],black,0,88,88,88,,,33.200210094451904,32.909351110458374,33.20934200286865,dot,"[0.1, 0.06, 0.08, 0.1, 0.06, 0.1, 0.1, 0.1]","[[0.4578461037593053, -0.0425280984807614], [0.3105081462658962, -0.253400778181943], [0.5107466611240274, 0.18303335057259504], [0.05013881804369301, 0.21472050036076742], [0.11913774150617627, -0.046477809882714556], [0.3069987493408211, 0.11186211070896974], [0.10261508471656716, -0.25482825738733483], [-0.08881417545548334, 0.035709595317019026]]",density,black,,,D001,visual,4,[],"['1', '2', '3', '4']",1,2023.2.3,harveyvisual,2.1,[],8,0.75,
0,pause,0.4,None,None,None,0,89,89,89,,,,,,,,,,,,,D001,visual,4,[],"['1', '2', '3', '4']",1,2023.2.3,harveyvisual,2.1,[],8,0.75,
8,dot,0.3,['dot'],['density'],black,0,90,90,90,,,33.90022301673889,33.609490156173706,33.909494161605835,dot,"[0.06, 0.08, 0.06, 0.1, 0.06, 0.08, 0.08, 0.1]","[[0.17295790489511154, -0.46037743866749825], [0.1416591427765588, 0.05421051799673566], [0.21994266958916148, -0.13656690113679631], [0.3639906379971415, 0.0627265571221228], [0.015481321741344221, -0.13916897583717935], [0.440802488837635, -0.2883976186876931], [0.5157567705321767, -0.08800602901884749], [0.24768837887357187, 0.24424825162618136]]",density,black,,,D001,visual,4,[],"['1', '2', '3', '4']",1,2023.2.3,harveyvisual,2.1,[],8,0.75,
0,pause,0.4,None,None,None,0,91,91,91,,,,,,,,,,,,,D001,visual,4,[],"['1', '2', '3', '4']",1,2023.2.3,harveyvisual,2.1,[],8,0.75,
8,dot,0.3,['dot'],['density'],black,0,92,92,92,,,34.600221157073975,34.30946707725525,34.60931706428528,dot,"[0.06, 0.1, 0.08, 0.08, 0.1, 0.06, 0.08, 0.08]","[[-0.17382250058115215, 0.008030820220576582], [-0.5561520679887834, 0.09064024109159684], [-0.2322770524578434, -0.18818443710846813], [-0.41357291590276396, -0.2905316508268561], [-0.37423053416790164, -0.04064357687765813], [-0.014699175284411378, 0.15059198662288528], [-0.015485985535575739, -0.1348843831724925], [-0.36639977644872057, 0.228205681233079]]",density,black,,,D001,visual,4,[],"['1', '2', '3', '4']",1,2023.2.3,harveyvisual,2.1,[],8,0.75,
0,pause,0.4,None,None,None,0,93,93,93,,,,,,,,,,,,,D001,visual,4,[],"['1', '2', '3', '4']",1,2023.2.3,harveyvisual,2.1,[],8,0.75,
8,dot,0.3,['dot'],['density'],black,0,94,94,94,,,35.30021595954895,35.009451150894165,35.30926704406738,dot,"[0.08, 0.06, 0.1, 0.06, 0.1, 0.08, 0.1, 0.06]","[[-0.21605400050023119, -0.36806604112140096], [-0.4331556331222778, 0.1336594927324191], [-0.3157474098875971, -0.1371073420352747], [-0.10064365538588134, -0.10053754910436148], [0.10862445751928086, -0.04115753002163663], [-0.19663983546434133, 0.09424647547905109], [-0.5379272585723496, -0.06117038891009633], [0.023355790718173546, -0.2955553217846553]]",density,black,,,D001,visual,4,[],"['1', '2', '3', '4']",1,2023.2.3,harveyvisual,2.1,[],8,0.75,
0,pause,0.4,None,None,None,0,95,95,95,,,,,,,,,,,,,D001,visual,4,[],"['1', '2', '3', '4']",1,2023.2.3,harveyvisual,2.1,[],8,0.75,
9,dot,0.3,['dot'],['density'],black,0,96,96,96,,,36.00020503997803,35.709254026412964,36.0092830657959,dot,"[0.08, 0.1, 0.1, 0.06, 0.08, 0.1, 0.08, 0.06, 0.06]","[[0.26246064217380705, -0.20881461689055444], [-0.05738061480455322, -0.2104867327221427], [-0.15279665209492657, -0.4570696492981838], [-0.25848085101471047, 0.03539482855188907], [0.05438928923437074, -0.041842351158073866], [-0.266438460152573, -0.22510974363943476], [-0.08630847597628627, 0.16925380219028288], [0.1378984379274782, 0.16880467564350782], [0.14927440204233722, -0.41110624343475755]]",density,black,,,D001,visual,4,[],"['1', '2', '3', '4']",1,2023.2.3,harveyvisual,2.1,[],8,0.75,
0,pause,0.4,None,None,None,0,97,97,97,,,,,,,,,,,,,D001,visual,4,[],"['1', '2', '3', '4']",1,2023.2.3,harveyvisual,2.1,[],8,0.75,
9,dot,0.3,['dot'],['density'],black,0,98,98,98,,,36.70021200180054,36.40943908691406,36.70943307876587,dot,"[0.06, 0.06, 0.06, 0.08, 0.06, 0.06, 0.08, 0.08, 0.08]","[[0.27429149071172837, 0.34251676390746333], [0.46797507249945486, 0.005491811463162166], [0.21235580877939833, 0.08757146436558581], [0.046223583492975936, 0.2932249054251131], [0.07051592556679111, -0.0704922843318231], [0.30438918969270623, -0.13028831600800136], [0.11534598117609637, 0.5236829685630697], [-0.06673610159464062, 0.12515255452502297], [-0.14439101605953233, -0.1332028051536465]]",density,black,,,D001,visual,4,[],"['1', '2', '3', '4']",1,2023.2.3,harveyvisual,2.1,[],8,0.75,
0,pause,0.4,None,None,None,0,99,99,99,,,,,,,,,,,,,D001,visual,4,[],"['1', '2', '3', '4']",1,2023.2.3,harveyvisual,2.1,[],8,0.75,
9,dot,0.3,['dot'],['density'],black,0,100,100,100,,,37.4002251625061,37.10942006111145,37.40940308570862,dot,"[0.08, 0.08, 0.1, 0.1, 0.1, 0.1, 0.08, 0.06, 0.08]","[[-0.39546702852536103, 0.05887767166707298], [0.0019437857506851024, 0.07006750722115952], [0.08809400946991845, -0.15083790972035777], [-0.35358057288562594, -0.14123029179452673], [-0.18893042820243505, -0.004761820558363635], [-0.16054322822148615, -0.2701644482013472], [-0.3593088451216199, 0.2649120528395154], [-0.09346394646241396, -0.4621051997984888], [-0.5526246027455071, -0.11781718335669726]]",density,black,,,D001,visual,4,[],"['1', '2', '3', '4']",1,2023.2.3,harveyvisual,2.1,[],8,0.75,
0,pause,0.4,None,None,None,0,101,101,101,,,,,,,,,,,,,D001,visual,4,[],"['1', '2', '3', '4']",1,2023.2.3,harveyvisual,2.1,[],8,0.75,
9,dot,0.3,['dot'],['density'],black,0,102,102,102,,,38.100218057632446,37.80941414833069,38.109254121780396,dot,"[0.1, 0.06, 0.08, 0.08, 0.06, 0.06, 0.08, 0.06, 0.08]","[[0.23250081832313607, -0.03448075506690146], [0.3034476098774822, 0.1830296703973891], [-0.18904104685434053, 0.18833284185042862], [0.2553794676357457, 0.5314352583170906], [0.16363099535363254, 0.3461022642192175], [-0.0841935017478271, 0.3664174397160571], [-0.26748786402911323, -0.05736109653727262], [0.043842773669028334, 0.577246673499167], [0.02102957219118283, 0.0979254794926055]]",density,black,,,D001,visual,4,[],"['1', '2', '3', '4']",1,2023.2.3,harveyvisual,2.1,[],8,0.75,
0,pause,0.4,None,None,None,0,103,103,103,,,,,,,,,,,,,D001,visual,4,[],"['1', '2', '3', '4']",1,2023.2.3,harveyvisual,2.1,[],8,0.75,
9,dot,0.3,['dot'],['density'],black,0,104,104,104,,,38.80022096633911,38.509231090545654,38.80938506126404,dot,"[0.06, 0.08, 0.06, 0.08, 0.08, 0.08, 0.08, 0.08, 0.1]","[[0.22829877875946783, -0.39640994854570016], [0.3366371496270161, 0.05839125036393789], [-0.11436045239834208, -0.12024221759915668], [-0.02100147820737577, -0.3824026009196371], [0.08479146627654295, 0.024089629435920912], [0.16206374850784472, -0.16075841177209507], [0.38495438842944835, -0.24810596019115372], [-0.23418047716532614, 0.09565997955556291], [0.2111996426858246, 0.23215637940447356]]",density,black,,,D001,visual,4,[],"['1', '2', '3', '4']",1,2023.2.3,harveyvisual,2.1,[],8,0.75,
0,pause,0.4,None,None,None,0,105,105,105,,,,,,,,,,,,,D001,visual,4,[],"['1', '2', '3', '4']",1,2023.2.3,harveyvisual,2.1,[],8,0.75,
9,dot,0.3,['dot'],['density'],black,0,106,106,106,,,39.50020408630371,39.20937204360962,39.50916314125061,dot,"[0.1, 0.1, 0.1, 0.1, 0.1, 0.06, 0.1, 0.06, 0.08]","[[-0.5242180236495622, 0.2097960018926228], [-0.2671382220306689, 0.3003190330968159], [-0.06183693718886379, 0.22592490829479475], [-0.2001015593906042, -0.14641750634996328], [-0.09246193223873551, 0.43765994221656135], [-0.29330373087767303, 0.05285487614136386], [0.007094383220706952, 0.008748553761596398], [0.1465325421295601, 0.294910430799518], [0.04425292235957525, -0.2230758375085622]]",density,black,,,D001,visual,4,[],"['1', '2', '3', '4']",1,2023.2.3,harveyvisual,2.1,[],8,0.75,
0,pause,0.4,None,None,None,0,107,107,107,,,,,,,,,,,,,D001,visual,4,[],"['1', '2', '3', '4']",1,2023.2.3,harveyvisual,2.1,[],8,0.75,
20,dot,0.3,['dot'],['density'],black,0,108,108,108,,,40.20022511482239,39.92583107948303,40.20913910865784,dot,"[0.1, 0.06, 0.1, 0.08, 0.08, 0.1, 0.08, 0.08, 0.06, 0.06, 0.08, 0.08, 0.06, 0.1, 0.08, 0.1, 0.08, 0.06, 0.06, 0.06]","[[0.26314058435192866, -0.2800396149085601], [0.1102006658617779, 0.1915263342313408], [0.44126315438085195, 0.40455742655468385], [0.05020491906577662, -0.5848092348518512], [-0.456186075930053, -0.08753260089580689], [0.5798247303674132, 0.11004607112121553], [-0.10736640803739467, 0.5625001725783103], [0.2658124965781268, -0.5394843879445648], [-0.3207289856951961, 0.3085587687628929], [-0.5579829803747551, 0.19325874720798056], [-0.43613093815071124, -0.38922543123972114], [0.0859057446385546, -0.16880290881607624], [0.5025831267518363, -0.16340880406253802], [-0.1567834559546606, -0.22714151660271864], [0.2919867078854741, 0.04397928363593917], [0.4594377638363253, -0.3770135500793216], [-0.060491608075301295, -0.41257642179324927], [0.2338339681761603, 0.5027946689741987], [-0.26999158058087686, 0.11333194374122346], [0.025594547900305575, 0.013458401704127043]]",density,black,,,D001,visual,4,[],"['1', '2', '3', '4']",1,2023.2.3,harveyvisual,2.1,[],8,0.75,
0,pause,0.4,None,None,None,0,109,109,109,,,,,,,,,,,,,D001,visual,4,[],"['1', '2', '3', '4']",1,2023.2.3,harveyvisual,2.1,[],8,0.75,
20,dot,0.3,['dot'],['density'],black,0,110,110,110,,,40.90021514892578,40.62580704689026,40.909165143966675,dot,"[0.08, 0.08, 0.1, 0.08, 0.08, 0.06, 0.06, 0.08, 0.06, 0.1, 0.06, 0.1, 0.08, 0.08, 0.1, 0.08, 0.08, 0.08, 0.08, 0.08]","[[-0.11800973792394831, 0.140201067727574], [-0.3421456387385782, -0.009518848423526904], [-0.0032215812475809846, -0.33669472073526835], [-0.5739182996151478, -0.15099659982624802], [-0.2217491141267987, -0.25723871457030373], [0.41422964657062245, 0.3099124785913043], [0.569937109224217, 0.004794208199564831], [-0.4388586998219105, -0.3435838882917641], [0.05019705132884622, 0.5494376732579695], [0.3799278135713172, -0.18051565828440047], [-0.038538998104721056, -0.5911325983803886], [0.03740332938178936, 0.29068747138300655], [-0.240108395989807, -0.46553637832140293], [-0.44720278619969656, 0.1648278242726462], [0.11776040806618115, 0.0937938492632805], [-0.305712739068037, 0.40366376057623765], [0.02547215022797278, -0.12476272021937124], [0.3611966537789043, -0.41743667738997314], [0.3203795577471914, 0.05520810719113056], [0.2867606269133225, 0.4631651970688152]]",density,black,,,D001,visual,4,[],"['1', '2', '3', '4']",1,2023.2.3,harveyvisual,2.1,[],8,0.75,
0,pause,0.4,None,None,None,0,111,111,111,,,,,,,,,,,,,D001,visual,4,[],"['1', '2', '3', '4']",1,2023.2.3,harveyvisual,2.1,[],8,0.75,
20,dot,0.3,['dot'],['density'],white,0,112,112,112,,,41.60021901130676,41.3258421421051,41.609161138534546,dot,"[0.08, 0.06, 0.06, 0.1, 0.1, 0.06, 0.08, 0.1, 0.1, 0.06, 0.1, 0.1, 0.08, 0.06, 0.06, 0.06, 0.1, 0.1, 0.06, 0.1]","[[0.3693930909470847, 0.08580988957149849], [-0.199383631687635, 0.06106873174714422], [-0.4913155137982309, -0.06133254593169385], [0.4942747159694697, -0.15359454826831817], [0.35657723430140076, -0.4077110968969885], [0.07659913506721427, 0.11702036521277004], [-0.26516155713724704, 0.5422162192658891], [0.04968927085925856, -0.4414375001813111], [-0.018987500581442163, -0.22661703494598368], [-0.057888966150913435, 0.4869804732264835], [-0.21035002363592348, -0.16867785584251582], [-0.43590237855176006, -0.32690659480988826], [-0.3931527875619898, 0.1812001119714653], [0.2794169366881727, 0.39991640241439563], [0.5618501933815857, 0.15813274272497996], [0.1630191849335315, 0.5754364986556246], [0.4851710347000312, 0.34595572435026684], [-0.2380278861231418, -0.36708097271334755], [-0.13496718587663825, 0.2673836887994546], [-0.40297672744660024, 0.37957350009880425]]",density,white,,,D001,visual,4,[],"['1', '2', '3', '4']",1,2023.2.3,harveyvisual,2.1,[],8,0.75,
0,pause,0.4,None,None,None,0,113,113,113,,,,,,,,,,,,,D001,visual,4,[],"['1', '2', '3', '4']",1,2023.2.3,harveyvisual,2.1,[],8,0.75,
20,dot,0.3,['dot'],['density'],black,0,114,114,114,,,42.300230979919434,42.025777101516724,42.30913305282593,dot,"[0.08, 0.08, 0.06, 0.08, 0.06, 0.08, 0.08, 0.08, 0.1, 0.1, 0.06, 0.1, 0.08, 0.1, 0.06, 0.06, 0.08, 0.06, 0.08, 0.06]","[[-0.1604086107915646, 0.4594680351689554], [0.33944656230140324, -0.2167145859185467], [-0.3364931439982389, 0.251636984435457], [-0.2723847172029056, -0.05299166282437229], [0.03024584584525425, -0.25780888584427647], [-0.2866868070980374, -0.39944344991546904], [0.1831467499389826, -0.44565418040899446], [0.27596476610233045, 0.044455861974310396], [0.5076167407033999, 0.04258010908554838], [0.3662223978227225, 0.26018875424452786], [0.33904894506852445, 0.4668864234314207], [-0.5606819395048014, 0.07278756464102382], [-0.015003749648279108, -0.5099532204277142], [-0.03969346653904682, -0.05364717670768604], [0.07245260591768121, 0.24999795389488078], [-0.40735874928181254, -0.19773850816132524], [0.5587031303667823, -0.20840027851585258], [0.11933701997536272, 0.4646365047924015], [-0.14349144706657285, 0.18361019254783462], [-0.4184678419017793, 0.43337726959108075]]",density,black,1,42.048248052597046,D001,visual,4,[],"['1', '2', '3', '4']",1,2023.2.3,harveyvisual,2.1,[],8,0.75,
0,pause,0.4,None,None,None,0,115,115,115,,,,,,,,,,,,,D001,visual,4,[],"['1', '2', '3', '4']",1,2023.2.3,harveyvisual,2.1,[],8,0.75,
20,dot,0.3,['dot'],['density'],black,0,116,116,116,,,43.000205993652344,42.72585916519165,43.00917601585388,dot,"[0.06, 0.08, 0.1, 0.06, 0.1, 0.1, 0.06, 0.06, 0.08, 0.08, 0.06, 0.08, 0.08, 0.08, 0.08, 0.08, 0.1, 0.1, 0.08, 0.06]","[[0.34064701235290773, 0.4090108102812624], [-0.5211538542189902, -0.2822666182753275], [-0.11850048423199766, 0.3464320700667858], [-0.09113331303781635, -0.3831412152731608], [-0.48766589596071, 0.10731275038574789], [0.10528890582224626, 0.5566393960510256], [-0.5294277922605398, -0.0885454935388082], [0.20985854041242613, -0.08347415368076055], [0.15505492995678372, -0.370941066270861], [-0.09089433684010051, 0.1127789052707443], [-0.20910695153137993, 0.5172334458318253], [0.571879189319091, 0.02255953846267214], [-0.40749837994262517, 0.424129451051954], [0.4950717882586172, -0.2942143777740374], [0.15360687822045005, 0.13821032516929443], [-0.28795194488042664, 0.013545908186452515], [0.2584156988429107, -0.5324614305122688], [-0.38975704746307643, -0.44145676853681054], [0.4374227087966863, 0.15731848603521104], [0.4256439285914878, -0.1172141644310487]]",density,black,,,D001,visual,4,[],"['1', '2', '3', '4']",1,2023.2.3,harveyvisual,2.1,[],8,0.75,
0,pause,0.4,None,None,None,0,117,117,117,,,,,,,,,,,,,D001,visual,4,[],"['1', '2', '3', '4']",1,2023.2.3,harveyvisual,2.1,[],8,0.75,
20,dot,0.3,['dot'],['density'],black,0,118,118,118,,,43.70021605491638,43.42586612701416,43.709192991256714,dot,"[0.08, 0.1, 0.08, 0.1, 0.08, 0.06, 0.08, 0.06, 0.06, 0.1, 0.08, 0.06, 0.1, 0.1, 0.1, 0.08, 0.1, 0.1, 0.06, 0.08]","[[0.054075621631757165, -0.32070114086239243], [-0.512133135540198, -0.26792417675321906], [-0.4793396106143287, 0.23125193816297523], [0.2083590023871288, 0.0465407098619548], [0.43442105605289016, 0.42138852394513515], [-0.3702278556231011, 0.38818831085633526], [0.28730219893041453, -0.450924454038357], [0.4355520422730651, -0.06816144007233704], [-0.38342569123185305, -0.4224812222670773], [-0.20972693122483316, -0.08892723214299342], [-0.5640377496081047, -0.07491277953461534], [-0.14591859567356613, 0.5617907297019301], [-0.06651645008299734, 0.23192284102130922], [0.3342214593545213, 0.21199505752342318], [0.47883997612056384, -0.28452561618902905], [0.5820190966951436, 0.1187138852277444], [-0.21329683395712828, -0.5472675986855181], [-0.16508865989857258, -0.3114094126538618], [0.16616256381229788, 0.522368434118987], [-0.2597999288534526, 0.10747159925719973]]",density,black,,,D001,visual,4,[],"['1', '2', '3', '4']",1,2023.2.3,harveyvisual,2.1,[],8,0.75,
0,pause,0.4,None,None,None,0,119,119,119,,,,,,,,,,,,,D001,visual,4,[],"['1', '2', '3', '4']",1,2023.2.3,harveyvisual,2.1,[],8,0.75,
20,dot,0.3,['dot'],['density'],black,0,120,120,120,,,44.40020203590393,44.12574601173401,44.40904498100281,dot,"[0.08, 0.1, 0.1, 0.08, 0.06, 0.1, 0.08, 0.06, 0.06, 0.08, 0.06, 0.1, 0.1, 0.08, 0.1, 0.06, 0.08, 0.1, 0.1, 0.06]","[[0.5608517381431505, -0.22255310652996935], [0.048307870143714626, 0.3652411483670306], [-0.48373756674321333, -0.3089332481554947], [0.03430351572177648, -0.016586618617587146], [0.49691613151412406, 0.12649179667521065], [-0.4376219015592412, 0.09569334873249219], [-0.2840246087154774, 0.29757712230597677], [-0.06448678286260867, -0.48983558371949115], [0.22976178627585198, -0.5138311994787689], [0.3592275469499463, -0.26284764178350595], [0.12129902172061424, -0.2050740945458302], [0.18984104008574232, 0.22110692610492821], [-0.23811796969383642, -0.15571913947715088], [0.05535806827434919, 0.5864588824720754], [-0.20377401570852283, 0.49462187189962203], [-0.20671482057539287, 0.06481049324933164], [0.41101491084633934, -0.048184042457280085], [-0.5781435444289212, -0.06748738843346623], [-0.30604256649725764, -0.5020219991271265], [0.37596874931650615, 0.3624271014989255]]",density,black,,,D001,visual,4,[],"['1', '2', '3', '4']",1,2023.2.3,harveyvisual,2.1,[],8,0.75,
0,pause,0.4,None,None,None,0,121,121,121,,,,,,,,,,,,,D001,visual,4,[],"['1', '2', '3', '4']",1,2023.2.3,harveyvisual,2.1,[],8,0.75,
20,dot,0.3,['dot'],['density'],black,0,122,122,122,,,45.10022306442261,44.8257269859314,45.10906505584717,dot,"[0.06, 0.06, 0.1, 0.1, 0.08, 0.1, 0.08, 0.08, 0.08, 0.08, 0.06, 0.06, 0.06, 0.06, 0.08, 0.1, 0.08, 0.06, 0.06, 0.06]","[[0.015817356714589947, 0.06905816751524363], [-0.5416346298768698, 0.19011372993605052], [-0.22305523773785724, 0.1427706453714248], [-0.31839797605811604, -0.42312915328727896], [-0.12080488191657274, -0.24831441178006147], [-0.4960017002980483, -0.08853660937591828], [-0.25235300312385495, -0.09127526752926512], [0.32936520529004076, 0.0725112402579533], [0.21984320156462045, 0.28412577946968676], [0.4299934872531864, -0.18631426309854698], [0.09870149088840452, -0.5693353359972237], [-0.00964396906078957, -0.40996488735764647], [0.20740230238991453, -0.31054204144282915], [-0.39001551680798374, 0.41075805946095484], [-0.19596685193354385, 0.4895783800453437], [0.16254297292387854, -0.10962191864763726], [0.6048894930250058, -0.01719860313911921], [0.30986912714120696, 0.46585795869383506], [0.04304902753567763, 0.5785742189131802], [0.46245028522526954, 0.3183965085265813]]",density,black,,,D001,visual,4,[],"['1', '2', '3', '4']",1,2023.2.3,harveyvisual,2.1,[],8,0.75,
0,pause,0.4,None,None,None,0,123,123,123,,,,,,,,,,,,,D001,visual,4,[],"['1', '2', '3', '4']",1,2023.2.3,harveyvisual,2.1,[],8,0.75,
20,dot,0.3,['dot'],['density'],black,0,124,124,124,,,45.800220012664795,45.52572298049927,45.809075117111206,dot,"[0.06, 0.08, 0.08, 0.1, 0.08, 0.1, 0.06, 0.06, 0.06, 0.06, 0.1, 0.1, 0.1, 0.1, 0.1, 0.1, 0.1, 0.08, 0.08, 0.1]","[[-0.5714497378759462, -0.010262048384870243], [0.245659856329962, -0.00879602226383136], [-0.40625187860924755, 0.43137820835887863], [0.047673730237809964, -0.4899937662884154], [-0.0707698399285348, -0.1061670659887442], [0.02812939563107386, 0.5308005720668064], [-0.009139669202956946, 0.33318139781132083], [0.2546183643549873, 0.5250335896954648], [0.2656738248893471, 0.25604837149879656], [0.5806639553440273, -0.16265742702324154], [-0.4643484757325837, -0.20129480696933078], [-0.03397982190782389, 0.12504795915572842], [0.42128841427906394, -0.4299545431807696], [0.45798308470748095, 0.054212043579866975], [0.444798409777729, 0.3266221584130044], [-0.2519600702070558, -0.26747743946208324], [-0.4672505089359613, 0.1874959466259532], [0.21072147166221367, -0.30222483452393084], [-0.26550025371732205, 0.0690635177106218], [-0.21183854236064326, -0.5627877793064014]]",density,black,,,D001,visual,4,[],"['1', '2', '3', '4']",1,2023.2.3,harveyvisual,2.1,[],8,0.75,
0,pause,0.4,None,None,None,0,125,125,125,,,,,,,,,,,,,D001,visual,4,[],"['1', '2', '3', '4']",1,2023.2.3,harveyvisual,2.1,[],8,0.75,
20,dot,0.3,['dot'],['density'],black,0,126,126,126,,,46.50022602081299,46.22570300102234,46.509016036987305,dot,"[0.06, 0.1, 0.1, 0.06, 0.08, 0.08, 0.08, 0.1, 0.1, 0.06, 0.1, 0.1, 0.06, 0.08, 0.06, 0.08, 0.1, 0.08, 0.06, 0.06]","[[0.486429770558389, -0.10637749089748938], [0.06999915613112284, -0.12726751537856862], [-0.12924788267442433, 0.1971911088438818], [-0.4868938418988902, -0.056236009816381605], [0.20703637017504128, -0.40772710119323036], [-0.18825382093269927, -0.5032164911745387], [0.2898230126767666, -0.030973077019018413], [-0.36227005321976335, 0.44914498933907687], [0.4516924769138092, 0.19622796616728694], [0.2457688625768606, 0.49326501471658357], [-0.3287881272135485, -0.19333787054496365], [-0.39625723532722457, 0.24258073084146653], [-0.07646032298421868, 0.5586922756990853], [0.2536899125250641, 0.2856952921054402], [-0.00323801149709102, -0.41451112116675226], [-0.09924168507043274, -0.016202186584499456], [0.35256872099508774, -0.25395791243096144], [-0.29115037029494933, 0.032455132744753756], [-0.5899277547214273, 0.11730745484076693], [0.044522376072119285, 0.35392335974194156]]",density,black,,,D001,visual,4,[],"['1', '2', '3', '4']",1,2023.2.3,harveyvisual,2.1,[],8,0.75,
0,pause,0.4,None,None,None,0,127,127,127,,,,,,,,,,,,,D001,visual,4,[],"['1', '2', '3', '4']",1,2023.2.3,harveyvisual,2.1,[],8,0.75,
20,dot,0.3,['dot'],['density'],black,0,128,128,128,,,47.20021414756775,46.92566514015198,47.20901298522949,dot,"[0.06, 0.06, 0.1, 0.06, 0.08, 0.06, 0.06, 0.1, 0.06, 0.08, 0.06, 0.1, 0.1, 0.1, 0.1, 0.08, 0.06, 0.08, 0.08, 0.08]","[[0.006615633076580196, -0.3171734446354596], [-0.16697883495325805, 0.0447922252697992], [-0.5580162924643928, -0.14467481867912763], [-0.21575430330705764, -0.4863810282141129], [0.5275194477855226, 0.18509047459573968], [-0.18544105138237055, 0.30461625844208295], [-0.030385946539981945, 0.178985468368265], [0.5743104301699892, 8.130174637216436e-05], [0.19070886891387595, 0.12948836336168812], [-0.4848724930668673, 0.28455961101291477], [0.21337482314472656, -0.4039136538883801], [-0.1927064526017031, 0.5668216160846385], [-0.0008377366278128351, 0.39563905332927696], [-0.3612986438963438, -0.29202202175266023], [-0.5511173181223346, 0.04762358238933223], [0.029867622452697806, 0.6019852978893225], [0.3051138095389866, 0.44687117357980877], [-0.03773848563136095, -0.5993417589600976], [0.47897833184380956, -0.19352862797975973], [0.2271472546058343, -0.15526353694377448]]",density,black,,,D001,visual,4,[],"['1', '2', '3', '4']",1,2023.2.3,harveyvisual,2.1,[],8,0.75,
0,pause,0.4,None,None,None,0,129,129,129,,,,,,,,,,,,,D001,visual,4,[],"['1', '2', '3', '4']",1,2023.2.3,harveyvisual,2.1,[],8,0.75,
20,dot,0.3,['dot'],['density'],black,0,130,130,130,,,47.900222063064575,47.62564015388489,47.908990144729614,dot,"[0.08, 0.1, 0.06, 0.06, 0.06, 0.1, 0.1, 0.1, 0.06, 0.06, 0.06, 0.08, 0.1, 0.06, 0.08, 0.1, 0.1, 0.08, 0.1, 0.1]","[[-0.573378514236176, 0.07407231992809685], [-0.2051636857672663, -0.17709466385318406], [-0.165554875164306, 0.2949363579554457], [-0.003261713050509374, -0.5527418295301517], [0.3669705753832776, 0.0704809633842759], [-0.4922030297603335, -0.14357799398323265], [0.17575290241743735, 0.4349512371805151], [-2.350549507701416e-05, -0.2539995426886452], [0.32327069068168246, 0.2961217845173535], [0.49950963460857534, 0.22282667880206591], [0.027444017238464236, 0.20838835071839668], [0.219207813528716, -0.5345072724863767], [-0.4879478967107372, 0.24503049122432513], [0.3745673419472636, -0.3840115012556569], [-0.22434076618070664, 0.06365248918376443], [0.32542617848665756, -0.13713221122848518], [0.15065779897219878, 0.022056214245882333], [0.0026364697839855733, 0.6002843249313813], [0.5497015421136114, -0.03762631173222558], [-0.3231168905966595, 0.5034011886326691]]",density,black,,,D001,visual,4,[],"['1', '2', '3', '4']",1,2023.2.3,harveyvisual,2.1,[],8,0.75,
0,pause,0.4,None,None,None,0,131,131,131,,,,,,,,,,,,,D001,visual,4,[],"['1', '2', '3', '4']",1,2023.2.3,harveyvisual,2.1,[],8,0.75,
20,dot,0.3,['dot'],['density'],black,0,132,132,132,,,48.60020303726196,48.32572317123413,48.60896611213684,dot,"[0.1, 0.1, 0.1, 0.1, 0.06, 0.08, 0.08, 0.06, 0.06, 0.06, 0.1, 0.06, 0.1, 0.08, 0.06, 0.1, 0.06, 0.1, 0.06, 0.06]","[[-0.4503528448768166, 0.1723946062821069], [-0.3021836584831847, 0.5129421920797941], [0.018997322883974044, 0.211016666849271], [-0.38492919520759095, -0.05973163298656686], [0.05387776604548222, -0.4546684222442977], [-0.3773357595163297, -0.34684041354895623], [-0.1470033934629567, -0.2910955494288555], [0.43586329967130666, -0.18020915494355752], [0.3244042808838622, 0.49627203807703024], [0.4951772179379087, 0.03191653696013064], [-0.2154439514610934, 0.2781665408826506], [0.24347860059563464, 0.09670144097424072], [0.42719105333362795, 0.24067108473402127], [0.4289005091833483, -0.402784648316871], [0.1467182138350961, -0.21217004548581575], [-0.5762696728717681, -0.03962278190210278], [0.08602524827306224, -0.011697417537320898], [-0.14355494515555872, 0.0740310689928746], [-0.2455967445856282, -0.5272937702609469], [0.11260685421311589, 0.3985397155463706]]",density,black,,,D001,visual,4,[],"['1', '2', '3', '4']",1,2023.2.3,harveyvisual,2.1,[],8,0.75,
0,pause,0.4,None,None,None,0,133,133,133,,,,,,,,,,,,,D001,visual,4,[],"['1', '2', '3', '4']",1,2023.2.3,harveyvisual,2.1,[],8,0.75,
20,dot,0.3,['dot'],['density'],black,0,134,134,134,,,49.30020809173584,49.02562212944031,49.308927059173584,dot,"[0.08, 0.1, 0.1, 0.06, 0.08, 0.1, 0.08, 0.08, 0.06, 0.08, 0.06, 0.08, 0.08, 0.06, 0.06, 0.06, 0.08, 0.06, 0.06, 0.1]","[[-0.15993367737772785, 0.502939485757777], [0.30438665298360856, -0.19935831171474622], [-0.4334017845198421, 0.38515174122346013], [0.4589657872861813, -0.05351681467727809], [0.17049013749904007, 0.2637196493448728], [-0.4798648214665057, -0.28248430647577594], [0.19318258435938684, -0.04095531968646482], [0.4400473030806197, 0.16122115570178813], [-0.5623258483436969, 0.11155050565941119], [0.01122974889427919, 0.06307948450370904], [-0.15388518689077468, -0.17738312053084965], [-0.13321883530887252, 0.22191225133050096], [-0.3216559220363753, -0.07737154034590754], [0.3797368640090588, 0.39089411894995507], [0.09391794918221774, -0.26509054219063477], [0.0587041847785823, -0.5542963233313595], [0.10369273717984095, 0.5198759532464466], [0.42041772132263, -0.3693521858127051], [-0.5121339241014548, -0.09334447498455811], [-0.37355091529800344, -0.4639082834505454]]",density,black,,,D001,visual,4,[],"['1', '2', '3', '4']",1,2023.2.3,harveyvisual,2.1,[],8,0.75,
0,pause,0.4,None,None,None,0,135,135,135,,,,,,,,,,,,,D001,visual,4,[],"['1', '2', '3', '4']",1,2023.2.3,harveyvisual,2.1,[],8,0.75,
20,dot,0.3,['dot'],['density'],black,0,136,136,136,,,50.00020694732666,49.72562909126282,50.00895309448242,dot,"[0.06, 0.1, 0.08, 0.1, 0.08, 0.06, 0.08, 0.08, 0.06, 0.1, 0.1, 0.06, 0.08, 0.06, 0.08, 0.08, 0.1, 0.06, 0.1, 0.08]","[[-0.24015750094193467, 0.03458230659957018], [-0.5930622407171154, -0.11912847430372993], [-0.3811507382135484, 0.3895004901673739], [0.2469114428316257, -0.4756962742088187], [0.07952302977418557, 0.3099573099533369], [0.41328826274130337, 0.04254770267097918], [-0.2914850006606568, -0.23296683846562322], [0.0946016482444535, 0.08239141496444358], [-0.1259563833731125, 0.24220538078480391], [0.3129526129578899, 0.3242153560398605], [0.5297173169080468, -0.1554158250134137], [0.05722715780679799, -0.1336242940690981], [0.5010968636699108, 0.2921387218635301], [0.3566923169347246, -0.24112888051295123], [-0.25892033169905415, -0.5463693860953238], [-0.09021714245187451, 0.5771675027529656], [0.017913952710169934, -0.4571206929645599], [-0.516758374065607, -0.29927986118638167], [0.14289110994536747, 0.5222611241508658], [0.24535972607840784, -0.056821404977245527]]",density,black,,,D001,visual,4,[],"['1', '2', '3', '4']",1,2023.2.3,harveyvisual,2.1,[],8,0.75,
0,pause,0.4,None,None,None,0,137,137,137,,,,,,,,,,,,,D001,visual,4,[],"['1', '2', '3', '4']",1,2023.2.3,harveyvisual,2.1,[],8,0.75,
20,dot,0.3,['dot'],['density'],white,0,138,138,138,,,50.7002010345459,50.425605058670044,50.70896911621094,dot,"[0.08, 0.08, 0.1, 0.1, 0.1, 0.06, 0.06, 0.1, 0.06, 0.1, 0.08, 0.08, 0.06, 0.1, 0.1, 0.06, 0.08, 0.1, 0.08, 0.1]","[[0.038843120696360534, -0.4100907166262003], [0.4805915636875605, -0.0750149532350533], [-0.12569478300450487, -0.0800648039542442], [0.13048617668757823, 0.08030909063256053], [0.46330891403764685, 0.3413468412726909], [-0.5096919621369558, 0.10419957145036685], [0.34262044123158986, -0.28783517755730226], [0.1591494605985737, -0.12283587084686304], [-0.06074977190433517, 0.4231605895612318], [0.22894465220608617, -0.4632422412349959], [-0.4112691644998234, -0.0836048915224345], [0.2005568205803563, 0.3148879616109146], [-0.36541835647298504, 0.31569611866580677], [0.4039536274116703, 0.10773866622834294], [-0.3053256701750714, -0.5196117738137425], [0.2725004993191956, 0.4999080837716783], [-0.27367105029427896, -0.323339709737023], [-0.08544785515958253, -0.5758711901951299], [-0.47122559820290005, -0.3422400755664256], [-0.10522649029402054, 0.18898647541536673]]",density,white,,,D001,visual,4,[],"['1', '2', '3', '4']",1,2023.2.3,harveyvisual,2.1,[],8,0.75,
0,pause,0.4,None,None,None,0,139,139,139,,,,,,,,,,,1,50.89521813392639,D001,visual,4,[],"['1', '2', '3', '4']",1,2023.2.3,harveyvisual,2.1,[],8,0.75,
20,dot,0.3,['dot'],['density'],black,0,140,140,140,,,51.400217056274414,51.125625133514404,51.408950090408325,dot,"[0.1, 0.06, 0.08, 0.1, 0.1, 0.06, 0.08, 0.08, 0.1, 0.08, 0.06, 0.06, 0.08, 0.08, 0.06, 0.1, 0.06, 0.08, 0.08, 0.06]","[[-0.5867826362689349, -0.0017814568113138918], [-0.1040192600048333, -0.46537232533437756], [0.0643946595410192, 0.5746649225792909], [0.44679582868487444, 0.26691512275753415], [0.5576967240095528, -0.19313233942822444], [-0.3188384058776238, 0.03241202748597072], [0.23833065227563044, -0.05417225006465343], [0.11850290159546795, -0.3842558664419406], [-0.3545383247264353, -0.29077057582614185], [0.1324583603666487, 0.28650992649525553], [0.4924539222272294, 0.06831404332172525], [-0.3275554833886445, 0.3134173145671203], [-0.06320257856603273, -0.19653617370004095], [0.38641593083827463, -0.4227251919644298], [-0.27669194618259124, 0.5297364838277557], [-0.09867354571010123, -0.0018584299180398611], [-0.09884903870483441, 0.3720425414467877], [0.19711010114314442, -0.5633401378836075], [0.30089959316141823, 0.461210249249828], [0.2910891061432047, 0.14195157965424476]]",density,black,,,D001,visual,4,[],"['1', '2', '3', '4']",1,2023.2.3,harveyvisual,2.1,[],8,0.75,
0,pause,0.4,None,None,None,0,141,141,141,,,,,,,,,,,,,D001,visual,4,[],"['1', '2', '3', '4']",1,2023.2.3,harveyvisual,2.1,[],8,0.75,
20,dot,0.3,['dot'],['density'],black,0,142,142,142,,,52.10021996498108,51.82571506500244,52.109029054641724,dot,"[0.06, 0.1, 0.08, 0.08, 0.08, 0.06, 0.06, 0.06, 0.08, 0.06, 0.1, 0.1, 0.1, 0.06, 0.06, 0.08, 0.1, 0.06, 0.08, 0.08]","[[-0.1675532677089439, -0.05749245343874709], [-0.5876062771148078, 0.048032332767680375], [0.4940983710441188, -0.25255344593362017], [0.09248397478051895, 0.3517989859365296], [-0.4314164359073106, 0.42442441508272094], [-0.0698321294929849, 0.5919115081222546], [-0.26983815039449227, 0.10917047401915214], [0.34402215774875045, 0.3934493937909502], [-0.5415651942600677, -0.21455535771247192], [-0.10588686481011178, -0.515424518948671], [0.5269894282929165, 0.26977428427801464], [0.2243326328594012, 0.09122129722982408], [0.2760720360151828, -0.4779297373528626], [0.06527820842450471, -0.07123298701114256], [0.004833189537162608, 0.17996708751239865], [-0.30017796078349973, -0.32621403196918974], [0.28611886803662945, -0.09587961322880012], [-0.13548868938017372, 0.39607573424756115], [0.08205362502835922, -0.39589947852521457], [0.4148161916711156, 0.06467120277449218]]",density,black,,,D001,visual,4,[],"['1', '2', '3', '4']",1,2023.2.3,harveyvisual,2.1,[],8,0.75,
0,pause,0.4,None,None,None,0,143,143,143,,,,,,,,,,,,,D001,visual,4,[],"['1', '2', '3', '4']",1,2023.2.3,harveyvisual,2.1,[],8,0.75,
20,dot,0.3,['dot'],['density'],black,0,144,144,144,,,52.80020499229431,52.52566909790039,52.809021949768066,dot,"[0.08, 0.1, 0.06, 0.1, 0.06, 0.06, 0.06, 0.06, 0.08, 0.06, 0.08, 0.06, 0.1, 0.06, 0.08, 0.08, 0.1, 0.1, 0.1, 0.1]","[[0.4678970661948, -0.14512983077229025], [0.4944520276875687, 0.16389308170987676], [-0.4047824776126405, -0.36954284249731506], [0.29436878724527593, -0.3924531958792119], [-0.4474949528192119, -0.11808048030420909], [0.3082172827576989, 0.30265474681398385], [0.13709894224095842, -0.1459827479083341], [-0.24676434419109683, -0.14203776465252216], [-0.0738337055756999, 0.00948760253997838], [-0.13845062113022827, 0.44457834029275667], [-0.042015198315877744, -0.37061614531986836], [-0.32124339144747693, 0.14009816049190593], [-0.5232186627757218, 0.15459353818042948], [0.13465542409292774, 0.48956382447444835], [-0.03867486276647858, 0.25287861617190155], [-0.45244572191694526, 0.3497219780018993], [0.1546592925507847, 0.05297065785783328], [-0.14717395475298745, -0.584647572386157], [0.09971589126742153, -0.540080817168154], [-0.3227637069186635, 0.4950384560242985]]",density,black,,,D001,visual,4,[],"['1', '2', '3', '4']",1,2023.2.3,harveyvisual,2.1,[],8,0.75,
0,pause,0.4,None,None,None,0,145,145,145,,,,,,,,,,,,,D001,visual,4,[],"['1', '2', '3', '4']",1,2023.2.3,harveyvisual,2.1,[],8,0.75,
20,dot,0.3,['dot'],['density'],black,0,146,146,146,,,53.50022006034851,53.22569012641907,53.508893966674805,dot,"[0.1, 0.06, 0.1, 0.06, 0.06, 0.1, 0.1, 0.1, 0.1, 0.1, 0.08, 0.06, 0.08, 0.06, 0.08, 0.06, 0.06, 0.1, 0.08, 0.1]","[[0.041688917912892864, 0.29029985976844364], [0.3678632496907851, 0.3451113986262733], [0.53766715603504, -0.21357641770966168], [0.09732963070834477, -0.10237955238461915], [-0.5517840558749932, 0.20587078284629176], [0.09343496996702938, -0.36791907620190767], [0.3733136803589654, 0.04075117895066416], [-0.14117138746117386, 0.18718641073701203], [-0.3801145619517591, 0.4272222333496503], [-0.5667435299042224, -0.14867273294079497], [0.33275152482434267, -0.15490842894889856], [-0.10283209941334548, -0.01069180749204568], [-0.17332733518730808, 0.5472349282859749], [-0.3535905014117345, 0.05581178149414173], [0.19803352206251468, -0.5709849964473708], [-0.16401339191151987, -0.2768779089407523], [0.24847194274260964, 0.5229160718633239], [0.552665667221493, 0.18481713719282145], [-0.3769319295145894, -0.3043436818342885], [0.39013682706371267, -0.3899772541037484]]",density,black,,,D001,visual,4,[],"['1', '2', '3', '4']",1,2023.2.3,harveyvisual,2.1,[],8,0.75,
0,pause,0.4,None,None,None,0,147,147,147,,,,,,,,,,,,,D001,visual,4,[],"['1', '2', '3', '4']",1,2023.2.3,harveyvisual,2.1,[],8,0.75,
20,dot,0.3,['dot'],['density'],black,0,148,148,148,,,54.20021414756775,53.92555499076843,54.208847999572754,dot,"[0.08, 0.1, 0.1, 0.1, 0.08, 0.1, 0.06, 0.1, 0.06, 0.1, 0.06, 0.1, 0.06, 0.06, 0.1, 0.1, 0.06, 0.08, 0.08, 0.06]","[[-0.5713572197402438, -0.11555220207228346], [0.025062402410762075, 0.2348087770983469], [0.34940113264747497, 0.3795711158201999], [0.33735725502096414, -0.23563166320795437], [-0.03155324316475705, 0.4808133452949157], [-0.027270946442539024, 0.004824949829592251], [0.4436671374604021, -0.05263445046846443], [-0.2954143728388595, 0.001338550696374674], [-0.5465299247237105, 0.10782959708065987], [-0.2339667151928279, 0.2650939924329896], [0.23478523049178934, 0.16514576573223083], [-0.3417451505788731, -0.45010179741984485], [0.00018974582460018485, -0.49480977103467133], [0.5123857319163269, 0.23289656189365887], [-0.1605823375421419, -0.29736799531195207], [0.24114428051999148, -0.4903161129733844], [-0.4914606786633946, 0.30472166793283406], [-0.3561920370112954, 0.4858840641710513], [-0.3415432526018277, -0.20151270912057673], [0.24906554161992078, -0.040778131560723296]]",density,black,,,D001,visual,4,[],"['1', '2', '3', '4']",1,2023.2.3,harveyvisual,2.1,[],8,0.75,
0,pause,0.4,None,None,None,0,149,149,149,,,,,,,,,,,,,D001,visual,4,[],"['1', '2', '3', '4']",1,2023.2.3,harveyvisual,2.1,[],8,0.75,
20,dot,0.3,['dot'],['density'],black,0,150,150,150,,,54.90020418167114,54.625568151474,54.90888714790344,dot,"[0.08, 0.08, 0.06, 0.06, 0.06, 0.1, 0.1, 0.06, 0.1, 0.1, 0.08, 0.1, 0.08, 0.1, 0.08, 0.06, 0.1, 0.08, 0.06, 0.1]","[[-0.22734584798233753, 0.17185963785520497], [0.03976536047430268, -0.21080601481373568], [0.4126237917546761, -0.20105006453815358], [-0.43043362902687826, -0.34518768275215195], [0.03944461299358337, 0.2890006678300949], [0.025877735092837306, -0.41145050826268303], [0.2430481685803232, 0.15504865580131455], [-0.04259118195504363, -0.03852452038206211], [-0.08627995798539212, 0.559990347139596], [-0.5826348116377343, 0.03827086542467539], [-0.20409943938475883, -0.16133937925303143], [0.26085932895473185, -0.07438361316011355], [0.5725157786272036, 0.15372913858606474], [0.29166148295089056, 0.44506551123913984], [-0.3469825846895863, 0.3975453570819383], [-0.4301438687907665, 0.18239991819233303], [0.1897851603778391, -0.51457810341097], [-0.1424075094587876, -0.514618526778143], [-0.5539662219843009, -0.1973607483580674], [0.29156431256988735, -0.348519418886875]]",density,black,,,D001,visual,4,[],"['1', '2', '3', '4']",1,2023.2.3,harveyvisual,2.1,[],8,0.75,
0,pause,0.4,None,None,None,0,151,151,151,,,,,,,,,,,,,D001,visual,4,[],"['1', '2', '3', '4']",1,2023.2.3,harveyvisual,2.1,[],8,0.75,
20,dot,0.3,['dot'],['density'],black,0,152,152,152,,,55.60021114349365,55.32552409172058,55.608800172805786,dot,"[0.1, 0.1, 0.1, 0.1, 0.08, 0.06, 0.1, 0.06, 0.06, 0.08, 0.06, 0.06, 0.1, 0.06, 0.06, 0.1, 0.08, 0.08, 0.1, 0.08]","[[-0.5350946543419918, 0.16612441705196107], [0.011427584432083693, 0.13550059821423488], [0.4965865277686551, -0.11329493826079343], [-0.5080987048865768, -0.15689070937082714], [-0.34150285374584155, -0.43190911555221095], [0.16988676593335506, -0.5808230216370998], [-0.1155193320144759, -0.5398675915675959], [-0.31922263783199023, 0.4597333311310545], [0.1257757601608105, -0.09091340301359185], [0.5095086139862685, 0.21108889119485763], [0.306508719063302, 0.08621549821159225], [0.3795078082241705, -0.29122327892616423], [0.058500104172241496, -0.3411445908576313], [-0.29195299112461837, 0.08583412426969095], [0.24241606483770428, 0.3588225770737794], [-0.1553734599179578, -0.20204707374160857], [0.15858467334142035, 0.5407718635790404], [-0.1193483917948906, 0.47216708083941084], [0.3590154887430992, -0.48352366486117465], [-0.14513491967844777, 0.25955179056403965]]",density,black,,,D001,visual,4,[],"['1', '2', '3', '4']",1,2023.2.3,harveyvisual,2.1,[],8,0.75,
0,pause,0.4,None,None,None,0,153,153,153,,,,,,,,,,,,,D001,visual,4,[],"['1', '2', '3', '4']",1,2023.2.3,harveyvisual,2.1,[],8,0.75,
20,dot,0.3,['dot'],['density'],black,0,154,154,154,,,56.30022406578064,56.025477170944214,56.30879616737366,dot,"[0.1, 0.06, 0.1, 0.08, 0.08, 0.1, 0.1, 0.06, 0.08, 0.06, 0.1, 0.1, 0.06, 0.1, 0.08, 0.06, 0.1, 0.06, 0.1, 0.06]","[[0.2640589477543396, 0.20412594076659718], [-0.02226210656363814, 0.336288330862347], [0.5051673093717725, 0.044964147832671275], [0.10098814650666366, -0.14185886596320002], [-0.17332095866675512, -0.23702155743126446], [0.18110695350324613, -0.31846709557766034], [-0.2908495921528527, 0.45273523345111877], [0.4709501602278586, -0.14775231903874886], [-0.02150174592503351, -0.5033018652784613], [-0.4836163375141063, -0.16780811153624062], [-0.3327644342051645, 0.09340608543614748], [0.22597452858337308, 0.40775736393194495], [-0.41120346142647457, -0.4137693922087993], [-0.1468448045798617, 0.18130760298183124], [0.18290294544477492, -0.538340366330771], [0.3960996987589628, -0.36092960306143423], [0.45995879077981383, 0.2759784370839382], [0.06510556087569075, 0.0558815638114879], [-0.03385542502860772, 0.5693523576409263], [-0.6023616479561951, 0.04686708913482285]]",density,black,,,D001,visual,4,[],"['1', '2', '3', '4']",1,2023.2.3,harveyvisual,2.1,[],8,0.75,
0,pause,0.4,None,None,None,0,155,155,155,,,,,,,,,,,,,D001,visual,4,[],"['1', '2', '3', '4']",1,2023.2.3,harveyvisual,2.1,[],8,0.75,
9,dot,0.3,['dot'],['density'],black,0,156,156,156,,,57.00021195411682,56.708812952041626,57.00875401496887,dot,"[0.06, 0.1, 0.06, 0.1, 0.06, 0.06, 0.08, 0.08, 0.06]","[[-0.06218673389315922, -0.4689115343027075], [0.3660477402554353, -0.15396192139437054], [0.1401329754895462, -0.14262156541192547], [0.12293598154832706, -0.38779640022673934], [0.42645158233284447, -0.3607859009111275], [-0.06238477126329685, -0.2564764349502154], [-0.2584688277182379, -0.29964401945706215], [-0.11312192996032899, -0.05439345917292958], [0.19096873654163896, 0.1321853744035435]]",density,black,,,D001,visual,4,[],"['1', '2', '3', '4']",1,2023.2.3,harveyvisual,2.1,[],8,0.75,
0,pause,0.4,None,None,None,0,157,157,157,,,,,,,,,,,,,D001,visual,4,[],"['1', '2', '3', '4']",1,2023.2.3,harveyvisual,2.1,[],8,0.75,
9,dot,0.3,['dot'],['density'],black,0,158,158,158,,,57.70022511482239,57.40872597694397,57.70873212814331,dot,"[0.08, 0.08, 0.08, 0.08, 0.06, 0.08, 0.06, 0.08, 0.1]","[[-0.08858128315591524, -0.3480052213079807], [0.37291707470974605, -0.0809562497479422], [-0.04311872097798103, 0.23152249840731254], [0.1734412630875083, -0.16491363602164627], [-0.024044713080900382, -0.04824256513196188], [0.126438571592319, 0.09122014985587756], [-0.2168202887682383, 0.11190421567656858], [-0.23215605484234547, -0.20356583507002532], [0.291417597339289, 0.24351333182926893]]",density,black,,,D001,visual,4,[],"['1', '2', '3', '4']",1,2023.2.3,harveyvisual,2.1,[],8,0.75,
0,pause,0.4,None,None,None,0,159,159,159,,,,,,,,,,,,,D001,visual,4,[],"['1', '2', '3', '4']",1,2023.2.3,harveyvisual,2.1,[],8,0.75,
9,dot,0.3,['dot'],['density'],black,0,160,160,160,,,58.400227069854736,58.10871911048889,58.40871214866638,dot,"[0.1, 0.1, 0.1, 0.06, 0.1, 0.06, 0.06, 0.06, 0.08]","[[0.08964926938552661, 0.05394775442474662], [0.013667798857315082, 0.3651287039276397], [-0.3518235196438996, 0.4482863301015001], [0.0843039828244993, 0.5528122926054443], [-0.16049547673848438, 0.0730005648255046], [-0.2144141911430125, 0.27623828598157274], [0.3465547907671387, 0.0307758660088046], [-0.13596480001028877, 0.5242376261272882], [0.2304522598158348, 0.3521277948761275]]",density,black,,,D001,visual,4,[],"['1', '2', '3', '4']",1,2023.2.3,harveyvisual,2.1,[],8,0.75,
0,pause,0.4,None,None,None,0,161,161,161,,,,,,,,,,,,,D001,visual,4,[],"['1', '2', '3', '4']",1,2023.2.3,harveyvisual,2.1,[],8,0.75,
9,dot,0.3,['dot'],['density'],black,0,162,162,162,,,59.10021710395813,58.808688163757324,59.10872197151184,dot,"[0.08, 0.1, 0.06, 0.08, 0.06, 0.06, 0.08, 0.08, 0.1]","[[-0.1410632352740557, -0.317905811010377], [-0.01624442214728049, 0.1794094022286925], [0.09468404279643694, -0.24727132108451297], [-0.2758455249254349, -0.14491344886434532], [-0.07397021974914944, -0.09933967896750957], [-0.3580751224104431, 0.12641846535160695], [0.3672464474339042, -0.09947208873420914], [0.14679994141956812, -0.049441009882571184], [0.20049431506903384, 0.1443691092520585]]",density,black,,,D001,visual,4,[],"['1', '2', '3', '4']",1,2023.2.3,harveyvisual,2.1,[],8,0.75,
0,pause,0.4,None,None,None,0,163,163,163,,,,,,,,,,,,,D001,visual,4,[],"['1', '2', '3', '4']",1,2023.2.3,harveyvisual,2.1,[],8,0.75,
9,dot,0.3,['dot'],['density'],black,0,164,164,164,,,59.80022406578064,59.508700132369995,59.808737993240356,dot,"[0.06, 0.1, 0.08, 0.06, 0.06, 0.06, 0.06, 0.1, 0.08]","[[-0.4007656520072294, -0.25517300445391483], [-0.002534053661406415, -0.03841937385778563], [0.03867088550537559, -0.37109058839216275], [0.14298263539714814, -0.19121790068267305], [-0.18592892280395246, 0.09800459324165622], [-0.17114407793371844, -0.47763389460370764], [0.20594417137152282, 0.033112046987541804], [-0.3669302527083935, -0.010624696365658668], [-0.20182203610849478, -0.19970173151634407]]",density,black,,,D001,visual,4,[],"['1', '2', '3', '4']",1,2023.2.3,harveyvisual,2.1,[],8,0.75,
0,pause,0.4,None,None,None,0,165,165,165,,,,,,,,,,,,,D001,visual,4,[],"['1', '2', '3', '4']",1,2023.2.3,harveyvisual,2.1,[],8,0.75,
9,dot,0.3,['dot'],['density'],white,0,166,166,166,,,60.500224113464355,60.20872497558594,60.50869417190552,dot,"[0.08, 0.06, 0.08, 0.08, 0.1, 0.08, 0.06, 0.08, 0.08]","[[-0.39546702852536103, 0.05887767166707298], [0.0019437857506851024, 0.07006750722115952], [0.08809400946991845, -0.15083790972035777], [-0.35358057288562594, -0.14123029179452673], [-0.18893042820243505, -0.004761820558363635], [-0.16054322822148615, -0.2701644482013472], [-0.3593088451216199, 0.2649120528395154], [-0.09346394646241396, -0.4621051997984888], [-0.5526246027455071, -0.11781718335669726]]",density,white,,,D001,visual,4,[],"['1', '2', '3', '4']",1,2023.2.3,harveyvisual,2.1,[],8,0.75,
0,pause,0.4,None,None,None,0,167,167,167,,,,,,,,,,,1,60.70041608810425,D001,visual,4,[],"['1', '2', '3', '4']",1,2023.2.3,harveyvisual,2.1,[],8,0.75,
8,dot,0.3,['dot'],['density'],black,0,168,168,168,,,61.20020413398743,60.90869402885437,61.20862817764282,dot,"[0.06, 0.08, 0.08, 0.08, 0.06, 0.08, 0.1, 0.1]","[[-0.3167478768396544, -0.2124469325344782], [0.11150510454677101, -0.25361932254341324], [0.17657050060311263, -0.496926349220185], [0.20833757931744315, -0.0002320808252021913], [-0.0015234955214533466, 0.034722119540356526], [-0.10690598217119997, -0.19846612199298916], [0.32498422138424443, -0.23444872628509345], [-0.054741640541526956, -0.4230750989992696]]",density,black,,,D001,visual,4,[],"['1', '2', '3', '4']",1,2023.2.3,harveyvisual,2.1,[],8,0.75,
0,pause,0.4,None,None,None,0,169,169,169,,,,,,,,,,,,,D001,visual,4,[],"['1', '2', '3', '4']",1,2023.2.3,harveyvisual,2.1,[],8,0.75,
8,dot,0.3,['dot'],['density'],black,0,170,170,170,,,61.90022802352905,61.60863208770752,61.90862703323364,dot,"[0.08, 0.06, 0.06, 0.08, 0.08, 0.08, 0.1, 0.06]","[[0.016639406518403475, -0.10031965053970064], [-0.49734137941811546, 0.023312718056099104], [0.03171158295547566, 0.2028207856397581], [-0.3777108616291506, 0.18827317115199685], [-0.2734124440264558, -0.20525012861841768], [-0.1742574757978524, 0.04093824739900491], [-0.17815403785603903, 0.26205888083036905], [-0.2502819750276768, 0.4804358206127844]]",density,black,,,D001,visual,4,[],"['1', '2', '3', '4']",1,2023.2.3,harveyvisual,2.1,[],8,0.75,
0,pause,0.4,None,None,None,0,171,171,171,,,,,,,,,,,,,D001,visual,4,[],"['1', '2', '3', '4']",1,2023.2.3,harveyvisual,2.1,[],8,0.75,
8,dot,0.3,['dot'],['density'],black,0,172,172,172,,,62.600218057632446,62.308627128601074,62.6086061000824,dot,"[0.1, 0.08, 0.08, 0.1, 0.06, 0.1, 0.06, 0.1]","[[0.3129921899656287, 0.2226642157048143], [0.41298599633021416, -0.001766323215076977], [0.013785601627645026, 0.39275307090924344], [-0.009407606244017683, 0.02333367620517349], [0.20163499737495916, -0.08731087547331118], [0.31235423233837933, 0.42762820752661124], [0.10705959187470679, 0.21318577255187057], [-0.13233007013452783, 0.20605257250075132]]",density,black,,,D001,visual,4,[],"['1', '2', '3', '4']",1,2023.2.3,harveyvisual,2.1,[],8,0.75,
0,pause,0.4,None,None,None,0,173,173,173,,,,,,,,,,,,,D001,visual,4,[],"['1', '2', '3', '4']",1,2023.2.3,harveyvisual,2.1,[],8,0.75,
8,dot,0.3,['dot'],['density'],black,0,174,174,174,,,63.300213098526,63.00859808921814,63.308624029159546,dot,"[0.06, 0.1, 0.06, 0.08, 0.06, 0.08, 0.08, 0.1]","[[0.4578461037593053, -0.0425280984807614], [0.3105081462658962, -0.253400778181943], [0.5107466611240274, 0.18303335057259504], [0.05013881804369301, 0.21472050036076742], [0.11913774150617627, -0.046477809882714556], [0.3069987493408211, 0.11186211070896974], [0.10261508471656716, -0.25482825738733483], [-0.08881417545548334, 0.035709595317019026]]",density,black,,,D001,visual,4,[],"['1', '2', '3', '4']",1,2023.2.3,harveyvisual,2.1,[],8,0.75,
0,pause,0.4,None,None,None,0,175,175,175,,,,,,,,,,,,,D001,visual,4,[],"['1', '2', '3', '4']",1,2023.2.3,harveyvisual,2.1,[],8,0.75,
8,dot,0.3,['dot'],['density'],white,0,176,176,176,,,64.00022506713867,63.70864701271057,64.0086259841919,dot,"[0.08, 0.1, 0.1, 0.08, 0.1, 0.06, 0.08, 0.08]","[[0.016639406518403475, -0.10031965053970064], [-0.49734137941811546, 0.023312718056099104], [0.03171158295547566, 0.2028207856397581], [-0.3777108616291506, 0.18827317115199685], [-0.2734124440264558, -0.20525012861841768], [-0.1742574757978524, 0.04093824739900491], [-0.17815403785603903, 0.26205888083036905], [-0.2502819750276768, 0.4804358206127844]]",density,white,,,D001,visual,4,[],"['1', '2', '3', '4']",1,2023.2.3,harveyvisual,2.1,[],8,0.75,
0,pause,0.4,None,None,None,0,177,177,177,,,,,,,,,,,1,64.28086400032043,D001,visual,4,[],"['1', '2', '3', '4']",1,2023.2.3,harveyvisual,2.1,[],8,0.75,
8,dot,0.3,['dot'],['density'],black,0,178,178,178,,,64.70023107528687,64.4086241722107,64.70862102508545,dot,"[0.08, 0.08, 0.06, 0.1, 0.1, 0.06, 0.06, 0.1]","[[-0.4639556696772753, 0.10472599959088454], [-0.22970357876872852, 0.24758381400794424], [-0.060094057158436125, -0.14613975383200573], [-0.022569829209962654, 0.2677975872319761], [-0.3077859326170116, -0.10488986274105515], [-0.16040535020917, 0.031608708128470005], [-0.5175577931920246, -0.20517812764611504], [0.1194024413118107, 0.007837779916585986]]",density,black,,,D001,visual,4,[],"['1', '2', '3', '4']",1,2023.2.3,harveyvisual,2.1,[],8,0.75,
0,pause,0.4,None,None,None,0,179,179,179,,,,,,,,,,,,,D001,visual,4,[],"['1', '2', '3', '4']",1,2023.2.3,harveyvisual,2.1,[],8,0.75,
7,dot,0.3,['dot'],['density'],black,0,180,180,180,,,65.40020895004272,65.10860300064087,65.40859913825989,dot,"[0.1, 0.1, 0.08, 0.1, 0.06, 0.1, 0.06]","[[0.12430361198122393, -0.484697593056103], [0.0493599320108737, -0.036540600477799993], [0.2536650008125765, -0.05314613827093128], [-0.10908149692518246, -0.38401305955505927], [0.3510411480849886, -0.3949608705840701], [0.16732256025271752, -0.2817377092689904], [0.4277002215428168, -0.1937739732965619]]",density,black,,,D001,visual,4,[],"['1', '2', '3', '4']",1,2023.2.3,harveyvisual,2.1,[],8,0.75,
0,pause,0.4,None,None,None,0,181,181,181,,,,,,,,,,,,,D001,visual,4,[],"['1', '2', '3', '4']",1,2023.2.3,harveyvisual,2.1,[],8,0.75,
7,dot,0.3,['dot'],['density'],black,0,182,182,182,,,66.1002299785614,65.80859208106995,66.10854911804199,dot,"[0.08, 0.08, 0.1, 0.08, 0.1, 0.06, 0.06]","[[-0.39883248072855915, 0.30823732592088265], [-0.041341486549100435, 0.2390478988097413], [-0.013495537319202725, 0.5211111720540192], [-0.2415889716500472, 0.10795059447242317], [-0.023803066389735523, 0.02076064871433158], [0.14387498046506175, 0.3548008600093999], [-0.24331877599120405, 0.46521846842164205]]",density,black,,,D001,visual,4,[],"['1', '2', '3', '4']",1,2023.2.3,harveyvisual,2.1,[],8,0.75,
0,pause,0.4,None,None,None,0,183,183,183,,,,,,,,,,,,,D001,visual,4,[],"['1', '2', '3', '4']",1,2023.2.3,harveyvisual,2.1,[],8,0.75,
7,dot,0.3,['dot'],['density'],black,0,184,184,184,,,66.80020999908447,66.50858211517334,66.80855298042297,dot,"[0.08, 0.06, 0.06, 0.08, 0.06, 0.08, 0.06]","[[-0.2822174821233986, 0.002117056236134186], [-0.10673242512413421, 0.4781556216085482], [-0.18432519539246728, 0.19072201575640843], [-0.4524596318479574, 0.13966285650530724], [0.06907010423411483, 0.2912708813513049], [-0.07412436007020941, -0.021022205933558278], [-0.3208835015251209, 0.3986768431743725]]",density,black,,,D001,visual,4,[],"['1', '2', '3', '4']",1,2023.2.3,harveyvisual,2.1,[],8,0.75,
0,pause,0.4,None,None,None,0,185,185,185,,,,,,,,,,,,,D001,visual,4,[],"['1', '2', '3', '4']",1,2023.2.3,harveyvisual,2.1,[],8,0.75,
7,dot,0.3,['dot'],['density'],black,0,186,186,186,,,67.50020408630371,67.20852208137512,67.50867295265198,dot,"[0.1, 0.08, 0.1, 0.1, 0.08, 0.06, 0.08]","[[0.36124702795982905, 0.02861074637729004], [0.035495459613383976, -0.03736980990239832], [0.4545067059830119, -0.22475560039862832], [0.21831658066582188, 0.20471036725638603], [0.23621436127430617, -0.13960795011418334], [0.5606656921354746, -0.047865395727918474], [0.5468561378002438, 0.2161657569851178]]",density,black,,,D001,visual,4,[],"['1', '2', '3', '4']",1,2023.2.3,harveyvisual,2.1,[],8,0.75,
0,pause,0.4,None,None,None,0,187,187,187,,,,,,,,,,,,,D001,visual,4,[],"['1', '2', '3', '4']",1,2023.2.3,harveyvisual,2.1,[],8,0.75,
7,dot,0.3,['dot'],['density'],black,0,188,188,188,,,68.20022916793823,67.90864205360413,68.20850706100464,dot,"[0.08, 0.06, 0.1, 0.06, 0.1, 0.08, 0.06]","[[-0.026372969700101213, 0.05085620782211805], [-0.16304282038196347, -0.3616501386780019], [-0.013762327205412121, -0.14910430285435466], [0.14729449770710015, -0.3647544547161306], [-0.22494517313234175, -0.12035103032643314], [-0.36514670174418407, -0.33057163197754225], [0.21417125919861074, -0.06627923590771367]]",density,black,,,D001,visual,4,[],"['1', '2', '3', '4']",1,2023.2.3,harveyvisual,2.1,[],8,0.75,
0,pause,0.4,None,None,None,0,189,189,189,,,,,,,,,,,,,D001,visual,4,[],"['1', '2', '3', '4']",1,2023.2.3,harveyvisual,2.1,[],8,0.75,
7,dot,0.3,['dot'],['density'],black,0,190,190,190,,,68.90021395683289,68.60849404335022,68.90848517417908,dot,"[0.06, 0.1, 0.1, 0.06, 0.06, 0.06, 0.08]","[[-0.026372969700101213, 0.05085620782211805], [-0.16304282038196347, -0.3616501386780019], [-0.013762327205412121, -0.14910430285435466], [0.14729449770710015, -0.3647544547161306], [-0.22494517313234175, -0.12035103032643314], [-0.36514670174418407, -0.33057163197754225], [0.21417125919861074, -0.06627923590771367]]",density,black,,,D001,visual,4,[],"['1', '2', '3', '4']",1,2023.2.3,harveyvisual,2.1,[],8,0.75,
0,pause,0.4,None,None,None,0,191,191,191,,,,,,,,,,,,,D001,visual,4,[],"['1', '2', '3', '4']",1,2023.2.3,harveyvisual,2.1,[],8,0.75,
6,dot,0.3,['dot'],['density'],black,0,192,192,192,,,69.60021615028381,69.3084831237793,69.60845994949341,dot,"[0.1, 0.1, 0.08, 0.06, 0.08, 0.1]","[[0.404576257273406, 0.0700140295133255], [0.16236872381874318, -0.0021128728600973284], [0.5529541989122894, -0.15659614737169442], [0.13702497511457395, -0.2589057080071786], [0.36740063964394665, -0.3636528069500345], [0.3132750905084481, -0.159771579268986]]",density,black,,,D001,visual,4,[],"['1', '2', '3', '4']",1,2023.2.3,harveyvisual,2.1,[],8,0.75,
0,pause,0.4,None,None,None,0,193,193,193,,,,,,,,,,,,,D001,visual,4,[],"['1', '2', '3', '4']",1,2023.2.3,harveyvisual,2.1,[],8,0.75,
6,dot,0.3,['dot'],['density'],black,0,194,194,194,,,70.30021715164185,70.00847005844116,70.30848503112793,dot,"[0.06, 0.08, 0.06, 0.1, 0.08, 0.1]","[[-0.25199583264674774, 0.1645076628059283], [-0.30980015185235615, -0.30059811601219943], [-0.3416104032120793, -0.08609002542292095], [-0.44539923421558947, 0.10453038353258776], [-0.10444623085343022, 0.0009067836503606603], [-0.5495015018291214, -0.1770200348029928]]",density,black,,,D001,visual,4,[],"['1', '2', '3', '4']",1,2023.2.3,harveyvisual,2.1,[],8,0.75,
0,pause,0.4,None,None,None,0,195,195,195,,,,,,,,,,,,,D001,visual,4,[],"['1', '2', '3', '4']",1,2023.2.3,harveyvisual,2.1,[],8,0.75,
6,dot,0.3,['dot'],['density'],black,0,196,196,196,,,71.0002110004425,70.70857095718384,71.00857305526733,dot,"[0.08, 0.1, 0.1, 0.06, 0.06, 0.1]","[[0.285926512064941, -0.24481785515673876], [0.418595730147314, -0.41068201076939437], [0.08023911914447063, -0.2907744195836184], [0.5255309086764915, -0.21900298349449057], [0.21619509519697316, -0.004828458463526469], [0.21043770887025895, -0.4594541383061854]]",density,black,,,D001,visual,4,[],"['1', '2', '3', '4']",1,2023.2.3,harveyvisual,2.1,[],8,0.75,
0,pause,0.4,None,None,None,0,197,197,197,,,,,,,,,,,,,D001,visual,4,[],"['1', '2', '3', '4']",1,2023.2.3,harveyvisual,2.1,[],8,0.75,
6,dot,0.3,['dot'],['density'],white,0,198,198,198,,,71.70022201538086,71.40855813026428,71.70853996276855,dot,"[0.1, 0.08, 0.06, 0.1, 0.08, 0.1]","[[-0.12151555870586603, -0.4812968000001843], [0.16790488833295267, -0.2471088416996458], [0.27214716196035416, -0.49820278546509117], [-0.038147587524033764, -0.29309333197091036], [0.014949188681413147, -0.08915939926713055], [0.06798063624072649, -0.5852336971646088]]",density,white,,,D001,visual,4,[],"['1', '2', '3', '4']",1,2023.2.3,harveyvisual,2.1,[],8,0.75,
0,pause,0.4,None,None,None,0,199,199,199,,,,,,,,,,,1,71.74389600753784,D001,visual,4,[],"['1', '2', '3', '4']",1,2023.2.3,harveyvisual,2.1,[],8,0.75,
6,dot,0.3,['dot'],['density'],black,0,200,200,200,,,72.40020608901978,72.10857105255127,72.40853214263916,dot,"[0.08, 0.08, 0.1, 0.1, 0.1, 0.08]","[[0.404576257273406, 0.0700140295133255], [0.16236872381874318, -0.0021128728600973284], [0.5529541989122894, -0.15659614737169442], [0.13702497511457395, -0.2589057080071786], [0.36740063964394665, -0.3636528069500345], [0.3132750905084481, -0.159771579268986]]",density,black,,,D001,visual,4,[],"['1', '2', '3', '4']",1,2023.2.3,harveyvisual,2.1,[],8,0.75,
0,pause,0.4,None,None,None,0,201,201,201,,,,,,,,,,,,,D001,visual,4,[],"['1', '2', '3', '4']",1,2023.2.3,harveyvisual,2.1,[],8,0.75,
6,dot,0.3,['dot'],['density'],black,0,202,202,202,,,73.10021615028381,72.80839014053345,73.10838603973389,dot,"[0.06, 0.1, 0.06, 0.1, 0.06, 0.06]","[[-0.3078382271761739, 0.4361778186671046], [-0.059169983783578364, 0.44796520308269433], [-0.3209935464877752, 0.22545519901795916], [-0.10826469778565927, 0.24929594343002343], [-0.016554185736113114, 0.06783813438016018], [-0.29360476626160575, 0.00756342739423081]]",density,black,,,D001,visual,4,[],"['1', '2', '3', '4']",1,2023.2.3,harveyvisual,2.1,[],8,0.75,
0,pause,0.4,None,None,None,0,203,203,203,,,,,,,,,,,,,D001,visual,4,[],"['1', '2', '3', '4']",1,2023.2.3,harveyvisual,2.1,[],8,0.75,
5,dot,0.3,['dot'],['density'],black,0,204,204,204,,,73.80022501945496,73.50839900970459,73.80836606025696,dot,"[0.1, 0.06, 0.1, 0.1, 0.08]","[[-0.26965218803342234, -0.06061691990321757], [-0.44412238708790114, -0.1605793459593267], [-0.2738608688716076, -0.33598391440877745], [-0.06160694910013377, -0.19463283807086704], [-0.16469008497891707, 0.13324638745272324]]",density,black,,,D001,visual,4,[],"['1', '2', '3', '4']",1,2023.2.3,harveyvisual,2.1,[],8,0.75,
0,pause,0.4,None,None,None,0,205,205,205,,,,,,,,,,,,,D001,visual,4,[],"['1', '2', '3', '4']",1,2023.2.3,harveyvisual,2.1,[],8,0.75,
5,dot,0.3,['dot'],['density'],black,0,206,206,206,,,74.50022101402283,74.20834302902222,74.50834703445435,dot,"[0.1, 0.08, 0.1, 0.1, 0.08]","[[0.2947939438731228, -0.23060267152592065], [-0.16069394766121817, -0.3416383267983795], [0.17571447256805817, -0.04795497140357211], [-0.06398416024856234, -0.043165972544212804], [0.046845399773749824, -0.2436216536023896]]",density,black,,,D001,visual,4,[],"['1', '2', '3', '4']",1,2023.2.3,harveyvisual,2.1,[],8,0.75,
0,pause,0.4,None,None,None,0,207,207,207,,,,,,,,,,,,,D001,visual,4,[],"['1', '2', '3', '4']",1,2023.2.3,harveyvisual,2.1,[],8,0.75,
5,dot,0.3,['dot'],['density'],black,0,208,208,208,,,75.20022702217102,74.90834999084473,75.20833015441895,dot,"[0.08, 0.1, 0.08, 0.06, 0.06]","[[-0.416197921377668, -0.28619329865683824], [-0.20866628843358032, -0.3460647126262422], [-0.5570429559765239, -0.05989317214741584], [-0.28028983240144106, -0.12146425093182346], [-0.3531870384577651, 0.07845006904085886]]",density,black,,,D001,visual,4,[],"['1', '2', '3', '4']",1,2023.2.3,harveyvisual,2.1,[],8,0.75,
0,pause,0.4,None,None,None,0,209,209,209,,,,,,,,,,,,,D001,visual,4,[],"['1', '2', '3', '4']",1,2023.2.3,harveyvisual,2.1,[],8,0.75,
5,dot,0.3,['dot'],['density'],white,0,210,210,210,,,75.90021300315857,75.60833096504211,75.90831112861633,dot,"[0.1, 0.06, 0.1, 0.1, 0.08]","[[0.21791283729510122, -0.3451859720731072], [0.5246150578842218, -0.1749209719782184], [0.23417080448362212, 0.06149420791510773], [0.21628546435715315, -0.14179681516434317], [0.46094971099473236, 0.03541120369123469]]",density,white,,,D001,visual,4,[],"['1', '2', '3', '4']",1,2023.2.3,harveyvisual,2.1,[],8,0.75,
0,pause,0.4,None,None,None,0,211,211,211,,,,,,,,,,,1,76.02634119987488,D001,visual,4,[],"['1', '2', '3', '4']",1,2023.2.3,harveyvisual,2.1,[],8,0.75,
5,dot,0.3,['dot'],['density'],white,0,212,212,212,,,76.60021114349365,76.30830311775208,76.60829901695251,dot,"[0.06, 0.1, 0.06, 0.1, 0.08]","[[0.34746533592570195, 0.16118282603596082], [0.14457128296481445, 0.28865621170929245], [0.4549189851861922, 0.34228556952890804], [0.008483415068308318, 0.44103246018778014], [0.27150044131742485, 0.4621652121832405]]",density,white,,,D001,visual,4,[],"['1', '2', '3', '4']",1,2023.2.3,harveyvisual,2.1,[],8,0.75,
0,pause,0.4,None,None,None,0,213,213,213,,,,,,,,,,,1,76.688401222229,D001,visual,4,[],"['1', '2', '3', '4']",1,2023.2.3,harveyvisual,2.1,[],8,0.75,
5,dot,0.3,['dot'],['density'],white,0,214,214,214,,,77.30020904541016,77.00828504562378,77.30830812454224,dot,"[0.08, 0.08, 0.08, 0.06, 0.06]","[[-0.4709100701083565, 0.02189337908226187], [-0.29145525575644754, 0.3795081276742083], [-0.23690205020139254, 0.016868774910060797], [-0.4278442329265702, 0.22919645259494104], [-0.09991604659712162, 0.23043195716445664]]",density,white,,,D001,visual,4,[],"['1', '2', '3', '4']",1,2023.2.3,harveyvisual,2.1,[],8,0.75,
0,pause,0.4,None,None,None,0,215,215,215,,,,,,,,,,,1,77.32853507995605,D001,visual,4,[],"['1', '2', '3', '4']",1,2023.2.3,harveyvisual,2.1,[],8,0.75,
4,dot,0.3,['dot'],['density'],black,0,216,216,216,,,78.00021195411682,77.70830512046814,78.00829195976257,dot,"[0.06, 0.06, 0.08, 0.06]","[[-0.34940937311115045, -0.11648702989399858], [-0.2695829051223266, -0.4589438614516443], [-0.4698604504367728, -0.3018413850444449], [-0.18849712946501163, -0.26902343222239633]]",density,black,,,D001,visual,4,[],"['1', '2', '3', '4']",1,2023.2.3,harveyvisual,2.1,[],8,0.75,
0,pause,0.4,None,None,None,0,217,217,217,,,,,,,,,,,,,D001,visual,4,[],"['1', '2', '3', '4']",1,2023.2.3,harveyvisual,2.1,[],8,0.75,
4,dot,0.3,['dot'],['density'],white,0,218,218,218,,,78.70023012161255,78.40828704833984,78.7082531452179,dot,"[0.08, 0.1, 0.06, 0.06]","[[-0.5133923796685119, -0.13567638448558317], [-0.3102378593599109, -0.17790160316510653], [-0.5338837235738882, 0.07316730980410076], [-0.255286731521037, 0.022123457211080083]]",density,white,,,D001,visual,4,[],"['1', '2', '3', '4']",1,2023.2.3,harveyvisual,2.1,[],8,0.75,
0,pause,0.4,None,None,None,0,219,219,219,,,,,,,,,,,1,78.79463911056519,D001,visual,4,[],"['1', '2', '3', '4']",1,2023.2.3,harveyvisual,2.1,[],8,0.75,
4,dot,0.3,['dot'],['density'],black,0,220,220,220,,,79.40022301673889,79.10822796821594,79.40823006629944,dot,"[0.08, 0.08, 0.1, 0.1]","[[0.13421512820946938, -0.5336194340609706], [0.2622623892029083, -0.3575253733063478], [0.024533045116508903, -0.3376850530006363], [0.166924465117498, -0.0963569090623874]]",density,black,,,D001,visual,4,[],"['1', '2', '3', '4']",1,2023.2.3,harveyvisual,2.1,[],8,0.75,
0,pause,0.4,None,None,None,0,221,221,221,,,,,,,,,,,,,D001,visual,4,[],"['1', '2', '3', '4']",1,2023.2.3,harveyvisual,2.1,[],8,0.75,
4,dot,0.3,['dot'],['density'],black,0,222,222,222,,,80.10021114349365,79.80821800231934,80.10820508003235,dot,"[0.06, 0.06, 0.08, 0.1]","[[0.37520814465037905, -0.4432880181017862], [0.4692830223283075, -0.19655799526205012], [0.3063896805601884, -0.036788685454167226], [0.2471196723673293, -0.2344474043623998]]",density,black,,,D001,visual,4,[],"['1', '2', '3', '4']",1,2023.2.3,harveyvisual,2.1,[],8,0.75,
0,pause,0.4,None,None,None,0,223,223,223,,,,,,,,,,,,,D001,visual,4,[],"['1', '2', '3', '4']",1,2023.2.3,harveyvisual,2.1,[],8,0.75,
4,dot,0.3,['dot'],['density'],black,0,224,224,224,,,80.80021214485168,80.50837206840515,80.80832815170288,dot,"[0.06, 0.06, 0.06, 0.06]","[[-0.5372831058023291, 0.07679305146548565], [-0.47746952625478134, -0.11455356156484316], [-0.2888199447118168, 0.02804534169422597], [-0.3317661241759115, -0.2533775510137967]]",density,black,,,D001,visual,4,[],"['1', '2', '3', '4']",1,2023.2.3,harveyvisual,2.1,[],8,0.75,
0,pause,0.4,None,None,None,0,225,225,225,,,,,,,,,,,,,D001,visual,4,[],"['1', '2', '3', '4']",1,2023.2.3,harveyvisual,2.1,[],8,0.75,
4,dot,0.3,['dot'],['density'],black,0,226,226,226,,,81.50022101402283,81.20831203460693,81.50830006599426,dot,"[0.06, 0.08, 0.06, 0.1]","[[0.3428963381299033, -0.004396565162037705], [0.42558881424794154, 0.18301493672810298], [0.5687630200397232, 0.01721079717795714], [0.4301208405972816, -0.23499851958356296]]",density,black,,,D001,visual,4,[],"['1', '2', '3', '4']",1,2023.2.3,harveyvisual,2.1,[],8,0.75,
0,pause,0.4,None,None,None,0,227,227,227,,,,,,,,,,,,,D001,visual,4,[],"['1', '2', '3', '4']",1,2023.2.3,harveyvisual,2.1,[],8,0.75,
3,dot,0.3,['dot'],['density'],black,0,228,228,228,,,82.20021510124207,81.90830111503601,82.20829606056213,dot,"[0.08, 0.1, 0.06]","[[-0.1827482077423914, 0.13189758396693702], [0.006935645283384683, 0.04732296079382947], [-0.049709858873230685, 0.28599666368451326]]",density,black,,,D001,visual,4,[],"['1', '2', '3', '4']",1,2023.2.3,harveyvisual,2.1,[],8,0.75,
0,pause,0.4,None,None,None,0,229,229,229,,,,,,,,,,,,,D001,visual,4,[],"['1', '2', '3', '4']",1,2023.2.3,harveyvisual,2.1,[],8,0.75,
3,dot,0.3,['dot'],['density'],black,0,230,230,230,,,82.9002161026001,82.60828900337219,82.90827918052673,dot,"[0.06, 0.1, 0.1]","[[-0.42255820389626353, 0.35871945956833473], [-0.19896656331745483, 0.3032224324013186], [-0.25553590712368324, 0.5056038804507684]]",density,black,,,D001,visual,4,[],"['1', '2', '3', '4']",1,2023.2.3,harveyvisual,2.1,[],8,0.75,
0,pause,0.4,None,None,None,0,231,231,231,,,,,,,,,,,,,D001,visual,4,[],"['1', '2', '3', '4']",1,2023.2.3,harveyvisual,2.1,[],8,0.75,
3,dot,0.3,['dot'],['density'],black,0,232,232,232,,,83.60022807121277,83.30817198753357,83.6080961227417,dot,"[0.06, 0.08, 0.06]","[[0.13574725429899362, -0.5423283227425341], [-0.036793286563257144, -0.3768814925557267], [0.16175487704753985, -0.3348017255345844]]",density,black,,,D001,visual,4,[],"['1', '2', '3', '4']",1,2023.2.3,harveyvisual,2.1,[],8,0.75,
0,pause,0.4,None,None,None,0,233,233,233,,,,,,,,,,,,,D001,visual,4,[],"['1', '2', '3', '4']",1,2023.2.3,harveyvisual,2.1,[],8,0.75,
3,dot,0.3,['dot'],['density'],black,0,234,234,234,,,84.300213098526,84.00808000564575,84.30807113647461,dot,"[0.06, 0.06, 0.1]","[[-0.31319101668702665, 0.019781348947723338], [-0.5473895760332308, 0.024991247927059115], [-0.4494119348059314, -0.1602141851013313]]",density,black,,,D001,visual,4,[],"['1', '2', '3', '4']",1,2023.2.3,harveyvisual,2.1,[],8,0.75,
0,pause,0.4,None,None,None,0,235,235,235,,,,,,,,,,,,,D001,visual,4,[],"['1', '2', '3', '4']",1,2023.2.3,harveyvisual,2.1,[],8,0.75,
3,dot,0.3,['dot'],['density'],black,0,236,236,236,,,85.00023317337036,84.70811009407043,85.00813007354736,dot,"[0.08, 0.06, 0.06]","[[-0.3391924794566746, 0.43027756448319565], [-0.33080415183405026, 0.2112686575961512], [-0.14277619127331137, 0.29962579604826906]]",density,black,,,D001,visual,4,[],"['1', '2', '3', '4']",1,2023.2.3,harveyvisual,2.1,[],8,0.75,
0,pause,0.4,None,None,None,0,237,237,237,,,,,,,,,,,,,D001,visual,4,[],"['1', '2', '3', '4']",1,2023.2.3,harveyvisual,2.1,[],8,0.75,
3,dot,0.3,['dot'],['density'],black,0,238,238,238,,,85.70022201538086,85.40806317329407,85.70803999900818,dot,"[0.06, 0.08, 0.1]","[[-0.27441186418729774, -0.31428620701652393], [-0.10438281902574013, -0.2032379983598837], [-0.31523395761825285, -0.08768035506307631]]",density,black,,,D001,visual,4,[],"['1', '2', '3', '4']",1,2023.2.3,harveyvisual,2.1,[],8,0.75,
0,pause,0.4,None,None,None,0,239,239,239,,,,,,,,,,,,,D001,visual,4,[],"['1', '2', '3', '4']",1,2023.2.3,harveyvisual,2.1,[],8,0.75,
2,dot,0.3,['dot'],['density'],black,0,240,240,240,,,86.40022802352905,86.10803604125977,86.40806198120117,dot,"[0.1, 0.06]","[[0.21918454152848227, -0.10588244801595839], [0.1860161616926718, 0.09155890801726524]]",density,black,,,D001,visual,4,[],"['1', '2', '3', '4']",1,2023.2.3,harveyvisual,2.1,[],8,0.75,
0,pause,0.4,None,None,None,0,241,241,241,,,,,,,,,,,,,D001,visual,4,[],"['1', '2', '3', '4']",1,2023.2.3,harveyvisual,2.1,[],8,0.75,
2,dot,0.3,['dot'],['density'],black,0,242,242,242,,,87.1002140045166,86.80805706977844,87.1080801486969,dot,"[0.08, 0.06]","[[0.29932439847351855, -0.2783039550742582], [0.14276117392638485, -0.15345139110726028]]",density,black,,,D001,visual,4,[],"['1', '2', '3', '4']",1,2023.2.3,harveyvisual,2.1,[],8,0.75,
0,pause,0.4,None,None,None,0,243,243,243,,,,,,,,,,,,,D001,visual,4,[],"['1', '2', '3', '4']",1,2023.2.3,harveyvisual,2.1,[],8,0.75,
2,dot,0.3,['dot'],['density'],black,0,244,244,244,,,87.80021214485168,87.50800609588623,87.80800294876099,dot,"[0.08, 0.06]","[[0.06661886780735636, -0.3109770134588511], [-0.03502229105109153, -0.4833380692870097]]",density,black,,,D001,visual,4,[],"['1', '2', '3', '4']",1,2023.2.3,harveyvisual,2.1,[],8,0.75,
0,pause,0.4,None,None,None,0,245,245,245,,,,,,,,,,,,,D001,visual,4,[],"['1', '2', '3', '4']",1,2023.2.3,harveyvisual,2.1,[],8,0.75,
2,dot,0.3,['dot'],['density'],black,0,246,246,246,,,88.50021696090698,88.20797395706177,88.50796508789062,dot,"[0.1, 0.1]","[[0.1652621768884792, -0.40183218801656556], [-0.03337249546828684, -0.4281924369736378]]",density,black,,,D001,visual,4,[],"['1', '2', '3', '4']",1,2023.2.3,harveyvisual,2.1,[],8,0.75,
0,pause,0.4,None,None,None,0,247,247,247,,,,,,,,,,,,,D001,visual,4,[],"['1', '2', '3', '4']",1,2023.2.3,harveyvisual,2.1,[],8,0.75,
2,dot,0.3,['dot'],['density'],black,0,248,248,248,,,89.20020794868469,88.90796113014221,89.20802712440491,dot,"[0.08, 0.08]","[[0.28379985726396956, 0.19228106150028407], [0.10160376615595414, 0.2763535177041957]]",density,black,,,D001,visual,4,[],"['1', '2', '3', '4']",1,2023.2.3,harveyvisual,2.1,[],8,0.75,
0,pause,0.4,None,None,None,0,249,249,249,,,,,,,,,,,,,D001,visual,4,[],"['1', '2', '3', '4']",1,2023.2.3,harveyvisual,2.1,[],8,0.75,
2,dot,0.3,['dot'],['density'],black,0,250,250,250,,,89.90022110939026,89.60801005363464,89.9079999923706,dot,"[0.1, 0.1]","[[0.29932439847351855, -0.2783039550742582], [0.14276117392638485, -0.15345139110726028]]",density,black,,,D001,visual,4,[],"['1', '2', '3', '4']",1,2023.2.3,harveyvisual,2.1,[],8,0.75,
0,pause,0.4,None,None,None,0,251,251,251,,,,,,,,,,,,,D001,visual,4,[],"['1', '2', '3', '4']",1,2023.2.3,harveyvisual,2.1,[],8,0.75,
1,dot,0.3,['dot'],['density'],black,0,252,252,252,,,90.60021305084229,90.30799508094788,90.60793113708496,dot,[0.06],"[-0.31757534052014, 0.30709612076893067]",density,black,,,D001,visual,4,[],"['1', '2', '3', '4']",1,2023.2.3,harveyvisual,2.1,[],8,0.75,
0,pause,0.4,None,None,None,0,253,253,253,,,,,,,,,,,,,D001,visual,4,[],"['1', '2', '3', '4']",1,2023.2.3,harveyvisual,2.1,[],8,0.75,
1,dot,0.3,['dot'],['density'],black,0,254,254,254,,,91.3002200126648,91.00793409347534,91.30796813964844,dot,[0.08],"[-0.43400380483721984, 0.10531265887229962]",density,black,,,D001,visual,4,[],"['1', '2', '3', '4']",1,2023.2.3,harveyvisual,2.1,[],8,0.75,
0,pause,0.4,None,None,None,0,255,255,255,,,,,,,,,,,,,D001,visual,4,[],"['1', '2', '3', '4']",1,2023.2.3,harveyvisual,2.1,[],8,0.75,
1,dot,0.3,['dot'],['density'],black,0,256,256,256,,,92.00022315979004,91.70796012878418,92.00798106193542,dot,[0.08],"[0.39967490259390637, -0.2576437183111264]",density,black,,,D001,visual,4,[],"['1', '2', '3', '4']",1,2023.2.3,harveyvisual,2.1,[],8,0.75,
0,pause,0.4,None,None,None,0,257,257,257,,,,,,,,,,,,,D001,visual,4,[],"['1', '2', '3', '4']",1,2023.2.3,harveyvisual,2.1,[],8,0.75,
1,dot,0.3,['dot'],['density'],black,0,258,258,258,,,92.70023608207703,92.4079179763794,92.72453308105469,dot,[0.08],"[0.15956500649880873, 0.2640393008039057]",density,black,,,D001,visual,4,[],"['1', '2', '3', '4']",1,2023.2.3,harveyvisual,2.1,[],8,0.75,
0,pause,0.4,None,None,None,0,259,259,259,,,,,,,,,,,,,D001,visual,4,[],"['1', '2', '3', '4']",1,2023.2.3,harveyvisual,2.1,[],8,0.75,
1,dot,0.3,['dot'],['density'],black,0,260,260,260,,,93.40023708343506,93.10794711112976,93.40791702270508,dot,[0.1],"[-0.48958603946102763, 0.32731293615049173]",density,black,,,D001,visual,4,[],"['1', '2', '3', '4']",1,2023.2.3,harveyvisual,2.1,[],8,0.75,
0,pause,0.4,None,None,None,0,261,261,261,,,,,,,,,,,,,D001,visual,4,[],"['1', '2', '3', '4']",1,2023.2.3,harveyvisual,2.1,[],8,0.75,
1,dot,0.3,['dot'],['density'],black,0,262,262,262,,,94.1002299785614,93.80791115760803,94.10790705680847,dot,[0.06],"[0.5286010678554951, -0.2554598500704326]",density,black,,,D001,visual,4,[],"['1', '2', '3', '4']",1,2023.2.3,harveyvisual,2.1,[],8,0.75,
0,pause,0.4,None,None,None,0,263,263,263,,,,,,,,,,,,,D001,visual,4,[],"['1', '2', '3', '4']",1,2023.2.3,harveyvisual,2.1,[],8,0.75,
20,dot,0.3,['dot'],['density'],black,0,264,264,264,,,94.80022406578064,94.52455997467041,94.80780816078186,dot,"[0.06, 0.06, 0.06, 0.1, 0.08, 0.06, 0.06, 0.06, 0.06, 0.08, 0.08, 0.08, 0.08, 0.1, 0.08, 0.06, 0.1, 0.06, 0.1, 0.08]","[[0.08232390040419424, -0.4072618709809763], [0.16439207394597988, 0.307097257907199], [0.5530939917309213, -0.23954078066312542], [-0.31531798746323786, -0.47709697651996463], [-0.27380903066644713, 0.3541765832074685], [-0.51421498427798, -0.24252348564974013], [-0.4557026405228696, 0.28807975867632957], [0.15654896833418264, -0.1330894163325832], [0.5926328371115325, 0.08400071502356099], [-0.28096976743539936, 0.12884215956844758], [0.30731786315794496, -0.35082378406809356], [-0.11143867825324072, -0.16584252284934975], [0.28476445503706427, 0.5232722071975526], [0.48029961704870006, 0.2906331204770528], [-0.5910416341119629, 0.008295621874069792], [-0.0418816644710408, 0.42721609161021357], [-0.024297420877944398, -0.5724973547039733], [-0.029879074162040276, 0.17104470473773148], [0.3436717488002329, -0.09988556872689164], [-0.3380745435266438, -0.1700820224244522]]",density,black,,,D001,visual,4,[],"['1', '2', '3', '4']",1,2023.2.3,harveyvisual,2.1,[],8,0.75,
0,pause,0.4,None,None,None,0,265,265,265,,,,,,,,,,,,,D001,visual,4,[],"['1', '2', '3', '4']",1,2023.2.3,harveyvisual,2.1,[],8,0.75,
20,dot,0.3,['dot'],['density'],black,0,266,266,266,,,95.50021004676819,95.2245421409607,95.50778603553772,dot,"[0.06, 0.06, 0.1, 0.06, 0.1, 0.1, 0.1, 0.08, 0.06, 0.08, 0.08, 0.06, 0.08, 0.1, 0.06, 0.08, 0.06, 0.1, 0.06, 0.08]","[[0.38036682655250065, 0.45505046060867], [0.20760630524296908, 0.5423902682148156], [-0.23147832745550395, 0.43267228261612656], [-0.567920449470966, -0.1928400292903863], [0.3684172729473779, 0.18975574715978005], [0.23704144779524772, 0.045805765839346924], [-0.07809379844112352, 0.3161076449540954], [-0.16694233921062757, 0.046724630097995434], [0.07473177864149894, -0.13759089081956521], [0.27766741098786607, -0.42095594944472736], [-0.569857652756026, 0.1775860289842893], [0.5062954560320497, -0.0027868371834262606], [0.05838140513460732, 0.18255608058187134], [-0.35741022495903174, -0.21900831036486923], [-0.46964283683284247, 0.34928801953206584], [-0.29888396459241207, -0.5096939424050765], [-0.4139590277041371, -0.015737660658940666], [0.08945710353960001, -0.5419866644484623], [0.10356411202692184, -0.3414210868797176], [-0.08975842486726349, -0.3535665998091408]]",density,black,,,D001,visual,4,[],"['1', '2', '3', '4']",1,2023.2.3,harveyvisual,2.1,[],8,0.75,
0,pause,0.4,None,None,None,0,267,267,267,,,,,,,,,,,,,D001,visual,4,[],"['1', '2', '3', '4']",1,2023.2.3,harveyvisual,2.1,[],8,0.75,
