num,mod,duration,shape,ll_cond,colors,.thisRepN,.thisTrialN,.thisN,.thisIndex,thisRow.t,notes,raw_global_time,t_start,t_stop,shapes,size,pos,cond,color,button,RT,participant,session,starting_run,left button (match/odd),right button (non-match/even),samples_per_block,psychopy version,expName,offset,audio,number_runs,radius,
1,dot,0.3,['dot'],['density'],black,0,0,0,0,,,2.4002108573913574,2.106663942337036,2.4065840244293213,dot,[0.08],"[0.5286010678554951, -0.2554598500704326]",density,black,,,D001,visual,1,[],"['1', '2', '3', '4']",1,2023.2.3,harveyvisual,2.1,[],8,0.75,
0,pause,0.4,None,None,None,0,1,1,1,,,,,,,,,,,,,D001,visual,1,[],"['1', '2', '3', '4']",1,2023.2.3,harveyvisual,2.1,[],8,0.75,
1,dot,0.3,['dot'],['density'],black,0,2,2,2,,,3.1002299785614014,2.8065879344940186,3.1065750122070312,dot,[0.08],"[0.39967490259390637, -0.2576437183111264]",density,black,,,D001,visual,1,[],"['1', '2', '3', '4']",1,2023.2.3,harveyvisual,2.1,[],8,0.75,
0,pause,0.4,None,None,None,0,3,3,3,,,,,,,,,,,,,D001,visual,1,[],"['1', '2', '3', '4']",1,2023.2.3,harveyvisual,2.1,[],8,0.75,
1,dot,0.3,['dot'],['density'],black,0,4,4,4,,,3.800210952758789,3.5065670013427734,3.8065569400787354,dot,[0.06],"[0.2287398259034258, -0.3932960849464651]",density,black,,,D001,visual,1,[],"['1', '2', '3', '4']",1,2023.2.3,harveyvisual,2.1,[],8,0.75,
0,pause,0.4,None,None,None,0,5,5,5,,,,,,,,,,,,,D001,visual,1,[],"['1', '2', '3', '4']",1,2023.2.3,harveyvisual,2.1,[],8,0.75,
1,dot,0.3,['dot'],['density'],black,0,6,6,6,,,4.500224828720093,4.206552982330322,4.506669044494629,dot,[0.1],"[-0.2532192430475575, -0.5275431624831907]",density,black,,,D001,visual,1,[],"['1', '2', '3', '4']",1,2023.2.3,harveyvisual,2.1,[],8,0.75,
0,pause,0.4,None,None,None,0,7,7,7,,,,,,,,,,,,,D001,visual,1,[],"['1', '2', '3', '4']",1,2023.2.3,harveyvisual,2.1,[],8,0.75,
1,dot,0.3,['dot'],['density'],black,0,8,8,8,,,5.200222969055176,4.906661033630371,5.206524848937988,dot,[0.1],"[0.4123293050259286, 0.03564095151647579]",density,black,,,D001,visual,1,[],"['1', '2', '3', '4']",1,2023.2.3,harveyvisual,2.1,[],8,0.75,
0,pause,0.4,None,None,None,0,9,9,9,,,,,,,,,,,,,D001,visual,1,[],"['1', '2', '3', '4']",1,2023.2.3,harveyvisual,2.1,[],8,0.75,
1,dot,0.3,['dot'],['density'],black,0,10,10,10,,,5.900207996368408,5.606513977050781,5.906502962112427,dot,[0.06],"[0.2287398259034258, -0.3932960849464651]",density,black,,,D001,visual,1,[],"['1', '2', '3', '4']",1,2023.2.3,harveyvisual,2.1,[],8,0.75,
0,pause,0.4,None,None,None,0,11,11,11,,,,,,,,,,,,,D001,visual,1,[],"['1', '2', '3', '4']",1,2023.2.3,harveyvisual,2.1,[],8,0.75,
2,dot,0.3,['dot'],['density'],black,0,12,12,12,,,6.600221872329712,6.306497812271118,6.606485843658447,dot,"[0.08, 0.1]","[[-0.15001882639889116, 0.48719053997247297], [-0.1736568080125972, 0.28835755901726084]]",density,black,,,D001,visual,1,[],"['1', '2', '3', '4']",1,2023.2.3,harveyvisual,2.1,[],8,0.75,
0,pause,0.4,None,None,None,0,13,13,13,,,,,,,,,,,,,D001,visual,1,[],"['1', '2', '3', '4']",1,2023.2.3,harveyvisual,2.1,[],8,0.75,
2,dot,0.3,['dot'],['density'],black,0,14,14,14,,,7.3002119064331055,7.006484031677246,7.3064658641815186,dot,"[0.08, 0.1]","[[-0.19266755722762574, -0.036106715323925336], [-0.096675332858716, 0.13967695308521302]]",density,black,,,D001,visual,1,[],"['1', '2', '3', '4']",1,2023.2.3,harveyvisual,2.1,[],8,0.75,
0,pause,0.4,None,None,None,0,15,15,15,,,,,,,,,,,,,D001,visual,1,[],"['1', '2', '3', '4']",1,2023.2.3,harveyvisual,2.1,[],8,0.75,
2,dot,0.3,['dot'],['density'],black,0,16,16,16,,,8.000229835510254,7.706465005874634,8.006446838378906,dot,"[0.08, 0.1]","[[-0.16440981108753766, 0.5378091218652469], [-0.08422838651173449, 0.35445914222875186]]",density,black,,,D001,visual,1,[],"['1', '2', '3', '4']",1,2023.2.3,harveyvisual,2.1,[],8,0.75,
0,pause,0.4,None,None,None,0,17,17,17,,,,,,,,,,,,,D001,visual,1,[],"['1', '2', '3', '4']",1,2023.2.3,harveyvisual,2.1,[],8,0.75,
2,dot,0.3,['dot'],['density'],black,0,18,18,18,,,8.700214862823486,8.406450033187866,8.706432819366455,dot,"[0.06, 0.1]","[[0.07059805578258149, -0.2458188734665979], [0.058763118304238846, -0.4455693812784497]]",density,black,,,D001,visual,1,[],"['1', '2', '3', '4']",1,2023.2.3,harveyvisual,2.1,[],8,0.75,
0,pause,0.4,None,None,None,0,19,19,19,,,,,,,,,,,,,D001,visual,1,[],"['1', '2', '3', '4']",1,2023.2.3,harveyvisual,2.1,[],8,0.75,
2,dot,0.3,['dot'],['density'],black,0,20,20,20,,,9.400233030319214,9.106525897979736,9.4064359664917,dot,"[0.1, 0.06]","[[-0.1809096912417549, 0.4542701565657042], [0.018526046348631375, 0.4698330185089162]]",density,black,,,D001,visual,1,[],"['1', '2', '3', '4']",1,2023.2.3,harveyvisual,2.1,[],8,0.75,
0,pause,0.4,None,None,None,0,21,21,21,,,,,,,,,,,,,D001,visual,1,[],"['1', '2', '3', '4']",1,2023.2.3,harveyvisual,2.1,[],8,0.75,
2,dot,0.3,['dot'],['density'],black,0,22,22,22,,,10.100230932235718,9.806411027908325,10.10640287399292,dot,"[0.1, 0.08]","[[0.11437717294043931, -0.408092871188616], [0.012734947149558614, -0.23578585574018435]]",density,black,,,D001,visual,1,[],"['1', '2', '3', '4']",1,2023.2.3,harveyvisual,2.1,[],8,0.75,
0,pause,0.4,None,None,None,0,23,23,23,,,,,,,,,,,,,D001,visual,1,[],"['1', '2', '3', '4']",1,2023.2.3,harveyvisual,2.1,[],8,0.75,
3,dot,0.3,['dot'],['density'],black,0,24,24,24,,,10.800220966339111,10.506394863128662,10.806376934051514,dot,"[0.1, 0.08, 0.06]","[[0.026071599024748527, -0.32860913997604846], [-0.11834724389398482, -0.18584523127985947], [0.10068982493997472, -0.12518245043845455]]",density,black,,,D001,visual,1,[],"['1', '2', '3', '4']",1,2023.2.3,harveyvisual,2.1,[],8,0.75,
0,pause,0.4,None,None,None,0,25,25,25,,,,,,,,,,,,,D001,visual,1,[],"['1', '2', '3', '4']",1,2023.2.3,harveyvisual,2.1,[],8,0.75,
3,dot,0.3,['dot'],['density'],black,0,26,26,26,,,11.500210046768188,11.20638394355774,11.506929874420166,dot,"[0.06, 0.06, 0.06]","[[-0.1827482077423914, 0.13189758396693702], [0.006935645283384683, 0.04732296079382947], [-0.049709858873230685, 0.28599666368451326]]",density,black,,,D001,visual,1,[],"['1', '2', '3', '4']",1,2023.2.3,harveyvisual,2.1,[],8,0.75,
0,pause,0.4,None,None,None,0,27,27,27,,,,,,,,,,,,,D001,visual,1,[],"['1', '2', '3', '4']",1,2023.2.3,harveyvisual,2.1,[],8,0.75,
3,dot,0.3,['dot'],['density'],black,0,28,28,28,,,12.20021390914917,11.906999826431274,12.206925868988037,dot,"[0.08, 0.1, 0.06]","[[0.07700183490032705, -0.35627018624379625], [-0.11838355721398923, -0.41989981358322065], [0.04553884901650391, -0.5822363694770394]]",density,black,,,D001,visual,1,[],"['1', '2', '3', '4']",1,2023.2.3,harveyvisual,2.1,[],8,0.75,
0,pause,0.4,None,None,None,0,29,29,29,,,,,,,,,,,,,D001,visual,1,[],"['1', '2', '3', '4']",1,2023.2.3,harveyvisual,2.1,[],8,0.75,
3,dot,0.3,['dot'],['density'],black,0,30,30,30,,,12.900223970413208,12.606950998306274,12.906968832015991,dot,"[0.06, 0.08, 0.06]","[[-0.32624451712468355, -0.43854848545497693], [-0.39409142490376414, -0.22516425170789148], [-0.152352104904091, -0.33204091051628687]]",density,black,,,D001,visual,1,[],"['1', '2', '3', '4']",1,2023.2.3,harveyvisual,2.1,[],8,0.75,
0,pause,0.4,None,None,None,0,31,31,31,,,,,,,,,,,,,D001,visual,1,[],"['1', '2', '3', '4']",1,2023.2.3,harveyvisual,2.1,[],8,0.75,
3,dot,0.3,['dot'],['density'],black,0,32,32,32,,,13.600219011306763,13.306948900222778,13.606907844543457,dot,"[0.08, 0.08, 0.08]","[[-0.3082868261871679, -0.3137599619928766], [-0.14816041357862977, -0.19371393562593295], [-0.35304767783039576, -0.10610354059871957]]",density,black,,,D001,visual,1,[],"['1', '2', '3', '4']",1,2023.2.3,harveyvisual,2.1,[],8,0.75,
0,pause,0.4,None,None,None,0,33,33,33,,,,,,,,,,,,,D001,visual,1,[],"['1', '2', '3', '4']",1,2023.2.3,harveyvisual,2.1,[],8,0.75,
3,dot,0.3,['dot'],['density'],white,0,34,34,34,,,14.30023193359375,14.006909847259521,14.309109926223755,dot,"[0.08, 0.1, 0.06]","[[0.35100391059830643, -0.4491085892346253], [0.13011513135189492, -0.5590284990295896], [0.16905753934955023, -0.35714526366544236]]",density,white,,,D001,visual,1,[],"['1', '2', '3', '4']",1,2023.2.3,harveyvisual,2.1,[],8,0.75,
0,pause,0.4,None,None,None,0,35,35,35,,,,,,,,,,,1,14.030134916305542,D001,visual,1,[],"['1', '2', '3', '4']",1,2023.2.3,harveyvisual,2.1,[],8,0.75,
4,dot,0.3,['dot'],['density'],black,0,36,36,36,,,15.000232934951782,14.710688829421997,15.009119033813477,dot,"[0.08, 0.1, 0.06, 0.08]","[[-0.47693618450386616, -0.1525114564248906], [-0.12413069550496705, 0.03327587270375396], [-0.32964510574757994, -0.012304557788591533], [-0.22851041427491325, -0.22018408257550984]]",density,black,,,D001,visual,1,[],"['1', '2', '3', '4']",1,2023.2.3,harveyvisual,2.1,[],8,0.75,
0,pause,0.4,None,None,None,0,37,37,37,,,,,,,,,,,,,D001,visual,1,[],"['1', '2', '3', '4']",1,2023.2.3,harveyvisual,2.1,[],8,0.75,
4,dot,0.3,['dot'],['density'],black,0,38,38,38,,,15.700215816497803,15.409093856811523,15.709091901779175,dot,"[0.08, 0.1, 0.1, 0.1]","[[-0.3884818304242726, 0.11421243679268873], [-0.11472928134965246, -0.13141119473891247], [-0.1657593024508462, 0.13368900033666462], [-0.36655717599886073, -0.10387254737714131]]",density,black,,,D001,visual,1,[],"['1', '2', '3', '4']",1,2023.2.3,harveyvisual,2.1,[],8,0.75,
0,pause,0.4,None,None,None,0,39,39,39,,,,,,,,,,,,,D001,visual,1,[],"['1', '2', '3', '4']",1,2023.2.3,harveyvisual,2.1,[],8,0.75,
4,dot,0.3,['dot'],['density'],black,0,40,40,40,,,16.400216817855835,16.10907793045044,16.409065008163452,dot,"[0.08, 0.06, 0.06, 0.08]","[[0.37520814465037905, -0.4432880181017862], [0.4692830223283075, -0.19655799526205012], [0.3063896805601884, -0.036788685454167226], [0.2471196723673293, -0.2344474043623998]]",density,black,,,D001,visual,1,[],"['1', '2', '3', '4']",1,2023.2.3,harveyvisual,2.1,[],8,0.75,
0,pause,0.4,None,None,None,0,41,41,41,,,,,,,,,,,,,D001,visual,1,[],"['1', '2', '3', '4']",1,2023.2.3,harveyvisual,2.1,[],8,0.75,
4,dot,0.3,['dot'],['density'],black,0,42,42,42,,,17.10022282600403,16.809062957763672,17.109055995941162,dot,"[0.08, 0.08, 0.08, 0.08]","[[-0.4771446773377139, 0.25157103962592786], [-0.4259846000875058, -0.15982147080050188], [-0.5514119563937664, 0.017569371675289724], [-0.3400083930451492, 0.09263869595453958]]",density,black,,,D001,visual,1,[],"['1', '2', '3', '4']",1,2023.2.3,harveyvisual,2.1,[],8,0.75,
0,pause,0.4,None,None,None,0,43,43,43,,,,,,,,,,,,,D001,visual,1,[],"['1', '2', '3', '4']",1,2023.2.3,harveyvisual,2.1,[],8,0.75,
4,dot,0.3,['dot'],['density'],black,0,44,44,44,,,17.800217866897583,17.509053945541382,17.809027910232544,dot,"[0.06, 0.08, 0.1, 0.1]","[[0.13421512820946938, -0.5336194340609706], [0.2622623892029083, -0.3575253733063478], [0.024533045116508903, -0.3376850530006363], [0.166924465117498, -0.0963569090623874]]",density,black,,,D001,visual,1,[],"['1', '2', '3', '4']",1,2023.2.3,harveyvisual,2.1,[],8,0.75,
0,pause,0.4,None,None,None,0,45,45,45,,,,,,,,,,,,,D001,visual,1,[],"['1', '2', '3', '4']",1,2023.2.3,harveyvisual,2.1,[],8,0.75,
4,dot,0.3,['dot'],['density'],black,0,46,46,46,,,18.500223875045776,18.209028005599976,18.50901699066162,dot,"[0.06, 0.06, 0.06, 0.06]","[[0.3225849294362846, -0.13157286681700714], [0.2615083713376798, -0.38790318245483907], [0.48399895238698887, -0.2981397300552969], [0.514252162939949, -0.043630752066028525]]",density,black,,,D001,visual,1,[],"['1', '2', '3', '4']",1,2023.2.3,harveyvisual,2.1,[],8,0.75,
0,pause,0.4,None,None,None,0,47,47,47,,,,,,,,,,,,,D001,visual,1,[],"['1', '2', '3', '4']",1,2023.2.3,harveyvisual,2.1,[],8,0.75,
5,dot,0.3,['dot'],['density'],white,0,48,48,48,,,19.200223922729492,18.909255027770996,19.209264993667603,dot,"[0.06, 0.08, 0.06, 0.06, 0.06]","[[-0.13250041589442924, 0.4634743177333449], [-0.03625216126902591, 0.28212032656479163], [0.10864293512180892, 0.5244886061775208], [-0.2806491611955352, 0.29160063440784684], [-0.17458602784440078, 0.11997474961663163]]",density,white,,,D001,visual,1,[],"['1', '2', '3', '4']",1,2023.2.3,harveyvisual,2.1,[],8,0.75,
0,pause,0.4,None,None,None,0,49,49,49,,,,,,,,,,,1,18.878918886184692,D001,visual,1,[],"['1', '2', '3', '4']",1,2023.2.3,harveyvisual,2.1,[],8,0.75,
5,dot,0.3,['dot'],['density'],black,0,50,50,50,,,19.900223970413208,19.608983993530273,19.908952951431274,dot,"[0.06, 0.06, 0.06, 0.1, 0.08]","[[-0.4702494158317004, 0.19352793081356498], [-0.36864189631283095, -0.2113573127283173], [-0.3573601989406874, -0.007363185939446715], [-0.15559938224235453, -0.02548680069503583], [-0.25069196230576396, 0.1747846118010945]]",density,black,,,D001,visual,1,[],"['1', '2', '3', '4']",1,2023.2.3,harveyvisual,2.1,[],8,0.75,
0,pause,0.4,None,None,None,0,51,51,51,,,,,,,,,,,,,D001,visual,1,[],"['1', '2', '3', '4']",1,2023.2.3,harveyvisual,2.1,[],8,0.75,
5,dot,0.3,['dot'],['density'],black,0,52,52,52,,,20.60021996498108,20.308940887451172,20.608927965164185,dot,"[0.08, 0.1, 0.08, 0.06, 0.06]","[[-0.24811222937808852, -0.0926462173418487], [-0.0684102839715827, 0.053707960252323945], [-0.4199359189551936, 0.028595247832400618], [-0.4311232183625476, -0.17348815390478414], [-0.08153496032007611, -0.23043043025001772]]",density,black,,,D001,visual,1,[],"['1', '2', '3', '4']",1,2023.2.3,harveyvisual,2.1,[],8,0.75,
0,pause,0.4,None,None,None,0,53,53,53,,,,,,,,,,,,,D001,visual,1,[],"['1', '2', '3', '4']",1,2023.2.3,harveyvisual,2.1,[],8,0.75,
5,dot,0.3,['dot'],['density'],black,0,54,54,54,,,21.300230026245117,21.008973836898804,21.30889892578125,dot,"[0.06, 0.06, 0.1, 0.1, 0.06]","[[0.2075830250205083, 0.5448960418430373], [0.010600229768786232, 0.45420498888786176], [-0.10187712889758427, 0.28364076042242115], [0.1691377395635631, 0.293820614486451], [-0.2596336492265815, 0.40815120909286945]]",density,black,,,D001,visual,1,[],"['1', '2', '3', '4']",1,2023.2.3,harveyvisual,2.1,[],8,0.75,
0,pause,0.4,None,None,None,0,55,55,55,,,,,,,,,,,,,D001,visual,1,[],"['1', '2', '3', '4']",1,2023.2.3,harveyvisual,2.1,[],8,0.75,
5,dot,0.3,['dot'],['density'],black,0,56,56,56,,,22.000216960906982,21.708911895751953,22.008931875228882,dot,"[0.06, 0.1, 0.08, 0.06, 0.08]","[[0.10558973120531606, -0.20428866875977839], [-0.0893225412758366, 0.16524926947551877], [-0.05793580974794309, -0.07826743033729393], [0.11130747138107101, 0.10875249109580729], [0.28035132100960686, -0.09064984251937742]]",density,black,,,D001,visual,1,[],"['1', '2', '3', '4']",1,2023.2.3,harveyvisual,2.1,[],8,0.75,
0,pause,0.4,None,None,None,0,57,57,57,,,,,,,,,,,,,D001,visual,1,[],"['1', '2', '3', '4']",1,2023.2.3,harveyvisual,2.1,[],8,0.75,
5,dot,0.3,['dot'],['density'],black,0,58,58,58,,,22.70021891593933,22.408881902694702,22.70892882347107,dot,"[0.06, 0.08, 0.08, 0.06, 0.08]","[[0.2947939438731228, -0.23060267152592065], [-0.16069394766121817, -0.3416383267983795], [0.17571447256805817, -0.04795497140357211], [-0.06398416024856234, -0.043165972544212804], [0.046845399773749824, -0.2436216536023896]]",density,black,,,D001,visual,1,[],"['1', '2', '3', '4']",1,2023.2.3,harveyvisual,2.1,[],8,0.75,
0,pause,0.4,None,None,None,0,59,59,59,,,,,,,,,,,,,D001,visual,1,[],"['1', '2', '3', '4']",1,2023.2.3,harveyvisual,2.1,[],8,0.75,
6,dot,0.3,['dot'],['density'],black,0,60,60,60,,,23.400218963623047,23.1089289188385,23.409147024154663,dot,"[0.1, 0.06, 0.06, 0.08, 0.08, 0.1]","[[-0.36954580940820725, 0.05815165478813925], [-0.28534481837461456, -0.12375618373579561], [-0.26428406214372846, 0.28010711109252995], [-0.5657182147315603, -0.11096589427743007], [-0.1492704575467133, 0.06899119969773035], [-0.5584105255039638, 0.13196562846102936]]",density,black,,,D001,visual,1,[],"['1', '2', '3', '4']",1,2023.2.3,harveyvisual,2.1,[],8,0.75,
0,pause,0.4,None,None,None,0,61,61,61,,,,,,,,,,,,,D001,visual,1,[],"['1', '2', '3', '4']",1,2023.2.3,harveyvisual,2.1,[],8,0.75,
6,dot,0.3,['dot'],['density'],black,0,62,62,62,,,24.100209951400757,23.8088858127594,24.109598875045776,dot,"[0.06, 0.08, 0.1, 0.06, 0.1, 0.06]","[[-0.2094991805307552, 0.08302354111181451], [0.09557258300728075, 0.3458622669714129], [0.22056408800171526, -0.017094369341425636], [0.026601936584830878, 0.1297564650757722], [-0.11681768564656844, 0.2726391152528644], [-0.03570146891163527, -0.09222923444939024]]",density,black,,,D001,visual,1,[],"['1', '2', '3', '4']",1,2023.2.3,harveyvisual,2.1,[],8,0.75,
0,pause,0.4,None,None,None,0,63,63,63,,,,,,,,,,,,,D001,visual,1,[],"['1', '2', '3', '4']",1,2023.2.3,harveyvisual,2.1,[],8,0.75,
6,dot,0.3,['dot'],['density'],black,0,64,64,64,,,24.800233840942383,24.50889301300049,24.80881690979004,dot,"[0.1, 0.1, 0.1, 0.1, 0.08, 0.1]","[[0.01776890784276672, 0.3448500499300058], [-0.18238616215991446, 0.4840889924469993], [-0.2129582374372363, 0.07157874559070018], [-0.41549008775918617, 0.14353268657608398], [0.019487844458329944, 0.1389587799501653], [-0.21004805074000235, 0.2837936954907191]]",density,black,,,D001,visual,1,[],"['1', '2', '3', '4']",1,2023.2.3,harveyvisual,2.1,[],8,0.75,
0,pause,0.4,None,None,None,0,65,65,65,,,,,,,,,,,,,D001,visual,1,[],"['1', '2', '3', '4']",1,2023.2.3,harveyvisual,2.1,[],8,0.75,
6,dot,0.3,['dot'],['density'],white,0,66,66,66,,,25.500212907791138,25.208868980407715,25.508864879608154,dot,"[0.08, 0.1, 0.1, 0.06, 0.06, 0.1]","[[0.4249538099490167, -0.025354946498656116], [0.305005901383002, 0.397829445973664], [0.04954868862097969, 0.09819418046919175], [0.452299537631068, 0.2574679639516015], [0.21081936584905453, -0.08903757916275208], [0.27954488569289765, 0.14103100078867375]]",density,white,,,D001,visual,1,[],"['1', '2', '3', '4']",1,2023.2.3,harveyvisual,2.1,[],8,0.75,
0,pause,0.4,None,None,None,0,67,67,67,,,,,,,,,,,1,25.157508850097656,D001,visual,1,[],"['1', '2', '3', '4']",1,2023.2.3,harveyvisual,2.1,[],8,0.75,
6,dot,0.3,['dot'],['density'],black,0,68,68,68,,,26.200233936309814,25.908798933029175,26.208799839019775,dot,"[0.06, 0.1, 0.06, 0.1, 0.08, 0.1]","[[0.4249538099490167, -0.025354946498656116], [0.305005901383002, 0.397829445973664], [0.04954868862097969, 0.09819418046919175], [0.452299537631068, 0.2574679639516015], [0.21081936584905453, -0.08903757916275208], [0.27954488569289765, 0.14103100078867375]]",density,black,,,D001,visual,1,[],"['1', '2', '3', '4']",1,2023.2.3,harveyvisual,2.1,[],8,0.75,
0,pause,0.4,None,None,None,0,69,69,69,,,,,,,,,,,,,D001,visual,1,[],"['1', '2', '3', '4']",1,2023.2.3,harveyvisual,2.1,[],8,0.75,
6,dot,0.3,['dot'],['density'],black,0,70,70,70,,,26.900210857391357,26.608779907226562,26.908769845962524,dot,"[0.06, 0.08, 0.06, 0.08, 0.06, 0.1]","[[-0.4718675517483807, -0.080313523620691], [-0.31247550484642445, -0.23218356379105512], [-0.2575593735283343, 0.24158811959194182], [-0.2948669609652105, 0.017652028830845004], [-0.0883702388727292, 0.027494606567874856], [-0.45154527444290743, 0.17691331155056722]]",density,black,,,D001,visual,1,[],"['1', '2', '3', '4']",1,2023.2.3,harveyvisual,2.1,[],8,0.75,
0,pause,0.4,None,None,None,0,71,71,71,,,,,,,,,,,,,D001,visual,1,[],"['1', '2', '3', '4']",1,2023.2.3,harveyvisual,2.1,[],8,0.75,
7,dot,0.3,['dot'],['density'],black,0,72,72,72,,,27.60021686553955,27.308779001235962,27.608765840530396,dot,"[0.1, 0.08, 0.06, 0.1, 0.08, 0.1, 0.06]","[[0.020512593940644967, 0.06058225053891463], [-0.12457192929091994, 0.22210134043855223], [0.2267676360835929, 0.07227077176864677], [-0.19381219694833235, -0.14277017550647156], [0.096077147208419, -0.13886261858003718], [0.087393672000005, 0.26445259248386815], [-0.018663113410245565, 0.4344684582511623]]",density,black,,,D001,visual,1,[],"['1', '2', '3', '4']",1,2023.2.3,harveyvisual,2.1,[],8,0.75,
0,pause,0.4,None,None,None,0,73,73,73,,,,,,,,,,,,,D001,visual,1,[],"['1', '2', '3', '4']",1,2023.2.3,harveyvisual,2.1,[],8,0.75,
7,dot,0.3,['dot'],['density'],black,0,74,74,74,,,28.30022692680359,28.008836030960083,28.30879282951355,dot,"[0.1, 0.08, 0.06, 0.06, 0.06, 0.06, 0.06]","[[0.36124702795982905, 0.02861074637729004], [0.035495459613383976, -0.03736980990239832], [0.4545067059830119, -0.22475560039862832], [0.21831658066582188, 0.20471036725638603], [0.23621436127430617, -0.13960795011418334], [0.5606656921354746, -0.047865395727918474], [0.5468561378002438, 0.2161657569851178]]",density,black,,,D001,visual,1,[],"['1', '2', '3', '4']",1,2023.2.3,harveyvisual,2.1,[],8,0.75,
0,pause,0.4,None,None,None,0,75,75,75,,,,,,,,,,,,,D001,visual,1,[],"['1', '2', '3', '4']",1,2023.2.3,harveyvisual,2.1,[],8,0.75,
7,dot,0.3,['dot'],['density'],black,0,76,76,76,,,29.000208854675293,28.708735942840576,29.00873899459839,dot,"[0.08, 0.06, 0.1, 0.06, 0.08, 0.06, 0.06]","[[0.12902113605384963, -0.35167066519854956], [0.3838909825822851, -0.05572740120406059], [-0.02857767273637445, 0.1549795872955612], [0.19333287999408408, 0.10698923431715611], [-0.08146847087507005, -0.06064403559207536], [0.18020694687254563, -0.15550905334431223], [-0.07225335190945896, -0.28606481362007624]]",density,black,,,D001,visual,1,[],"['1', '2', '3', '4']",1,2023.2.3,harveyvisual,2.1,[],8,0.75,
0,pause,0.4,None,None,None,0,77,77,77,,,,,,,,,,,,,D001,visual,1,[],"['1', '2', '3', '4']",1,2023.2.3,harveyvisual,2.1,[],8,0.75,
7,dot,0.3,['dot'],['density'],black,0,78,78,78,,,29.700212955474854,29.408735990524292,29.708778858184814,dot,"[0.06, 0.06, 0.08, 0.1, 0.06, 0.1, 0.1]","[[-0.23675386446936744, -0.019099737415117023], [-0.3793299299598963, 0.3840296974489508], [0.16444052853698826, 0.25964081185693966], [-0.17441972694422359, 0.2376971805458075], [0.025313303261310992, 0.0859287266400301], [-0.3760941870171968, 0.1722047307528389], [-0.012854506600276856, 0.3778399739802858]]",density,black,,,D001,visual,1,[],"['1', '2', '3', '4']",1,2023.2.3,harveyvisual,2.1,[],8,0.75,
0,pause,0.4,None,None,None,0,79,79,79,,,,,,,,,,,,,D001,visual,1,[],"['1', '2', '3', '4']",1,2023.2.3,harveyvisual,2.1,[],8,0.75,
7,dot,0.3,['dot'],['density'],white,0,80,80,80,,,30.40020990371704,30.108726024627686,30.40869903564453,dot,"[0.06, 0.08, 0.08, 0.1, 0.1, 0.1, 0.08]","[[0.2037857981676222, -0.1815971672986122], [0.4890839798603071, 0.25295445478885614], [0.1294833597440532, 0.050421522491765555], [0.5249724357971474, 0.014331621614536631], [0.4084294087299191, -0.1546943519977724], [0.31356179590401956, 0.13415696527685209], [-0.016262925640377804, -0.1588315022511765]]",density,white,,,D001,visual,1,[],"['1', '2', '3', '4']",1,2023.2.3,harveyvisual,2.1,[],8,0.75,
0,pause,0.4,None,None,None,0,81,81,81,,,,,,,,,,,1,30.05913281440735,D001,visual,1,[],"['1', '2', '3', '4']",1,2023.2.3,harveyvisual,2.1,[],8,0.75,
7,dot,0.3,['dot'],['density'],white,0,82,82,82,,,31.100239038467407,30.808703899383545,31.126410007476807,dot,"[0.08, 0.1, 0.08, 0.06, 0.1, 0.08, 0.06]","[[-0.16635260996794698, 0.28084462036912], [-0.40218122969076125, -0.17991686156932815], [-0.0845402480451966, 0.09445086570213204], [-0.12722724135381816, -0.176029296145206], [-0.3668576348978093, 0.24153552923633032], [-0.5374975881789634, 0.10465170418994485], [-0.31219932221879926, 0.029177302383891702]]",density,white,,,D001,visual,1,[],"['1', '2', '3', '4']",1,2023.2.3,harveyvisual,2.1,[],8,0.75,
0,pause,0.4,None,None,None,0,83,83,83,,,,,,,,,,,1,30.928228855133057,D001,visual,1,[],"['1', '2', '3', '4']",1,2023.2.3,harveyvisual,2.1,[],8,0.75,
8,dot,0.3,['dot'],['density'],white,0,84,84,84,,,31.80021381378174,31.509073972702026,31.80866289138794,dot,"[0.08, 0.1, 0.1, 0.1, 0.1, 0.06, 0.1, 0.06]","[[0.2715518471235014, -0.4245138665073026], [0.03602391524707561, -0.40638782213015096], [0.4828297141312073, -0.09119901312376678], [0.02835794216237903, 0.028275321652194735], [-0.0895445032969687, -0.19822740391127236], [0.3178997883629752, 0.08245100984997318], [0.21920060966397442, -0.22342839817001514], [0.46807969757011175, -0.32427319705723295]]",density,white,,,D001,visual,1,[],"['1', '2', '3', '4']",1,2023.2.3,harveyvisual,2.1,[],8,0.75,
0,pause,0.4,None,None,None,0,85,85,85,,,,,,,,,,,1,31.404227018356323,D001,visual,1,[],"['1', '2', '3', '4']",1,2023.2.3,harveyvisual,2.1,[],8,0.75,
8,dot,0.3,['dot'],['density'],black,0,86,86,86,,,32.50022101402283,32.20864295959473,32.50862693786621,dot,"[0.06, 0.06, 0.1, 0.08, 0.1, 0.1, 0.1, 0.1]","[[0.4694715163891994, 0.13329625263481096], [0.14358160208090395, 0.35167434699812705], [0.41559735975202405, 0.3690190921299561], [-0.041805684447173724, 0.4315913723966695], [-0.04993254304034498, 0.2285123563850015], [0.25337459258073897, 0.16365346604105616], [0.18476510797087844, 0.5481483313560797], [0.14868800337579569, -0.10349430855878591]]",density,black,,,D001,visual,1,[],"['1', '2', '3', '4']",1,2023.2.3,harveyvisual,2.1,[],8,0.75,
0,pause,0.4,None,None,None,0,87,87,87,,,,,,,,,,,,,D001,visual,1,[],"['1', '2', '3', '4']",1,2023.2.3,harveyvisual,2.1,[],8,0.75,
8,dot,0.3,['dot'],['density'],black,0,88,88,88,,,33.2002158164978,32.90868782997131,33.20863890647888,dot,"[0.06, 0.1, 0.06, 0.06, 0.06, 0.1, 0.1, 0.1]","[[-0.503192831713878, 0.2818759502405315], [-0.1851508851951268, 0.5121570681976513], [-0.3428391331654375, 0.06336275884690255], [-0.2620893383019587, 0.2653373399092269], [-0.09201493982796581, 0.138249408295409], [-0.14188251758679749, -0.08598668861617832], [-0.5391716430792404, 0.01870596234549803], [-0.2779852747659758, -0.23950462846526258]]",density,black,,,D001,visual,1,[],"['1', '2', '3', '4']",1,2023.2.3,harveyvisual,2.1,[],8,0.75,
0,pause,0.4,None,None,None,0,89,89,89,,,,,,,,,,,,,D001,visual,1,[],"['1', '2', '3', '4']",1,2023.2.3,harveyvisual,2.1,[],8,0.75,
8,dot,0.3,['dot'],['density'],black,0,90,90,90,,,33.90023589134216,33.60862588882446,33.9086058139801,dot,"[0.1, 0.1, 0.1, 0.1, 0.06, 0.06, 0.08, 0.08]","[[-0.3167478768396544, -0.2124469325344782], [0.11150510454677101, -0.25361932254341324], [0.17657050060311263, -0.496926349220185], [0.20833757931744315, -0.0002320808252021913], [-0.0015234955214533466, 0.034722119540356526], [-0.10690598217119997, -0.19846612199298916], [0.32498422138424443, -0.23444872628509345], [-0.054741640541526956, -0.4230750989992696]]",density,black,,,D001,visual,1,[],"['1', '2', '3', '4']",1,2023.2.3,harveyvisual,2.1,[],8,0.75,
0,pause,0.4,None,None,None,0,91,91,91,,,,,,,,,,,,,D001,visual,1,[],"['1', '2', '3', '4']",1,2023.2.3,harveyvisual,2.1,[],8,0.75,
8,dot,0.3,['dot'],['density'],black,0,92,92,92,,,34.60022592544556,34.30874800682068,34.608649015426636,dot,"[0.06, 0.08, 0.08, 0.06, 0.06, 0.08, 0.08, 0.1]","[[0.29210958841889567, 0.026991922891258572], [0.03093533645276146, 0.3258936230244337], [-0.13014708308220477, 0.20110385145229231], [0.463805327987396, 0.2670013362689149], [0.17887675575806267, 0.48912385903522404], [0.2495142025194702, 0.28253247413027655], [0.03200252102949923, -0.1932501096446728], [0.04457092617056691, 0.07668709382136672]]",density,black,,,D001,visual,1,[],"['1', '2', '3', '4']",1,2023.2.3,harveyvisual,2.1,[],8,0.75,
0,pause,0.4,None,None,None,0,93,93,93,,,,,,,,,,,,,D001,visual,1,[],"['1', '2', '3', '4']",1,2023.2.3,harveyvisual,2.1,[],8,0.75,
8,dot,0.3,['dot'],['density'],black,0,94,94,94,,,35.30022382736206,35.008787870407104,35.30871081352234,dot,"[0.06, 0.1, 0.06, 0.08, 0.06, 0.06, 0.08, 0.08]","[[0.17295790489511154, -0.46037743866749825], [0.1416591427765588, 0.05421051799673566], [0.21994266958916148, -0.13656690113679631], [0.3639906379971415, 0.0627265571221228], [0.015481321741344221, -0.13916897583717935], [0.440802488837635, -0.2883976186876931], [0.5157567705321767, -0.08800602901884749], [0.24768837887357187, 0.24424825162618136]]",density,black,,,D001,visual,1,[],"['1', '2', '3', '4']",1,2023.2.3,harveyvisual,2.1,[],8,0.75,
0,pause,0.4,None,None,None,0,95,95,95,,,,,,,,,,,,,D001,visual,1,[],"['1', '2', '3', '4']",1,2023.2.3,harveyvisual,2.1,[],8,0.75,
9,dot,0.3,['dot'],['density'],white,0,96,96,96,,,36.00023889541626,35.708542823791504,36.008535861968994,dot,"[0.06, 0.08, 0.08, 0.06, 0.1, 0.06, 0.06, 0.08, 0.1]","[[0.12352761201622256, -0.5468572532837559], [0.3269537579821693, -0.14821727133703638], [-0.17374906020363926, -0.07190913605219341], [-0.07646026346349713, -0.5341566642345157], [0.06446752128858728, 0.011530587655488696], [0.17734850627899523, -0.32847254707869106], [-0.01015131191695844, -0.24065236825376074], [-0.3732824370369478, -0.21519922319826376], [-0.23017550258214428, -0.35747389881463476]]",density,white,,,D001,visual,1,[],"['1', '2', '3', '4']",1,2023.2.3,harveyvisual,2.1,[],8,0.75,
0,pause,0.4,None,None,None,0,97,97,97,,,,,,,,,,,1,35.70674991607666,D001,visual,1,[],"['1', '2', '3', '4']",1,2023.2.3,harveyvisual,2.1,[],8,0.75,
9,dot,0.3,['dot'],['density'],black,0,98,98,98,,,36.70023798942566,36.4085259437561,36.70853281021118,dot,"[0.06, 0.06, 0.1, 0.1, 0.1, 0.1, 0.1, 0.1, 0.06]","[[-0.01550530976013749, -0.4685693709261764], [-0.18673980358629047, -0.03677939788938074], [-0.492500386343057, -0.31631588298646995], [-0.31211872613566405, -0.49615226168915794], [-0.29213402726227655, -0.2779210730957987], [-0.48141959868665407, -0.11483975315711048], [0.2805727548720413, -0.20550850813502752], [-0.0662162642732561, -0.2200496541038322], [0.06776853683421198, -0.046300179137656175]]",density,black,,,D001,visual,1,[],"['1', '2', '3', '4']",1,2023.2.3,harveyvisual,2.1,[],8,0.75,
0,pause,0.4,None,None,None,0,99,99,99,,,,,,,,,,,,,D001,visual,1,[],"['1', '2', '3', '4']",1,2023.2.3,harveyvisual,2.1,[],8,0.75,
9,dot,0.3,['dot'],['density'],white,0,100,100,100,,,37.40023398399353,37.1085319519043,37.408546924591064,dot,"[0.1, 0.1, 0.1, 0.1, 0.1, 0.08, 0.06, 0.1, 0.06]","[[0.22829877875946783, -0.39640994854570016], [0.3366371496270161, 0.05839125036393789], [-0.11436045239834208, -0.12024221759915668], [-0.02100147820737577, -0.3824026009196371], [0.08479146627654295, 0.024089629435920912], [0.16206374850784472, -0.16075841177209507], [0.38495438842944835, -0.24810596019115372], [-0.23418047716532614, 0.09565997955556291], [0.2111996426858246, 0.23215637940447356]]",density,white,,,D001,visual,1,[],"['1', '2', '3', '4']",1,2023.2.3,harveyvisual,2.1,[],8,0.75,
0,pause,0.4,None,None,None,0,101,101,101,,,,,,,,,,,1,37.04600191116333,D001,visual,1,[],"['1', '2', '3', '4']",1,2023.2.3,harveyvisual,2.1,[],8,0.75,
9,dot,0.3,['dot'],['density'],black,0,102,102,102,,,38.10023498535156,37.808493852615356,38.10848593711853,dot,"[0.06, 0.1, 0.06, 0.08, 0.08, 0.08, 0.06, 0.1, 0.08]","[[0.31750259908069645, 0.09103062301409195], [-0.10814993995151222, -0.14883262012051235], [0.2615101699546999, -0.13245952524223892], [0.014531427323725789, 0.3887544696515085], [-0.1117096847062306, 0.09593752649312724], [0.07810272484559946, -0.019955638642360052], [-0.26173373106631487, 0.2840804484106463], [0.4370020372247476, 0.2669512546191977], [0.11115841416421544, 0.18722161068425575]]",density,black,,,D001,visual,1,[],"['1', '2', '3', '4']",1,2023.2.3,harveyvisual,2.1,[],8,0.75,
0,pause,0.4,None,None,None,0,103,103,103,,,,,,,,,,,,,D001,visual,1,[],"['1', '2', '3', '4']",1,2023.2.3,harveyvisual,2.1,[],8,0.75,
9,dot,0.3,['dot'],['density'],black,0,104,104,104,,,38.800222873687744,38.50851392745972,38.80854296684265,dot,"[0.1, 0.1, 0.1, 0.1, 0.1, 0.08, 0.06, 0.1, 0.1]","[[0.16751238249231654, 0.5577961240465925], [-0.27296145406993233, 0.4862198967380745], [-0.029185467938656964, 0.15062746822878756], [-0.0646201772689005, 0.5687739076077192], [0.1739328392933146, 0.3418730943321047], [-0.141244529573345, 0.32572795328380527], [-0.5161698704605421, 0.1834233825743511], [0.21727962056556488, 0.12903401361548372], [-0.23724269532595021, 0.10991409904419316]]",density,black,,,D001,visual,1,[],"['1', '2', '3', '4']",1,2023.2.3,harveyvisual,2.1,[],8,0.75,
0,pause,0.4,None,None,None,0,105,105,105,,,,,,,,,,,,,D001,visual,1,[],"['1', '2', '3', '4']",1,2023.2.3,harveyvisual,2.1,[],8,0.75,
9,dot,0.3,['dot'],['density'],black,0,106,106,106,,,39.50022482872009,39.208483934402466,39.508512020111084,dot,"[0.06, 0.1, 0.06, 0.1, 0.06, 0.08, 0.1, 0.06, 0.1]","[[0.43694394638140777, -0.3313910020207278], [-0.12671083892604185, -0.2904925475365486], [0.20104083284362928, 0.10806727359081147], [0.1376754545064979, -0.09924520624161907], [0.19021248837847174, -0.31516489548878085], [0.3653456942078643, -0.09076399745187974], [0.1403131072824284, -0.5562242851951704], [-0.005445667935095978, 0.0898710966384087], [-0.11923067905189093, -0.07827803450029165]]",density,black,,,D001,visual,1,[],"['1', '2', '3', '4']",1,2023.2.3,harveyvisual,2.1,[],8,0.75,
0,pause,0.4,None,None,None,0,107,107,107,,,,,,,,,,,,,D001,visual,1,[],"['1', '2', '3', '4']",1,2023.2.3,harveyvisual,2.1,[],8,0.75,
20,dot,0.3,['dot'],['density'],black,0,108,108,108,,,40.20024085044861,39.925129890441895,40.20844292640686,dot,"[0.1, 0.06, 0.06, 0.08, 0.08, 0.06, 0.1, 0.06, 0.06, 0.1, 0.08, 0.1, 0.06, 0.1, 0.1, 0.1, 0.08, 0.08, 0.08, 0.08]","[[0.5344326916182961, 0.20756834443223382], [-0.5691078555816651, -0.06591542451294718], [0.5644826202183849, -0.03231726974177018], [0.04603316324120954, 0.30679118750559375], [0.3204444250554537, 0.16244204112754979], [0.25633992735572986, 0.5192443183102006], [0.35146440636454224, -0.40309391736890665], [-0.34371820815623255, -0.387305114819753], [-0.2063773404868422, -0.23305803497533079], [0.08795875244414697, -0.3159240401049672], [0.11674423946150769, -0.5703825647621429], [-0.11083767862256205, -0.5430278699528381], [-0.15172025770134223, 0.4390604115140706], [-0.4367502687883163, 0.3920479480345154], [-0.2272639021723476, 0.1904997869471865], [0.4960347782506126, -0.22493117817001018], [-0.4242125232796017, 0.16746168073885703], [0.09180789337893147, 0.08165758970644077], [0.19149615733923053, -0.09001482255584403], [-0.5210748311045871, -0.24983811532974845]]",density,black,,,D001,visual,1,[],"['1', '2', '3', '4']",1,2023.2.3,harveyvisual,2.1,[],8,0.75,
0,pause,0.4,None,None,None,0,109,109,109,,,,,,,,,,,,,D001,visual,1,[],"['1', '2', '3', '4']",1,2023.2.3,harveyvisual,2.1,[],8,0.75,
20,dot,0.3,['dot'],['density'],black,0,110,110,110,,,40.900238037109375,40.6250958442688,40.90840792655945,dot,"[0.08, 0.1, 0.08, 0.06, 0.08, 0.1, 0.1, 0.1, 0.1, 0.06, 0.1, 0.08, 0.06, 0.08, 0.06, 0.06, 0.08, 0.06, 0.08, 0.08]","[[0.2847492762383248, -0.48991047115743125], [-0.038862732671002265, 0.3365461517209979], [0.22825857888300982, -0.07541780434254175], [0.08289271795928432, 0.5402557797098866], [0.06962789472039066, -0.28796755401556207], [0.39382346576494964, 0.4290419664759423], [-0.1154209036439427, -0.5376676080147217], [0.5843387590929233, 0.08894950068022536], [-0.18801524218852794, 0.053599907507726585], [-0.5187623363707753, 0.037024817397123544], [-0.2756658987059867, -0.2687770790770923], [-0.5149202616175782, -0.18018267843511093], [-0.4216070426549817, 0.28108625728449294], [0.5375097656844204, -0.16185050572844567], [-0.2610137913758007, 0.47402109828057293], [-0.05913364751808803, -0.1271018319500672], [-0.4330552928662953, -0.40006800905968765], [0.2684428411876477, 0.15580384050031082], [0.07256411809876151, 0.16604531295142477], [0.22164754744200366, 0.3490155365035753]]",density,black,,,D001,visual,1,[],"['1', '2', '3', '4']",1,2023.2.3,harveyvisual,2.1,[],8,0.75,
0,pause,0.4,None,None,None,0,111,111,111,,,,,,,,,,,,,D001,visual,1,[],"['1', '2', '3', '4']",1,2023.2.3,harveyvisual,2.1,[],8,0.75,
20,dot,0.3,['dot'],['density'],black,0,112,112,112,,,41.60022187232971,41.32507801055908,41.60844397544861,dot,"[0.1, 0.08, 0.06, 0.1, 0.08, 0.1, 0.1, 0.1, 0.1, 0.1, 0.08, 0.1, 0.06, 0.06, 0.06, 0.08, 0.1, 0.1, 0.06, 0.08]","[[0.4568636028639298, 0.09218139126394953], [0.4939826738349119, 0.323302315648136], [-0.05119541922561266, -0.45906943290068036], [-0.4831314507813093, 0.18061958283886947], [0.5296788482520546, -0.11312649722731702], [-0.46607932736376334, -0.2652522522598516], [0.3589017220959737, -0.4379630058863731], [-0.24753648315724297, -0.3321641377913005], [-0.4477493680696384, -0.014228961260617623], [-0.2163625447347366, 0.5199314201093164], [0.10091170090301527, -0.06084484326371942], [-0.016283966735519906, 0.17229759660533306], [-0.15624676728416065, -0.1163904684660993], [-0.20224921385629974, 0.1066180350813346], [0.19356645555026653, 0.4106695979490287], [0.18838056106179646, 0.12407010605867008], [-0.04130228698033811, 0.4419995934074761], [0.1287334923427974, -0.575285383137535], [0.29068573926733865, -0.15683693221586897], [-0.25814651941755984, 0.3002059596945824]]",density,black,,,D001,visual,1,[],"['1', '2', '3', '4']",1,2023.2.3,harveyvisual,2.1,[],8,0.75,
0,pause,0.4,None,None,None,0,113,113,113,,,,,,,,,,,,,D001,visual,1,[],"['1', '2', '3', '4']",1,2023.2.3,harveyvisual,2.1,[],8,0.75,
20,dot,0.3,['dot'],['density'],black,0,114,114,114,,,42.30023503303528,42.02514386177063,42.30847096443176,dot,"[0.06, 0.1, 0.06, 0.06, 0.08, 0.08, 0.08, 0.1, 0.1, 0.1, 0.06, 0.08, 0.08, 0.08, 0.08, 0.06, 0.06, 0.08, 0.06, 0.06]","[[0.5254919699681401, -0.09279684000088406], [0.2037837750958129, -0.4670403802986884], [0.023683840786109855, -0.3724369125941449], [0.08881874517716049, -0.16220638481016086], [-0.1123269334089535, 0.4916044379624138], [0.26607445247772665, 0.4291669995998426], [-0.5481001323965118, -0.009877625470625179], [0.3886226848210307, 0.11584778283711039], [-0.42939136643684783, 0.3307504370292257], [0.1534381169805733, 0.13014817361707132], [-0.27883635942163887, -0.05417088644799323], [0.31698904150756524, -0.2996575963535871], [-0.38475089651465705, 0.1418086659577797], [-0.07273744534793314, 0.21818968054953114], [0.5954576051249393, 0.08628134547586964], [-0.1734166293841451, -0.26149656906101154], [0.5307123197524374, 0.2649422590519023], [-0.4021564560085094, -0.4215193578363516], [-0.10427872882083589, -0.518415317540203], [-0.5303559239590732, -0.26756632674173775]]",density,black,,,D001,visual,1,[],"['1', '2', '3', '4']",1,2023.2.3,harveyvisual,2.1,[],8,0.75,
0,pause,0.4,None,None,None,0,115,115,115,,,,,,,,,,,,,D001,visual,1,[],"['1', '2', '3', '4']",1,2023.2.3,harveyvisual,2.1,[],8,0.75,
20,dot,0.3,['dot'],['density'],black,0,116,116,116,,,43.00022292137146,42.72598600387573,43.008440017700195,dot,"[0.06, 0.08, 0.08, 0.08, 0.08, 0.1, 0.1, 0.06, 0.08, 0.1, 0.1, 0.06, 0.06, 0.1, 0.1, 0.1, 0.1, 0.06, 0.06, 0.08]","[[-0.39528684075697873, 0.2342616449579265], [0.37231385573615616, -0.06934829760317257], [-0.11740078019614203, -0.42191311368882256], [-0.5928712679451034, -0.05187263817144176], [0.23660028466889071, -0.5104410985465816], [0.1003224649647203, -0.3573235568610095], [0.08033460739557197, 0.4682725562375072], [0.4489166095206577, 0.11616627690698961], [0.32103585730626527, 0.3557890985508074], [0.43786915587981523, -0.409565788471125], [-0.2312528229318933, -0.17521040501968294], [0.03240683347645712, 0.05569055383861643], [0.07035408351975736, -0.14963180990572567], [0.5737105674154107, -0.177448167625145], [-0.15947956100860294, 0.4000902623951431], [-0.4224457638156568, 0.4268366046092714], [-0.19523194495202745, 0.046320703647772854], [-0.3856919034012974, -0.4636557743302554], [0.014334183628795572, 0.26878729075743135], [0.27325716317045023, -0.27973923543061363]]",density,black,,,D001,visual,1,[],"['1', '2', '3', '4']",1,2023.2.3,harveyvisual,2.1,[],8,0.75,
0,pause,0.4,None,None,None,0,117,117,117,,,,,,,,,,,,,D001,visual,1,[],"['1', '2', '3', '4']",1,2023.2.3,harveyvisual,2.1,[],8,0.75,
20,dot,0.3,['dot'],['density'],black,0,118,118,118,,,43.700233936309814,43.425050020217896,43.70834183692932,dot,"[0.08, 0.08, 0.06, 0.08, 0.06, 0.1, 0.08, 0.08, 0.1, 0.1, 0.08, 0.06, 0.08, 0.06, 0.08, 0.1, 0.1, 0.06, 0.1, 0.1]","[[-0.1347816545518008, 0.25674789680998944], [-0.13336027280578638, -0.05619309703158071], [0.42022151988021716, 0.1647991788780157], [-0.5953631868066004, 0.0014437066286896172], [-0.47428378682639316, -0.30118386555102417], [-0.18494655976146362, 0.4591691384821438], [0.43870841690174645, -0.06257183872064914], [-0.4618992240893708, 0.222370558170992], [0.14407381392935326, 0.5526299794930133], [0.2612633291697297, -0.5401753214616613], [-0.10621718076670472, -0.29007377564571607], [0.3987490125986911, 0.39041120142967844], [-0.32769878556933113, 0.012287609251297349], [0.07521465685044337, -0.1337928230044963], [-0.40081007200030655, 0.41939408449812277], [0.26559394438958583, -0.1530708001083098], [0.048804319957888476, -0.45520759873818156], [0.1338320487908763, 0.10149818652978915], [0.2407418418630437, 0.26783428767620054], [-0.3180530722583813, -0.4934235599971396]]",density,black,,,D001,visual,1,[],"['1', '2', '3', '4']",1,2023.2.3,harveyvisual,2.1,[],8,0.75,
0,pause,0.4,None,None,None,0,119,119,119,,,,,,,,,,,,,D001,visual,1,[],"['1', '2', '3', '4']",1,2023.2.3,harveyvisual,2.1,[],8,0.75,
20,dot,0.3,['dot'],['density'],black,0,120,120,120,,,44.40023398399353,44.12500882148743,44.40839385986328,dot,"[0.06, 0.06, 0.06, 0.06, 0.06, 0.08, 0.1, 0.1, 0.08, 0.08, 0.08, 0.1, 0.08, 0.06, 0.06, 0.1, 0.06, 0.08, 0.08, 0.06]","[[-0.4999490143937167, 0.04495189792175325], [0.28071741847655207, -0.47843934229837753], [0.3864236916185886, -0.13547129392602886], [-0.011457883015293602, -0.5405542653125718], [-0.2487365431008321, 0.28915965950376354], [0.21857093061890287, 0.19344824298413354], [0.4578988539654706, 0.0781124334521805], [-0.48683242009862304, -0.17829011551455293], [-0.05567170251445519, 0.2884315674725956], [-0.5051378162778984, 0.293967620436124], [-0.08074932000774182, -0.014842041079078494], [0.11842620519763669, 0.5607010378548971], [0.577060568832321, -0.17375372341905668], [0.08977614854159188, -0.17282780830137323], [0.42132376616644407, 0.378819898749473], [-0.34175668705331935, -0.42331731341983025], [-0.27538132016935946, -0.08875766598517332], [-0.2573822166320727, 0.5284239105253121], [0.230252230074371, -0.013060238160616078], [-0.04850323966443537, -0.31920531847085265]]",density,black,,,D001,visual,1,[],"['1', '2', '3', '4']",1,2023.2.3,harveyvisual,2.1,[],8,0.75,
0,pause,0.4,None,None,None,0,121,121,121,,,,,,,,,,,,,D001,visual,1,[],"['1', '2', '3', '4']",1,2023.2.3,harveyvisual,2.1,[],8,0.75,
20,dot,0.3,['dot'],['density'],black,0,122,122,122,,,45.100236892700195,44.82506799697876,45.10830998420715,dot,"[0.06, 0.1, 0.06, 0.06, 0.08, 0.06, 0.06, 0.08, 0.06, 0.06, 0.06, 0.08, 0.1, 0.06, 0.1, 0.08, 0.1, 0.06, 0.06, 0.06]","[[0.5626170751176128, 0.046829193558093674], [-0.10845787197272311, -0.43163856895831626], [0.10302325942615387, 0.545802581714469], [-0.18673208102035332, 0.36603287152725716], [0.19336336378077756, -0.5159572294769552], [0.176148442722861, -0.06015445426556487], [-0.3463317685021423, -0.19596236300312064], [0.3978711662038278, 0.2711422308619482], [0.30312527360282004, -0.2590972973660395], [-0.4958357024038769, 0.23944805032426975], [-0.5863431521358857, 0.05097349225102793], [0.18143226006027457, 0.3323755081905231], [-0.20713347937997456, 0.05880998126615944], [-0.33213855668352255, -0.404151167575797], [0.014536434853850921, 0.10357012509298202], [0.5582781998223246, -0.1452961396695885], [-0.5386602540854943, -0.2599339326761487], [0.11852836205552042, -0.3235798477573424], [-0.07517297712483961, -0.15802357908770537], [0.3746600001222833, -0.4520649220571435]]",density,black,,,D001,visual,1,[],"['1', '2', '3', '4']",1,2023.2.3,harveyvisual,2.1,[],8,0.75,
0,pause,0.4,None,None,None,0,123,123,123,,,,,,,,,,,,,D001,visual,1,[],"['1', '2', '3', '4']",1,2023.2.3,harveyvisual,2.1,[],8,0.75,
20,dot,0.3,['dot'],['density'],black,0,124,124,124,,,45.80022883415222,45.52496695518494,45.8082959651947,dot,"[0.08, 0.06, 0.06, 0.06, 0.1, 0.06, 0.1, 0.08, 0.06, 0.1, 0.1, 0.1, 0.06, 0.1, 0.06, 0.1, 0.06, 0.08, 0.08, 0.1]","[[-0.1723442239782269, 0.5480659857153289], [0.09127451318010049, 0.3177390054115218], [0.5439035146275412, 0.13544541355435097], [-0.29694947462749094, -0.3314120228331965], [0.1263727330888822, -0.5227810785283067], [0.20855223930068978, -0.32447161633269134], [0.22608289660043168, 0.15559865271019702], [0.2290373516714076, 0.47356378647342534], [-0.5993881892960603, -0.06874308068908822], [-0.11461536913543835, -0.4881149105373148], [-0.07390350061409101, 0.05732025168236565], [-0.05153020053967261, -0.1856161450188029], [0.41479578934612726, -0.07446809515279634], [0.18741887334920715, -0.07680778545559702], [-0.3385713546344496, 0.15501575681510527], [0.3947096828573815, -0.28529451785170146], [-0.47605257981510174, 0.30241945894611594], [-0.23680969290932746, -0.04162847732682029], [0.019038404581666724, 0.5434124435328929], [-0.14496111711276288, 0.30988074869220816]]",density,black,,,D001,visual,1,[],"['1', '2', '3', '4']",1,2023.2.3,harveyvisual,2.1,[],8,0.75,
0,pause,0.4,None,None,None,0,125,125,125,,,,,,,,,,,,,D001,visual,1,[],"['1', '2', '3', '4']",1,2023.2.3,harveyvisual,2.1,[],8,0.75,
20,dot,0.3,['dot'],['density'],white,0,126,126,126,,,46.500216007232666,46.2249870300293,46.50834894180298,dot,"[0.08, 0.1, 0.1, 0.08, 0.06, 0.1, 0.1, 0.1, 0.08, 0.08, 0.1, 0.08, 0.1, 0.06, 0.08, 0.08, 0.06, 0.1, 0.1, 0.1]","[[0.4271885958301208, -0.2184276148191188], [0.032851235513652766, -0.4417011861740616], [-0.40659562319421827, 0.18801268209137884], [0.5362788507303952, -0.04457386500581309], [0.30581336929801184, -0.40439004422402025], [-0.20317672491910588, 0.41622584693114817], [0.3568420567909124, 0.2741098442424365], [0.0020251754201764394, -0.23162387832961967], [-0.03164653882162405, 0.18657605172348568], [-0.007141925972823926, 0.45288666361705743], [0.2023242225920282, 0.08186916875610539], [-0.5362846055618906, -0.032991071870328875], [-0.34169809892472536, -0.13383182399978538], [0.2723780020100822, -0.096889949568843], [-0.17967988089269127, -0.025787331215547327], [-0.4794838621593267, -0.36357013766658636], [-0.2050809112963054, -0.39696716706204316], [0.5422542626996306, 0.20501469775849718], [0.20654793075550526, 0.4145778593292182], [-0.2833291366449622, 0.13517973136585915]]",density,white,,,D001,visual,1,[],"['1', '2', '3', '4']",1,2023.2.3,harveyvisual,2.1,[],8,0.75,
0,pause,0.4,None,None,None,0,127,127,127,,,,,,,,,,,1,46.148090839385986,D001,visual,1,[],"['1', '2', '3', '4']",1,2023.2.3,harveyvisual,2.1,[],8,0.75,
20,dot,0.3,['dot'],['density'],black,0,128,128,128,,,47.20024085044861,46.92502784729004,47.20824694633484,dot,"[0.08, 0.08, 0.1, 0.08, 0.08, 0.08, 0.08, 0.08, 0.06, 0.06, 0.08, 0.08, 0.1, 0.06, 0.06, 0.06, 0.06, 0.06, 0.06, 0.1]","[[-0.46583867787060684, 0.3501351820712746], [-0.011972034724707092, -0.0452498605346795], [0.34168206689649294, 0.39400380495976145], [0.42283553861778633, 0.13188476019535822], [0.32023886130503676, -0.0862297094637024], [-0.2430199735094175, 0.29544250510382186], [-0.5446506010649178, -0.20247977333689143], [-0.26764783501236794, 0.099641443390583], [-0.2270006153882732, -0.4189699191571041], [0.5702214629980568, 0.003360395433334662], [-0.5063691184230485, -0.016087705551763365], [0.12986389310256174, 0.2956168363928351], [0.13667238132408943, -0.23282456061762752], [-0.0025050539666211513, -0.36363237268700915], [0.3008024656887376, -0.4838066381588414], [-0.55716167250357, 0.17866476776023385], [-0.03819228334487079, 0.5789818903963044], [0.017875317165293447, 0.14238387027232857], [-0.23940661503732963, 0.5031098183408392], [0.4131847794490583, -0.2830750560809756]]",density,black,,,D001,visual,1,[],"['1', '2', '3', '4']",1,2023.2.3,harveyvisual,2.1,[],8,0.75,
0,pause,0.4,None,None,None,0,129,129,129,,,,,,,,,,,,,D001,visual,1,[],"['1', '2', '3', '4']",1,2023.2.3,harveyvisual,2.1,[],8,0.75,
20,dot,0.3,['dot'],['density'],black,0,130,130,130,,,47.90023684501648,47.624910831451416,47.90823793411255,dot,"[0.06, 0.08, 0.08, 0.06, 0.06, 0.1, 0.08, 0.1, 0.06, 0.06, 0.1, 0.06, 0.06, 0.06, 0.08, 0.1, 0.06, 0.06, 0.08, 0.08]","[[0.560570318811289, -0.029110122611173905], [-0.413815301773905, 0.18078690944296666], [0.0931877336056427, 0.3758318295620531], [-0.5039943029941627, -0.2928598913054094], [0.3331067111502931, 0.11262074859681359], [-0.2835271389671052, -0.13077666155778178], [0.3064056501094471, 0.3140688212709801], [0.3455384476654465, -0.08260925870804459], [0.09765897720465389, -0.5217309101891902], [0.2865275279713533, -0.2762228122699579], [-0.13872418238691825, 0.46470578661787987], [-0.10307606310252515, 0.06085202189283556], [-0.404694519473189, 0.38775609463638283], [0.08648745922211165, 0.1817661380257647], [-0.27957773982414197, -0.3460699203960315], [-0.1430196735079911, -0.5501531703602127], [0.5015007777054098, 0.30886650861345133], [-0.47708953314980695, -0.031254160108039275], [-0.19614862407677486, 0.28375427397153563], [0.007182598967971465, -0.16452372271868598]]",density,black,,,D001,visual,1,[],"['1', '2', '3', '4']",1,2023.2.3,harveyvisual,2.1,[],8,0.75,
0,pause,0.4,None,None,None,0,131,131,131,,,,,,,,,,,,,D001,visual,1,[],"['1', '2', '3', '4']",1,2023.2.3,harveyvisual,2.1,[],8,0.75,
20,dot,0.3,['dot'],['density'],black,0,132,132,132,,,48.60023498535156,48.324893951416016,48.60826802253723,dot,"[0.06, 0.08, 0.08, 0.06, 0.08, 0.06, 0.08, 0.08, 0.06, 0.06, 0.06, 0.06, 0.06, 0.06, 0.08, 0.08, 0.08, 0.08, 0.1, 0.06]","[[0.05601156346290537, 0.33774007007600537], [-0.25923641602208114, -0.1913455443571051], [0.6046732390827608, 0.0024378480133695167], [0.3934576252416552, -0.3423988144458997], [-0.4812615267287291, 0.08172134867151754], [0.26335496270541237, 0.46929799107354064], [0.34990808529245854, -0.12256327360159663], [-0.3093498343712598, 0.35348123560715905], [0.006116680363846716, -0.027135914727027477], [0.34561474412659254, 0.29276056920413707], [-0.5454536484694494, -0.12981353366986187], [-0.2895685339048397, 0.10791040899904325], [-0.002503895321606997, 0.5238743906701524], [0.16120552299788649, -0.47563597680147834], [-0.39074305275802934, -0.3372465735012601], [-0.08210256290545281, -0.49702483861692387], [-0.5018878545220177, 0.28203067455225045], [0.5599962534355251, -0.2129984517267236], [0.18533585846096, 0.07944682637705336], [0.07400002892079471, -0.2595699226545013]]",density,black,,,D001,visual,1,[],"['1', '2', '3', '4']",1,2023.2.3,harveyvisual,2.1,[],8,0.75,
0,pause,0.4,None,None,None,0,133,133,133,,,,,,,,,,,,,D001,visual,1,[],"['1', '2', '3', '4']",1,2023.2.3,harveyvisual,2.1,[],8,0.75,
20,dot,0.3,['dot'],['density'],white,0,134,134,134,,,49.30021595954895,49.02489185333252,49.308199882507324,dot,"[0.06, 0.08, 0.1, 0.08, 0.08, 0.06, 0.06, 0.06, 0.08, 0.08, 0.06, 0.08, 0.1, 0.1, 0.08, 0.06, 0.08, 0.1, 0.06, 0.06]","[[0.5155821987678976, 0.04488385808792955], [-0.2096967835769014, -0.14533590774152683], [0.1730432882881766, -0.18899344679795682], [-0.49818487549191387, 0.03431343781277191], [-0.10182475013249959, 0.5144178400850594], [0.2888484639765836, 0.43915790828914736], [0.15485000360701484, -0.41594084074973925], [-0.4225163606790961, 0.36941240802449943], [0.5594959104074618, -0.15559909746931064], [-0.24789154860741675, -0.4458731620207753], [-0.4818664370565397, -0.18180412673538643], [-0.04644805150729314, 0.11373803852092779], [0.2372167320094144, 0.21572149751837544], [0.36150616860519635, -0.4190854242031543], [-0.0315004733413109, -0.28611924223052304], [0.016327131125688066, 0.34827552206792545], [-0.033284517226756516, -0.5064216333956547], [0.3174056628193156, 0.027540990094273354], [0.5084947787923858, 0.3183909000729904], [-0.26144724817882514, 0.20270849775858135]]",density,white,,,D001,visual,1,[],"['1', '2', '3', '4']",1,2023.2.3,harveyvisual,2.1,[],8,0.75,
0,pause,0.4,None,None,None,0,135,135,135,,,,,,,,,,,1,49.01940393447876,D001,visual,1,[],"['1', '2', '3', '4']",1,2023.2.3,harveyvisual,2.1,[],8,0.75,
20,dot,0.3,['dot'],['density'],black,0,136,136,136,,,50.00021982192993,49.72485589981079,50.00818181037903,dot,"[0.06, 0.06, 0.06, 0.08, 0.1, 0.06, 0.06, 0.06, 0.08, 0.1, 0.1, 0.08, 0.1, 0.06, 0.08, 0.08, 0.06, 0.06, 0.06, 0.06]","[[0.18114635361900966, 0.0581079101654155], [-0.010670934473867466, 0.29337480124332826], [-0.23479519480793443, -0.21658854809541384], [0.1809026002147356, 0.28576976241369145], [-0.5174444125880406, -0.3042277046331964], [-0.11988559875345939, 0.09155758538142944], [0.42868401445745297, 0.09918225719065343], [0.37938380976191677, 0.43995443903675907], [-0.43127404519479584, 0.29113574689853056], [0.5758450736760955, -0.12003413398590042], [-0.5719033513610238, -0.08292137146462192], [0.07979295842429646, -0.12687193397202745], [-0.2032378934564606, 0.5032679907027853], [0.32573542340015316, -0.4595699711904788], [-0.02992048006890413, -0.5691687157803739], [-0.40197643441210834, 0.030929281513313256], [-0.33791309384520934, -0.4686979803109317], [0.48384758771069947, -0.3387436135001466], [-0.15632973036317843, -0.39515017350316517], [0.035813153145711096, -0.3229354028896956]]",density,black,,,D001,visual,1,[],"['1', '2', '3', '4']",1,2023.2.3,harveyvisual,2.1,[],8,0.75,
0,pause,0.4,None,None,None,0,137,137,137,,,,,,,,,,,,,D001,visual,1,[],"['1', '2', '3', '4']",1,2023.2.3,harveyvisual,2.1,[],8,0.75,
20,dot,0.3,['dot'],['density'],white,0,138,138,138,,,50.70022988319397,50.42487287521362,50.708194971084595,dot,"[0.1, 0.06, 0.08, 0.1, 0.1, 0.06, 0.08, 0.1, 0.08, 0.08, 0.1, 0.08, 0.06, 0.06, 0.1, 0.06, 0.08, 0.06, 0.06, 0.1]","[[-0.013846930525969081, 0.12539217358235466], [-0.45428301264763943, -0.23822149715511612], [0.3992693001754536, 0.27871685618516207], [0.3505551211303315, -0.005174234295174274], [-0.4677583664348828, -0.036579286280204515], [-0.19567841146173082, -0.08897499811642673], [0.2697942235261205, -0.36372465808695525], [-0.17847652495518473, 0.33860510666382837], [-0.3974861234126696, 0.22393187999850728], [-0.136159520000103, -0.487983176868789], [0.5876098155748296, -0.10079565710672908], [0.060333168011690086, -0.48153874548626135], [0.11916926310266851, -0.1309397585196832], [-0.0498198959415721, 0.49656032741441847], [-0.5922998845592833, 0.12110156214623322], [0.14063731792988676, 0.5281631847415211], [0.19402283992645908, 0.21631040861370177], [0.5345738892467115, 0.14030343352682695], [0.33659320894674083, 0.4639953311720747], [0.5216488792664918, -0.2854041411988402]]",density,white,,,D001,visual,1,[],"['1', '2', '3', '4']",1,2023.2.3,harveyvisual,2.1,[],8,0.75,
0,pause,0.4,None,None,None,0,139,139,139,,,,,,,,,,,1,50.367772817611694,D001,visual,1,[],"['1', '2', '3', '4']",1,2023.2.3,harveyvisual,2.1,[],8,0.75,
20,dot,0.3,['dot'],['density'],black,0,140,140,140,,,51.40024185180664,51.12486481666565,51.4081768989563,dot,"[0.1, 0.06, 0.08, 0.06, 0.08, 0.08, 0.1, 0.1, 0.06, 0.1, 0.06, 0.08, 0.08, 0.06, 0.06, 0.08, 0.08, 0.08, 0.08, 0.1]","[[0.35569048171865647, 0.03669685881577012], [0.00378258522738395, -0.47720184495158163], [-0.46195489774447807, -0.3254997830524889], [0.09092118779060576, 0.1511413138163673], [-0.41936266139093115, 0.11102096539210815], [0.2502439931785977, -0.23263164398801367], [-0.1209514240450199, 0.0335350683934732], [-0.2999953985591844, 0.30342803403015806], [-0.2756512895832962, 0.5303717542890336], [-0.19325504784201225, -0.2174513247545069], [0.39209914718978855, 0.34536137850665294], [0.13000161548377998, 0.5584234977379183], [0.28231757269613955, -0.5267310183434992], [-0.0809997816570176, 0.5953369786522393], [-0.06060430983232601, 0.37935837654239], [0.5770251399240264, 0.05842935662818169], [-0.24792310211364366, -0.468588386195081], [-0.5905966822911211, 0.004531229781665924], [-0.4403465420968935, -0.1147269683952431], [0.01970985822808402, -0.13750989630297067]]",density,black,,,D001,visual,1,[],"['1', '2', '3', '4']",1,2023.2.3,harveyvisual,2.1,[],8,0.75,
0,pause,0.4,None,None,None,0,141,141,141,,,,,,,,,,,,,D001,visual,1,[],"['1', '2', '3', '4']",1,2023.2.3,harveyvisual,2.1,[],8,0.75,
20,dot,0.3,['dot'],['density'],white,0,142,142,142,,,52.10023093223572,51.824848890304565,52.108131885528564,dot,"[0.06, 0.06, 0.1, 0.08, 0.1, 0.06, 0.06, 0.08, 0.06, 0.08, 0.06, 0.1, 0.06, 0.06, 0.08, 0.08, 0.08, 0.06, 0.08, 0.08]","[[-0.4761158825325117, -0.33601395467482714], [-0.5933504223562025, -0.008082069613545725], [0.3209201970461302, -0.46078065547012736], [-0.45383857895151136, 0.33605925430270756], [0.5427749595345245, 0.047083122898492924], [0.5002644181891723, -0.28563803828669204], [0.21497545678360663, 0.41969969343586666], [-0.19501925366559736, -0.19611576197695224], [0.21558289440218203, 0.10808737283354641], [-0.08963475243977381, 0.5529423825003307], [-0.229987690218738, 0.2046103250031135], [0.13085822593966467, -0.4574330653145499], [0.4157665445223434, 0.2405021923153513], [-0.4188333549842806, -0.15332160626455155], [0.06571797301321625, -0.08882093737853292], [-0.03734843263233423, 0.3698800393856877], [0.23891577985817802, -0.1795044121113259], [-0.06923994988988802, -0.3553009990009084], [-0.06137949528887132, 0.11089406097628418], [-0.34761356806613886, -0.4899318833621075]]",density,white,,,D001,visual,1,[],"['1', '2', '3', '4']",1,2023.2.3,harveyvisual,2.1,[],8,0.75,
0,pause,0.4,None,None,None,0,143,143,143,,,,,,,,,,,1,51.69173884391785,D001,visual,1,[],"['1', '2', '3', '4']",1,2023.2.3,harveyvisual,2.1,[],8,0.75,
20,dot,0.3,['dot'],['density'],black,0,144,144,144,,,52.80023789405823,52.52481484413147,52.80811381340027,dot,"[0.1, 0.08, 0.1, 0.06, 0.1, 0.08, 0.1, 0.1, 0.1, 0.08, 0.06, 0.06, 0.1, 0.06, 0.06, 0.06, 0.06, 0.1, 0.06, 0.08]","[[0.44431483642187486, -0.2040454742209488], [-0.5509564740037046, 0.014694931967224378], [0.2559308452471808, -0.4478220312052026], [-0.3580432796585792, -0.039441082135398264], [-0.2908023958337757, -0.22278531351088587], [0.09165334118703616, 0.4579823280602948], [-0.08678013826206421, -0.2098337825690163], [-0.3804362635442875, 0.356997648048501], [0.3378954596199869, 0.018708055120665645], [0.10217972657875585, -0.23628297040382823], [0.12500682211786107, 0.2533539695293694], [0.5594007760826681, 0.03491145196636361], [-0.11501219829353554, 0.08171067655589292], [-0.48994180600994175, -0.219590198077092], [0.2840795916269635, 0.47930796930205066], [0.03516727751456772, -0.4192197230963105], [-0.30905515332478634, -0.45538831190924367], [0.4651011340647452, 0.3037240315421515], [-0.10086705549183728, 0.49648170340385434], [0.1363007147309937, -0.00637775753199199]]",density,black,,,D001,visual,1,[],"['1', '2', '3', '4']",1,2023.2.3,harveyvisual,2.1,[],8,0.75,
0,pause,0.4,None,None,None,0,145,145,145,,,,,,,,,,,,,D001,visual,1,[],"['1', '2', '3', '4']",1,2023.2.3,harveyvisual,2.1,[],8,0.75,
20,dot,0.3,['dot'],['density'],white,0,146,146,146,,,53.50022101402283,53.22478199005127,53.50810694694519,dot,"[0.06, 0.08, 0.1, 0.08, 0.06, 0.08, 0.1, 0.1, 0.06, 0.08, 0.1, 0.06, 0.1, 0.06, 0.08, 0.08, 0.06, 0.08, 0.1, 0.08]","[[0.1586487956543241, -0.21808332137277403], [0.4016685672595489, -0.0273519263590698], [0.1418120184337932, 0.39486778940022604], [0.039953196598712215, -0.023371115643313845], [-0.5832373905548192, 0.02694575415329384], [-0.1128008763220621, 0.3520771449074852], [-0.10538806641310638, -0.2823408425649195], [-0.28108740036926083, 0.2339328429447557], [-0.4464784622639436, -0.33422472671943093], [0.4581434564869745, -0.3180851247994294], [0.4693702379185348, 0.30020510540375495], [0.26971932305263646, -0.5229598667016939], [-0.06313826434520708, -0.5994208379297977], [-0.00015100199184137075, 0.5481999740322536], [-0.18970175470574457, -0.09015140924726911], [0.5589414222506427, -0.13314697430077163], [0.28695143989742733, 0.1643857945006274], [-0.47180393962507106, 0.35021609181297786], [0.320949415129573, 0.4645843213109908], [-0.36848352429030173, 0.0044398269320212735]]",density,white,,,D001,visual,1,[],"['1', '2', '3', '4']",1,2023.2.3,harveyvisual,2.1,[],8,0.75,
0,pause,0.4,None,None,None,0,147,147,147,,,,,,,,,,,1,53.10391902923584,D001,visual,1,[],"['1', '2', '3', '4']",1,2023.2.3,harveyvisual,2.1,[],8,0.75,
20,dot,0.3,['dot'],['density'],black,0,148,148,148,,,54.200225830078125,53.92475986480713,54.208000898361206,dot,"[0.1, 0.08, 0.06, 0.06, 0.1, 0.08, 0.1, 0.1, 0.1, 0.06, 0.08, 0.08, 0.1, 0.1, 0.1, 0.06, 0.06, 0.06, 0.1, 0.06]","[[0.018048861014589135, -0.5132398541049498], [-0.34962974430833865, 0.46331641528055617], [0.2600007579698308, -0.03553160485482654], [0.3705103161385117, 0.1265756604523437], [0.5439787246787323, -0.045826681708686895], [0.2033861512519034, -0.46427224952395113], [-0.5353027401351389, -0.08519238552331909], [-0.16898252117191698, 0.27959860142571746], [-0.03784497446022117, -0.244049286197082], [-0.5043047470142593, 0.10558731990152986], [0.12038490317610628, 0.10936499778634845], [-0.332453630063451, -0.2841732348230245], [0.39497166070002365, -0.33967995373777055], [-0.08317234568643928, 0.5571646099986703], [0.24400514158153697, 0.552584605104812], [-0.30906421818916224, 0.013120523209567914], [-0.35952168276657226, 0.27293896428472064], [0.5779445938897191, 0.16351251134007141], [-0.27909563371619117, -0.5357131002317868], [0.23500857311607248, -0.2269197314138756]]",density,black,,,D001,visual,1,[],"['1', '2', '3', '4']",1,2023.2.3,harveyvisual,2.1,[],8,0.75,
0,pause,0.4,None,None,None,0,149,149,149,,,,,,,,,,,,,D001,visual,1,[],"['1', '2', '3', '4']",1,2023.2.3,harveyvisual,2.1,[],8,0.75,
20,dot,0.3,['dot'],['density'],black,0,150,150,150,,,54.90027189254761,54.62476682662964,54.92473101615906,dot,"[0.1, 0.08, 0.1, 0.08, 0.1, 0.06, 0.1, 0.06, 0.06, 0.08, 0.08, 0.06, 0.1, 0.06, 0.08, 0.08, 0.06, 0.08, 0.08, 0.06]","[[0.4141522853379679, -0.37049744907827786], [0.5008686817454756, 0.11598325066090726], [-0.15412818125581307, -0.44210610820741675], [-0.11278900998762775, 0.14719102790590832], [0.2000389702403147, 0.3628482627968934], [-0.45121994108380986, -0.0678994087237274], [0.43137078562889564, 0.3030164281058557], [-0.04725182531562522, 0.45807067097438814], [0.5529187160031138, -0.07513621485191257], [-0.2639840204973112, 0.442401830273061], [0.036225016026713575, -0.3947570344117064], [0.1921051499847637, 0.011829842331964047], [-0.015260254596604517, -0.15007982184505386], [-0.2660488533350269, -0.23757686684170382], [-0.5188257486247576, 0.24942755270839995], [0.09420042032490017, 0.5866346821619117], [-0.5944304690134343, 0.07250257364665533], [0.2427727133938219, -0.526161441644198], [-0.45922029241777923, -0.3606874403638874], [0.2530904677117103, -0.26066929289057844]]",density,black,1,54.45813989639282,D001,visual,1,[],"['1', '2', '3', '4']",1,2023.2.3,harveyvisual,2.1,[],8,0.75,
0,pause,0.4,None,None,None,0,151,151,151,,,,,,,,,,,,,D001,visual,1,[],"['1', '2', '3', '4']",1,2023.2.3,harveyvisual,2.1,[],8,0.75,
20,dot,0.3,['dot'],['density'],black,0,152,152,152,,,55.60022592544556,55.3247230052948,55.608047008514404,dot,"[0.1, 0.06, 0.1, 0.06, 0.08, 0.06, 0.06, 0.08, 0.06, 0.1, 0.08, 0.1, 0.08, 0.08, 0.06, 0.08, 0.08, 0.1, 0.06, 0.1]","[[-0.3150442730746146, 0.01201195750195716], [-0.15333281619259148, -0.38750379246906674], [0.18112105462029926, -0.5144077256444731], [0.3632688372222661, 0.3977543342718679], [0.39257937243306507, -0.13499949902432035], [-0.5386266132535971, -0.25084118551890094], [-0.3360671636492021, -0.47097322763151367], [0.05147156025581445, 0.2857366288730586], [-0.33865333144528725, 0.41090834800246046], [-0.19350900244907215, 0.24441924663128756], [0.19282012710293261, -0.2753988066139998], [-0.5207299681013028, -0.05164245895063718], [-0.11898021914745244, -0.0015884032180027985], [0.5917138749622294, -0.12684700076734912], [0.21486827034551692, -0.06403913827504859], [0.5678986737641202, 0.1525708129443372], [0.08778610550260779, 0.5860299340208376], [0.35257998473376406, 0.1892014293008194], [0.4301023233897522, -0.3482432610304997], [-0.10872028475684165, 0.43463577229097017]]",density,black,,,D001,visual,1,[],"['1', '2', '3', '4']",1,2023.2.3,harveyvisual,2.1,[],8,0.75,
0,pause,0.4,None,None,None,0,153,153,153,,,,,,,,,,,,,D001,visual,1,[],"['1', '2', '3', '4']",1,2023.2.3,harveyvisual,2.1,[],8,0.75,
20,dot,0.3,['dot'],['density'],black,0,154,154,154,,,56.300230979919434,56.02471399307251,56.30801796913147,dot,"[0.1, 0.06, 0.1, 0.06, 0.08, 0.06, 0.06, 0.1, 0.08, 0.1, 0.1, 0.1, 0.1, 0.08, 0.08, 0.06, 0.08, 0.08, 0.08, 0.08]","[[-0.052957013272518005, 0.48761790981692354], [-0.28712062014806233, -0.368405936504861], [-0.045454017005792324, -0.5055696251647857], [0.5952601925544562, -0.0076074698403846425], [0.08517958794138847, -0.08879587283662804], [0.3885792715109784, 0.009107671848197996], [-0.5812774860651728, -0.13378580451545458], [-0.24844200441517283, 0.4564671410527621], [0.5285816733350336, 0.26306877916300164], [0.12312320905969609, -0.27451832615717425], [0.3552721079285164, 0.3599282067759082], [-0.3980426300362153, -0.04188111414242124], [0.49937868185237566, -0.2755727246895465], [0.07940967444962155, 0.13973827259269767], [-0.1895329840772318, -0.08053320016147725], [-0.487973121841568, 0.2913586830577253], [0.20271770840340886, 0.5127207358390146], [-0.11642669731184352, 0.14810175167291117], [-0.5886716212143289, 0.07544282461038648], [0.27556182056074485, -0.43114588692833317]]",density,black,,,D001,visual,1,[],"['1', '2', '3', '4']",1,2023.2.3,harveyvisual,2.1,[],8,0.75,
0,pause,0.4,None,None,None,0,155,155,155,,,,,,,,,,,,,D001,visual,1,[],"['1', '2', '3', '4']",1,2023.2.3,harveyvisual,2.1,[],8,0.75,
9,dot,0.3,['dot'],['density'],black,0,156,156,156,,,57.000216007232666,56.70801782608032,57.00800585746765,dot,"[0.1, 0.08, 0.08, 0.06, 0.06, 0.1, 0.08, 0.1, 0.06]","[[0.08964926938552661, 0.05394775442474662], [0.013667798857315082, 0.3651287039276397], [-0.3518235196438996, 0.4482863301015001], [0.0843039828244993, 0.5528122926054443], [-0.16049547673848438, 0.0730005648255046], [-0.2144141911430125, 0.27623828598157274], [0.3465547907671387, 0.0307758660088046], [-0.13596480001028877, 0.5242376261272882], [0.2304522598158348, 0.3521277948761275]]",density,black,,,D001,visual,1,[],"['1', '2', '3', '4']",1,2023.2.3,harveyvisual,2.1,[],8,0.75,
0,pause,0.4,None,None,None,0,157,157,157,,,,,,,,,,,,,D001,visual,1,[],"['1', '2', '3', '4']",1,2023.2.3,harveyvisual,2.1,[],8,0.75,
9,dot,0.3,['dot'],['density'],white,0,158,158,158,,,57.70022892951965,57.40800404548645,57.70798683166504,dot,"[0.06, 0.08, 0.08, 0.06, 0.08, 0.1, 0.1, 0.06, 0.06]","[[0.21556792455118703, 0.37642033042102185], [0.14366510572844648, -0.18651452926789283], [0.49642287684820396, -0.0794158383055628], [-0.04770628609247857, -0.12519201939426747], [0.20310136493979325, 0.154094551714378], [-0.004065485174475974, 0.09100382633055243], [-0.018053901421587658, 0.34918523294118026], [0.29624623666919286, -0.053344657000752645], [-0.2018857737562037, 0.01971770186205045]]",density,white,,,D001,visual,1,[],"['1', '2', '3', '4']",1,2023.2.3,harveyvisual,2.1,[],8,0.75,
0,pause,0.4,None,None,None,0,159,159,159,,,,,,,,,,,1,57.65247297286987,D001,visual,1,[],"['1', '2', '3', '4']",1,2023.2.3,harveyvisual,2.1,[],8,0.75,
9,dot,0.3,['dot'],['density'],black,0,160,160,160,,,58.40023398399353,58.10797595977783,58.40801286697388,dot,"[0.1, 0.06, 0.1, 0.1, 0.1, 0.08, 0.06, 0.1, 0.06]","[[0.5571797577834091, 0.07732674165650813], [0.16332656704353227, -0.09331314560094064], [0.4138178119161903, 0.3925230053806507], [0.28711316854655766, 0.07147022394212545], [0.052100496024031176, 0.3810199549023822], [0.2172039135420496, 0.26337040755706287], [-0.2646845915772586, 0.12849707234668142], [0.21844181080216274, 0.4926952285236599], [0.0761275456309072, 0.11718001140956479]]",density,black,,,D001,visual,1,[],"['1', '2', '3', '4']",1,2023.2.3,harveyvisual,2.1,[],8,0.75,
0,pause,0.4,None,None,None,0,161,161,161,,,,,,,,,,,,,D001,visual,1,[],"['1', '2', '3', '4']",1,2023.2.3,harveyvisual,2.1,[],8,0.75,
9,dot,0.3,['dot'],['density'],black,0,162,162,162,,,59.1002459526062,58.808079957962036,59.10793590545654,dot,"[0.08, 0.08, 0.08, 0.06, 0.06, 0.1, 0.08, 0.06, 0.06]","[[0.4907720478217397, -0.04420899316542184], [0.34945142516086164, 0.15252383324094793], [0.5574461082468273, 0.19132091369540322], [0.27860246559707486, -0.040271372914082004], [0.05137088633600719, 0.3166781443626957], [0.3859483744724672, 0.35594746641407654], [0.08124150308634055, -0.11830714188255424], [-0.07254784919135501, 0.1430213671552253], [0.33979531306265204, -0.26214422422440126]]",density,black,,,D001,visual,1,[],"['1', '2', '3', '4']",1,2023.2.3,harveyvisual,2.1,[],8,0.75,
0,pause,0.4,None,None,None,0,163,163,163,,,,,,,,,,,,,D001,visual,1,[],"['1', '2', '3', '4']",1,2023.2.3,harveyvisual,2.1,[],8,0.75,
9,dot,0.3,['dot'],['density'],black,0,164,164,164,,,59.80024194717407,59.508015871047974,59.808002948760986,dot,"[0.1, 0.06, 0.06, 0.06, 0.06, 0.1, 0.1, 0.06, 0.1]","[[0.22829877875946783, -0.39640994854570016], [0.3366371496270161, 0.05839125036393789], [-0.11436045239834208, -0.12024221759915668], [-0.02100147820737577, -0.3824026009196371], [0.08479146627654295, 0.024089629435920912], [0.16206374850784472, -0.16075841177209507], [0.38495438842944835, -0.24810596019115372], [-0.23418047716532614, 0.09565997955556291], [0.2111996426858246, 0.23215637940447356]]",density,black,,,D001,visual,1,[],"['1', '2', '3', '4']",1,2023.2.3,harveyvisual,2.1,[],8,0.75,
0,pause,0.4,None,None,None,0,165,165,165,,,,,,,,,,,,,D001,visual,1,[],"['1', '2', '3', '4']",1,2023.2.3,harveyvisual,2.1,[],8,0.75,
9,dot,0.3,['dot'],['density'],black,0,166,166,166,,,60.50023889541626,60.208003997802734,60.507975816726685,dot,"[0.06, 0.06, 0.08, 0.06, 0.06, 0.08, 0.08, 0.1, 0.08]","[[-0.1410632352740557, -0.317905811010377], [-0.01624442214728049, 0.1794094022286925], [0.09468404279643694, -0.24727132108451297], [-0.2758455249254349, -0.14491344886434532], [-0.07397021974914944, -0.09933967896750957], [-0.3580751224104431, 0.12641846535160695], [0.3672464474339042, -0.09947208873420914], [0.14679994141956812, -0.049441009882571184], [0.20049431506903384, 0.1443691092520585]]",density,black,,,D001,visual,1,[],"['1', '2', '3', '4']",1,2023.2.3,harveyvisual,2.1,[],8,0.75,
0,pause,0.4,None,None,None,0,167,167,167,,,,,,,,,,,,,D001,visual,1,[],"['1', '2', '3', '4']",1,2023.2.3,harveyvisual,2.1,[],8,0.75,
8,dot,0.3,['dot'],['density'],black,0,168,168,168,,,61.200225830078125,60.907979011535645,61.20797801017761,dot,"[0.08, 0.1, 0.08, 0.06, 0.1, 0.06, 0.06, 0.1]","[[0.43039348711459674, -0.2176132953198537], [0.11499515674856413, 0.2899266495440316], [0.12808102003139596, -0.009244067984354065], [-0.030386771168905473, -0.2551920291624523], [0.3118809155168881, 0.2081403981228026], [-0.06282563634610334, 0.11114412413027695], [0.22944900542930163, -0.23921835558115082], [0.33219925311336224, 0.0035410395788749187]]",density,black,,,D001,visual,1,[],"['1', '2', '3', '4']",1,2023.2.3,harveyvisual,2.1,[],8,0.75,
0,pause,0.4,None,None,None,0,169,169,169,,,,,,,,,,,,,D001,visual,1,[],"['1', '2', '3', '4']",1,2023.2.3,harveyvisual,2.1,[],8,0.75,
8,dot,0.3,['dot'],['density'],black,0,170,170,170,,,61.9002149105072,61.60796093940735,61.90795683860779,dot,"[0.08, 0.06, 0.06, 0.08, 0.06, 0.06, 0.1, 0.1]","[[-0.19469543066458847, -0.326291241472255], [0.30343637985980976, -0.10925869102227477], [-0.1969922581528186, -0.11664339975312436], [0.2570255161168456, -0.3247060146943647], [0.10684135558856425, -0.18174565546534566], [0.03482742583321104, -0.4893606045609451], [-0.015658395544436696, -0.0001692298399926468], [0.11980560642279467, 0.15585563517441894]]",density,black,,,D001,visual,1,[],"['1', '2', '3', '4']",1,2023.2.3,harveyvisual,2.1,[],8,0.75,
0,pause,0.4,None,None,None,0,171,171,171,,,,,,,,,,,,,D001,visual,1,[],"['1', '2', '3', '4']",1,2023.2.3,harveyvisual,2.1,[],8,0.75,
8,dot,0.3,['dot'],['density'],black,0,172,172,172,,,62.600231885910034,62.307915925979614,62.60802984237671,dot,"[0.1, 0.06, 0.06, 0.08, 0.06, 0.06, 0.1, 0.08]","[[0.15461278376755175, 0.017690045563684864], [0.4404146441246234, 0.21813023399178458], [0.05487595867990863, 0.4084021637362207], [-0.13585566436679766, 0.08658391491112073], [0.3753260993018466, -0.0029057217730488138], [0.24206240898487613, 0.3367355195829085], [0.06992318211572668, 0.2078151862649802], [0.2541279777615451, -0.17357647893213385]]",density,black,,,D001,visual,1,[],"['1', '2', '3', '4']",1,2023.2.3,harveyvisual,2.1,[],8,0.75,
0,pause,0.4,None,None,None,0,173,173,173,,,,,,,,,,,,,D001,visual,1,[],"['1', '2', '3', '4']",1,2023.2.3,harveyvisual,2.1,[],8,0.75,
8,dot,0.3,['dot'],['density'],black,0,174,174,174,,,63.30024194717407,63.00788688659668,63.30790996551514,dot,"[0.08, 0.08, 0.08, 0.08, 0.1, 0.06, 0.08, 0.1]","[[0.11895989691250043, -0.4531686673706004], [-0.16516506104640707, -0.03240926074491446], [0.03539791161122963, 0.017706842047032937], [0.2602726326243711, -0.2021454296306109], [-0.07993394910368964, -0.42305571474287856], [-0.2833532244481061, -0.22994433794129646], [0.3633812293108319, -0.4186270945829863], [-0.04042382183071007, -0.1991401458565282]]",density,black,,,D001,visual,1,[],"['1', '2', '3', '4']",1,2023.2.3,harveyvisual,2.1,[],8,0.75,
0,pause,0.4,None,None,None,0,175,175,175,,,,,,,,,,,,,D001,visual,1,[],"['1', '2', '3', '4']",1,2023.2.3,harveyvisual,2.1,[],8,0.75,
8,dot,0.3,['dot'],['density'],black,0,176,176,176,,,64.0002269744873,63.707881927490234,64.00791001319885,dot,"[0.1, 0.06, 0.08, 0.06, 0.08, 0.08, 0.06, 0.1]","[[0.11895989691250043, -0.4531686673706004], [-0.16516506104640707, -0.03240926074491446], [0.03539791161122963, 0.017706842047032937], [0.2602726326243711, -0.2021454296306109], [-0.07993394910368964, -0.42305571474287856], [-0.2833532244481061, -0.22994433794129646], [0.3633812293108319, -0.4186270945829863], [-0.04042382183071007, -0.1991401458565282]]",density,black,,,D001,visual,1,[],"['1', '2', '3', '4']",1,2023.2.3,harveyvisual,2.1,[],8,0.75,
0,pause,0.4,None,None,None,0,177,177,177,,,,,,,,,,,,,D001,visual,1,[],"['1', '2', '3', '4']",1,2023.2.3,harveyvisual,2.1,[],8,0.75,
8,dot,0.3,['dot'],['density'],black,0,178,178,178,,,64.70022487640381,64.40785884857178,64.70787692070007,dot,"[0.1, 0.1, 0.08, 0.08, 0.06, 0.08, 0.1, 0.08]","[[-0.3265204970111284, 0.22652760434067618], [0.11129643684023392, 0.07926950251467085], [0.07893474341784651, 0.4315681374945237], [-0.2000017914838315, -0.08445279674287073], [-0.29956068591909263, 0.4664910923320479], [-0.09828291121522204, 0.1483319570086381], [0.07400994184747142, -0.11883630301138211], [-0.12650192453358844, 0.35264367728062257]]",density,black,,,D001,visual,1,[],"['1', '2', '3', '4']",1,2023.2.3,harveyvisual,2.1,[],8,0.75,
0,pause,0.4,None,None,None,0,179,179,179,,,,,,,,,,,,,D001,visual,1,[],"['1', '2', '3', '4']",1,2023.2.3,harveyvisual,2.1,[],8,0.75,
7,dot,0.3,['dot'],['density'],black,0,180,180,180,,,65.40024590492249,65.10782885551453,65.40789985656738,dot,"[0.08, 0.08, 0.06, 0.1, 0.08, 0.08, 0.06]","[[-0.23022292756182125, -0.05768485575552839], [-0.3970021412728509, -0.1722837668104814], [-0.2989980436724142, -0.5015189566068301], [-0.1887121522124618, -0.3052937986494308], [-0.001193606839323686, -0.45187687349833133], [-0.45251418858811787, -0.367940027934103], [0.11213422846620591, -0.19711986939188722]]",density,black,,,D001,visual,1,[],"['1', '2', '3', '4']",1,2023.2.3,harveyvisual,2.1,[],8,0.75,
0,pause,0.4,None,None,None,0,181,181,181,,,,,,,,,,,,,D001,visual,1,[],"['1', '2', '3', '4']",1,2023.2.3,harveyvisual,2.1,[],8,0.75,
7,dot,0.3,['dot'],['density'],white,0,182,182,182,,,66.10024285316467,65.80784201622009,66.10772490501404,dot,"[0.06, 0.1, 0.08, 0.1, 0.06, 0.06, 0.06]","[[-0.4123410031792677, -0.32555807737620884], [-0.11281232420725038, -0.2658066965482441], [-0.16970574590124413, 0.10972852905085191], [-0.380148642061964, 0.19816541478521793], [-0.49975943015608576, -0.10400723965324657], [-0.30003386022098844, -0.09340949099572564], [-0.0679185705411078, -0.06780919729272472]]",density,white,,,D001,visual,1,[],"['1', '2', '3', '4']",1,2023.2.3,harveyvisual,2.1,[],8,0.75,
0,pause,0.4,None,None,None,0,183,183,183,,,,,,,,,,,1,65.87151288986206,D001,visual,1,[],"['1', '2', '3', '4']",1,2023.2.3,harveyvisual,2.1,[],8,0.75,
7,dot,0.3,['dot'],['density'],white,0,184,184,184,,,66.80022096633911,66.50781393051147,66.8077290058136,dot,"[0.1, 0.1, 0.08, 0.08, 0.08, 0.1, 0.06]","[[0.2966712274604575, -0.2131825579980761], [-0.1186836204372937, -0.4965034514665913], [-0.01440301872015537, -0.0403072600505146], [0.1950017499803942, -0.04023412759326238], [0.279011892689379, -0.46996203863525404], [-0.05628257964606558, -0.24364929332980273], [0.11956786588335709, -0.3438640467385331]]",density,white,,,D001,visual,1,[],"['1', '2', '3', '4']",1,2023.2.3,harveyvisual,2.1,[],8,0.75,
0,pause,0.4,None,None,None,0,185,185,185,,,,,,,,,,,1,66.50657987594604,D001,visual,1,[],"['1', '2', '3', '4']",1,2023.2.3,harveyvisual,2.1,[],8,0.75,
7,dot,0.3,['dot'],['density'],black,0,186,186,186,,,67.50023198127747,67.20779204368591,67.50772404670715,dot,"[0.08, 0.06, 0.06, 0.08, 0.1, 0.1, 0.06]","[[-0.4123410031792677, -0.32555807737620884], [-0.11281232420725038, -0.2658066965482441], [-0.16970574590124413, 0.10972852905085191], [-0.380148642061964, 0.19816541478521793], [-0.49975943015608576, -0.10400723965324657], [-0.30003386022098844, -0.09340949099572564], [-0.0679185705411078, -0.06780919729272472]]",density,black,,,D001,visual,1,[],"['1', '2', '3', '4']",1,2023.2.3,harveyvisual,2.1,[],8,0.75,
0,pause,0.4,None,None,None,0,187,187,187,,,,,,,,,,,,,D001,visual,1,[],"['1', '2', '3', '4']",1,2023.2.3,harveyvisual,2.1,[],8,0.75,
7,dot,0.3,['dot'],['density'],black,0,188,188,188,,,68.20021891593933,67.90780997276306,68.2077088356018,dot,"[0.08, 0.1, 0.06, 0.06, 0.06, 0.06, 0.08]","[[-0.27819289690075527, 0.2483046813246476], [-0.5592260237138849, -0.07980801324287977], [-0.026637344717372308, -0.10521889364121585], [-0.16909952645659185, 0.05101222878256789], [-0.21868546305501066, -0.16482274839932262], [-0.3689572500107929, 0.03738969849335829], [-0.49227831811218986, 0.2063327632277477]]",density,black,,,D001,visual,1,[],"['1', '2', '3', '4']",1,2023.2.3,harveyvisual,2.1,[],8,0.75,
0,pause,0.4,None,None,None,0,189,189,189,,,,,,,,,,,,,D001,visual,1,[],"['1', '2', '3', '4']",1,2023.2.3,harveyvisual,2.1,[],8,0.75,
7,dot,0.3,['dot'],['density'],black,0,190,190,190,,,68.90023589134216,68.60778594017029,68.92440390586853,dot,"[0.06, 0.1, 0.06, 0.1, 0.1, 0.08, 0.06]","[[0.13823229125104186, -0.11287424625882309], [-0.082914425993103, 0.43156227464827385], [0.30107400633957315, 0.2583336012722512], [-0.1103107855725706, 0.20298726112520996], [0.37862923877470095, 0.05664428164281185], [0.10057609128089995, 0.3089177590539603], [0.1009283971288976, 0.1061295027106774]]",density,black,,,D001,visual,1,[],"['1', '2', '3', '4']",1,2023.2.3,harveyvisual,2.1,[],8,0.75,
0,pause,0.4,None,None,None,0,191,191,191,,,,,,,,,,,,,D001,visual,1,[],"['1', '2', '3', '4']",1,2023.2.3,harveyvisual,2.1,[],8,0.75,
6,dot,0.3,['dot'],['density'],black,0,192,192,192,,,69.60023999214172,69.30779695510864,69.60762190818787,dot,"[0.08, 0.06, 0.06, 0.06, 0.1, 0.08]","[[-0.560843418842529, -0.11752527585456686], [-0.31277608783648175, 0.04003545118838376], [-0.18207900664359264, -0.3652956678781814], [-0.41442909117718774, -0.4038021739217259], [-0.14446849917993246, -0.07035639226176245], [-0.3420415871796019, -0.1631057353810994]]",density,black,,,D001,visual,1,[],"['1', '2', '3', '4']",1,2023.2.3,harveyvisual,2.1,[],8,0.75,
0,pause,0.4,None,None,None,0,193,193,193,,,,,,,,,,,,,D001,visual,1,[],"['1', '2', '3', '4']",1,2023.2.3,harveyvisual,2.1,[],8,0.75,
6,dot,0.3,['dot'],['density'],black,0,194,194,194,,,70.30023097991943,70.00769400596619,70.32437682151794,dot,"[0.08, 0.08, 0.06, 0.06, 0.08, 0.1]","[[0.23625405956766557, 0.3892633732772463], [0.11760889656980711, -0.0038201085241890706], [0.42882153754783053, 0.07157264481568941], [0.22360409458703237, 0.16865996735680294], [-0.08582952339030024, 0.051003002567710905], [-0.0010028139275050567, 0.23222523166366787]]",density,black,,,D001,visual,1,[],"['1', '2', '3', '4']",1,2023.2.3,harveyvisual,2.1,[],8,0.75,
0,pause,0.4,None,None,None,0,195,195,195,,,,,,,,,,,,,D001,visual,1,[],"['1', '2', '3', '4']",1,2023.2.3,harveyvisual,2.1,[],8,0.75,
6,dot,0.3,['dot'],['density'],black,0,196,196,196,,,71.00024604797363,70.70774292945862,71.0243308544159,dot,"[0.08, 0.08, 0.08, 0.08, 0.1, 0.06]","[[-0.060066269329224556, -0.3459973645598818], [-0.2267112282887438, -0.46433083725857055], [-0.03368736353914721, -0.0592740518520544], [0.1129416353875032, -0.20466059509733167], [0.13908697530976044, -0.42386339769443276], [-0.2931789080149146, -0.2669036372638095]]",density,black,,,D001,visual,1,[],"['1', '2', '3', '4']",1,2023.2.3,harveyvisual,2.1,[],8,0.75,
0,pause,0.4,None,None,None,0,197,197,197,,,,,,,,,,,,,D001,visual,1,[],"['1', '2', '3', '4']",1,2023.2.3,harveyvisual,2.1,[],8,0.75,
6,dot,0.3,['dot'],['density'],black,0,198,198,198,,,71.70024585723877,71.40764093399048,71.70761489868164,dot,"[0.1, 0.1, 0.1, 0.06, 0.1, 0.1]","[[-0.25199583264674774, 0.1645076628059283], [-0.30980015185235615, -0.30059811601219943], [-0.3416104032120793, -0.08609002542292095], [-0.44539923421558947, 0.10453038353258776], [-0.10444623085343022, 0.0009067836503606603], [-0.5495015018291214, -0.1770200348029928]]",density,black,,,D001,visual,1,[],"['1', '2', '3', '4']",1,2023.2.3,harveyvisual,2.1,[],8,0.75,
0,pause,0.4,None,None,None,0,199,199,199,,,,,,,,,,,,,D001,visual,1,[],"['1', '2', '3', '4']",1,2023.2.3,harveyvisual,2.1,[],8,0.75,
6,dot,0.3,['dot'],['density'],black,0,200,200,200,,,72.40023398399353,72.10763502120972,72.4242799282074,dot,"[0.1, 0.08, 0.06, 0.08, 0.08, 0.08]","[[-0.08086177951302478, 0.2470577028799217], [0.17809040740055945, 0.25721690350386706], [0.248993691455746, -0.144418230259854], [0.04260816027356476, -0.17251108440570345], [0.26201279645255604, 0.07253913185781388], [-0.0017619790798508912, 0.027830886297901026]]",density,black,,,D001,visual,1,[],"['1', '2', '3', '4']",1,2023.2.3,harveyvisual,2.1,[],8,0.75,
0,pause,0.4,None,None,None,0,201,201,201,,,,,,,,,,,,,D001,visual,1,[],"['1', '2', '3', '4']",1,2023.2.3,harveyvisual,2.1,[],8,0.75,
6,dot,0.3,['dot'],['density'],black,0,202,202,202,,,73.10022187232971,72.80768394470215,73.12431597709656,dot,"[0.08, 0.1, 0.06, 0.06, 0.1, 0.06]","[[-0.12151555870586603, -0.4812968000001843], [0.16790488833295267, -0.2471088416996458], [0.27214716196035416, -0.49820278546509117], [-0.038147587524033764, -0.29309333197091036], [0.014949188681413147, -0.08915939926713055], [0.06798063624072649, -0.5852336971646088]]",density,black,,,D001,visual,1,[],"['1', '2', '3', '4']",1,2023.2.3,harveyvisual,2.1,[],8,0.75,
0,pause,0.4,None,None,None,0,203,203,203,,,,,,,,,,,,,D001,visual,1,[],"['1', '2', '3', '4']",1,2023.2.3,harveyvisual,2.1,[],8,0.75,
5,dot,0.3,['dot'],['density'],black,0,204,204,204,,,73.8002278804779,73.50762581825256,73.82426595687866,dot,"[0.06, 0.1, 0.08, 0.06, 0.08]","[[0.08548847697718086, 0.4135790235028826], [-0.012611048966726563, 0.22662400259503446], [0.27435170057987585, 0.4853016025774898], [-0.23063129862993442, 0.3109017384705433], [-0.11887524344887646, 0.49040580377695175]]",density,black,,,D001,visual,1,[],"['1', '2', '3', '4']",1,2023.2.3,harveyvisual,2.1,[],8,0.75,
0,pause,0.4,None,None,None,0,205,205,205,,,,,,,,,,,,,D001,visual,1,[],"['1', '2', '3', '4']",1,2023.2.3,harveyvisual,2.1,[],8,0.75,
5,dot,0.3,['dot'],['density'],black,0,206,206,206,,,74.50023698806763,74.20761489868164,74.52424502372742,dot,"[0.06, 0.1, 0.1, 0.1, 0.1]","[[-0.16255238243643175, 0.17860987090823105], [-0.3708934258622909, -0.17994308192218272], [-0.3873401471382859, 0.23755408526324856], [-0.3082462149465763, 0.01808515368093923], [-0.09381294098683406, -0.04001219282613638]]",density,black,,,D001,visual,1,[],"['1', '2', '3', '4']",1,2023.2.3,harveyvisual,2.1,[],8,0.75,
0,pause,0.4,None,None,None,0,207,207,207,,,,,,,,,,,,,D001,visual,1,[],"['1', '2', '3', '4']",1,2023.2.3,harveyvisual,2.1,[],8,0.75,
5,dot,0.3,['dot'],['density'],black,0,208,208,208,,,75.20024394989014,74.90755891799927,75.22421288490295,dot,"[0.08, 0.06, 0.06, 0.1, 0.1]","[[0.05896558140131438, -0.5342250951568444], [0.41924064092593105, -0.38742881471212404], [0.0789485457987589, -0.15857793529431863], [0.19859038409043042, -0.3300393182504279], [-0.04229804568701367, -0.31959008629620334]]",density,black,,,D001,visual,1,[],"['1', '2', '3', '4']",1,2023.2.3,harveyvisual,2.1,[],8,0.75,
0,pause,0.4,None,None,None,0,209,209,209,,,,,,,,,,,,,D001,visual,1,[],"['1', '2', '3', '4']",1,2023.2.3,harveyvisual,2.1,[],8,0.75,
5,dot,0.3,['dot'],['density'],black,0,210,210,210,,,75.90022492408752,75.60758304595947,75.92420792579651,dot,"[0.08, 0.1, 0.06, 0.1, 0.06]","[[-0.24811222937808852, -0.0926462173418487], [-0.0684102839715827, 0.053707960252323945], [-0.4199359189551936, 0.028595247832400618], [-0.4311232183625476, -0.17348815390478414], [-0.08153496032007611, -0.23043043025001772]]",density,black,,,D001,visual,1,[],"['1', '2', '3', '4']",1,2023.2.3,harveyvisual,2.1,[],8,0.75,
0,pause,0.4,None,None,None,0,211,211,211,,,,,,,,,,,,,D001,visual,1,[],"['1', '2', '3', '4']",1,2023.2.3,harveyvisual,2.1,[],8,0.75,
5,dot,0.3,['dot'],['density'],black,0,212,212,212,,,76.60023593902588,76.30759501457214,76.62425899505615,dot,"[0.08, 0.08, 0.06, 0.06, 0.1]","[[0.34746533592570195, 0.16118282603596082], [0.14457128296481445, 0.28865621170929245], [0.4549189851861922, 0.34228556952890804], [0.008483415068308318, 0.44103246018778014], [0.27150044131742485, 0.4621652121832405]]",density,black,,,D001,visual,1,[],"['1', '2', '3', '4']",1,2023.2.3,harveyvisual,2.1,[],8,0.75,
0,pause,0.4,None,None,None,0,213,213,213,,,,,,,,,,,,,D001,visual,1,[],"['1', '2', '3', '4']",1,2023.2.3,harveyvisual,2.1,[],8,0.75,
5,dot,0.3,['dot'],['density'],black,0,214,214,214,,,77.30022287368774,77.02512693405151,77.32420301437378,dot,"[0.08, 0.08, 0.06, 0.08, 0.06]","[[-0.0036269740154891753, 0.5431219823242713], [-0.2646325594942043, 0.5073179604697073], [-0.41902475937036154, 0.37311436690984484], [-0.007163214206743488, 0.2887893175302695], [-0.2156098228659233, 0.2684642371109035]]",density,black,,,D001,visual,1,[],"['1', '2', '3', '4']",1,2023.2.3,harveyvisual,2.1,[],8,0.75,
0,pause,0.4,None,None,None,0,215,215,215,,,,,,,,,,,,,D001,visual,1,[],"['1', '2', '3', '4']",1,2023.2.3,harveyvisual,2.1,[],8,0.75,
4,dot,0.3,['dot'],['density'],white,0,216,216,216,,,78.00023484230042,77.70756196975708,78.02418494224548,dot,"[0.08, 0.06, 0.1, 0.08]","[[-0.03907102058372138, -0.1723346686752248], [0.13255167928633116, -0.03782047714335622], [0.2720101467217329, -0.23443565690461937], [0.07080951743106016, -0.35239766365090747]]",density,white,,,D001,visual,1,[],"['1', '2', '3', '4']",1,2023.2.3,harveyvisual,2.1,[],8,0.75,
0,pause,0.4,None,None,None,0,217,217,217,,,,,,,,,,,1,77.64300584793091,D001,visual,1,[],"['1', '2', '3', '4']",1,2023.2.3,harveyvisual,2.1,[],8,0.75,
4,dot,0.3,['dot'],['density'],white,0,218,218,218,,,78.70024585723877,78.40746593475342,78.72411489486694,dot,"[0.1, 0.06, 0.06, 0.1]","[[-0.5133923796685119, -0.13567638448558317], [-0.3102378593599109, -0.17790160316510653], [-0.5338837235738882, 0.07316730980410076], [-0.255286731521037, 0.022123457211080083]]",density,white,,,D001,visual,1,[],"['1', '2', '3', '4']",1,2023.2.3,harveyvisual,2.1,[],8,0.75,
0,pause,0.4,None,None,None,0,219,219,219,,,,,,,,,,,1,78.49903798103333,D001,visual,1,[],"['1', '2', '3', '4']",1,2023.2.3,harveyvisual,2.1,[],8,0.75,
4,dot,0.3,['dot'],['density'],black,0,220,220,220,,,79.40024995803833,79.10753893852234,79.42411684989929,dot,"[0.08, 0.06, 0.06, 0.1]","[[-0.22711054503220823, -0.5144049053218714], [-0.016307770745122817, -0.5558659767831347], [-0.26432457165568224, -0.2824025039497699], [-0.026303944553407815, -0.34464361634901186]]",density,black,,,D001,visual,1,[],"['1', '2', '3', '4']",1,2023.2.3,harveyvisual,2.1,[],8,0.75,
0,pause,0.4,None,None,None,0,221,221,221,,,,,,,,,,,,,D001,visual,1,[],"['1', '2', '3', '4']",1,2023.2.3,harveyvisual,2.1,[],8,0.75,
4,dot,0.3,['dot'],['density'],black,0,222,222,222,,,80.1002459526062,79.80744290351868,80.1241500377655,dot,"[0.08, 0.06, 0.06, 0.1]","[[-0.2516773625496151, -0.30151264897341506], [-0.16747001932966935, -0.11477707456203952], [0.007305472957725734, -0.4586877449884055], [0.017540980065453668, -0.20354321808263612]]",density,black,,,D001,visual,1,[],"['1', '2', '3', '4']",1,2023.2.3,harveyvisual,2.1,[],8,0.75,
0,pause,0.4,None,None,None,0,223,223,223,,,,,,,,,,,,,D001,visual,1,[],"['1', '2', '3', '4']",1,2023.2.3,harveyvisual,2.1,[],8,0.75,
4,dot,0.3,['dot'],['density'],black,0,224,224,224,,,80.80023288726807,80.50740885734558,80.82407283782959,dot,"[0.08, 0.08, 0.06, 0.08]","[[0.08172100217045614, 0.5402562525463245], [-0.024891988969352973, 0.31595276793208527], [-0.14685316472848742, 0.5184788481920529], [-0.2646655063210597, 0.3159281349431851]]",density,black,,,D001,visual,1,[],"['1', '2', '3', '4']",1,2023.2.3,harveyvisual,2.1,[],8,0.75,
0,pause,0.4,None,None,None,0,225,225,225,,,,,,,,,,,,,D001,visual,1,[],"['1', '2', '3', '4']",1,2023.2.3,harveyvisual,2.1,[],8,0.75,
4,dot,0.3,['dot'],['density'],black,0,226,226,226,,,81.5002338886261,81.20740604400635,81.52412104606628,dot,"[0.1, 0.06, 0.1, 0.06]","[[0.0004228548582206217, 0.4437421379736539], [0.24572762857664815, 0.2260868474052859], [0.007756854070108054, 0.1846819218217072], [0.22099789303306372, 0.4278063517398125]]",density,black,,,D001,visual,1,[],"['1', '2', '3', '4']",1,2023.2.3,harveyvisual,2.1,[],8,0.75,
0,pause,0.4,None,None,None,0,227,227,227,,,,,,,,,,,,,D001,visual,1,[],"['1', '2', '3', '4']",1,2023.2.3,harveyvisual,2.1,[],8,0.75,
3,dot,0.3,['dot'],['density'],black,0,228,228,228,,,82.20023798942566,81.90745782852173,82.22410488128662,dot,"[0.08, 0.1, 0.08]","[[0.48628142840140876, 0.1515230430224543], [0.28796188866220057, 0.19625725416133796], [0.3371406364253883, -0.002661880310138811]]",density,black,,,D001,visual,1,[],"['1', '2', '3', '4']",1,2023.2.3,harveyvisual,2.1,[],8,0.75,
0,pause,0.4,None,None,None,0,229,229,229,,,,,,,,,,,,,D001,visual,1,[],"['1', '2', '3', '4']",1,2023.2.3,harveyvisual,2.1,[],8,0.75,
3,dot,0.3,['dot'],['density'],white,0,230,230,230,,,82.90022087097168,82.60740399360657,82.92406487464905,dot,"[0.08, 0.06, 0.08]","[[-0.17592395544936776, 0.40510565415719324], [-0.30566154612550034, 0.21848422264492345], [-0.39822260978708685, 0.43144058222919995]]",density,white,,,D001,visual,1,[],"['1', '2', '3', '4']",1,2023.2.3,harveyvisual,2.1,[],8,0.75,
0,pause,0.4,None,None,None,0,231,231,231,,,,,,,,,,,1,82.70057487487793,D001,visual,1,[],"['1', '2', '3', '4']",1,2023.2.3,harveyvisual,2.1,[],8,0.75,
3,dot,0.3,['dot'],['density'],white,0,232,232,232,,,83.60023593902588,83.30735182762146,83.62407684326172,dot,"[0.06, 0.06, 0.08]","[[0.2768253388883432, 0.03346297355107007], [0.11287187477499526, -0.09417797505773098], [0.09003622344097514, 0.12370024427926096]]",density,white,,,D001,visual,1,[],"['1', '2', '3', '4']",1,2023.2.3,harveyvisual,2.1,[],8,0.75,
0,pause,0.4,None,None,None,0,233,233,233,,,,,,,,,,,1,83.22560787200928,D001,visual,1,[],"['1', '2', '3', '4']",1,2023.2.3,harveyvisual,2.1,[],8,0.75,
3,dot,0.3,['dot'],['density'],black,0,234,234,234,,,84.30022883415222,84.00734901428223,84.32409000396729,dot,"[0.06, 0.06, 0.08]","[[-0.3391924794566746, 0.43027756448319565], [-0.33080415183405026, 0.2112686575961512], [-0.14277619127331137, 0.29962579604826906]]",density,black,,,D001,visual,1,[],"['1', '2', '3', '4']",1,2023.2.3,harveyvisual,2.1,[],8,0.75,
0,pause,0.4,None,None,None,0,235,235,235,,,,,,,,,,,,,D001,visual,1,[],"['1', '2', '3', '4']",1,2023.2.3,harveyvisual,2.1,[],8,0.75,
3,dot,0.3,['dot'],['density'],black,0,236,236,236,,,85.00022196769714,84.70738196372986,85.02405095100403,dot,"[0.06, 0.06, 0.06]","[[0.5267872668145167, -0.16137547842759675], [0.3420119191573968, -0.036920749927643534], [0.3185462880061428, -0.2399114968218526]]",density,black,,,D001,visual,1,[],"['1', '2', '3', '4']",1,2023.2.3,harveyvisual,2.1,[],8,0.75,
0,pause,0.4,None,None,None,0,237,237,237,,,,,,,,,,,,,D001,visual,1,[],"['1', '2', '3', '4']",1,2023.2.3,harveyvisual,2.1,[],8,0.75,
3,dot,0.3,['dot'],['density'],black,0,238,238,238,,,85.70024585723877,85.40730595588684,85.7239499092102,dot,"[0.08, 0.1, 0.1]","[[0.1555504186016049, 0.15532406847092056], [-0.0680535881648269, 0.26220909641571793], [0.08533315121688807, 0.39122308779032533]]",density,black,,,D001,visual,1,[],"['1', '2', '3', '4']",1,2023.2.3,harveyvisual,2.1,[],8,0.75,
0,pause,0.4,None,None,None,0,239,239,239,,,,,,,,,,,,,D001,visual,1,[],"['1', '2', '3', '4']",1,2023.2.3,harveyvisual,2.1,[],8,0.75,
2,dot,0.3,['dot'],['density'],black,0,240,240,240,,,86.40024590492249,86.1072769165039,86.4240038394928,dot,"[0.08, 0.08]","[[-0.20887660672828282, 0.3399455197969581], [-0.34272369919491674, 0.19089688818271272]]",density,black,,,D001,visual,1,[],"['1', '2', '3', '4']",1,2023.2.3,harveyvisual,2.1,[],8,0.75,
0,pause,0.4,None,None,None,0,241,241,241,,,,,,,,,,,,,D001,visual,1,[],"['1', '2', '3', '4']",1,2023.2.3,harveyvisual,2.1,[],8,0.75,
2,dot,0.3,['dot'],['density'],black,0,242,242,242,,,87.10024881362915,86.80729103088379,87.12397789955139,dot,"[0.06, 0.06]","[[0.28379985726396956, 0.19228106150028407], [0.10160376615595414, 0.2763535177041957]]",density,black,,,D001,visual,1,[],"['1', '2', '3', '4']",1,2023.2.3,harveyvisual,2.1,[],8,0.75,
0,pause,0.4,None,None,None,0,243,243,243,,,,,,,,,,,,,D001,visual,1,[],"['1', '2', '3', '4']",1,2023.2.3,harveyvisual,2.1,[],8,0.75,
2,dot,0.3,['dot'],['density'],black,0,244,244,244,,,87.80024194717407,87.50730299949646,87.82390189170837,dot,"[0.06, 0.08]","[[0.45098141687762733, -0.20237638590572143], [0.5433504117931098, -0.02475258047346216]]",density,black,,,D001,visual,1,[],"['1', '2', '3', '4']",1,2023.2.3,harveyvisual,2.1,[],8,0.75,
0,pause,0.4,None,None,None,0,245,245,245,,,,,,,,,,,,,D001,visual,1,[],"['1', '2', '3', '4']",1,2023.2.3,harveyvisual,2.1,[],8,0.75,
2,dot,0.3,['dot'],['density'],black,0,246,246,246,,,88.5002338886261,88.20730400085449,88.52387595176697,dot,"[0.1, 0.1]","[[0.45098141687762733, -0.20237638590572143], [0.5433504117931098, -0.02475258047346216]]",density,black,,,D001,visual,1,[],"['1', '2', '3', '4']",1,2023.2.3,harveyvisual,2.1,[],8,0.75,
0,pause,0.4,None,None,None,0,247,247,247,,,,,,,,,,,,,D001,visual,1,[],"['1', '2', '3', '4']",1,2023.2.3,harveyvisual,2.1,[],8,0.75,
2,dot,0.3,['dot'],['density'],black,0,248,248,248,,,89.20022201538086,88.90729594230652,89.22388100624084,dot,"[0.08, 0.1]","[[0.07059805578258149, -0.2458188734665979], [0.058763118304238846, -0.4455693812784497]]",density,black,,,D001,visual,1,[],"['1', '2', '3', '4']",1,2023.2.3,harveyvisual,2.1,[],8,0.75,
0,pause,0.4,None,None,None,0,249,249,249,,,,,,,,,,,,,D001,visual,1,[],"['1', '2', '3', '4']",1,2023.2.3,harveyvisual,2.1,[],8,0.75,
2,dot,0.3,['dot'],['density'],black,0,250,250,250,,,89.90021991729736,89.60718297958374,89.92384696006775,dot,"[0.1, 0.08]","[[0.02987007740145294, 0.4330921892138179], [-0.1698845640653836, 0.4119973540264252]]",density,black,,,D001,visual,1,[],"['1', '2', '3', '4']",1,2023.2.3,harveyvisual,2.1,[],8,0.75,
0,pause,0.4,None,None,None,0,251,251,251,,,,,,,,,,,,,D001,visual,1,[],"['1', '2', '3', '4']",1,2023.2.3,harveyvisual,2.1,[],8,0.75,
1,dot,0.3,['dot'],['density'],black,0,252,252,252,,,90.60024499893188,90.30718183517456,90.62381792068481,dot,[0.1],"[0.0038807231877187303, -0.2777732366953785]",density,black,,,D001,visual,1,[],"['1', '2', '3', '4']",1,2023.2.3,harveyvisual,2.1,[],8,0.75,
0,pause,0.4,None,None,None,0,253,253,253,,,,,,,,,,,,,D001,visual,1,[],"['1', '2', '3', '4']",1,2023.2.3,harveyvisual,2.1,[],8,0.75,
1,dot,0.3,['dot'],['density'],black,0,254,254,254,,,91.30022382736206,91.00717282295227,91.32380890846252,dot,[0.08],"[0.075024325262877, 0.28946834799837856]",density,black,,,D001,visual,1,[],"['1', '2', '3', '4']",1,2023.2.3,harveyvisual,2.1,[],8,0.75,
0,pause,0.4,None,None,None,0,255,255,255,,,,,,,,,,,,,D001,visual,1,[],"['1', '2', '3', '4']",1,2023.2.3,harveyvisual,2.1,[],8,0.75,
1,dot,0.3,['dot'],['density'],black,0,256,256,256,,,92.00024604797363,91.70717191696167,92.02382683753967,dot,[0.1],"[0.0956549371127339, 0.09579573331985794]",density,black,,,D001,visual,1,[],"['1', '2', '3', '4']",1,2023.2.3,harveyvisual,2.1,[],8,0.75,
0,pause,0.4,None,None,None,0,257,257,257,,,,,,,,,,,,,D001,visual,1,[],"['1', '2', '3', '4']",1,2023.2.3,harveyvisual,2.1,[],8,0.75,
1,dot,0.3,['dot'],['density'],black,0,258,258,258,,,92.70022797584534,92.40715289115906,92.72387099266052,dot,[0.06],"[0.00661777001411412, 0.39634766145863237]",density,black,,,D001,visual,1,[],"['1', '2', '3', '4']",1,2023.2.3,harveyvisual,2.1,[],8,0.75,
0,pause,0.4,None,None,None,0,259,259,259,,,,,,,,,,,,,D001,visual,1,[],"['1', '2', '3', '4']",1,2023.2.3,harveyvisual,2.1,[],8,0.75,
1,dot,0.3,['dot'],['density'],black,0,260,260,260,,,93.40024185180664,93.10710287094116,93.42376804351807,dot,[0.1],"[-0.2532192430475575, -0.5275431624831907]",density,black,,,D001,visual,1,[],"['1', '2', '3', '4']",1,2023.2.3,harveyvisual,2.1,[],8,0.75,
0,pause,0.4,None,None,None,0,261,261,261,,,,,,,,,,,,,D001,visual,1,[],"['1', '2', '3', '4']",1,2023.2.3,harveyvisual,2.1,[],8,0.75,
1,dot,0.3,['dot'],['density'],black,0,262,262,262,,,94.10024499893188,93.80712795257568,94.12373185157776,dot,[0.06],"[0.21839164384074103, 0.06179923858190914]",density,black,,,D001,visual,1,[],"['1', '2', '3', '4']",1,2023.2.3,harveyvisual,2.1,[],8,0.75,
0,pause,0.4,None,None,None,0,263,263,263,,,,,,,,,,,,,D001,visual,1,[],"['1', '2', '3', '4']",1,2023.2.3,harveyvisual,2.1,[],8,0.75,
20,dot,0.3,['dot'],['density'],black,0,264,264,264,,,94.8002359867096,94.52376389503479,94.82371091842651,dot,"[0.1, 0.06, 0.08, 0.08, 0.1, 0.08, 0.08, 0.06, 0.08, 0.1, 0.08, 0.08, 0.1, 0.06, 0.08, 0.08, 0.06, 0.06, 0.08, 0.1]","[[0.31273528430357667, -0.005054374988262], [-0.5292752189371304, 0.08073068441799114], [0.3171377666870294, -0.3661482632273752], [-0.09352155470120305, -0.027480301670223084], [0.09932924865043702, 0.06490818763365191], [-0.0006543628400579315, 0.34935897110694003], [-0.4483763942581833, -0.3593457786509788], [-0.4239860755988727, -0.10802868017944861], [0.5045175454961911, 0.3033231023912612], [-0.22439936222440565, 0.17333217156254677], [0.5758530027604886, -0.05152657832776791], [-0.32797332010695884, 0.4229762902664159], [-0.12088009003604544, 0.5303747825413231], [-0.09595605015394892, -0.42146610701416753], [0.1915307380639193, 0.31104072001211613], [0.2170734414561859, -0.5340255089496737], [0.1361147177494234, 0.5696772135320924], [0.3416771519535481, 0.4564652902981219], [0.5034275879060651, -0.28717765183789984], [0.2504330961136755, -0.184604002937934]]",density,black,,,D001,visual,1,[],"['1', '2', '3', '4']",1,2023.2.3,harveyvisual,2.1,[],8,0.75,
0,pause,0.4,None,None,None,0,265,265,265,,,,,,,,,,,,,D001,visual,1,[],"['1', '2', '3', '4']",1,2023.2.3,harveyvisual,2.1,[],8,0.75,
20,dot,0.3,['dot'],['density'],black,0,266,266,266,,,95.5002498626709,95.22509002685547,95.52373600006104,dot,"[0.08, 0.06, 0.06, 0.06, 0.08, 0.1, 0.06, 0.06, 0.08, 0.08, 0.1, 0.08, 0.1, 0.1, 0.1, 0.06, 0.06, 0.1, 0.08, 0.08]","[[-0.20570239056124684, 0.45638115134013446], [-0.09721145581313528, -0.30441258653471004], [0.32265508115736063, -0.004334896307914282], [-0.28718547525247545, 0.17991297668139095], [0.2478636382739019, 0.5148633505165742], [-0.48412260885078484, -0.044069326108338025], [0.3208661510629873, 0.2374419089878922], [-0.3633299727226646, -0.2552733441451618], [0.019164238057773786, 0.45551405939378464], [-0.09960373327423766, -0.0020578527148772396], [-0.5412008264940105, 0.14968512343633295], [-0.01962524880321037, 0.2164392839757252], [0.13243188375421044, -0.1621556812677723], [0.5476831610960674, 0.00901593540084139], [-0.46638760524853573, 0.38410513477474906], [0.2855254720163566, -0.42774783505130726], [-0.34099646782348136, -0.48572791357573136], [0.3863186288174768, -0.20940984650005823], [0.5146135819561067, 0.304211620326341], [0.13525569315193497, 0.04292052565798865]]",density,black,,,D001,visual,1,[],"['1', '2', '3', '4']",1,2023.2.3,harveyvisual,2.1,[],8,0.75,
0,pause,0.4,None,None,None,0,267,267,267,,,,,,,,,,,,,D001,visual,1,[],"['1', '2', '3', '4']",1,2023.2.3,harveyvisual,2.1,[],8,0.75,
