num,mod,duration,shape,ll_cond,colors,.thisRepN,.thisTrialN,.thisN,.thisIndex,thisRow.t,notes,raw_global_time,t_start,t_stop,shapes,size,pos,cond,color,button,RT,participant,session,starting_run,left button (match/odd),right button (non-match/even),samples_per_block,psychopy version,expName,offset,audio,number_runs,radius,
1,dot,0.3,['dot'],['density'],black,0,0,0,0,,,2.400212049484253,2.1049959659576416,2.4048960208892822,dot,[0.1],"[-0.43400380483721984, 0.10531265887229962]",density,black,,,D001,visual,4,[],"['1', '2', '3', '4']",1,2023.2.3,harveyvisual,2.1,[],8,0.75,
0,pause,0.4,None,None,None,0,1,1,1,,,,,,,,,,,,,D001,visual,4,[],"['1', '2', '3', '4']",1,2023.2.3,harveyvisual,2.1,[],8,0.75,
1,dot,0.3,['dot'],['density'],black,0,2,2,2,,,3.10021710395813,2.804892063140869,3.105947971343994,dot,[0.1],"[0.1771264825789444, 0.012298414170669998]",density,black,,,D001,visual,4,[],"['1', '2', '3', '4']",1,2023.2.3,harveyvisual,2.1,[],8,0.75,
0,pause,0.4,None,None,None,0,3,3,3,,,,,,,,,,,,,D001,visual,4,[],"['1', '2', '3', '4']",1,2023.2.3,harveyvisual,2.1,[],8,0.75,
1,dot,0.3,['dot'],['density'],black,0,4,4,4,,,3.8002119064331055,3.5057430267333984,3.8059210777282715,dot,[0.1],"[0.00661777001411412, 0.39634766145863237]",density,black,,,D001,visual,4,[],"['1', '2', '3', '4']",1,2023.2.3,harveyvisual,2.1,[],8,0.75,
0,pause,0.4,None,None,None,0,5,5,5,,,,,,,,,,,,,D001,visual,4,[],"['1', '2', '3', '4']",1,2023.2.3,harveyvisual,2.1,[],8,0.75,
1,dot,0.3,['dot'],['density'],black,0,6,6,6,,,4.500211954116821,4.205897092819214,4.50587797164917,dot,[0.08],"[0.30758596680771827, -0.21275106234766314]",density,black,,,D001,visual,4,[],"['1', '2', '3', '4']",1,2023.2.3,harveyvisual,2.1,[],8,0.75,
0,pause,0.4,None,None,None,0,7,7,7,,,,,,,,,,,,,D001,visual,4,[],"['1', '2', '3', '4']",1,2023.2.3,harveyvisual,2.1,[],8,0.75,
1,dot,0.3,['dot'],['density'],black,0,8,8,8,,,5.200212001800537,4.905332088470459,5.205877065658569,dot,[0.06],"[-0.30422713965878023, 0.0739284850406325]",density,black,,,D001,visual,4,[],"['1', '2', '3', '4']",1,2023.2.3,harveyvisual,2.1,[],8,0.75,
0,pause,0.4,None,None,None,0,9,9,9,,,,,,,,,,,,,D001,visual,4,[],"['1', '2', '3', '4']",1,2023.2.3,harveyvisual,2.1,[],8,0.75,
1,dot,0.3,['dot'],['density'],black,0,10,10,10,,,5.900214910507202,5.605381965637207,5.924142122268677,dot,[0.08],"[0.31457923939875737, -0.4122609730770665]",density,black,,,D001,visual,4,[],"['1', '2', '3', '4']",1,2023.2.3,harveyvisual,2.1,[],8,0.75,
0,pause,0.4,None,None,None,0,11,11,11,,,,,,,,,,,,,D001,visual,4,[],"['1', '2', '3', '4']",1,2023.2.3,harveyvisual,2.1,[],8,0.75,
2,dot,0.3,['dot'],['density'],black,0,12,12,12,,,6.600207090377808,6.307507038116455,6.624156951904297,dot,"[0.1, 0.08]","[[0.5590929928249944, 0.05901985638302875], [0.5065513741473344, -0.13409141480534237]]",density,black,,,D001,visual,4,[],"['1', '2', '3', '4']",1,2023.2.3,harveyvisual,2.1,[],8,0.75,
0,pause,0.4,None,None,None,0,13,13,13,,,,,,,,,,,,,D001,visual,4,[],"['1', '2', '3', '4']",1,2023.2.3,harveyvisual,2.1,[],8,0.75,
2,dot,0.3,['dot'],['density'],black,0,14,14,14,,,7.300216913223267,7.007491111755371,7.324142932891846,dot,"[0.1, 0.1]","[[-0.5356907773971091, -0.01454049690556478], [-0.3936553319468624, 0.1263392020735458]]",density,black,,,D001,visual,4,[],"['1', '2', '3', '4']",1,2023.2.3,harveyvisual,2.1,[],8,0.75,
0,pause,0.4,None,None,None,0,15,15,15,,,,,,,,,,,,,D001,visual,4,[],"['1', '2', '3', '4']",1,2023.2.3,harveyvisual,2.1,[],8,0.75,
2,dot,0.3,['dot'],['density'],black,0,16,16,16,,,8.00020694732666,7.7074809074401855,8.024131059646606,dot,"[0.06, 0.1]","[[0.3859848860398513, -0.03650274153894256], [0.5613034441480618, 0.06134992989862206]]",density,black,,,D001,visual,4,[],"['1', '2', '3', '4']",1,2023.2.3,harveyvisual,2.1,[],8,0.75,
0,pause,0.4,None,None,None,0,17,17,17,,,,,,,,,,,,,D001,visual,4,[],"['1', '2', '3', '4']",1,2023.2.3,harveyvisual,2.1,[],8,0.75,
2,dot,0.3,['dot'],['density'],black,0,18,18,18,,,8.700205087661743,8.407457113265991,8.724143028259277,dot,"[0.1, 0.1]","[[0.075840462383643, -0.21806900392302264], [0.2761252679018853, -0.22101292055433702]]",density,black,,,D001,visual,4,[],"['1', '2', '3', '4']",1,2023.2.3,harveyvisual,2.1,[],8,0.75,
0,pause,0.4,None,None,None,0,19,19,19,,,,,,,,,,,,,D001,visual,4,[],"['1', '2', '3', '4']",1,2023.2.3,harveyvisual,2.1,[],8,0.75,
2,dot,0.3,['dot'],['density'],black,0,20,20,20,,,9.400224924087524,9.107449054718018,9.424103021621704,dot,"[0.08, 0.08]","[[0.4101371699595759, -0.046236245446824746], [0.42481245787877703, -0.24684889303111815]]",density,black,,,D001,visual,4,[],"['1', '2', '3', '4']",1,2023.2.3,harveyvisual,2.1,[],8,0.75,
0,pause,0.4,None,None,None,0,21,21,21,,,,,,,,,,,,,D001,visual,4,[],"['1', '2', '3', '4']",1,2023.2.3,harveyvisual,2.1,[],8,0.75,
2,dot,0.3,['dot'],['density'],black,0,22,22,22,,,10.100203037261963,9.807426929473877,10.124090909957886,dot,"[0.06, 0.08]","[[-0.20887660672828282, 0.3399455197969581], [-0.34272369919491674, 0.19089688818271272]]",density,black,,,D001,visual,4,[],"['1', '2', '3', '4']",1,2023.2.3,harveyvisual,2.1,[],8,0.75,
0,pause,0.4,None,None,None,0,23,23,23,,,,,,,,,,,,,D001,visual,4,[],"['1', '2', '3', '4']",1,2023.2.3,harveyvisual,2.1,[],8,0.75,
3,dot,0.3,['dot'],['density'],white,0,24,24,24,,,10.800202131271362,10.524996042251587,10.807501077651978,dot,"[0.06, 0.1, 0.08]","[[-0.5081709494874314, 0.1572673197774781], [-0.37009835501087307, 0.006965763417246156], [-0.5707172634768017, -0.07177594851347295]]",density,white,,,D001,visual,4,[],"['1', '2', '3', '4']",1,2023.2.3,harveyvisual,2.1,[],8,0.75,
0,pause,0.4,None,None,None,0,25,25,25,,,,,,,,,,,1,10.940882205963135,D001,visual,4,[],"['1', '2', '3', '4']",1,2023.2.3,harveyvisual,2.1,[],8,0.75,
3,dot,0.3,['dot'],['density'],black,0,26,26,26,,,11.500200986862183,11.207592010498047,11.524042129516602,dot,"[0.06, 0.08, 0.06]","[[-0.05604225559701161, -0.5082314702914299], [0.10137377066920354, -0.3837858820064252], [-0.12802807887251882, -0.3142638921214105]]",density,black,,,D001,visual,4,[],"['1', '2', '3', '4']",1,2023.2.3,harveyvisual,2.1,[],8,0.75,
0,pause,0.4,None,None,None,0,27,27,27,,,,,,,,,,,,,D001,visual,4,[],"['1', '2', '3', '4']",1,2023.2.3,harveyvisual,2.1,[],8,0.75,
3,dot,0.3,['dot'],['density'],black,0,28,28,28,,,12.200208902359009,11.907377004623413,12.224031925201416,dot,"[0.08, 0.08, 0.08]","[[0.13507679288784277, 0.012189921546254917], [0.31506600046810584, 0.10578898906948993], [0.12756957777796288, 0.2513869495778075]]",density,black,,,D001,visual,4,[],"['1', '2', '3', '4']",1,2023.2.3,harveyvisual,2.1,[],8,0.75,
0,pause,0.4,None,None,None,0,29,29,29,,,,,,,,,,,,,D001,visual,4,[],"['1', '2', '3', '4']",1,2023.2.3,harveyvisual,2.1,[],8,0.75,
3,dot,0.3,['dot'],['density'],black,0,30,30,30,,,12.900228023529053,12.607363939285278,12.924004077911377,dot,"[0.06, 0.08, 0.06]","[[0.29938275938101017, 0.44415474715472736], [0.13070782598704628, 0.5557174004537693], [0.11832456902218637, 0.3273615767427578]]",density,black,,,D001,visual,4,[],"['1', '2', '3', '4']",1,2023.2.3,harveyvisual,2.1,[],8,0.75,
0,pause,0.4,None,None,None,0,31,31,31,,,,,,,,,,,,,D001,visual,4,[],"['1', '2', '3', '4']",1,2023.2.3,harveyvisual,2.1,[],8,0.75,
3,dot,0.3,['dot'],['density'],black,0,32,32,32,,,13.600202083587646,13.307332992553711,13.623987913131714,dot,"[0.06, 0.1, 0.1]","[[-0.36641147837046456, 0.28339849123565264], [-0.19108570342652328, 0.4628134959899303], [-0.16564092668537764, 0.24926372681875647]]",density,black,,,D001,visual,4,[],"['1', '2', '3', '4']",1,2023.2.3,harveyvisual,2.1,[],8,0.75,
0,pause,0.4,None,None,None,0,33,33,33,,,,,,,,,,,,,D001,visual,4,[],"['1', '2', '3', '4']",1,2023.2.3,harveyvisual,2.1,[],8,0.75,
3,dot,0.3,['dot'],['density'],black,0,34,34,34,,,14.300219058990479,14.007318019866943,14.323974132537842,dot,"[0.1, 0.1, 0.06]","[[0.023581383320217864, -0.14485493475327696], [-0.06776129410461201, 0.04872406380669356], [0.14236151446293968, 0.029671970014602284]]",density,black,,,D001,visual,4,[],"['1', '2', '3', '4']",1,2023.2.3,harveyvisual,2.1,[],8,0.75,
0,pause,0.4,None,None,None,0,35,35,35,,,,,,,,,,,,,D001,visual,4,[],"['1', '2', '3', '4']",1,2023.2.3,harveyvisual,2.1,[],8,0.75,
4,dot,0.3,['dot'],['density'],black,0,36,36,36,,,15.000209093093872,14.707297086715698,15.023948907852173,dot,"[0.08, 0.1, 0.06, 0.1]","[[0.010836700166572746, 0.3385055392368038], [-0.21755291078517647, 0.23172276430217797], [0.04881011250022837, 0.13413393103699342], [-0.16894730197854985, 0.4434327172909165]]",density,black,,,D001,visual,4,[],"['1', '2', '3', '4']",1,2023.2.3,harveyvisual,2.1,[],8,0.75,
0,pause,0.4,None,None,None,0,37,37,37,,,,,,,,,,,,,D001,visual,4,[],"['1', '2', '3', '4']",1,2023.2.3,harveyvisual,2.1,[],8,0.75,
4,dot,0.3,['dot'],['density'],black,0,38,38,38,,,15.700212955474854,15.407275915145874,15.723977088928223,dot,"[0.08, 0.1, 0.06, 0.06]","[[-0.045256114861740894, 0.2798656300268403], [-0.02131053084637037, 0.4849425601475732], [0.17666180860848907, 0.34430389164600056], [0.0747630441556118, 0.10387908342824508]]",density,black,,,D001,visual,4,[],"['1', '2', '3', '4']",1,2023.2.3,harveyvisual,2.1,[],8,0.75,
0,pause,0.4,None,None,None,0,39,39,39,,,,,,,,,,,,,D001,visual,4,[],"['1', '2', '3', '4']",1,2023.2.3,harveyvisual,2.1,[],8,0.75,
4,dot,0.3,['dot'],['density'],black,0,40,40,40,,,16.40021300315857,16.10726308822632,16.423927068710327,dot,"[0.08, 0.1, 0.08, 0.06]","[[-0.34940937311115045, -0.11648702989399858], [-0.2695829051223266, -0.4589438614516443], [-0.4698604504367728, -0.3018413850444449], [-0.18849712946501163, -0.26902343222239633]]",density,black,,,D001,visual,4,[],"['1', '2', '3', '4']",1,2023.2.3,harveyvisual,2.1,[],8,0.75,
0,pause,0.4,None,None,None,0,41,41,41,,,,,,,,,,,,,D001,visual,4,[],"['1', '2', '3', '4']",1,2023.2.3,harveyvisual,2.1,[],8,0.75,
4,dot,0.3,['dot'],['density'],black,0,42,42,42,,,17.10021996498108,16.807621955871582,17.12386703491211,dot,"[0.1, 0.06, 0.06, 0.06]","[[-0.24231220575667195, -0.22966258239168486], [-0.5136420973432148, -0.13696856920477488], [-0.4300726721285167, 0.13088957628356482], [-0.3148289313469241, -0.03851715211982174]]",density,black,,,D001,visual,4,[],"['1', '2', '3', '4']",1,2023.2.3,harveyvisual,2.1,[],8,0.75,
0,pause,0.4,None,None,None,0,43,43,43,,,,,,,,,,,,,D001,visual,4,[],"['1', '2', '3', '4']",1,2023.2.3,harveyvisual,2.1,[],8,0.75,
4,dot,0.3,['dot'],['density'],black,0,44,44,44,,,17.800228118896484,17.50722098350525,17.824027061462402,dot,"[0.08, 0.06, 0.1, 0.1]","[[0.06326389353998313, -0.3457479010937814], [-0.07512051392095552, -0.02196355495157639], [0.09410934090401228, -0.14113260442523076], [-0.13717358852421138, -0.29916566844175635]]",density,black,,,D001,visual,4,[],"['1', '2', '3', '4']",1,2023.2.3,harveyvisual,2.1,[],8,0.75,
0,pause,0.4,None,None,None,0,45,45,45,,,,,,,,,,,,,D001,visual,4,[],"['1', '2', '3', '4']",1,2023.2.3,harveyvisual,2.1,[],8,0.75,
4,dot,0.3,['dot'],['density'],white,0,46,46,46,,,18.500225067138672,18.207345008850098,18.523852109909058,dot,"[0.06, 0.06, 0.1, 0.1]","[[0.14909032788103166, -0.4768554918693636], [0.26071220381864263, -0.20018841858473793], [0.02634252458519163, -0.30967292471165575], [0.3541358554053611, -0.43808560323820217]]",density,white,,,D001,visual,4,[],"['1', '2', '3', '4']",1,2023.2.3,harveyvisual,2.1,[],8,0.75,
0,pause,0.4,None,None,None,0,47,47,47,,,,,,,,,,,1,18.72081208229065,D001,visual,4,[],"['1', '2', '3', '4']",1,2023.2.3,harveyvisual,2.1,[],8,0.75,
5,dot,0.3,['dot'],['density'],white,0,48,48,48,,,19.200215101242065,18.90720796585083,19.223833084106445,dot,"[0.1, 0.08, 0.08, 0.06, 0.1]","[[-0.15120343604734773, 0.13880483605515373], [-0.27543704003083597, 0.3074941448909677], [-0.47853302670601033, 0.30949922786165307], [-0.3682774975032249, -0.13900280599659498], [-0.34692227301900613, 0.0889564565184539]]",density,white,,,D001,visual,4,[],"['1', '2', '3', '4']",1,2023.2.3,harveyvisual,2.1,[],8,0.75,
0,pause,0.4,None,None,None,0,49,49,49,,,,,,,,,,,1,19.292877197265625,D001,visual,4,[],"['1', '2', '3', '4']",1,2023.2.3,harveyvisual,2.1,[],8,0.75,
5,dot,0.3,['dot'],['density'],black,0,50,50,50,,,19.90022110939026,19.607182025909424,19.923842906951904,dot,"[0.06, 0.1, 0.1, 0.06, 0.06]","[[-0.082153098152829, -0.06894165798345762], [0.016766770742065788, -0.42680196676869325], [0.2961099764235258, -0.14925166127785872], [-0.1456021726000032, -0.26669195071034546], [0.10213220283607832, -0.23321095001989858]]",density,black,,,D001,visual,4,[],"['1', '2', '3', '4']",1,2023.2.3,harveyvisual,2.1,[],8,0.75,
0,pause,0.4,None,None,None,0,51,51,51,,,,,,,,,,,,,D001,visual,4,[],"['1', '2', '3', '4']",1,2023.2.3,harveyvisual,2.1,[],8,0.75,
5,dot,0.3,['dot'],['density'],black,0,52,52,52,,,20.60021710395813,20.307172060012817,20.62383008003235,dot,"[0.06, 0.06, 0.08, 0.08, 0.1]","[[0.33660852042816714, -0.448935078303268], [0.16237328695183198, -0.028906365321866932], [0.003149504206933677, -0.1844463225559013], [0.4065340125681681, -0.22407981263326276], [0.20027486954239768, -0.2346061295568129]]",density,black,,,D001,visual,4,[],"['1', '2', '3', '4']",1,2023.2.3,harveyvisual,2.1,[],8,0.75,
0,pause,0.4,None,None,None,0,53,53,53,,,,,,,,,,,,,D001,visual,4,[],"['1', '2', '3', '4']",1,2023.2.3,harveyvisual,2.1,[],8,0.75,
5,dot,0.3,['dot'],['density'],black,0,54,54,54,,,21.300206899642944,21.00714612007141,21.323825120925903,dot,"[0.08, 0.1, 0.06, 0.1, 0.08]","[[-0.13250041589442924, 0.4634743177333449], [-0.03625216126902591, 0.28212032656479163], [0.10864293512180892, 0.5244886061775208], [-0.2806491611955352, 0.29160063440784684], [-0.17458602784440078, 0.11997474961663163]]",density,black,,,D001,visual,4,[],"['1', '2', '3', '4']",1,2023.2.3,harveyvisual,2.1,[],8,0.75,
0,pause,0.4,None,None,None,0,55,55,55,,,,,,,,,,,,,D001,visual,4,[],"['1', '2', '3', '4']",1,2023.2.3,harveyvisual,2.1,[],8,0.75,
5,dot,0.3,['dot'],['density'],black,0,56,56,56,,,22.000214099884033,21.70725107192993,22.02374505996704,dot,"[0.06, 0.08, 0.08, 0.06, 0.08]","[[0.4409169755572007, 0.017856988789309493], [0.10933872532765951, -0.20637645515835812], [0.27728831588229885, 0.198954967346464], [0.3100556643305453, -0.16532657838491105], [0.11148968869271939, 0.006469487304542018]]",density,black,,,D001,visual,4,[],"['1', '2', '3', '4']",1,2023.2.3,harveyvisual,2.1,[],8,0.75,
0,pause,0.4,None,None,None,0,57,57,57,,,,,,,,,,,,,D001,visual,4,[],"['1', '2', '3', '4']",1,2023.2.3,harveyvisual,2.1,[],8,0.75,
5,dot,0.3,['dot'],['density'],black,0,58,58,58,,,22.7002170085907,22.407108068466187,22.72379994392395,dot,"[0.06, 0.08, 0.06, 0.1, 0.1]","[[0.4409169755572007, 0.017856988789309493], [0.10933872532765951, -0.20637645515835812], [0.27728831588229885, 0.198954967346464], [0.3100556643305453, -0.16532657838491105], [0.11148968869271939, 0.006469487304542018]]",density,black,,,D001,visual,4,[],"['1', '2', '3', '4']",1,2023.2.3,harveyvisual,2.1,[],8,0.75,
0,pause,0.4,None,None,None,0,59,59,59,,,,,,,,,,,,,D001,visual,4,[],"['1', '2', '3', '4']",1,2023.2.3,harveyvisual,2.1,[],8,0.75,
6,dot,0.3,['dot'],['density'],white,0,60,60,60,,,23.400219917297363,23.107120037078857,23.4238760471344,dot,"[0.1, 0.08, 0.06, 0.08, 0.08, 0.06]","[[-0.4836161913484198, -0.3187453071493452], [-0.26471688047626735, -0.2860523134109648], [-0.41762950244179403, 0.08668289631298715], [-0.3878484475239729, -0.1200129628316565], [-0.19654931186518254, -0.017200237521102193], [-0.07523945320955261, -0.19429752312200124]]",density,white,,,D001,visual,4,[],"['1', '2', '3', '4']",1,2023.2.3,harveyvisual,2.1,[],8,0.75,
0,pause,0.4,None,None,None,0,61,61,61,,,,,,,,,,,1,23.48456907272339,D001,visual,4,[],"['1', '2', '3', '4']",1,2023.2.3,harveyvisual,2.1,[],8,0.75,
6,dot,0.3,['dot'],['density'],black,0,62,62,62,,,24.100215911865234,23.807074069976807,24.12373113632202,dot,"[0.06, 0.08, 0.1, 0.1, 0.06, 0.1]","[[-0.5042184434856596, 0.24959378884587158], [-0.14877643798118484, -0.059020126001740114], [-0.46546181494132466, -0.1471818588402077], [-0.26957518187208745, -0.22263810459524838], [-0.2342448443914648, 0.21754944417529726], [-0.37109182385784195, 0.03297203532481631]]",density,black,,,D001,visual,4,[],"['1', '2', '3', '4']",1,2023.2.3,harveyvisual,2.1,[],8,0.75,
0,pause,0.4,None,None,None,0,63,63,63,,,,,,,,,,,,,D001,visual,4,[],"['1', '2', '3', '4']",1,2023.2.3,harveyvisual,2.1,[],8,0.75,
6,dot,0.3,['dot'],['density'],white,0,64,64,64,,,24.80021595954895,24.507054090499878,24.823713064193726,dot,"[0.06, 0.06, 0.1, 0.08, 0.06, 0.08]","[[-0.11553075830627273, 0.47698778124428043], [-0.1112787518129194, 0.10456141670764223], [-0.48855705683845824, 0.21494657582805063], [-0.2538299919008863, 0.2532006538804931], [-0.3271837865365474, 0.4662148945367939], [0.006792750312598743, 0.27345996435494924]]",density,white,,,D001,visual,4,[],"['1', '2', '3', '4']",1,2023.2.3,harveyvisual,2.1,[],8,0.75,
0,pause,0.4,None,None,None,0,65,65,65,,,,,,,,,,,1,24.779537200927734,D001,visual,4,[],"['1', '2', '3', '4']",1,2023.2.3,harveyvisual,2.1,[],8,0.75,
6,dot,0.3,['dot'],['density'],white,0,66,66,66,,,25.500211000442505,25.20704412460327,25.523710012435913,dot,"[0.1, 0.1, 0.06, 0.08, 0.06, 0.06]","[[0.2333794889108542, 0.5108688068097712], [0.17720399199515413, 0.06488002481085814], [0.3526024925964592, 0.16961020277143707], [0.1596713132306006, 0.321837067503818], [0.0007438407140586783, 0.18344495120876914], [0.42757463853404776, 0.37786691715169374]]",density,white,,,D001,visual,4,[],"['1', '2', '3', '4']",1,2023.2.3,harveyvisual,2.1,[],8,0.75,
0,pause,0.4,None,None,None,0,67,67,67,,,,,,,,,,,1,25.57371211051941,D001,visual,4,[],"['1', '2', '3', '4']",1,2023.2.3,harveyvisual,2.1,[],8,0.75,
6,dot,0.3,['dot'],['density'],black,0,68,68,68,,,26.200216054916382,25.90703010559082,26.22368311882019,dot,"[0.08, 0.08, 0.06, 0.06, 0.08, 0.08]","[[-0.4130096743352808, -0.09152271377164663], [-0.19778223104980006, -0.03862987845790588], [-0.5782793278508197, 0.04067119283421001], [-0.2942915267906656, -0.3673297053134895], [-0.33560074172492643, 0.119885218799542], [-0.5263932498355091, -0.25924495598585295]]",density,black,,,D001,visual,4,[],"['1', '2', '3', '4']",1,2023.2.3,harveyvisual,2.1,[],8,0.75,
0,pause,0.4,None,None,None,0,69,69,69,,,,,,,,,,,,,D001,visual,4,[],"['1', '2', '3', '4']",1,2023.2.3,harveyvisual,2.1,[],8,0.75,
6,dot,0.3,['dot'],['density'],black,0,70,70,70,,,26.900216102600098,26.60701608657837,26.923661947250366,dot,"[0.08, 0.06, 0.1, 0.06, 0.08, 0.06]","[[0.23041567882598732, 0.45619944218456715], [0.5278859611842325, 0.18245830030246968], [0.08738225171760033, 0.1578384040678088], [0.20561463112105705, -0.03996865664556224], [0.3021721310554224, 0.21718230064421146], [0.4273755636869532, 0.38341374408431883]]",density,black,,,D001,visual,4,[],"['1', '2', '3', '4']",1,2023.2.3,harveyvisual,2.1,[],8,0.75,
0,pause,0.4,None,None,None,0,71,71,71,,,,,,,,,,,,,D001,visual,4,[],"['1', '2', '3', '4']",1,2023.2.3,harveyvisual,2.1,[],8,0.75,
7,dot,0.3,['dot'],['density'],black,0,72,72,72,,,27.600219011306763,27.306992053985596,27.62365698814392,dot,"[0.08, 0.1, 0.06, 0.06, 0.1, 0.06, 0.08]","[[-0.4069355390488937, 0.37207368581823036], [-0.24593577727054447, 0.19917396778247878], [-0.42360727833657225, -0.08003411738888748], [-0.22269992972584096, -0.007913174381400552], [-0.5458110461780458, 0.2006057762678532], [-0.12767295506375728, 0.3689678629588407], [-0.26313434255033313, 0.5223746060296944]]",density,black,,,D001,visual,4,[],"['1', '2', '3', '4']",1,2023.2.3,harveyvisual,2.1,[],8,0.75,
0,pause,0.4,None,None,None,0,73,73,73,,,,,,,,,,,,,D001,visual,4,[],"['1', '2', '3', '4']",1,2023.2.3,harveyvisual,2.1,[],8,0.75,
7,dot,0.3,['dot'],['density'],black,0,74,74,74,,,28.300209999084473,28.00710391998291,28.323641061782837,dot,"[0.06, 0.06, 0.08, 0.08, 0.06, 0.1, 0.1]","[[0.06935229908748385, 0.4911641494940837], [-0.19266199922505295, 0.07836852906048222], [0.055274369019684175, 0.020452523162812593], [0.26239471350362015, 0.1001529216481179], [-0.06036973858781391, 0.3360513952533211], [-0.2638544135394649, 0.29089327984911306], [0.14813816713374972, 0.28344041791591096]]",density,black,,,D001,visual,4,[],"['1', '2', '3', '4']",1,2023.2.3,harveyvisual,2.1,[],8,0.75,
0,pause,0.4,None,None,None,0,75,75,75,,,,,,,,,,,,,D001,visual,4,[],"['1', '2', '3', '4']",1,2023.2.3,harveyvisual,2.1,[],8,0.75,
7,dot,0.3,['dot'],['density'],black,0,76,76,76,,,29.000205993652344,28.7069149017334,29.023638010025024,dot,"[0.06, 0.06, 0.06, 0.1, 0.1, 0.1, 0.08]","[[0.3899189512010899, -0.40728696153528776], [0.20392863561369634, -0.3305625840210526], [0.31626985815109576, 0.13567824844623666], [0.5017338684339655, -0.028549680114735937], [0.11648855723187378, -0.1078833072829627], [0.07041138378868489, 0.08730219371944997], [0.32910598476010167, -0.13660711058181768]]",density,black,,,D001,visual,4,[],"['1', '2', '3', '4']",1,2023.2.3,harveyvisual,2.1,[],8,0.75,
0,pause,0.4,None,None,None,0,77,77,77,,,,,,,,,,,,,D001,visual,4,[],"['1', '2', '3', '4']",1,2023.2.3,harveyvisual,2.1,[],8,0.75,
7,dot,0.3,['dot'],['density'],black,0,78,78,78,,,29.700227975845337,29.406912088394165,29.72362995147705,dot,"[0.06, 0.08, 0.08, 0.08, 0.06, 0.1, 0.06]","[[-0.3616029487054454, 0.4456424486886853], [-0.1496406170718537, 0.08450683720449656], [-0.4229793897960434, 0.19545916586121675], [-0.050735401720141765, 0.4582308035931027], [-0.23416009772798219, 0.28880413379285297], [0.00916417092529717, 0.20866532064640267], [0.0895043828575618, 0.020292244516940467]]",density,black,,,D001,visual,4,[],"['1', '2', '3', '4']",1,2023.2.3,harveyvisual,2.1,[],8,0.75,
0,pause,0.4,None,None,None,0,79,79,79,,,,,,,,,,,,,D001,visual,4,[],"['1', '2', '3', '4']",1,2023.2.3,harveyvisual,2.1,[],8,0.75,
7,dot,0.3,['dot'],['density'],black,0,80,80,80,,,30.400219917297363,30.10690712928772,30.423579931259155,dot,"[0.06, 0.1, 0.06, 0.1, 0.06, 0.1, 0.06]","[[-0.0840690222646118, 0.326581156863932], [0.2873095043411744, 0.40733497502034743], [0.3312644566818162, -0.06338498518608723], [-0.0506181805300269, 0.10889297565070959], [0.1236891467835978, 0.25045991881734525], [0.122473450616654, -0.061936092255746894], [0.3019459967494134, 0.15241064997072415]]",density,black,,,D001,visual,4,[],"['1', '2', '3', '4']",1,2023.2.3,harveyvisual,2.1,[],8,0.75,
0,pause,0.4,None,None,None,0,81,81,81,,,,,,,,,,,,,D001,visual,4,[],"['1', '2', '3', '4']",1,2023.2.3,harveyvisual,2.1,[],8,0.75,
7,dot,0.3,['dot'],['density'],black,0,82,82,82,,,31.100220918655396,30.806885957717896,31.123528957366943,dot,"[0.1, 0.06, 0.08, 0.08, 0.1, 0.1, 0.1]","[[0.23608374802607182, -0.42864299173344095], [-0.09209027036414452, -0.12416238309953632], [0.2788105912293623, 0.0033410667889120396], [0.04539289310230788, 0.08875296613859053], [0.036272769320452085, -0.32980830156280494], [-0.23317126701056543, -0.2895908304292693], [0.15392952834370008, -0.16140965755482034]]",density,black,,,D001,visual,4,[],"['1', '2', '3', '4']",1,2023.2.3,harveyvisual,2.1,[],8,0.75,
0,pause,0.4,None,None,None,0,83,83,83,,,,,,,,,,,,,D001,visual,4,[],"['1', '2', '3', '4']",1,2023.2.3,harveyvisual,2.1,[],8,0.75,
8,dot,0.3,['dot'],['density'],black,0,84,84,84,,,31.800221920013428,31.506848096847534,31.82356095314026,dot,"[0.1, 0.08, 0.06, 0.1, 0.1, 0.06, 0.1, 0.1]","[[-0.43120034012996816, -0.3965796075128045], [0.1478983624034229, -0.46770986256388064], [-0.23058307999139557, -0.3238539366063682], [-0.07988642296593639, -0.13993938361429092], [-0.08664795903044427, -0.5418074813242995], [0.11879255589163208, -0.1637425359681226], [-0.09873641234556067, 0.08705286872936738], [-0.025120016651009644, -0.34045580780112095]]",density,black,,,D001,visual,4,[],"['1', '2', '3', '4']",1,2023.2.3,harveyvisual,2.1,[],8,0.75,
0,pause,0.4,None,None,None,0,85,85,85,,,,,,,,,,,,,D001,visual,4,[],"['1', '2', '3', '4']",1,2023.2.3,harveyvisual,2.1,[],8,0.75,
8,dot,0.3,['dot'],['density'],black,0,86,86,86,,,32.50020503997803,32.206953048706055,32.52369999885559,dot,"[0.08, 0.1, 0.08, 0.1, 0.06, 0.06, 0.08, 0.06]","[[-0.21605400050023119, -0.36806604112140096], [-0.4331556331222778, 0.1336594927324191], [-0.3157474098875971, -0.1371073420352747], [-0.10064365538588134, -0.10053754910436148], [0.10862445751928086, -0.04115753002163663], [-0.19663983546434133, 0.09424647547905109], [-0.5379272585723496, -0.06117038891009633], [0.023355790718173546, -0.2955553217846553]]",density,black,,,D001,visual,4,[],"['1', '2', '3', '4']",1,2023.2.3,harveyvisual,2.1,[],8,0.75,
0,pause,0.4,None,None,None,0,87,87,87,,,,,,,,,,,,,D001,visual,4,[],"['1', '2', '3', '4']",1,2023.2.3,harveyvisual,2.1,[],8,0.75,
8,dot,0.3,['dot'],['density'],black,0,88,88,88,,,33.2002170085907,32.90687298774719,33.22367596626282,dot,"[0.1, 0.06, 0.1, 0.1, 0.06, 0.06, 0.08, 0.1]","[[-0.3869743371455666, 0.15388434217336297], [0.11424038932868294, 0.18734519769139274], [-0.06602262913525138, -0.20199883598953133], [-0.13221522482970946, 0.16661696891490863], [-0.2408224703751142, -0.03724946932993881], [-0.01219752370661542, -0.004327099574405561], [-0.20345141844285677, 0.44978546357431476], [0.2450906497331586, -0.012808503174003826]]",density,black,,,D001,visual,4,[],"['1', '2', '3', '4']",1,2023.2.3,harveyvisual,2.1,[],8,0.75,
0,pause,0.4,None,None,None,0,89,89,89,,,,,,,,,,,,,D001,visual,4,[],"['1', '2', '3', '4']",1,2023.2.3,harveyvisual,2.1,[],8,0.75,
8,dot,0.3,['dot'],['density'],black,0,90,90,90,,,33.90022897720337,33.60699009895325,33.923458099365234,dot,"[0.08, 0.06, 0.1, 0.06, 0.08, 0.08, 0.06, 0.1]","[[0.4694715163891994, 0.13329625263481096], [0.14358160208090395, 0.35167434699812705], [0.41559735975202405, 0.3690190921299561], [-0.041805684447173724, 0.4315913723966695], [-0.04993254304034498, 0.2285123563850015], [0.25337459258073897, 0.16365346604105616], [0.18476510797087844, 0.5481483313560797], [0.14868800337579569, -0.10349430855878591]]",density,black,,,D001,visual,4,[],"['1', '2', '3', '4']",1,2023.2.3,harveyvisual,2.1,[],8,0.75,
0,pause,0.4,None,None,None,0,91,91,91,,,,,,,,,,,,,D001,visual,4,[],"['1', '2', '3', '4']",1,2023.2.3,harveyvisual,2.1,[],8,0.75,
8,dot,0.3,['dot'],['density'],black,0,92,92,92,,,34.60021996498108,34.30678701400757,34.623449087142944,dot,"[0.08, 0.1, 0.08, 0.08, 0.08, 0.06, 0.06, 0.1]","[[-0.17382250058115215, 0.008030820220576582], [-0.5561520679887834, 0.09064024109159684], [-0.2322770524578434, -0.18818443710846813], [-0.41357291590276396, -0.2905316508268561], [-0.37423053416790164, -0.04064357687765813], [-0.014699175284411378, 0.15059198662288528], [-0.015485985535575739, -0.1348843831724925], [-0.36639977644872057, 0.228205681233079]]",density,black,,,D001,visual,4,[],"['1', '2', '3', '4']",1,2023.2.3,harveyvisual,2.1,[],8,0.75,
0,pause,0.4,None,None,None,0,93,93,93,,,,,,,,,,,,,D001,visual,4,[],"['1', '2', '3', '4']",1,2023.2.3,harveyvisual,2.1,[],8,0.75,
8,dot,0.3,['dot'],['density'],white,0,94,94,94,,,35.30020809173584,35.00680994987488,35.323440074920654,dot,"[0.08, 0.1, 0.08, 0.1, 0.06, 0.1, 0.06, 0.1]","[[0.2715518471235014, -0.4245138665073026], [0.03602391524707561, -0.40638782213015096], [0.4828297141312073, -0.09119901312376678], [0.02835794216237903, 0.028275321652194735], [-0.0895445032969687, -0.19822740391127236], [0.3178997883629752, 0.08245100984997318], [0.21920060966397442, -0.22342839817001514], [0.46807969757011175, -0.32427319705723295]]",density,white,,,D001,visual,4,[],"['1', '2', '3', '4']",1,2023.2.3,harveyvisual,2.1,[],8,0.75,
0,pause,0.4,None,None,None,0,95,95,95,,,,,,,,,,,1,35.425930976867676,D001,visual,4,[],"['1', '2', '3', '4']",1,2023.2.3,harveyvisual,2.1,[],8,0.75,
9,dot,0.3,['dot'],['density'],black,0,96,96,96,,,36.00022506713867,35.706687927246094,36.02350902557373,dot,"[0.06, 0.1, 0.1, 0.08, 0.08, 0.06, 0.1, 0.06, 0.08]","[[-0.5242180236495622, 0.2097960018926228], [-0.2671382220306689, 0.3003190330968159], [-0.06183693718886379, 0.22592490829479475], [-0.2001015593906042, -0.14641750634996328], [-0.09246193223873551, 0.43765994221656135], [-0.29330373087767303, 0.05285487614136386], [0.007094383220706952, 0.008748553761596398], [0.1465325421295601, 0.294910430799518], [0.04425292235957525, -0.2230758375085622]]",density,black,,,D001,visual,4,[],"['1', '2', '3', '4']",1,2023.2.3,harveyvisual,2.1,[],8,0.75,
0,pause,0.4,None,None,None,0,97,97,97,,,,,,,,,,,,,D001,visual,4,[],"['1', '2', '3', '4']",1,2023.2.3,harveyvisual,2.1,[],8,0.75,
9,dot,0.3,['dot'],['density'],white,0,98,98,98,,,36.70022511482239,36.406744956970215,36.72339391708374,dot,"[0.08, 0.08, 0.1, 0.08, 0.08, 0.08, 0.1, 0.1, 0.06]","[[0.27429149071172837, 0.34251676390746333], [0.46797507249945486, 0.005491811463162166], [0.21235580877939833, 0.08757146436558581], [0.046223583492975936, 0.2932249054251131], [0.07051592556679111, -0.0704922843318231], [0.30438918969270623, -0.13028831600800136], [0.11534598117609637, 0.5236829685630697], [-0.06673610159464062, 0.12515255452502297], [-0.14439101605953233, -0.1332028051536465]]",density,white,,,D001,visual,4,[],"['1', '2', '3', '4']",1,2023.2.3,harveyvisual,2.1,[],8,0.75,
0,pause,0.4,None,None,None,0,99,99,99,,,,,,,,,,,1,36.7820680141449,D001,visual,4,[],"['1', '2', '3', '4']",1,2023.2.3,harveyvisual,2.1,[],8,0.75,
9,dot,0.3,['dot'],['density'],black,0,100,100,100,,,37.40020990371704,37.1066370010376,37.42337703704834,dot,"[0.06, 0.06, 0.06, 0.1, 0.06, 0.06, 0.08, 0.08, 0.06]","[[-0.03413633707233166, 0.539775862693792], [0.03045342777742709, 0.14881397110038386], [0.3968101769942594, 0.3516381959676015], [-0.12464897846505978, 0.27513009849494485], [0.24828272947848068, 0.13372878599656182], [0.1825630446668698, 0.5466865974155928], [-0.40057775338259505, 0.3148646888607764], [0.06988801613907401, -0.06658504348068199], [0.07277149512897427, 0.3699912437376705]]",density,black,,,D001,visual,4,[],"['1', '2', '3', '4']",1,2023.2.3,harveyvisual,2.1,[],8,0.75,
0,pause,0.4,None,None,None,0,101,101,101,,,,,,,,,,,,,D001,visual,4,[],"['1', '2', '3', '4']",1,2023.2.3,harveyvisual,2.1,[],8,0.75,
9,dot,0.3,['dot'],['density'],black,0,102,102,102,,,38.10023307800293,37.80677509307861,38.123536109924316,dot,"[0.06, 0.06, 0.06, 0.1, 0.1, 0.08, 0.08, 0.06, 0.08]","[[0.27429149071172837, 0.34251676390746333], [0.46797507249945486, 0.005491811463162166], [0.21235580877939833, 0.08757146436558581], [0.046223583492975936, 0.2932249054251131], [0.07051592556679111, -0.0704922843318231], [0.30438918969270623, -0.13028831600800136], [0.11534598117609637, 0.5236829685630697], [-0.06673610159464062, 0.12515255452502297], [-0.14439101605953233, -0.1332028051536465]]",density,black,,,D001,visual,4,[],"['1', '2', '3', '4']",1,2023.2.3,harveyvisual,2.1,[],8,0.75,
0,pause,0.4,None,None,None,0,103,103,103,,,,,,,,,,,,,D001,visual,4,[],"['1', '2', '3', '4']",1,2023.2.3,harveyvisual,2.1,[],8,0.75,
9,dot,0.3,['dot'],['density'],black,0,104,104,104,,,38.80021595954895,38.50690197944641,38.82337808609009,dot,"[0.1, 0.1, 0.08, 0.06, 0.1, 0.06, 0.1, 0.08, 0.06]","[[-0.08351644510687262, 0.021707353155035948], [0.11173555070370329, 0.3931220271068859], [-0.15396522232717408, 0.3423719725559184], [0.23829169989725132, 0.186218803300476], [-0.29008049122260166, 0.17395274189193027], [0.2491440638781109, -0.04662568063892593], [-0.2854023508218629, -0.06307984259985559], [0.003596708871689959, 0.21717875760955796], [-0.47489413548496523, 0.030788186259843496]]",density,black,,,D001,visual,4,[],"['1', '2', '3', '4']",1,2023.2.3,harveyvisual,2.1,[],8,0.75,
0,pause,0.4,None,None,None,0,105,105,105,,,,,,,,,,,,,D001,visual,4,[],"['1', '2', '3', '4']",1,2023.2.3,harveyvisual,2.1,[],8,0.75,
9,dot,0.3,['dot'],['density'],black,0,106,106,106,,,39.50021004676819,39.206743001937866,39.52335596084595,dot,"[0.08, 0.1, 0.06, 0.1, 0.08, 0.1, 0.06, 0.06, 0.1]","[[0.30047334598257713, -0.32583448447642216], [0.4997394081452916, 0.05175273655880906], [0.13646797290608587, 0.02221883094322858], [0.11448241016544139, -0.2117191838414046], [0.417500260412479, 0.2413963184479076], [0.19152536325099656, 0.23172406522327998], [0.5046802385722475, -0.28323005758562664], [-0.037891296982194685, 0.14714919272112825], [0.3292067348064443, -0.0657181274468392]]",density,black,,,D001,visual,4,[],"['1', '2', '3', '4']",1,2023.2.3,harveyvisual,2.1,[],8,0.75,
0,pause,0.4,None,None,None,0,107,107,107,,,,,,,,,,,,,D001,visual,4,[],"['1', '2', '3', '4']",1,2023.2.3,harveyvisual,2.1,[],8,0.75,
20,dot,0.3,['dot'],['density'],black,0,108,108,108,,,40.20020604133606,39.9233500957489,40.2233350276947,dot,"[0.1, 0.08, 0.1, 0.08, 0.1, 0.1, 0.06, 0.08, 0.08, 0.1, 0.08, 0.1, 0.08, 0.06, 0.1, 0.08, 0.1, 0.08, 0.08, 0.06]","[[0.052062973399717105, 0.2652590621113886], [-0.5821178913228464, 0.13244126920123717], [0.10579330558470124, -0.020128644789036754], [0.15648314343907777, -0.45020098634973504], [-0.37929612148121794, -0.4302702480880664], [0.33297478829833294, -0.2085342383954023], [-0.4132895644220532, -0.06326945998739336], [-0.08465175314418205, -0.10532649770220948], [-0.0730552426252904, 0.5598143849849916], [-0.30707885716424316, 0.47063926865306094], [0.2815972972336406, 0.5003307594275498], [0.28465102347984383, 0.27482634949799634], [-0.2662061876929521, 0.2289990904376763], [0.5425346989622103, 0.26113426216227265], [0.41416744897912305, -0.4118391505052149], [0.3539030554157302, 0.029567977908274423], [0.06512148871685874, -0.2468440963544642], [0.5906509201446065, 0.0460696925377356], [0.5324291324096914, -0.1359657726408723], [-0.05356745570971955, -0.5562601285438713]]",density,black,,,D001,visual,4,[],"['1', '2', '3', '4']",1,2023.2.3,harveyvisual,2.1,[],8,0.75,
0,pause,0.4,None,None,None,0,109,109,109,,,,,,,,,,,,,D001,visual,4,[],"['1', '2', '3', '4']",1,2023.2.3,harveyvisual,2.1,[],8,0.75,
20,dot,0.3,['dot'],['density'],black,0,110,110,110,,,40.900208950042725,40.62337803840637,40.9232919216156,dot,"[0.06, 0.1, 0.08, 0.06, 0.1, 0.1, 0.06, 0.1, 0.08, 0.1, 0.06, 0.06, 0.06, 0.1, 0.1, 0.06, 0.1, 0.06, 0.1, 0.06]","[[-0.45224237961953206, 0.25816725592037065], [0.09386231461854033, -0.021349074329730544], [0.4284959208904159, 0.32732237516747376], [-0.27178495509554795, 0.12648541011445702], [0.5679463079510999, -0.017924501736228504], [0.03289428551387852, 0.40776878384989246], [-0.11442514306295737, -0.17511219867420907], [0.014086841577100828, 0.18387969164218254], [-0.5450625719838973, -0.14065325440866036], [0.4414786502806508, -0.3508601442906409], [0.33591675203005167, -0.16307135553481117], [0.30814360881851166, 0.09027817656922599], [0.04216710163253512, -0.5229760319483977], [0.2998098446871664, -0.4810112409585961], [-0.19870107486716615, 0.48714616705191105], [0.14429593574248833, -0.3248019047809835], [-0.5071227880338371, 0.07403928915741381], [0.2317069784161344, 0.4442626824586746], [-0.3199982883028233, -0.365936397991728], [-0.17729972818329198, -0.5698481383373406]]",density,black,,,D001,visual,4,[],"['1', '2', '3', '4']",1,2023.2.3,harveyvisual,2.1,[],8,0.75,
0,pause,0.4,None,None,None,0,111,111,111,,,,,,,,,,,,,D001,visual,4,[],"['1', '2', '3', '4']",1,2023.2.3,harveyvisual,2.1,[],8,0.75,
20,dot,0.3,['dot'],['density'],black,0,112,112,112,,,41.60022592544556,41.32329297065735,41.62327599525452,dot,"[0.1, 0.1, 0.1, 0.08, 0.08, 0.06, 0.08, 0.06, 0.06, 0.08, 0.08, 0.1, 0.1, 0.06, 0.08, 0.1, 0.1, 0.08, 0.08, 0.1]","[[-0.3496264139211446, 0.4381468472560705], [0.596982879551956, -0.0812174913182142], [0.030802416591626414, -0.17331550471750046], [-0.4941196751568109, -0.030894494898084435], [0.375499003097832, 0.44124931232478704], [-0.22724129949506572, -0.26718886789821983], [-0.15580732994822344, 0.22566808657975168], [0.35005361679293334, -0.0017274375529171548], [0.014245130151205765, 0.536355906382707], [0.23341636759203666, -0.3224303082247768], [0.456060030134115, -0.3343439555775286], [-0.18168458909310825, -0.5236772911078622], [0.294384615059045, -0.5126171764608816], [0.46763625600074776, 0.2737107777564776], [-0.4511843640234068, -0.27468364135267065], [0.11884249194746, 0.05693037746002527], [0.2269235883786873, 0.213676710441294], [-0.5167679082290637, 0.26241330018084286], [-0.10261061330003551, 0.03559927658988615], [-0.17694825321897562, 0.5267227394842994]]",density,black,,,D001,visual,4,[],"['1', '2', '3', '4']",1,2023.2.3,harveyvisual,2.1,[],8,0.75,
0,pause,0.4,None,None,None,0,113,113,113,,,,,,,,,,,,,D001,visual,4,[],"['1', '2', '3', '4']",1,2023.2.3,harveyvisual,2.1,[],8,0.75,
20,dot,0.3,['dot'],['density'],black,0,114,114,114,,,42.300220012664795,42.02326798439026,42.32330894470215,dot,"[0.08, 0.1, 0.06, 0.06, 0.06, 0.1, 0.06, 0.06, 0.1, 0.06, 0.08, 0.06, 0.06, 0.06, 0.06, 0.08, 0.06, 0.1, 0.06, 0.1]","[[-0.4879850825322966, 0.03726434415376034], [-0.3337170750249175, 0.49917001097814084], [0.5910179847783305, -0.010957649509341666], [-0.04765933455910498, 0.15351637958771536], [-0.10954105775184947, -0.24048471923635428], [-0.4929111090593158, -0.25084460677271375], [0.09122239701399348, 0.3208343612136073], [0.38258731813488367, 0.12265830213999585], [0.15726284411812386, 0.5178753172305636], [0.4977754422338846, -0.34051576175109655], [0.13182826104500567, -0.5039484421409345], [0.3581419658635433, -0.08922474556264326], [-0.2784145936083056, 0.032556192309219356], [0.31680370315517714, 0.3565136398570473], [0.1022161687990879, 0.005762045773045843], [-0.2032170366586593, 0.34911320267113166], [-0.33033418219312655, -0.4576003808432164], [0.14468606595374378, -0.26504180427900037], [0.5034842686353448, 0.26873394094437536], [-0.051612424423469694, -0.4493047347961669]]",density,black,,,D001,visual,4,[],"['1', '2', '3', '4']",1,2023.2.3,harveyvisual,2.1,[],8,0.75,
0,pause,0.4,None,None,None,0,115,115,115,,,,,,,,,,,,,D001,visual,4,[],"['1', '2', '3', '4']",1,2023.2.3,harveyvisual,2.1,[],8,0.75,
20,dot,0.3,['dot'],['density'],black,0,116,116,116,,,43.00022792816162,42.72430896759033,43.02327609062195,dot,"[0.06, 0.06, 0.06, 0.1, 0.08, 0.06, 0.1, 0.1, 0.08, 0.1, 0.06, 0.08, 0.08, 0.06, 0.1, 0.06, 0.06, 0.08, 0.06, 0.1]","[[0.25312592292106306, -0.35557148525289717], [0.4645726315763882, -0.03614119330890808], [0.32163659044581694, 0.49840435022725393], [0.10283506820682986, 0.06818436595609045], [-0.3257263177701957, -0.3411027389323791], [-0.10873520495675554, -0.1360464911446026], [-0.31461970626671715, 0.22261650638239716], [-0.3602703250685189, -0.009137952126703375], [-0.5327130834003535, 0.2605689454951635], [0.4938469774163531, 0.2526414793535794], [-0.2590260904778859, 0.5166899101047088], [0.05054313137948774, 0.2773200674377526], [0.5491132474032446, -0.23968688714332803], [-0.4928373597302173, -0.21093991489280572], [-0.0037270017237751585, 0.5781393013565128], [0.16882504507315266, -0.5733471125317999], [-0.012396653865985208, -0.34967999211700695], [0.25804144021047726, 0.21045091862355336], [-0.5463003270663188, 0.07077302311642847], [0.17164734362318745, -0.17403149869540818]]",density,black,,,D001,visual,4,[],"['1', '2', '3', '4']",1,2023.2.3,harveyvisual,2.1,[],8,0.75,
0,pause,0.4,None,None,None,0,117,117,117,,,,,,,,,,,,,D001,visual,4,[],"['1', '2', '3', '4']",1,2023.2.3,harveyvisual,2.1,[],8,0.75,
20,dot,0.3,['dot'],['density'],black,0,118,118,118,,,43.70022702217102,43.42322492599487,43.723222970962524,dot,"[0.06, 0.1, 0.06, 0.1, 0.1, 0.08, 0.08, 0.08, 0.08, 0.06, 0.06, 0.1, 0.1, 0.08, 0.06, 0.08, 0.1, 0.08, 0.1, 0.06]","[[0.18644474142397371, 0.22793640208775945], [0.5649447181426736, -0.08296138791404109], [0.0497074447023661, -0.5482976154138534], [-0.19288202383993047, -0.01680800444256192], [-0.12274428892913242, 0.3192900020437379], [-0.3523415679235551, 0.20302607599621103], [0.33728628433890573, -0.4024345026688973], [0.2378384497136018, -0.15997779503078158], [-0.029189709512488338, 0.4989498168712927], [-0.255310025349036, 0.469439411287904], [-0.2537571374883579, -0.37375142425378394], [0.3846720506510576, 0.19197742620495073], [0.12034934040497192, -0.33076896728077254], [-0.5471013699828713, -0.049853722165340175], [-0.39188339592768484, -0.1983450918888367], [0.39379814399538904, 0.45915307638671593], [-0.07925358943558869, -0.26660953262115855], [-0.20638797867724867, -0.5689972264897123], [0.4622788679616877, -0.2548941227774313], [0.09614957044443218, 0.007003281872526412]]",density,black,,,D001,visual,4,[],"['1', '2', '3', '4']",1,2023.2.3,harveyvisual,2.1,[],8,0.75,
0,pause,0.4,None,None,None,0,119,119,119,,,,,,,,,,,,,D001,visual,4,[],"['1', '2', '3', '4']",1,2023.2.3,harveyvisual,2.1,[],8,0.75,
20,dot,0.3,['dot'],['density'],black,0,120,120,120,,,44.40020799636841,44.12320804595947,44.423234939575195,dot,"[0.08, 0.08, 0.08, 0.08, 0.1, 0.08, 0.06, 0.08, 0.1, 0.08, 0.08, 0.06, 0.06, 0.08, 0.1, 0.1, 0.06, 0.08, 0.06, 0.08]","[[0.3992593364597953, 0.35856706491849627], [-0.38103032867539954, -0.03216687010266456], [-0.21014953523291857, -0.18392475000220576], [0.4628569144230271, 0.002532682101762107], [-0.5370629076627513, -0.25901182541770024], [-0.1502910298129106, 0.03998422333138796], [0.5574242882863422, -0.2034282823642931], [-0.4774410521911442, 0.2483452300517629], [0.3243553435771882, -0.19584069533361897], [-0.2059582052186696, -0.40228191883730485], [0.16231927240237276, 0.011762321260764486], [0.03481048309550516, 0.4744437396213491], [-0.5856989488496248, 0.006321315616747369], [-0.004077541073308044, -0.3938737061772651], [0.20174955653461468, 0.2846295061295344], [0.5790459445767454, 0.1638800466850213], [0.3880964693165846, -0.44263234759483755], [-0.27492520522354913, 0.3929927145223787], [-0.024138988202903056, -0.11366917722212211], [-0.043064747644426915, 0.27771042520090505]]",density,black,,,D001,visual,4,[],"['1', '2', '3', '4']",1,2023.2.3,harveyvisual,2.1,[],8,0.75,
0,pause,0.4,None,None,None,0,121,121,121,,,,,,,,,,,,,D001,visual,4,[],"['1', '2', '3', '4']",1,2023.2.3,harveyvisual,2.1,[],8,0.75,
20,dot,0.3,['dot'],['density'],black,0,122,122,122,,,45.10022497177124,44.823221921920776,45.12321209907532,dot,"[0.06, 0.08, 0.08, 0.1, 0.06, 0.1, 0.08, 0.1, 0.06, 0.08, 0.08, 0.1, 0.06, 0.1, 0.06, 0.06, 0.06, 0.08, 0.1, 0.08]","[[-0.42361258686361136, 0.052156930996710316], [0.46126467376022806, 0.3784646061271033], [-0.17818036333433063, -0.27404090546801124], [0.006958326714676111, -0.2020650388339496], [-0.5943243078487752, -0.09579449698497933], [-0.07125150348679687, 0.26633601413569385], [0.3633823207746212, 0.21450550083929892], [-0.3434882180098354, 0.45529694486355676], [0.26319837115620803, -0.3332106832128476], [0.5602198816223621, -0.024633810816327012], [0.1107480399185854, 0.471392377338439], [0.35031042649578514, -0.12046545602884012], [-0.4939186528106312, 0.3003371924858402], [0.5137028087961065, -0.2573416625165962], [-0.13765645753596423, 0.5159575523538623], [-0.06806065253940985, 0.050253471037223774], [0.1679166145426103, -0.011840340235075741], [-0.04900949922482445, -0.4747013663007672], [-0.37461663288339386, -0.21057821299088025], [0.15264891171451267, -0.5332869854281186]]",density,black,,,D001,visual,4,[],"['1', '2', '3', '4']",1,2023.2.3,harveyvisual,2.1,[],8,0.75,
0,pause,0.4,None,None,None,0,123,123,123,,,,,,,,,,,,,D001,visual,4,[],"['1', '2', '3', '4']",1,2023.2.3,harveyvisual,2.1,[],8,0.75,
20,dot,0.3,['dot'],['density'],black,0,124,124,124,,,45.80021810531616,45.523221015930176,45.823184967041016,dot,"[0.06, 0.08, 0.06, 0.06, 0.06, 0.1, 0.1, 0.06, 0.06, 0.08, 0.08, 0.06, 0.1, 0.08, 0.08, 0.1, 0.06, 0.06, 0.1, 0.1]","[[-0.30053103990307944, -0.4410055780820983], [0.020912362557558906, -0.5372919423375334], [-0.3752030558158429, 0.35905299095254073], [-0.02873517737511333, -0.08593830408362257], [0.06871360402886684, 0.2394895182577217], [0.2940413073146809, -0.3461980267235937], [0.5819434904155091, -0.09863785445977667], [-0.5348503499051023, -0.25909783387841967], [-0.34961048781879067, -0.13517913158135292], [0.20870397315815348, -0.14740022947172432], [0.29492884310951895, 0.08437202313062331], [-0.5881432911191131, 0.06090034562306129], [-0.5354842709992836, 0.2540274400046358], [-0.07475660506490722, 0.5845934216029506], [-0.3161207696285966, 0.17187940153198045], [0.2755829651518411, 0.5136153619127382], [-0.17104431792119962, 0.3799006131901963], [0.41649224604997837, 0.28698253622297326], [-0.052011836342939044, -0.29609285441366506], [0.5832774073081165, 0.1510963560343395]]",density,black,,,D001,visual,4,[],"['1', '2', '3', '4']",1,2023.2.3,harveyvisual,2.1,[],8,0.75,
0,pause,0.4,None,None,None,0,125,125,125,,,,,,,,,,,,,D001,visual,4,[],"['1', '2', '3', '4']",1,2023.2.3,harveyvisual,2.1,[],8,0.75,
20,dot,0.3,['dot'],['density'],white,0,126,126,126,,,46.500226974487305,46.22317910194397,46.52316904067993,dot,"[0.08, 0.06, 0.1, 0.1, 0.1, 0.1, 0.06, 0.1, 0.1, 0.06, 0.06, 0.1, 0.1, 0.06, 0.1, 0.08, 0.06, 0.1, 0.06, 0.06]","[[-0.5805756572069956, -0.09933890518994574], [-0.2110042270579111, 0.48490268217996446], [0.054875877003345175, -0.1702797127750646], [0.032014118582357254, 0.41884940091474165], [0.3151657294565481, -0.5121009504386738], [0.05996317108886018, -0.4093465086498035], [-0.38850115413595654, 0.34399476266413714], [0.39132417701377253, 0.11411338579891794], [0.43139663284752217, -0.2926551755333445], [-0.26778544068205634, -0.005146235339035465], [0.4958337287011235, 0.30494783772983025], [0.2628488402564858, -0.1478550541146066], [0.28247935775454514, 0.27873938594021297], [-0.21004653275000312, -0.4199532987780472], [-0.4647023365888976, -0.3020003996647655], [-0.1482540996746523, -0.19298158187323067], [0.5779798179512684, -0.14278703298308376], [0.11893633161796668, -0.5910202316191625], [-0.0027984240673908367, 0.08753230646342713], [0.6007964474577957, 0.05653401000195367]]",density,white,,,D001,visual,4,[],"['1', '2', '3', '4']",1,2023.2.3,harveyvisual,2.1,[],8,0.75,
0,pause,0.4,None,None,None,0,127,127,127,,,,,,,,,,,1,46.648327112197876,D001,visual,4,[],"['1', '2', '3', '4']",1,2023.2.3,harveyvisual,2.1,[],8,0.75,
20,dot,0.3,['dot'],['density'],white,0,128,128,128,,,47.20022511482239,46.92315101623535,47.22315502166748,dot,"[0.06, 0.06, 0.06, 0.08, 0.08, 0.1, 0.08, 0.08, 0.1, 0.06, 0.06, 0.08, 0.06, 0.1, 0.1, 0.1, 0.06, 0.1, 0.08, 0.1]","[[-0.15191068687339843, 0.10323636484288623], [0.543670731605069, 0.18662566985011053], [-0.08424102642215181, 0.47382369683663106], [-0.09017854628966504, -0.4225657684554801], [0.538468649508043, -0.20889823588903836], [-0.4416267586141607, 0.17175036161248963], [0.019262373963019663, -0.03579882746860752], [0.296304590919899, 0.10889797220661279], [-0.4157335086794703, -0.43410253439306046], [0.6048101447701372, -0.021025213018530428], [0.4431454245788228, 0.40959268817568123], [0.13424484735742415, 0.4234652877371372], [-0.5924135205810159, -0.00950151440613442], [0.3868817551109641, -0.36730371164768455], [0.10515715492045097, -0.21289574730574462], [-0.3277722271353232, 0.3506232560380783], [-0.20189297107829962, -0.12445642683313679], [-0.4921618591351711, -0.21502580914303368], [0.07929714520210074, 0.23165531672014628], [0.09532758580113021, -0.5325705835564025]]",density,white,,,D001,visual,4,[],"['1', '2', '3', '4']",1,2023.2.3,harveyvisual,2.1,[],8,0.75,
0,pause,0.4,None,None,None,0,129,129,129,,,,,,,,,,,1,47.3204071521759,D001,visual,4,[],"['1', '2', '3', '4']",1,2023.2.3,harveyvisual,2.1,[],8,0.75,
20,dot,0.3,['dot'],['density'],black,0,130,130,130,,,47.90021896362305,47.623157024383545,47.92313194274902,dot,"[0.06, 0.06, 0.06, 0.06, 0.06, 0.06, 0.1, 0.1, 0.1, 0.06, 0.06, 0.08, 0.08, 0.1, 0.08, 0.1, 0.1, 0.06, 0.06, 0.08]","[[-0.3965473940850282, 0.1400019172276108], [0.41754566789443903, 0.12268361218916907], [0.3917635396556891, 0.4471193067515537], [-0.16937627727419202, -0.5398119574689617], [0.0745750161664388, 0.4971400361245054], [-0.4290978553764822, -0.06640950020879532], [-0.11507385417671906, 0.22351345182129512], [-0.08449129467292449, -0.026124509681085595], [0.18516133493435916, -0.002052172912890615], [0.572754086681328, -0.08452415865549957], [-0.06305565100764765, -0.24880037601654187], [0.18371379658413445, 0.21214873117749522], [0.2826784113163343, -0.5286397641836883], [0.43966774604343806, -0.3538306720699492], [-0.563492228350349, -0.21886920309997912], [-0.3879377074053241, -0.4186984839943237], [0.265485370835303, -0.24751071255400886], [0.04076617568505603, -0.4295363156588484], [-0.2850938675812022, -0.20549660363551747], [-0.498787157479443, 0.33920527392792826]]",density,black,,,D001,visual,4,[],"['1', '2', '3', '4']",1,2023.2.3,harveyvisual,2.1,[],8,0.75,
0,pause,0.4,None,None,None,0,131,131,131,,,,,,,,,,,,,D001,visual,4,[],"['1', '2', '3', '4']",1,2023.2.3,harveyvisual,2.1,[],8,0.75,
20,dot,0.3,['dot'],['density'],black,0,132,132,132,,,48.600234031677246,48.32310390472412,48.62330102920532,dot,"[0.06, 0.1, 0.1, 0.06, 0.08, 0.1, 0.06, 0.06, 0.1, 0.1, 0.1, 0.1, 0.06, 0.08, 0.06, 0.08, 0.1, 0.08, 0.06, 0.08]","[[-0.09196709881907716, 0.45653288521140123], [-0.3590222282937623, 0.3837151531153989], [0.5078108122169288, -0.2252247569790337], [-0.5176059775198645, -0.0017038719044958905], [-0.23298672930717657, -0.44909398012387924], [-0.11391880780865149, 0.034172315581995516], [-0.5243648026657068, -0.20407527540510373], [-0.010217859704411913, 0.1950541292848853], [0.16328177211608919, -0.4226391245014103], [-0.5014524268610028, 0.23759738429260613], [-0.1560184671824454, -0.20199931322684084], [0.2769704992869645, 0.4863827484449863], [0.4330115355007792, 0.24726222145719168], [0.028391589763582803, -0.14829813010898918], [0.5814961030570344, 0.08141137286984348], [0.39130040134308897, -0.4393303387653583], [0.24027048576301646, -0.08840591006307769], [0.035448003965037556, 0.602087278729108], [0.24591024401966266, 0.1129023412549055], [-0.3139768158509495, 0.028612102441175846]]",density,black,,,D001,visual,4,[],"['1', '2', '3', '4']",1,2023.2.3,harveyvisual,2.1,[],8,0.75,
0,pause,0.4,None,None,None,0,133,133,133,,,,,,,,,,,,,D001,visual,4,[],"['1', '2', '3', '4']",1,2023.2.3,harveyvisual,2.1,[],8,0.75,
20,dot,0.3,['dot'],['density'],black,0,134,134,134,,,49.300233125686646,49.02329206466675,49.323256969451904,dot,"[0.08, 0.08, 0.06, 0.1, 0.1, 0.06, 0.06, 0.06, 0.06, 0.1, 0.1, 0.1, 0.1, 0.1, 0.1, 0.1, 0.1, 0.08, 0.1, 0.1]","[[0.23322308988602714, 0.28036137825494745], [0.32962721526703576, -0.17816882321290523], [0.5263358467674691, 0.22799359069603758], [-0.22814350955344698, 0.2994442858661095], [-0.3384933600448384, -0.12464295535581127], [0.059118999473806055, -0.5166500116551551], [-0.04567447969254357, 0.23658419803645037], [-0.5809457965597173, -0.14142181426016703], [0.09775327222088526, -0.259827040556068], [0.05699623069202997, 0.057632507622706886], [0.01346059604455474, 0.5085068843635059], [0.5932249752198434, -0.0974946595440853], [-0.4046500215009672, 0.13916259086429783], [0.3536046118332089, -0.4902566406292607], [-0.43219366959625605, -0.33395059654350784], [-0.23095583382774038, -0.47228354406206324], [-0.28553169290484215, 0.5037626074880031], [-0.21067041446629803, 0.06898474540997035], [-0.14983237107388825, -0.1832072645878035], [0.40189816386463606, 0.057181801871637294]]",density,black,,,D001,visual,4,[],"['1', '2', '3', '4']",1,2023.2.3,harveyvisual,2.1,[],8,0.75,
0,pause,0.4,None,None,None,0,135,135,135,,,,,,,,,,,,,D001,visual,4,[],"['1', '2', '3', '4']",1,2023.2.3,harveyvisual,2.1,[],8,0.75,
20,dot,0.3,['dot'],['density'],black,0,136,136,136,,,50.000211000442505,49.72327494621277,50.02322196960449,dot,"[0.1, 0.08, 0.06, 0.08, 0.08, 0.1, 0.08, 0.1, 0.1, 0.08, 0.08, 0.1, 0.06, 0.1, 0.1, 0.06, 0.08, 0.06, 0.1, 0.06]","[[0.6018478582740535, 0.020997036422677237], [-0.4968788466227845, 0.03953471599780933], [-0.33948161686867506, -0.35085580942042144], [0.3259891261479081, 0.004895620827734315], [0.5464153503771497, -0.2587319212423627], [-0.31235994831312597, 0.12935889722588667], [-0.053676433014358094, 0.5994946146235834], [-0.1397890863236737, -0.5424631450743294], [0.4760812126589148, 0.30666213400276016], [-0.5391586144324727, -0.1881238585654042], [0.25541171469040835, -0.29923212548622], [-0.2712556117475723, 0.3889253090819439], [0.11814247280290169, 0.24049122727284022], [0.2627215110173319, 0.44351780829134624], [-0.052091525843081965, 0.40615691408987353], [0.030525487212765823, -0.07050502858146424], [-0.03349813296028248, -0.36682429549450124], [0.16980254746175916, -0.554796002763605], [-0.5365654961323988, 0.23269209702211535], [-0.11561851942759194, 0.11916625356990385]]",density,black,,,D001,visual,4,[],"['1', '2', '3', '4']",1,2023.2.3,harveyvisual,2.1,[],8,0.75,
0,pause,0.4,None,None,None,0,137,137,137,,,,,,,,,,,,,D001,visual,4,[],"['1', '2', '3', '4']",1,2023.2.3,harveyvisual,2.1,[],8,0.75,
20,dot,0.3,['dot'],['density'],black,0,138,138,138,,,50.700231075286865,50.42308712005615,50.723050117492676,dot,"[0.08, 0.1, 0.1, 0.06, 0.08, 0.1, 0.08, 0.1, 0.1, 0.08, 0.1, 0.08, 0.08, 0.06, 0.1, 0.06, 0.08, 0.06, 0.1, 0.06]","[[-0.5865541676489961, -0.1360048557948235], [-0.21179559376104257, 0.14603769055891092], [0.10123719139159726, -0.0244514541093398], [0.5982148825696031, -0.05511222958073326], [-0.40829597538905044, -0.3602183756266142], [0.469625163442564, 0.1954269658027783], [0.3923830460998292, -0.346925287700843], [0.05901692305109785, 0.3369860949667848], [0.31725933474167933, 0.03190420693390872], [-0.509882604598623, 0.12519405149117474], [0.013207814470598378, -0.5791134073731301], [0.2225030622962646, -0.49512377023468007], [-0.4276630967935053, 0.41559276165968917], [-0.36992580132048725, -0.10655594515612127], [0.332836619812826, 0.5053972562603849], [-0.06142934402380518, -0.34453311635411016], [-0.1245223219967298, 0.4343325786433022], [0.25560389072913925, 0.2607310602347511], [-0.24344996907115418, -0.5514424965903458], [0.1563804697727903, -0.30444818694952447]]",density,black,,,D001,visual,4,[],"['1', '2', '3', '4']",1,2023.2.3,harveyvisual,2.1,[],8,0.75,
0,pause,0.4,None,None,None,0,139,139,139,,,,,,,,,,,,,D001,visual,4,[],"['1', '2', '3', '4']",1,2023.2.3,harveyvisual,2.1,[],8,0.75,
20,dot,0.3,['dot'],['density'],black,0,140,140,140,,,51.40020990371704,51.12304210662842,51.42303800582886,dot,"[0.08, 0.1, 0.1, 0.1, 0.1, 0.06, 0.06, 0.1, 0.06, 0.08, 0.06, 0.1, 0.1, 0.08, 0.06, 0.06, 0.08, 0.06, 0.1, 0.1]","[[-0.5316329822797333, 0.28012032880382076], [0.012745821215929931, 0.015773525887238793], [-0.10271415387477378, -0.31140336822229486], [0.0010533461800341648, 0.550507821500106], [-0.5175259579492888, -0.29470115378560424], [0.5411347616781673, -0.07915510574153348], [0.07930023137320452, -0.5229224536001723], [-0.2816005590141225, -0.030034165271128233], [0.22451433675726096, -0.26411954126724296], [0.533512102723464, 0.25709774120472617], [-0.6048387707124396, -0.009852987413231717], [0.35308174183674557, 0.44794000678406454], [-0.43773254971580056, 0.10495978707569148], [-0.19220464040894902, 0.3234609773606697], [0.07892775644066996, 0.21447039648628974], [-0.31328781060805216, -0.41259922778093666], [0.4221197483974156, -0.35280506969542813], [0.3021547175773869, 0.18528307923702103], [-0.36884792151403734, 0.44955955228182554], [0.25664153298946946, -0.06147732802326261]]",density,black,,,D001,visual,4,[],"['1', '2', '3', '4']",1,2023.2.3,harveyvisual,2.1,[],8,0.75,
0,pause,0.4,None,None,None,0,141,141,141,,,,,,,,,,,,,D001,visual,4,[],"['1', '2', '3', '4']",1,2023.2.3,harveyvisual,2.1,[],8,0.75,
20,dot,0.3,['dot'],['density'],black,0,142,142,142,,,52.100213050842285,51.82302713394165,52.123018980026245,dot,"[0.1, 0.1, 0.1, 0.1, 0.06, 0.06, 0.08, 0.06, 0.08, 0.1, 0.06, 0.1, 0.08, 0.06, 0.08, 0.06, 0.08, 0.06, 0.1, 0.06]","[[-0.4323769563239504, -0.023934762059153458], [0.18402693479082732, -0.48868409988470324], [0.3871896828846443, 0.45237118171088697], [0.16831748284062387, 0.01841938049766967], [-0.5322182963959299, 0.2240136283229902], [-0.28377613163779475, 0.3287255985182046], [-0.22717769586653408, -0.28011430868329107], [0.4052963873987133, -0.13141661586850117], [-0.08551933066032091, 0.3394183492503673], [-0.16902691352783072, -0.46372628126718896], [0.22850540629484373, 0.259062311667448], [0.43444713563292947, 0.16811387082529988], [0.07071771762110746, -0.2782556445201624], [-0.10566852946837019, -0.13233007648677447], [-0.44053113954172085, -0.2570246226961219], [0.42943266728937435, -0.3386833081083417], [0.13195584824919526, 0.4870529042989151], [0.5885579927321333, -0.03861048673130367], [-0.17724618302608003, 0.1540809363716159], [-0.09206615521499828, 0.5920820832533581]]",density,black,,,D001,visual,4,[],"['1', '2', '3', '4']",1,2023.2.3,harveyvisual,2.1,[],8,0.75,
0,pause,0.4,None,None,None,0,143,143,143,,,,,,,,,,,,,D001,visual,4,[],"['1', '2', '3', '4']",1,2023.2.3,harveyvisual,2.1,[],8,0.75,
20,dot,0.3,['dot'],['density'],black,0,144,144,144,,,52.80022692680359,52.52300691604614,52.822998046875,dot,"[0.08, 0.06, 0.1, 0.06, 0.06, 0.08, 0.06, 0.08, 0.1, 0.06, 0.06, 0.06, 0.08, 0.06, 0.08, 0.08, 0.1, 0.06, 0.08, 0.08]","[[0.24938211433720958, 0.1927354942334183], [-0.4914692368667622, 0.3445225001787352], [0.41042175273447834, -0.16763380645318876], [0.03478183434442006, -0.5018878219471947], [-0.17863403016821966, -0.10839105900305801], [0.08539042280388254, 0.42496032270201256], [-0.3826341018383606, 0.12133136665487038], [0.6046047484101075, -0.002783104796040374], [-0.5073609632483579, -0.1540586961182232], [0.3190991111331013, 0.43617737438207793], [-0.34472482214014516, 0.48393730175416777], [0.437225128663257, 0.12081125772320983], [0.45428610577453743, -0.3863715930412889], [0.021273529492250365, -0.027626781412391277], [0.2254098869055241, -0.36512747623609076], [-0.10969854397782541, 0.4555400245286686], [-0.5945867159720877, 0.049777978165916004], [-0.11999254532474363, 0.13065603181101204], [-0.2649936666173239, -0.5161094957397194], [-0.121710302965716, -0.3500995808509301]]",density,black,,,D001,visual,4,[],"['1', '2', '3', '4']",1,2023.2.3,harveyvisual,2.1,[],8,0.75,
0,pause,0.4,None,None,None,0,145,145,145,,,,,,,,,,,,,D001,visual,4,[],"['1', '2', '3', '4']",1,2023.2.3,harveyvisual,2.1,[],8,0.75,
20,dot,0.3,['dot'],['density'],black,0,146,146,146,,,53.50022506713867,53.22299599647522,53.52297902107239,dot,"[0.08, 0.06, 0.1, 0.1, 0.08, 0.1, 0.08, 0.08, 0.08, 0.06, 0.1, 0.08, 0.1, 0.08, 0.08, 0.06, 0.08, 0.06, 0.08, 0.1]","[[-0.253594360064882, -0.06610618208509378], [0.5168223642101147, -0.150301147641349], [0.26826461488375053, -0.10488015548192164], [-0.10127629288739115, -0.5647404824586617], [0.0131180032262328, 0.16627455714570127], [-0.42650548846953545, 0.3015252940707031], [0.041551719214167004, 0.5984648082063951], [-0.16211896291154948, -0.24239863321106225], [0.19707264102841027, -0.37052654101659704], [0.17433854379618163, 0.43877297117038294], [-0.2653013507942096, -0.4231369491870817], [0.2534753339797664, 0.19612355532183312], [0.5283459207950024, 0.2820050150233297], [0.5917224067880861, 0.08576549106495296], [-0.5511202881369481, -0.0406033160348451], [-0.30050789450130116, 0.5157778678220256], [-0.07705076767936625, 0.3582366776458865], [-0.5585483358265978, -0.2316881092916458], [-0.18336690035248682, 0.1283525003094148], [0.02568485182224367, -0.08435506424006967]]",density,black,,,D001,visual,4,[],"['1', '2', '3', '4']",1,2023.2.3,harveyvisual,2.1,[],8,0.75,
0,pause,0.4,None,None,None,0,147,147,147,,,,,,,,,,,,,D001,visual,4,[],"['1', '2', '3', '4']",1,2023.2.3,harveyvisual,2.1,[],8,0.75,
20,dot,0.3,['dot'],['density'],black,0,148,148,148,,,54.20021390914917,53.922961950302124,54.22335910797119,dot,"[0.06, 0.06, 0.08, 0.06, 0.08, 0.08, 0.06, 0.06, 0.08, 0.1, 0.06, 0.08, 0.08, 0.08, 0.08, 0.1, 0.08, 0.1, 0.06, 0.08]","[[0.4528768900230761, 0.12262921903629259], [-0.2371824042188982, -0.4849255881990547], [0.05229285293832775, 0.6006388127693129], [0.3685142760507798, 0.4063860824947658], [-0.36181881223348433, -0.26155282655843615], [-0.09525007280805786, -0.27568440298771696], [-0.14333263158744897, 0.04295779486088014], [-0.5977496309948259, 0.036075195562423015], [0.11425820617451843, -0.1566102399840379], [0.5001919602068191, -0.2236273608889472], [0.35158384656309327, -0.3604040401626305], [-0.4958038814747373, 0.30580038233893286], [0.32349142404892806, -0.08044700662239523], [-0.21721753212240508, 0.22262052324761405], [0.01735043354719179, 0.22401109220464777], [-0.15921803660396844, 0.5497710707677553], [-0.38938428756670346, -0.0002615128547246992], [0.046605433288681164, -0.5514122204714647], [-0.3546492262568401, 0.49033402373841706], [0.25225608336629324, 0.1562175150514976]]",density,black,,,D001,visual,4,[],"['1', '2', '3', '4']",1,2023.2.3,harveyvisual,2.1,[],8,0.75,
0,pause,0.4,None,None,None,0,149,149,149,,,,,,,,,,,,,D001,visual,4,[],"['1', '2', '3', '4']",1,2023.2.3,harveyvisual,2.1,[],8,0.75,
20,dot,0.3,['dot'],['density'],black,0,150,150,150,,,54.90022301673889,54.62301802635193,54.923113107681274,dot,"[0.06, 0.08, 0.06, 0.1, 0.08, 0.1, 0.08, 0.08, 0.08, 0.1, 0.1, 0.06, 0.08, 0.08, 0.06, 0.06, 0.08, 0.1, 0.08, 0.08]","[[-0.07657996749720197, -0.23635547789808675], [-0.21321750405280315, -0.07785306341141585], [0.0946953267826216, 0.3768535301260687], [-0.3858211146246644, 0.002744894004630294], [-0.39258908222721606, -0.3938242855567366], [0.32642445962050615, 0.2249736876357985], [2.5666357974629683e-05, -0.5362046463136924], [-0.16543790326155022, 0.43649423809994614], [0.14060418762515792, -0.18240899217039763], [-0.5482942297216584, -0.18021569563617135], [0.01206487526262967, 0.18441769995580481], [0.5602325487550396, -0.004393684543605225], [0.39394359979823046, -0.43240709509787], [-0.4730089511160492, 0.17304971067277075], [0.5344936875779452, 0.2445594902409549], [-0.18783073827998353, -0.4117787577757702], [0.034978545929317706, -0.014825268523573909], [0.5315888481821446, -0.20296654688313792], [0.26530625020117005, -0.016776997733587984], [-0.23274115659095823, 0.1275928914997997]]",density,black,,,D001,visual,4,[],"['1', '2', '3', '4']",1,2023.2.3,harveyvisual,2.1,[],8,0.75,
0,pause,0.4,None,None,None,0,151,151,151,,,,,,,,,,,,,D001,visual,4,[],"['1', '2', '3', '4']",1,2023.2.3,harveyvisual,2.1,[],8,0.75,
20,dot,0.3,['dot'],['density'],black,0,152,152,152,,,55.600208044052124,55.32309603691101,55.62296390533447,dot,"[0.06, 0.1, 0.1, 0.06, 0.08, 0.08, 0.06, 0.1, 0.08, 0.08, 0.1, 0.08, 0.08, 0.06, 0.06, 0.1, 0.06, 0.06, 0.06, 0.1]","[[0.17256202248775587, 0.038667722241447544], [-0.3938921876889606, -0.16285968772209253], [0.009750022733863939, -0.3111942306261281], [-0.37599697626339035, -0.37795933507272367], [-0.01747214888273918, 0.19273840399044662], [0.5233140403416169, -0.16304410141001724], [0.08344497306439613, 0.4778180324960477], [-0.10086424116451576, 0.5318534145720345], [-0.590805475182829, 0.039420442897679986], [0.49025792666921897, 0.1887665011743513], [-0.39241981100625767, 0.35151341324173024], [0.028799592623539816, -0.09364867068301241], [0.21552420699007246, -0.24499134519312], [0.38988360325840576, -0.3868001684222001], [0.24623082923105344, 0.2415941004432527], [0.36790083751340696, 0.03338160462845724], [0.14892277291228473, -0.46505641712572643], [-0.13811576532033254, 0.009943242875235847], [0.002341112778694754, -0.6009142772094141], [0.29902124982518596, 0.46544313836719053]]",density,black,,,D001,visual,4,[],"['1', '2', '3', '4']",1,2023.2.3,harveyvisual,2.1,[],8,0.75,
0,pause,0.4,None,None,None,0,153,153,153,,,,,,,,,,,,,D001,visual,4,[],"['1', '2', '3', '4']",1,2023.2.3,harveyvisual,2.1,[],8,0.75,
20,dot,0.3,['dot'],['density'],black,0,154,154,154,,,56.30023002624512,56.022956132888794,56.32295107841492,dot,"[0.1, 0.06, 0.08, 0.06, 0.08, 0.06, 0.1, 0.1, 0.1, 0.06, 0.06, 0.08, 0.08, 0.06, 0.06, 0.06, 0.08, 0.1, 0.1, 0.08]","[[-0.48041241093303133, -0.14690444978658299], [0.48480911780039426, 0.2161266126823051], [0.33600474450212414, 0.4034181681166997], [-0.06537238840258575, 0.2364920808291615], [-0.1639645762588846, -0.3963285837342352], [0.25315169939300586, -0.07480952396540524], [0.1313779818194175, 0.46277853029682425], [0.486041438196784, -0.27093343399226044], [-0.4258401653562157, 0.10923487605056903], [0.11550056107873441, -0.5212527462406643], [-0.13231697445069723, 0.05061670818175368], [-0.40725275226325464, 0.3338200362915002], [0.11011641414743745, 0.15863562763360384], [0.5874835368384196, -0.10382733690736788], [0.23968732233554346, -0.3100931143258427], [-0.23406475707583446, -0.16788782561211524], [-0.28973504265914196, 0.49123997896168536], [-0.0923944550384902, 0.5472118849343249], [-0.6020028351487651, 0.022514998476569778], [0.00506064283475427, -0.27191179867766835]]",density,black,,,D001,visual,4,[],"['1', '2', '3', '4']",1,2023.2.3,harveyvisual,2.1,[],8,0.75,
0,pause,0.4,None,None,None,0,155,155,155,,,,,,,,,,,,,D001,visual,4,[],"['1', '2', '3', '4']",1,2023.2.3,harveyvisual,2.1,[],8,0.75,
9,dot,0.3,['dot'],['density'],black,0,156,156,156,,,57.00020909309387,56.72296190261841,57.02295708656311,dot,"[0.06, 0.1, 0.06, 0.08, 0.1, 0.1, 0.1, 0.1, 0.1]","[[-0.06218673389315922, -0.4689115343027075], [0.3660477402554353, -0.15396192139437054], [0.1401329754895462, -0.14262156541192547], [0.12293598154832706, -0.38779640022673934], [0.42645158233284447, -0.3607859009111275], [-0.06238477126329685, -0.2564764349502154], [-0.2584688277182379, -0.29964401945706215], [-0.11312192996032899, -0.05439345917292958], [0.19096873654163896, 0.1321853744035435]]",density,black,,,D001,visual,4,[],"['1', '2', '3', '4']",1,2023.2.3,harveyvisual,2.1,[],8,0.75,
0,pause,0.4,None,None,None,0,157,157,157,,,,,,,,,,,,,D001,visual,4,[],"['1', '2', '3', '4']",1,2023.2.3,harveyvisual,2.1,[],8,0.75,
9,dot,0.3,['dot'],['density'],black,0,158,158,158,,,57.70022511482239,57.42298102378845,57.722975969314575,dot,"[0.06, 0.08, 0.08, 0.1, 0.1, 0.1, 0.08, 0.08, 0.08]","[[-0.1410632352740557, -0.317905811010377], [-0.01624442214728049, 0.1794094022286925], [0.09468404279643694, -0.24727132108451297], [-0.2758455249254349, -0.14491344886434532], [-0.07397021974914944, -0.09933967896750957], [-0.3580751224104431, 0.12641846535160695], [0.3672464474339042, -0.09947208873420914], [0.14679994141956812, -0.049441009882571184], [0.20049431506903384, 0.1443691092520585]]",density,black,,,D001,visual,4,[],"['1', '2', '3', '4']",1,2023.2.3,harveyvisual,2.1,[],8,0.75,
0,pause,0.4,None,None,None,0,159,159,159,,,,,,,,,,,,,D001,visual,4,[],"['1', '2', '3', '4']",1,2023.2.3,harveyvisual,2.1,[],8,0.75,
9,dot,0.3,['dot'],['density'],black,0,160,160,160,,,58.40021204948425,58.12287402153015,58.422861099243164,dot,"[0.06, 0.08, 0.1, 0.1, 0.1, 0.08, 0.06, 0.08, 0.08]","[[0.43694394638140777, -0.3313910020207278], [-0.12671083892604185, -0.2904925475365486], [0.20104083284362928, 0.10806727359081147], [0.1376754545064979, -0.09924520624161907], [0.19021248837847174, -0.31516489548878085], [0.3653456942078643, -0.09076399745187974], [0.1403131072824284, -0.5562242851951704], [-0.005445667935095978, 0.0898710966384087], [-0.11923067905189093, -0.07827803450029165]]",density,black,,,D001,visual,4,[],"['1', '2', '3', '4']",1,2023.2.3,harveyvisual,2.1,[],8,0.75,
0,pause,0.4,None,None,None,0,161,161,161,,,,,,,,,,,,,D001,visual,4,[],"['1', '2', '3', '4']",1,2023.2.3,harveyvisual,2.1,[],8,0.75,
9,dot,0.3,['dot'],['density'],black,0,162,162,162,,,59.10022807121277,58.82288312911987,59.12290596961975,dot,"[0.1, 0.06, 0.1, 0.06, 0.08, 0.06, 0.08, 0.1, 0.08]","[[-0.5586095828397086, -0.08452232608263664], [-0.5120381862419278, 0.15370428824398014], [-0.08562135647518901, 0.024493186907675612], [-0.3204263364507457, 0.2397592637991136], [-0.21279117965626912, -0.18999926927512983], [-0.34615304282718484, -0.002506468551820401], [-0.32642794983948487, 0.4412976810435594], [-0.12278716272436474, 0.3390467791696382], [0.05505897535061007, 0.17426903254619158]]",density,black,,,D001,visual,4,[],"['1', '2', '3', '4']",1,2023.2.3,harveyvisual,2.1,[],8,0.75,
0,pause,0.4,None,None,None,0,163,163,163,,,,,,,,,,,,,D001,visual,4,[],"['1', '2', '3', '4']",1,2023.2.3,harveyvisual,2.1,[],8,0.75,
9,dot,0.3,['dot'],['density'],black,0,164,164,164,,,59.80021905899048,59.522867918014526,59.822850942611694,dot,"[0.1, 0.08, 0.06, 0.06, 0.06, 0.08, 0.1, 0.06, 0.08]","[[-0.13146557112902973, 0.14116723461389186], [0.2951467361821443, -0.02824752732805288], [0.19428532799116477, -0.23589609671221848], [-0.28731157875063357, -0.1506919145754202], [-0.013954936164563217, -0.2914313940092583], [0.05437169614590384, 0.05057158482376688], [-0.11710547218270359, -0.5628603002908775], [-0.3181416531292253, -0.36750682532956547], [-0.10064922490671671, -0.07835054634105423]]",density,black,,,D001,visual,4,[],"['1', '2', '3', '4']",1,2023.2.3,harveyvisual,2.1,[],8,0.75,
0,pause,0.4,None,None,None,0,165,165,165,,,,,,,,,,,,,D001,visual,4,[],"['1', '2', '3', '4']",1,2023.2.3,harveyvisual,2.1,[],8,0.75,
9,dot,0.3,['dot'],['density'],black,0,166,166,166,,,60.500219106674194,60.222819089889526,60.52288794517517,dot,"[0.06, 0.1, 0.06, 0.08, 0.08, 0.08, 0.08, 0.08, 0.08]","[[-0.13146557112902973, 0.14116723461389186], [0.2951467361821443, -0.02824752732805288], [0.19428532799116477, -0.23589609671221848], [-0.28731157875063357, -0.1506919145754202], [-0.013954936164563217, -0.2914313940092583], [0.05437169614590384, 0.05057158482376688], [-0.11710547218270359, -0.5628603002908775], [-0.3181416531292253, -0.36750682532956547], [-0.10064922490671671, -0.07835054634105423]]",density,black,,,D001,visual,4,[],"['1', '2', '3', '4']",1,2023.2.3,harveyvisual,2.1,[],8,0.75,
0,pause,0.4,None,None,None,0,167,167,167,,,,,,,,,,,,,D001,visual,4,[],"['1', '2', '3', '4']",1,2023.2.3,harveyvisual,2.1,[],8,0.75,
8,dot,0.3,['dot'],['density'],black,0,168,168,168,,,61.200233936309814,60.90614700317383,61.22280311584473,dot,"[0.08, 0.06, 0.1, 0.08, 0.06, 0.06, 0.1, 0.1]","[[0.29210958841889567, 0.026991922891258572], [0.03093533645276146, 0.3258936230244337], [-0.13014708308220477, 0.20110385145229231], [0.463805327987396, 0.2670013362689149], [0.17887675575806267, 0.48912385903522404], [0.2495142025194702, 0.28253247413027655], [0.03200252102949923, -0.1932501096446728], [0.04457092617056691, 0.07668709382136672]]",density,black,,,D001,visual,4,[],"['1', '2', '3', '4']",1,2023.2.3,harveyvisual,2.1,[],8,0.75,
0,pause,0.4,None,None,None,0,169,169,169,,,,,,,,,,,,,D001,visual,4,[],"['1', '2', '3', '4']",1,2023.2.3,harveyvisual,2.1,[],8,0.75,
8,dot,0.3,['dot'],['density'],black,0,170,170,170,,,61.90021300315857,61.60604691505432,61.92279100418091,dot,"[0.06, 0.1, 0.1, 0.06, 0.08, 0.06, 0.06, 0.1]","[[-0.43120034012996816, -0.3965796075128045], [0.1478983624034229, -0.46770986256388064], [-0.23058307999139557, -0.3238539366063682], [-0.07988642296593639, -0.13993938361429092], [-0.08664795903044427, -0.5418074813242995], [0.11879255589163208, -0.1637425359681226], [-0.09873641234556067, 0.08705286872936738], [-0.025120016651009644, -0.34045580780112095]]",density,black,,,D001,visual,4,[],"['1', '2', '3', '4']",1,2023.2.3,harveyvisual,2.1,[],8,0.75,
0,pause,0.4,None,None,None,0,171,171,171,,,,,,,,,,,,,D001,visual,4,[],"['1', '2', '3', '4']",1,2023.2.3,harveyvisual,2.1,[],8,0.75,
8,dot,0.3,['dot'],['density'],black,0,172,172,172,,,62.60020899772644,62.306090116500854,62.62276792526245,dot,"[0.08, 0.1, 0.08, 0.1, 0.1, 0.1, 0.1, 0.08]","[[-0.25621621658373334, -0.516505587173681], [-0.1662036889407214, -0.08514196380588028], [-0.18387329975925823, -0.32724781719236296], [0.018951322384734254, -0.28276580262079387], [-0.4257935961758009, -0.11165978892152287], [-0.38337046113926315, -0.34678862335127664], [0.08447884857343574, -0.4920123821830729], [0.02561025798733424, 0.0007844895199748298]]",density,black,,,D001,visual,4,[],"['1', '2', '3', '4']",1,2023.2.3,harveyvisual,2.1,[],8,0.75,
0,pause,0.4,None,None,None,0,173,173,173,,,,,,,,,,,,,D001,visual,4,[],"['1', '2', '3', '4']",1,2023.2.3,harveyvisual,2.1,[],8,0.75,
8,dot,0.3,['dot'],['density'],white,0,174,174,174,,,63.30021405220032,63.02277207374573,63.322757959365845,dot,"[0.08, 0.1, 0.08, 0.08, 0.08, 0.06, 0.08, 0.06]","[[-0.0012777187897950197, 0.3966007492927722], [-0.28447363834021117, 0.3159852715582059], [0.19942587273623266, 0.5530929527666414], [0.21318140018031628, 0.35154814550636243], [0.2022184519229619, 0.1402347591191321], [-0.03399167273692697, 0.18426518172063944], [0.09045107803968953, -0.0428478536761596], [-0.13826990130262626, -0.021750669296841257]]",density,white,,,D001,visual,4,[],"['1', '2', '3', '4']",1,2023.2.3,harveyvisual,2.1,[],8,0.75,
0,pause,0.4,None,None,None,0,175,175,175,,,,,,,,,,,1,63.63140511512756,D001,visual,4,[],"['1', '2', '3', '4']",1,2023.2.3,harveyvisual,2.1,[],8,0.75,
8,dot,0.3,['dot'],['density'],black,0,176,176,176,,,64.00021195411682,63.72274708747864,64.02273106575012,dot,"[0.1, 0.08, 0.1, 0.08, 0.1, 0.08, 0.06, 0.06]","[[-0.25621621658373334, -0.516505587173681], [-0.1662036889407214, -0.08514196380588028], [-0.18387329975925823, -0.32724781719236296], [0.018951322384734254, -0.28276580262079387], [-0.4257935961758009, -0.11165978892152287], [-0.38337046113926315, -0.34678862335127664], [0.08447884857343574, -0.4920123821830729], [0.02561025798733424, 0.0007844895199748298]]",density,black,,,D001,visual,4,[],"['1', '2', '3', '4']",1,2023.2.3,harveyvisual,2.1,[],8,0.75,
0,pause,0.4,None,None,None,0,177,177,177,,,,,,,,,,,,,D001,visual,4,[],"['1', '2', '3', '4']",1,2023.2.3,harveyvisual,2.1,[],8,0.75,
8,dot,0.3,['dot'],['density'],black,0,178,178,178,,,64.7002170085907,64.42272210121155,64.72272396087646,dot,"[0.1, 0.08, 0.08, 0.1, 0.08, 0.06, 0.08, 0.06]","[[-0.3306282708070712, -0.09459634407206743], [0.17708038186302957, -0.36794437316098305], [-0.34368294577136044, -0.39688855169369486], [-0.16397220561896333, 0.03033928826277653], [-0.08476975953586025, -0.41834960305423746], [-0.16765121495786453, -0.2265743681515788], [0.0449590487082352, -0.10546915507075137], [-0.5574709661459258, -0.15664368712912546]]",density,black,,,D001,visual,4,[],"['1', '2', '3', '4']",1,2023.2.3,harveyvisual,2.1,[],8,0.75,
0,pause,0.4,None,None,None,0,179,179,179,,,,,,,,,,,,,D001,visual,4,[],"['1', '2', '3', '4']",1,2023.2.3,harveyvisual,2.1,[],8,0.75,
7,dot,0.3,['dot'],['density'],black,0,180,180,180,,,65.4002149105072,65.1060700416565,65.42269802093506,dot,"[0.06, 0.06, 0.1, 0.1, 0.1, 0.1, 0.06]","[[-0.3025445156539714, -0.42280529123536587], [0.12162933753582021, -0.2851722644810181], [-0.2753205641105948, -0.038672864930592576], [-0.4202189534315163, -0.18742991959605093], [-0.15636117447925973, -0.27217203193286355], [-0.09967880665522989, -0.47242523529006747], [-0.06261398545311019, -0.08879309989794046]]",density,black,,,D001,visual,4,[],"['1', '2', '3', '4']",1,2023.2.3,harveyvisual,2.1,[],8,0.75,
0,pause,0.4,None,None,None,0,181,181,181,,,,,,,,,,,,,D001,visual,4,[],"['1', '2', '3', '4']",1,2023.2.3,harveyvisual,2.1,[],8,0.75,
7,dot,0.3,['dot'],['density'],black,0,182,182,182,,,66.10023093223572,65.806077003479,66.1227560043335,dot,"[0.1, 0.1, 0.08, 0.08, 0.1, 0.06, 0.08]","[[0.373835093542847, 0.13553027784675922], [0.025265531087721685, -0.15487691700731251], [0.38086488534306906, -0.0720131222026176], [0.4315741710459581, -0.28075472739566504], [0.18097069018870113, 0.01647246612045595], [0.1962900518120967, -0.2624101628120604], [0.08955660480178401, 0.2127528718980948]]",density,black,,,D001,visual,4,[],"['1', '2', '3', '4']",1,2023.2.3,harveyvisual,2.1,[],8,0.75,
0,pause,0.4,None,None,None,0,183,183,183,,,,,,,,,,,,,D001,visual,4,[],"['1', '2', '3', '4']",1,2023.2.3,harveyvisual,2.1,[],8,0.75,
7,dot,0.3,['dot'],['density'],black,0,184,184,184,,,66.80024290084839,66.50599908828735,66.82265591621399,dot,"[0.1, 0.1, 0.08, 0.1, 0.1, 0.06, 0.06]","[[0.13823229125104186, -0.11287424625882309], [-0.082914425993103, 0.43156227464827385], [0.30107400633957315, 0.2583336012722512], [-0.1103107855725706, 0.20298726112520996], [0.37862923877470095, 0.05664428164281185], [0.10057609128089995, 0.3089177590539603], [0.1009283971288976, 0.1061295027106774]]",density,black,,,D001,visual,4,[],"['1', '2', '3', '4']",1,2023.2.3,harveyvisual,2.1,[],8,0.75,
0,pause,0.4,None,None,None,0,185,185,185,,,,,,,,,,,,,D001,visual,4,[],"['1', '2', '3', '4']",1,2023.2.3,harveyvisual,2.1,[],8,0.75,
7,dot,0.3,['dot'],['density'],black,0,186,186,186,,,67.50021600723267,67.20608496665955,67.52265095710754,dot,"[0.06, 0.08, 0.06, 0.1, 0.08, 0.06, 0.08]","[[0.27964692832129656, -0.15500474148311624], [0.48019533028943556, 0.09933774746227163], [0.08203545767143021, 0.28019381302663365], [0.05572057582720619, -0.1426303369841539], [0.31711281236335803, 0.2944831276535668], [-0.041479771322150735, 0.11885700406191958], [0.21045310206912196, 0.07075003364957701]]",density,black,,,D001,visual,4,[],"['1', '2', '3', '4']",1,2023.2.3,harveyvisual,2.1,[],8,0.75,
0,pause,0.4,None,None,None,0,187,187,187,,,,,,,,,,,,,D001,visual,4,[],"['1', '2', '3', '4']",1,2023.2.3,harveyvisual,2.1,[],8,0.75,
7,dot,0.3,['dot'],['density'],black,0,188,188,188,,,68.20021510124207,67.90597701072693,68.22263813018799,dot,"[0.08, 0.06, 0.1, 0.06, 0.08, 0.06, 0.1]","[[-0.0015444251822213466, 0.17452400993182896], [-0.3864233363803332, 0.3856338194384884], [-0.45841970572989144, 0.11901701190004808], [-0.23552014845846486, 0.11986313412455778], [-0.06694767956243396, -0.029831379541550785], [-0.3576154478026905, -0.11072010138878656], [-0.17113735677840214, 0.37123035181888253]]",density,black,,,D001,visual,4,[],"['1', '2', '3', '4']",1,2023.2.3,harveyvisual,2.1,[],8,0.75,
0,pause,0.4,None,None,None,0,189,189,189,,,,,,,,,,,,,D001,visual,4,[],"['1', '2', '3', '4']",1,2023.2.3,harveyvisual,2.1,[],8,0.75,
7,dot,0.3,['dot'],['density'],black,0,190,190,190,,,68.90022492408752,68.60595893859863,68.92259693145752,dot,"[0.1, 0.08, 0.08, 0.06, 0.1, 0.1, 0.1]","[[0.19245168201499255, -0.1876960705048169], [-0.3381443552002159, -0.23329338142126996], [-0.10497405195571721, -0.20200038512761503], [-0.19215049966389516, -0.01485034356210763], [-0.14804808022624072, 0.20187381879058183], [0.049390412829639754, -0.0077734514623590935], [0.08212821656350888, 0.19234027401595055]]",density,black,,,D001,visual,4,[],"['1', '2', '3', '4']",1,2023.2.3,harveyvisual,2.1,[],8,0.75,
0,pause,0.4,None,None,None,0,191,191,191,,,,,,,,,,,,,D001,visual,4,[],"['1', '2', '3', '4']",1,2023.2.3,harveyvisual,2.1,[],8,0.75,
6,dot,0.3,['dot'],['density'],black,0,192,192,192,,,69.60021209716797,69.30592608451843,69.62259101867676,dot,"[0.08, 0.08, 0.08, 0.06, 0.08, 0.06]","[[0.1442800129286608, -0.025670240792647715], [-0.253335145558221, 0.06312541807928282], [0.15340240856287354, 0.2410349392962658], [-0.1639657784688781, 0.25075335361279655], [-0.07910231793701084, -0.12784096878077061], [-0.011661193723423325, 0.11361106492824657]]",density,black,,,D001,visual,4,[],"['1', '2', '3', '4']",1,2023.2.3,harveyvisual,2.1,[],8,0.75,
0,pause,0.4,None,None,None,0,193,193,193,,,,,,,,,,,,,D001,visual,4,[],"['1', '2', '3', '4']",1,2023.2.3,harveyvisual,2.1,[],8,0.75,
6,dot,0.3,['dot'],['density'],black,0,194,194,194,,,70.30022597312927,70.00591397285461,70.3225610256195,dot,"[0.06, 0.08, 0.06, 0.06, 0.06, 0.06]","[[-0.521575560759306, -0.09896409503936293], [-0.11005055439098525, 0.007412765662050641], [-0.2691644509192311, -0.32034241736757013], [-0.33082776037640693, 0.11579187391948328], [-0.031037041641207554, -0.21820435357846482], [-0.2943013415457968, -0.09543215727460275]]",density,black,,,D001,visual,4,[],"['1', '2', '3', '4']",1,2023.2.3,harveyvisual,2.1,[],8,0.75,
0,pause,0.4,None,None,None,0,195,195,195,,,,,,,,,,,,,D001,visual,4,[],"['1', '2', '3', '4']",1,2023.2.3,harveyvisual,2.1,[],8,0.75,
6,dot,0.3,['dot'],['density'],black,0,196,196,196,,,71.00021290779114,70.70676493644714,71.02255702018738,dot,"[0.08, 0.1, 0.08, 0.06, 0.1, 0.08]","[[-0.2094991805307552, 0.08302354111181451], [0.09557258300728075, 0.3458622669714129], [0.22056408800171526, -0.017094369341425636], [0.026601936584830878, 0.1297564650757722], [-0.11681768564656844, 0.2726391152528644], [-0.03570146891163527, -0.09222923444939024]]",density,black,,,D001,visual,4,[],"['1', '2', '3', '4']",1,2023.2.3,harveyvisual,2.1,[],8,0.75,
0,pause,0.4,None,None,None,0,197,197,197,,,,,,,,,,,,,D001,visual,4,[],"['1', '2', '3', '4']",1,2023.2.3,harveyvisual,2.1,[],8,0.75,
6,dot,0.3,['dot'],['density'],black,0,198,198,198,,,71.70023202896118,71.4058780670166,71.72253894805908,dot,"[0.08, 0.08, 0.1, 0.08, 0.08, 0.06]","[[-0.4718675517483807, -0.080313523620691], [-0.31247550484642445, -0.23218356379105512], [-0.2575593735283343, 0.24158811959194182], [-0.2948669609652105, 0.017652028830845004], [-0.0883702388727292, 0.027494606567874856], [-0.45154527444290743, 0.17691331155056722]]",density,black,,,D001,visual,4,[],"['1', '2', '3', '4']",1,2023.2.3,harveyvisual,2.1,[],8,0.75,
0,pause,0.4,None,None,None,0,199,199,199,,,,,,,,,,,,,D001,visual,4,[],"['1', '2', '3', '4']",1,2023.2.3,harveyvisual,2.1,[],8,0.75,
6,dot,0.3,['dot'],['density'],black,0,200,200,200,,,72.4002161026001,72.1058521270752,72.42251396179199,dot,"[0.06, 0.1, 0.1, 0.08, 0.08, 0.08]","[[0.500827999951601, -0.23304028533624072], [0.20916386845998064, 0.08030245107060778], [0.27809793757338463, -0.1905950399710685], [0.08327260932553728, -0.13599284299194644], [0.16768982653485215, -0.38480252821003114], [0.4174962964646186, 0.01069632702004041]]",density,black,,,D001,visual,4,[],"['1', '2', '3', '4']",1,2023.2.3,harveyvisual,2.1,[],8,0.75,
0,pause,0.4,None,None,None,0,201,201,201,,,,,,,,,,,,,D001,visual,4,[],"['1', '2', '3', '4']",1,2023.2.3,harveyvisual,2.1,[],8,0.75,
6,dot,0.3,['dot'],['density'],black,0,202,202,202,,,73.10022306442261,72.80584192276001,73.12249493598938,dot,"[0.06, 0.08, 0.06, 0.06, 0.1, 0.06]","[[-0.21871154593458392, 0.523205648483303], [-0.10311842393244862, 0.3355489225101837], [0.008055670172287269, 0.5366903261171385], [0.1303263863168633, 0.3782575370349718], [0.03185769749340688, 0.17145177849191712], [-0.2810167974491763, 0.15418865533644557]]",density,black,,,D001,visual,4,[],"['1', '2', '3', '4']",1,2023.2.3,harveyvisual,2.1,[],8,0.75,
0,pause,0.4,None,None,None,0,203,203,203,,,,,,,,,,,,,D001,visual,4,[],"['1', '2', '3', '4']",1,2023.2.3,harveyvisual,2.1,[],8,0.75,
5,dot,0.3,['dot'],['density'],black,0,204,204,204,,,73.8002200126648,73.5058240890503,73.82247591018677,dot,"[0.08, 0.1, 0.1, 0.06, 0.08]","[[-0.07969108163070573, 0.258241044050758], [-0.3301768112222262, 0.22562982972330062], [-0.16453040906828167, -0.1622271318141552], [-0.21753854086321037, 0.04365873274764029], [0.030347216865940038, 0.07834852794011457]]",density,black,,,D001,visual,4,[],"['1', '2', '3', '4']",1,2023.2.3,harveyvisual,2.1,[],8,0.75,
0,pause,0.4,None,None,None,0,205,205,205,,,,,,,,,,,,,D001,visual,4,[],"['1', '2', '3', '4']",1,2023.2.3,harveyvisual,2.1,[],8,0.75,
5,dot,0.3,['dot'],['density'],white,0,206,206,206,,,74.50021195411682,74.20580911636353,74.52247309684753,dot,"[0.08, 0.06, 0.06, 0.08, 0.08]","[[-0.13667773294397823, -0.4810836359727921], [0.22435054442879343, -0.38211739689247126], [0.18745946747878278, -0.17039478388844306], [0.024239655080151325, -0.29759851870815907], [0.08919077751561523, -0.5300131723353856]]",density,white,,,D001,visual,4,[],"['1', '2', '3', '4']",1,2023.2.3,harveyvisual,2.1,[],8,0.75,
0,pause,0.4,None,None,None,0,207,207,207,,,,,,,,,,,1,74.81178116798401,D001,visual,4,[],"['1', '2', '3', '4']",1,2023.2.3,harveyvisual,2.1,[],8,0.75,
5,dot,0.3,['dot'],['density'],black,0,208,208,208,,,75.20023894309998,74.90577292442322,75.22245812416077,dot,"[0.1, 0.06, 0.06, 0.06, 0.1]","[[0.10558973120531606, -0.20428866875977839], [-0.0893225412758366, 0.16524926947551877], [-0.05793580974794309, -0.07826743033729393], [0.11130747138107101, 0.10875249109580729], [0.28035132100960686, -0.09064984251937742]]",density,black,,,D001,visual,4,[],"['1', '2', '3', '4']",1,2023.2.3,harveyvisual,2.1,[],8,0.75,
0,pause,0.4,None,None,None,0,209,209,209,,,,,,,,,,,,,D001,visual,4,[],"['1', '2', '3', '4']",1,2023.2.3,harveyvisual,2.1,[],8,0.75,
5,dot,0.3,['dot'],['density'],black,0,210,210,210,,,75.90021395683289,75.60578608512878,75.92247200012207,dot,"[0.1, 0.06, 0.08, 0.1, 0.08]","[[-0.006164932418690097, -0.4528126201229341], [-0.1681524682570009, -0.11721653268637569], [-0.1959903964051736, -0.3710708837277218], [0.03544926667602863, -0.1302589477940128], [0.16830580561999814, -0.32298356607012285]]",density,black,,,D001,visual,4,[],"['1', '2', '3', '4']",1,2023.2.3,harveyvisual,2.1,[],8,0.75,
0,pause,0.4,None,None,None,0,211,211,211,,,,,,,,,,,,,D001,visual,4,[],"['1', '2', '3', '4']",1,2023.2.3,harveyvisual,2.1,[],8,0.75,
5,dot,0.3,['dot'],['density'],white,0,212,212,212,,,76.60021305084229,76.30579900741577,76.62247610092163,dot,"[0.08, 0.1, 0.08, 0.1, 0.1]","[[0.10558973120531606, -0.20428866875977839], [-0.0893225412758366, 0.16524926947551877], [-0.05793580974794309, -0.07826743033729393], [0.11130747138107101, 0.10875249109580729], [0.28035132100960686, -0.09064984251937742]]",density,white,,,D001,visual,4,[],"['1', '2', '3', '4']",1,2023.2.3,harveyvisual,2.1,[],8,0.75,
0,pause,0.4,None,None,None,0,213,213,213,,,,,,,,,,,1,76.66825604438782,D001,visual,4,[],"['1', '2', '3', '4']",1,2023.2.3,harveyvisual,2.1,[],8,0.75,
5,dot,0.3,['dot'],['density'],black,0,214,214,214,,,77.30021405220032,77.00584602355957,77.32238698005676,dot,"[0.06, 0.08, 0.1, 0.1, 0.1]","[[-0.28680504698685855, -0.37141287089520275], [-0.07941991320777259, -0.3100284666993168], [0.1333965094747872, -0.32231728701695306], [-0.16725551142864267, -0.07802884766317453], [0.04399369704041987, -0.09756099317031844]]",density,black,,,D001,visual,4,[],"['1', '2', '3', '4']",1,2023.2.3,harveyvisual,2.1,[],8,0.75,
0,pause,0.4,None,None,None,0,215,215,215,,,,,,,,,,,,,D001,visual,4,[],"['1', '2', '3', '4']",1,2023.2.3,harveyvisual,2.1,[],8,0.75,
4,dot,0.3,['dot'],['density'],black,0,216,216,216,,,78.00023198127747,77.70572996139526,78.02237796783447,dot,"[0.08, 0.1, 0.06, 0.06]","[[0.17852470546651972, -0.2012438881607824], [-0.031034799765910746, -0.12466087783573923], [0.008996399474264666, -0.3229379719524122], [0.15114343287780646, 0.03986859122442722]]",density,black,,,D001,visual,4,[],"['1', '2', '3', '4']",1,2023.2.3,harveyvisual,2.1,[],8,0.75,
0,pause,0.4,None,None,None,0,217,217,217,,,,,,,,,,,,,D001,visual,4,[],"['1', '2', '3', '4']",1,2023.2.3,harveyvisual,2.1,[],8,0.75,
4,dot,0.3,['dot'],['density'],black,0,218,218,218,,,78.70022797584534,78.40572309494019,78.72239112854004,dot,"[0.1, 0.06, 0.08, 0.06]","[[0.5195678262777355, 0.06634869171649047], [0.11508779247300271, 0.04459464887784077], [0.27862218446352316, 0.18290230777407274], [0.28701832247091064, -0.08209332131291468]]",density,black,,,D001,visual,4,[],"['1', '2', '3', '4']",1,2023.2.3,harveyvisual,2.1,[],8,0.75,
0,pause,0.4,None,None,None,0,219,219,219,,,,,,,,,,,,,D001,visual,4,[],"['1', '2', '3', '4']",1,2023.2.3,harveyvisual,2.1,[],8,0.75,
4,dot,0.3,['dot'],['density'],black,0,220,220,220,,,79.40022993087769,79.1057140827179,79.4223780632019,dot,"[0.08, 0.08, 0.1, 0.1]","[[0.107131415583101, 0.03171316484874249], [0.3330877778846877, 0.14211400081541528], [0.23058747141838212, -0.24340322486593785], [0.3173726134345681, -0.05921806988573682]]",density,black,,,D001,visual,4,[],"['1', '2', '3', '4']",1,2023.2.3,harveyvisual,2.1,[],8,0.75,
0,pause,0.4,None,None,None,0,221,221,221,,,,,,,,,,,,,D001,visual,4,[],"['1', '2', '3', '4']",1,2023.2.3,harveyvisual,2.1,[],8,0.75,
4,dot,0.3,['dot'],['density'],black,0,222,222,222,,,80.1002299785614,79.80566000938416,80.12232995033264,dot,"[0.08, 0.06, 0.1, 0.08]","[[0.0004228548582206217, 0.4437421379736539], [0.24572762857664815, 0.2260868474052859], [0.007756854070108054, 0.1846819218217072], [0.22099789303306372, 0.4278063517398125]]",density,black,,,D001,visual,4,[],"['1', '2', '3', '4']",1,2023.2.3,harveyvisual,2.1,[],8,0.75,
0,pause,0.4,None,None,None,0,223,223,223,,,,,,,,,,,,,D001,visual,4,[],"['1', '2', '3', '4']",1,2023.2.3,harveyvisual,2.1,[],8,0.75,
4,dot,0.3,['dot'],['density'],black,0,224,224,224,,,80.80021905899048,80.50565505027771,80.8223009109497,dot,"[0.06, 0.06, 0.06, 0.1]","[[0.13421512820946938, -0.5336194340609706], [0.2622623892029083, -0.3575253733063478], [0.024533045116508903, -0.3376850530006363], [0.166924465117498, -0.0963569090623874]]",density,black,,,D001,visual,4,[],"['1', '2', '3', '4']",1,2023.2.3,harveyvisual,2.1,[],8,0.75,
0,pause,0.4,None,None,None,0,225,225,225,,,,,,,,,,,,,D001,visual,4,[],"['1', '2', '3', '4']",1,2023.2.3,harveyvisual,2.1,[],8,0.75,
4,dot,0.3,['dot'],['density'],white,0,226,226,226,,,81.50021290779114,81.20565700531006,81.52232694625854,dot,"[0.1, 0.06, 0.06, 0.1]","[[0.1665887267295909, 0.08389582001604734], [0.4584359263982055, 0.26405512465689546], [0.4157764543415929, 0.03513878013061779], [0.2392225064082761, 0.29777239984320175]]",density,white,,,D001,visual,4,[],"['1', '2', '3', '4']",1,2023.2.3,harveyvisual,2.1,[],8,0.75,
0,pause,0.4,None,None,None,0,227,227,227,,,,,,,,,,,1,81.59364104270935,D001,visual,4,[],"['1', '2', '3', '4']",1,2023.2.3,harveyvisual,2.1,[],8,0.75,
3,dot,0.3,['dot'],['density'],white,0,228,228,228,,,82.20023107528687,81.90563893318176,82.22236609458923,dot,"[0.08, 0.06, 0.08]","[[0.026071599024748527, -0.32860913997604846], [-0.11834724389398482, -0.18584523127985947], [0.10068982493997472, -0.12518245043845455]]",density,white,,,D001,visual,4,[],"['1', '2', '3', '4']",1,2023.2.3,harveyvisual,2.1,[],8,0.75,
0,pause,0.4,None,None,None,0,229,229,229,,,,,,,,,,,1,82.42872214317322,D001,visual,4,[],"['1', '2', '3', '4']",1,2023.2.3,harveyvisual,2.1,[],8,0.75,
3,dot,0.3,['dot'],['density'],black,0,230,230,230,,,82.90022301673889,82.60565900802612,82.92229795455933,dot,"[0.08, 0.1, 0.06]","[[-0.1591938184585166, 0.2573970255855866], [-0.049574382916532336, 0.44031337398050124], [0.08264166875933507, 0.262381570646859]]",density,black,,,D001,visual,4,[],"['1', '2', '3', '4']",1,2023.2.3,harveyvisual,2.1,[],8,0.75,
0,pause,0.4,None,None,None,0,231,231,231,,,,,,,,,,,,,D001,visual,4,[],"['1', '2', '3', '4']",1,2023.2.3,harveyvisual,2.1,[],8,0.75,
3,dot,0.3,['dot'],['density'],black,0,232,232,232,,,83.60023593902588,83.30575299263,83.62227511405945,dot,"[0.08, 0.06, 0.06]","[[0.3935061822875672, 0.2255916562549388], [0.5507663609445765, 0.05974239467682067], [0.33737455125106675, -0.013318187219183488]]",density,black,,,D001,visual,4,[],"['1', '2', '3', '4']",1,2023.2.3,harveyvisual,2.1,[],8,0.75,
0,pause,0.4,None,None,None,0,233,233,233,,,,,,,,,,,,,D001,visual,4,[],"['1', '2', '3', '4']",1,2023.2.3,harveyvisual,2.1,[],8,0.75,
3,dot,0.3,['dot'],['density'],black,0,234,234,234,,,84.30021905899048,84.0056300163269,84.32225894927979,dot,"[0.06, 0.06, 0.1]","[[-0.15674404860239688, -0.25078459247658497], [0.006578924124220241, -0.41324131210186005], [0.06959682433872849, -0.20549031443856539]]",density,black,,,D001,visual,4,[],"['1', '2', '3', '4']",1,2023.2.3,harveyvisual,2.1,[],8,0.75,
0,pause,0.4,None,None,None,0,235,235,235,,,,,,,,,,,,,D001,visual,4,[],"['1', '2', '3', '4']",1,2023.2.3,harveyvisual,2.1,[],8,0.75,
3,dot,0.3,['dot'],['density'],black,0,236,236,236,,,85.0002179145813,84.70555090904236,85.02220106124878,dot,"[0.06, 0.08, 0.06]","[[-0.17720328293608806, -0.4514300161601115], [0.022754438065530718, -0.42143894503716073], [-0.10940085810899225, -0.24791511077847575]]",density,black,,,D001,visual,4,[],"['1', '2', '3', '4']",1,2023.2.3,harveyvisual,2.1,[],8,0.75,
0,pause,0.4,None,None,None,0,237,237,237,,,,,,,,,,,,,D001,visual,4,[],"['1', '2', '3', '4']",1,2023.2.3,harveyvisual,2.1,[],8,0.75,
3,dot,0.3,['dot'],['density'],black,0,238,238,238,,,85.70021891593933,85.40553402900696,85.7221839427948,dot,"[0.06, 0.08, 0.1]","[[0.4290032298944087, 0.1407520187648592], [0.22848299553954127, 0.06362144779139585], [0.3595680574788582, -0.09433362503040832]]",density,black,,,D001,visual,4,[],"['1', '2', '3', '4']",1,2023.2.3,harveyvisual,2.1,[],8,0.75,
0,pause,0.4,None,None,None,0,239,239,239,,,,,,,,,,,,,D001,visual,4,[],"['1', '2', '3', '4']",1,2023.2.3,harveyvisual,2.1,[],8,0.75,
2,dot,0.3,['dot'],['density'],black,0,240,240,240,,,86.40022611618042,86.10551691055298,86.42220711708069,dot,"[0.1, 0.06]","[[0.2713647219188039, -0.029235290058335472], [0.46697437826705046, 0.014145112521712659]]",density,black,,,D001,visual,4,[],"['1', '2', '3', '4']",1,2023.2.3,harveyvisual,2.1,[],8,0.75,
0,pause,0.4,None,None,None,0,241,241,241,,,,,,,,,,,,,D001,visual,4,[],"['1', '2', '3', '4']",1,2023.2.3,harveyvisual,2.1,[],8,0.75,
2,dot,0.3,['dot'],['density'],black,0,242,242,242,,,87.10022592544556,86.80550003051758,87.12215113639832,dot,"[0.06, 0.1]","[[0.19540278997321237, -0.319457995891214], [0.34462774624387493, -0.4544903302695001]]",density,black,,,D001,visual,4,[],"['1', '2', '3', '4']",1,2023.2.3,harveyvisual,2.1,[],8,0.75,
0,pause,0.4,None,None,None,0,243,243,243,,,,,,,,,,,,,D001,visual,4,[],"['1', '2', '3', '4']",1,2023.2.3,harveyvisual,2.1,[],8,0.75,
2,dot,0.3,['dot'],['density'],black,0,244,244,244,,,87.80021500587463,87.50548195838928,87.82216906547546,dot,"[0.06, 0.08]","[[0.510744558366804, -0.07965895932329134], [0.5183014925016622, -0.2796299572401246]]",density,black,,,D001,visual,4,[],"['1', '2', '3', '4']",1,2023.2.3,harveyvisual,2.1,[],8,0.75,
0,pause,0.4,None,None,None,0,245,245,245,,,,,,,,,,,,,D001,visual,4,[],"['1', '2', '3', '4']",1,2023.2.3,harveyvisual,2.1,[],8,0.75,
2,dot,0.3,['dot'],['density'],black,0,246,246,246,,,88.50022912025452,88.20551896095276,88.52215003967285,dot,"[0.08, 0.06]","[[-0.15001882639889116, 0.48719053997247297], [-0.1736568080125972, 0.28835755901726084]]",density,black,,,D001,visual,4,[],"['1', '2', '3', '4']",1,2023.2.3,harveyvisual,2.1,[],8,0.75,
0,pause,0.4,None,None,None,0,247,247,247,,,,,,,,,,,,,D001,visual,4,[],"['1', '2', '3', '4']",1,2023.2.3,harveyvisual,2.1,[],8,0.75,
2,dot,0.3,['dot'],['density'],black,0,248,248,248,,,89.20022201538086,88.90548801422119,89.22214102745056,dot,"[0.08, 0.08]","[[-0.3970652553054307, 0.36151140161898554], [-0.22306532646831484, 0.26288994227005946]]",density,black,,,D001,visual,4,[],"['1', '2', '3', '4']",1,2023.2.3,harveyvisual,2.1,[],8,0.75,
0,pause,0.4,None,None,None,0,249,249,249,,,,,,,,,,,,,D001,visual,4,[],"['1', '2', '3', '4']",1,2023.2.3,harveyvisual,2.1,[],8,0.75,
2,dot,0.3,['dot'],['density'],black,0,250,250,250,,,89.9002320766449,89.60547113418579,89.92212009429932,dot,"[0.06, 0.06]","[[-0.5356907773971091, -0.01454049690556478], [-0.3936553319468624, 0.1263392020735458]]",density,black,,,D001,visual,4,[],"['1', '2', '3', '4']",1,2023.2.3,harveyvisual,2.1,[],8,0.75,
0,pause,0.4,None,None,None,0,251,251,251,,,,,,,,,,,,,D001,visual,4,[],"['1', '2', '3', '4']",1,2023.2.3,harveyvisual,2.1,[],8,0.75,
1,dot,0.3,['dot'],['density'],black,0,252,252,252,,,90.60022211074829,90.30544304847717,90.62212800979614,dot,[0.06],"[0.39967490259390637, -0.2576437183111264]",density,black,,,D001,visual,4,[],"['1', '2', '3', '4']",1,2023.2.3,harveyvisual,2.1,[],8,0.75,
0,pause,0.4,None,None,None,0,253,253,253,,,,,,,,,,,,,D001,visual,4,[],"['1', '2', '3', '4']",1,2023.2.3,harveyvisual,2.1,[],8,0.75,
1,dot,0.3,['dot'],['density'],black,0,254,254,254,,,91.30021905899048,91.00544595718384,91.32211899757385,dot,[0.06],"[-0.2532192430475575, -0.5275431624831907]",density,black,,,D001,visual,4,[],"['1', '2', '3', '4']",1,2023.2.3,harveyvisual,2.1,[],8,0.75,
0,pause,0.4,None,None,None,0,255,255,255,,,,,,,,,,,,,D001,visual,4,[],"['1', '2', '3', '4']",1,2023.2.3,harveyvisual,2.1,[],8,0.75,
1,dot,0.3,['dot'],['density'],black,0,256,256,256,,,92.00022101402283,91.7054090499878,92.02210211753845,dot,[0.1],"[0.1049869166116724, 0.1335000464341748]",density,black,,,D001,visual,4,[],"['1', '2', '3', '4']",1,2023.2.3,harveyvisual,2.1,[],8,0.75,
0,pause,0.4,None,None,None,0,257,257,257,,,,,,,,,,,,,D001,visual,4,[],"['1', '2', '3', '4']",1,2023.2.3,harveyvisual,2.1,[],8,0.75,
1,dot,0.3,['dot'],['density'],black,0,258,258,258,,,92.70022702217102,92.40539193153381,92.72208309173584,dot,[0.1],"[0.1771264825789444, 0.012298414170669998]",density,black,,,D001,visual,4,[],"['1', '2', '3', '4']",1,2023.2.3,harveyvisual,2.1,[],8,0.75,
0,pause,0.4,None,None,None,0,259,259,259,,,,,,,,,,,,,D001,visual,4,[],"['1', '2', '3', '4']",1,2023.2.3,harveyvisual,2.1,[],8,0.75,
1,dot,0.3,['dot'],['density'],black,0,260,260,260,,,93.40023994445801,93.10539197921753,93.42203307151794,dot,[0.06],"[0.46628601751002285, 0.12197617226191985]",density,black,,,D001,visual,4,[],"['1', '2', '3', '4']",1,2023.2.3,harveyvisual,2.1,[],8,0.75,
0,pause,0.4,None,None,None,0,261,261,261,,,,,,,,,,,,,D001,visual,4,[],"['1', '2', '3', '4']",1,2023.2.3,harveyvisual,2.1,[],8,0.75,
1,dot,0.3,['dot'],['density'],black,0,262,262,262,,,94.10023403167725,93.80533409118652,94.12201809883118,dot,[0.08],"[-0.06064478149429028, 0.10204082006191012]",density,black,,,D001,visual,4,[],"['1', '2', '3', '4']",1,2023.2.3,harveyvisual,2.1,[],8,0.75,
0,pause,0.4,None,None,None,0,263,263,263,,,,,,,,,,,,,D001,visual,4,[],"['1', '2', '3', '4']",1,2023.2.3,harveyvisual,2.1,[],8,0.75,
20,dot,0.3,['dot'],['density'],black,0,264,264,264,,,94.80023908615112,94.52200698852539,94.8221390247345,dot,"[0.1, 0.1, 0.06, 0.06, 0.06, 0.08, 0.1, 0.06, 0.06, 0.08, 0.08, 0.1, 0.06, 0.1, 0.08, 0.1, 0.08, 0.08, 0.06, 0.1]","[[-0.3396696772894237, 0.335778871173233], [0.3679003017928597, -0.36184087990910885], [-0.24345614694911732, 0.05908981121369483], [0.5951859363825435, -0.006262133756534519], [-0.2564207151990744, -0.23795490711541306], [-0.05428181788554254, -0.5020066071730571], [0.18187854747313925, 0.03273362886874598], [-0.5928594873637371, 0.06312331433799519], [0.08742041177259008, -0.3353325047770873], [0.3089224559423701, 0.32818060452064446], [0.21168863940433214, 0.5210773254851426], [-0.4767240219862928, -0.13376510995866694], [-0.004318471812882585, 0.2331837499028968], [0.372949580055986, 0.10506539601047304], [0.43597154556907836, -0.11487250596075127], [-0.2744192563644721, -0.5371748211590649], [-0.0959258362717702, 0.5838990881015177], [0.19667281885744303, -0.5281616319562904], [-0.43210756190232597, -0.3533348139883285], [0.5507376218018373, 0.21482329154824964]]",density,black,,,D001,visual,4,[],"['1', '2', '3', '4']",1,2023.2.3,harveyvisual,2.1,[],8,0.75,
0,pause,0.4,None,None,None,0,265,265,265,,,,,,,,,,,,,D001,visual,4,[],"['1', '2', '3', '4']",1,2023.2.3,harveyvisual,2.1,[],8,0.75,
20,dot,0.3,['dot'],['density'],black,0,266,266,266,,,95.50023102760315,95.22199606895447,95.52195692062378,dot,"[0.1, 0.08, 0.06, 0.1, 0.08, 0.08, 0.06, 0.08, 0.06, 0.06, 0.08, 0.06, 0.08, 0.1, 0.1, 0.06, 0.1, 0.1, 0.1, 0.1]","[[0.19398395251586242, -0.2653695335029174], [-0.4982794446474007, -0.09649771546035471], [-0.1470048800211184, -0.15020876580053116], [-0.2899827042233381, 0.20558673602991018], [-0.5493455699748913, 0.12484082423460607], [0.4440174787891943, -0.33242127420104256], [0.5870586444799731, -0.13637101496266169], [-0.10036079951308785, -0.35572558730208503], [-0.057107955286468615, 0.2558040334080329], [0.1410252986864856, -0.07353499631946825], [0.4912941548469233, 0.10984666567682144], [0.3554374002739653, -0.11462266642531932], [-0.32040388710279044, 0.4017374360844944], [0.19425520005233965, 0.1595417191033679], [-0.29717053567496804, -0.3489566734439861], [0.011326815606315765, 0.5158312791515958], [0.3569877198549358, 0.33521709251294785], [-0.04260898023997339, 0.054043853891227456], [-0.21905139024035675, -0.5631602424407504], [0.16370882120732078, -0.5509454370251052]]",density,black,,,D001,visual,4,[],"['1', '2', '3', '4']",1,2023.2.3,harveyvisual,2.1,[],8,0.75,
0,pause,0.4,None,None,None,0,267,267,267,,,,,,,,,,,,,D001,visual,4,[],"['1', '2', '3', '4']",1,2023.2.3,harveyvisual,2.1,[],8,0.75,
