num,mod,duration,shape,ll_cond,colors,.thisRepN,.thisTrialN,.thisN,.thisIndex,thisRow.t,notes,raw_global_time,t_start,t_stop,shapes,size,pos,cond,color,button,RT,participant,session,starting_run,left button (match/odd),right button (non-match/even),samples_per_block,psychopy version,expName,offset,audio,number_runs,radius,
1,dot,0.3,['dot'],['density'],black,0,0,0,0,,,2.400218963623047,2.1077969074249268,2.407727003097534,dot,[0.06],"[-0.4309303250570785, -0.37878052449928096]",density,black,,,D001,visual,1,[],"['1', '2', '3', '4']",1,2023.2.3,harveyvisual,2.1,[],8,0.75,
0,pause,0.4,None,None,None,0,1,1,1,,,,,,,,,,,,,D001,visual,1,[],"['1', '2', '3', '4']",1,2023.2.3,harveyvisual,2.1,[],8,0.75,
1,dot,0.3,['dot'],['density'],black,0,2,2,2,,,3.1002020835876465,2.807729959487915,3.108426094055176,dot,[0.1],"[-0.3631366314731191, 0.1590646049745197]",density,black,,,D001,visual,1,[],"['1', '2', '3', '4']",1,2023.2.3,harveyvisual,2.1,[],8,0.75,
0,pause,0.4,None,None,None,0,3,3,3,,,,,,,,,,,,,D001,visual,1,[],"['1', '2', '3', '4']",1,2023.2.3,harveyvisual,2.1,[],8,0.75,
1,dot,0.3,['dot'],['density'],black,0,4,4,4,,,3.8002309799194336,3.5083858966827393,3.8083999156951904,dot,[0.08],"[0.39967490259390637, -0.2576437183111264]",density,black,,,D001,visual,1,[],"['1', '2', '3', '4']",1,2023.2.3,harveyvisual,2.1,[],8,0.75,
0,pause,0.4,None,None,None,0,5,5,5,,,,,,,,,,,,,D001,visual,1,[],"['1', '2', '3', '4']",1,2023.2.3,harveyvisual,2.1,[],8,0.75,
1,dot,0.3,['dot'],['density'],black,0,6,6,6,,,4.500207901000977,4.208410024642944,4.508382081985474,dot,[0.1],"[-0.4519365434524677, 0.22287683068434597]",density,black,,,D001,visual,1,[],"['1', '2', '3', '4']",1,2023.2.3,harveyvisual,2.1,[],8,0.75,
0,pause,0.4,None,None,None,0,7,7,7,,,,,,,,,,,,,D001,visual,1,[],"['1', '2', '3', '4']",1,2023.2.3,harveyvisual,2.1,[],8,0.75,
1,dot,0.3,['dot'],['density'],black,0,8,8,8,,,5.200227975845337,4.90839409828186,5.208384037017822,dot,[0.08],"[0.1049869166116724, 0.1335000464341748]",density,black,,,D001,visual,1,[],"['1', '2', '3', '4']",1,2023.2.3,harveyvisual,2.1,[],8,0.75,
0,pause,0.4,None,None,None,0,9,9,9,,,,,,,,,,,,,D001,visual,1,[],"['1', '2', '3', '4']",1,2023.2.3,harveyvisual,2.1,[],8,0.75,
1,dot,0.3,['dot'],['density'],black,0,10,10,10,,,5.900219917297363,5.608342885971069,5.9104859828948975,dot,[0.1],"[0.2830289625583117, -0.03026882548871228]",density,black,,,D001,visual,1,[],"['1', '2', '3', '4']",1,2023.2.3,harveyvisual,2.1,[],8,0.75,
0,pause,0.4,None,None,None,0,11,11,11,,,,,,,,,,,,,D001,visual,1,[],"['1', '2', '3', '4']",1,2023.2.3,harveyvisual,2.1,[],8,0.75,
2,dot,0.3,['dot'],['density'],black,0,12,12,12,,,6.600227117538452,6.310421943664551,6.610383987426758,dot,"[0.06, 0.08]","[[0.2713647219188039, -0.029235290058335472], [0.46697437826705046, 0.014145112521712659]]",density,black,,,D001,visual,1,[],"['1', '2', '3', '4']",1,2023.2.3,harveyvisual,2.1,[],8,0.75,
0,pause,0.4,None,None,None,0,13,13,13,,,,,,,,,,,,,D001,visual,1,[],"['1', '2', '3', '4']",1,2023.2.3,harveyvisual,2.1,[],8,0.75,
2,dot,0.3,['dot'],['density'],black,0,14,14,14,,,7.300220012664795,7.010411977767944,7.310409069061279,dot,"[0.08, 0.06]","[[0.500151128333041, 0.1656925720118866], [0.3771979967144504, 0.3235340638115745]]",density,black,,,D001,visual,1,[],"['1', '2', '3', '4']",1,2023.2.3,harveyvisual,2.1,[],8,0.75,
0,pause,0.4,None,None,None,0,15,15,15,,,,,,,,,,,,,D001,visual,1,[],"['1', '2', '3', '4']",1,2023.2.3,harveyvisual,2.1,[],8,0.75,
2,dot,0.3,['dot'],['density'],black,0,16,16,16,,,8.000201940536499,7.710381984710693,8.010396003723145,dot,"[0.1, 0.06]","[[0.3859848860398513, -0.03650274153894256], [0.5613034441480618, 0.06134992989862206]]",density,black,,,D001,visual,1,[],"['1', '2', '3', '4']",1,2023.2.3,harveyvisual,2.1,[],8,0.75,
0,pause,0.4,None,None,None,0,17,17,17,,,,,,,,,,,,,D001,visual,1,[],"['1', '2', '3', '4']",1,2023.2.3,harveyvisual,2.1,[],8,0.75,
2,dot,0.3,['dot'],['density'],black,0,18,18,18,,,8.700216054916382,8.410377979278564,8.710402965545654,dot,"[0.08, 0.08]","[[-0.19266755722762574, -0.036106715323925336], [-0.096675332858716, 0.13967695308521302]]",density,black,,,D001,visual,1,[],"['1', '2', '3', '4']",1,2023.2.3,harveyvisual,2.1,[],8,0.75,
0,pause,0.4,None,None,None,0,19,19,19,,,,,,,,,,,,,D001,visual,1,[],"['1', '2', '3', '4']",1,2023.2.3,harveyvisual,2.1,[],8,0.75,
2,dot,0.3,['dot'],['density'],black,0,20,20,20,,,9.400202989578247,9.110384941101074,9.410384893417358,dot,"[0.06, 0.06]","[[-0.15001882639889116, 0.48719053997247297], [-0.1736568080125972, 0.28835755901726084]]",density,black,,,D001,visual,1,[],"['1', '2', '3', '4']",1,2023.2.3,harveyvisual,2.1,[],8,0.75,
0,pause,0.4,None,None,None,0,21,21,21,,,,,,,,,,,,,D001,visual,1,[],"['1', '2', '3', '4']",1,2023.2.3,harveyvisual,2.1,[],8,0.75,
2,dot,0.3,['dot'],['density'],black,0,22,22,22,,,10.10021710395813,9.81037712097168,10.110388994216919,dot,"[0.06, 0.1]","[[-0.2277318593301165, -0.35289300204507235], [-0.09400723608355734, -0.20388512549033708]]",density,black,,,D001,visual,1,[],"['1', '2', '3', '4']",1,2023.2.3,harveyvisual,2.1,[],8,0.75,
0,pause,0.4,None,None,None,0,23,23,23,,,,,,,,,,,,,D001,visual,1,[],"['1', '2', '3', '4']",1,2023.2.3,harveyvisual,2.1,[],8,0.75,
3,dot,0.3,['dot'],['density'],black,0,24,24,24,,,10.80023193359375,10.510376930236816,10.81030797958374,dot,"[0.06, 0.06, 0.06]","[[-0.32034981165049564, 0.18083778238314796], [-0.3344619052850136, -0.04022521570367012], [-0.13485517643248812, 0.10330846540140716]]",density,black,,,D001,visual,1,[],"['1', '2', '3', '4']",1,2023.2.3,harveyvisual,2.1,[],8,0.75,
0,pause,0.4,None,None,None,0,25,25,25,,,,,,,,,,,,,D001,visual,1,[],"['1', '2', '3', '4']",1,2023.2.3,harveyvisual,2.1,[],8,0.75,
3,dot,0.3,['dot'],['density'],black,0,26,26,26,,,11.500229120254517,11.210541009902954,11.510319948196411,dot,"[0.1, 0.08, 0.1]","[[0.3835821938049364, -0.20766469641190155], [0.321707527308891, -0.4175939354614905], [0.1897943789354585, -0.2642367600490923]]",density,black,,,D001,visual,1,[],"['1', '2', '3', '4']",1,2023.2.3,harveyvisual,2.1,[],8,0.75,
0,pause,0.4,None,None,None,0,27,27,27,,,,,,,,,,,,,D001,visual,1,[],"['1', '2', '3', '4']",1,2023.2.3,harveyvisual,2.1,[],8,0.75,
3,dot,0.3,['dot'],['density'],black,0,28,28,28,,,12.200203895568848,11.910269021987915,12.210248947143555,dot,"[0.1, 0.1, 0.06]","[[-0.5649268285189266, -0.02945458741690218], [-0.36332336008090005, 0.05160617148840915], [-0.5004673786076542, 0.20230308468415367]]",density,black,,,D001,visual,1,[],"['1', '2', '3', '4']",1,2023.2.3,harveyvisual,2.1,[],8,0.75,
0,pause,0.4,None,None,None,0,29,29,29,,,,,,,,,,,,,D001,visual,1,[],"['1', '2', '3', '4']",1,2023.2.3,harveyvisual,2.1,[],8,0.75,
3,dot,0.3,['dot'],['density'],white,0,30,30,30,,,12.900207996368408,12.610266923904419,12.910242080688477,dot,"[0.06, 0.08, 0.1]","[[0.4290032298944087, 0.1407520187648592], [0.22848299553954127, 0.06362144779139585], [0.3595680574788582, -0.09433362503040832]]",density,white,,,D001,visual,1,[],"['1', '2', '3', '4']",1,2023.2.3,harveyvisual,2.1,[],8,0.75,
0,pause,0.4,None,None,None,0,31,31,31,,,,,,,,,,,1,12.990484952926636,D001,visual,1,[],"['1', '2', '3', '4']",1,2023.2.3,harveyvisual,2.1,[],8,0.75,
3,dot,0.3,['dot'],['density'],white,0,32,32,32,,,13.600214958190918,13.31024694442749,13.610233068466187,dot,"[0.1, 0.06, 0.08]","[[-0.5649268285189266, -0.02945458741690218], [-0.36332336008090005, 0.05160617148840915], [-0.5004673786076542, 0.20230308468415367]]",density,white,,,D001,visual,1,[],"['1', '2', '3', '4']",1,2023.2.3,harveyvisual,2.1,[],8,0.75,
0,pause,0.4,None,None,None,0,33,33,33,,,,,,,,,,,1,13.643610954284668,D001,visual,1,[],"['1', '2', '3', '4']",1,2023.2.3,harveyvisual,2.1,[],8,0.75,
3,dot,0.3,['dot'],['density'],black,0,34,34,34,,,14.300225019454956,14.010221004486084,14.31019902229309,dot,"[0.1, 0.1, 0.06]","[[-0.1591938184585166, 0.2573970255855866], [-0.049574382916532336, 0.44031337398050124], [0.08264166875933507, 0.262381570646859]]",density,black,,,D001,visual,1,[],"['1', '2', '3', '4']",1,2023.2.3,harveyvisual,2.1,[],8,0.75,
0,pause,0.4,None,None,None,0,35,35,35,,,,,,,,,,,,,D001,visual,1,[],"['1', '2', '3', '4']",1,2023.2.3,harveyvisual,2.1,[],8,0.75,
4,dot,0.3,['dot'],['density'],black,0,36,36,36,,,15.00020694732666,14.710289001464844,15.010200023651123,dot,"[0.08, 0.1, 0.1, 0.06]","[[0.3510671072586959, 0.39105757673094776], [0.13754249634966464, 0.24690230999823115], [0.2791454519284172, 0.028997379515453933], [0.42442503262497266, 0.18132357243737673]]",density,black,,,D001,visual,1,[],"['1', '2', '3', '4']",1,2023.2.3,harveyvisual,2.1,[],8,0.75,
0,pause,0.4,None,None,None,0,37,37,37,,,,,,,,,,,,,D001,visual,1,[],"['1', '2', '3', '4']",1,2023.2.3,harveyvisual,2.1,[],8,0.75,
4,dot,0.3,['dot'],['density'],black,0,38,38,38,,,15.700210094451904,15.410223960876465,15.710231065750122,dot,"[0.08, 0.06, 0.1, 0.1]","[[0.06241226843583792, -0.3147100539198924], [0.2553405417111816, -0.24584579293690137], [0.0027514156828475403, -0.09786489187307437], [0.1660279615748852, 0.026007470517245626]]",density,black,,,D001,visual,1,[],"['1', '2', '3', '4']",1,2023.2.3,harveyvisual,2.1,[],8,0.75,
0,pause,0.4,None,None,None,0,39,39,39,,,,,,,,,,,,,D001,visual,1,[],"['1', '2', '3', '4']",1,2023.2.3,harveyvisual,2.1,[],8,0.75,
4,dot,0.3,['dot'],['density'],black,0,40,40,40,,,16.40020990371704,16.110400915145874,16.410152912139893,dot,"[0.1, 0.06, 0.08, 0.08]","[[-0.24231220575667195, -0.22966258239168486], [-0.5136420973432148, -0.13696856920477488], [-0.4300726721285167, 0.13088957628356482], [-0.3148289313469241, -0.03851715211982174]]",density,black,,,D001,visual,1,[],"['1', '2', '3', '4']",1,2023.2.3,harveyvisual,2.1,[],8,0.75,
0,pause,0.4,None,None,None,0,41,41,41,,,,,,,,,,,,,D001,visual,1,[],"['1', '2', '3', '4']",1,2023.2.3,harveyvisual,2.1,[],8,0.75,
4,dot,0.3,['dot'],['density'],black,0,42,42,42,,,17.100224018096924,16.81013011932373,17.11015009880066,dot,"[0.06, 0.08, 0.06, 0.06]","[[-0.22711054503220823, -0.5144049053218714], [-0.016307770745122817, -0.5558659767831347], [-0.26432457165568224, -0.2824025039497699], [-0.026303944553407815, -0.34464361634901186]]",density,black,,,D001,visual,1,[],"['1', '2', '3', '4']",1,2023.2.3,harveyvisual,2.1,[],8,0.75,
0,pause,0.4,None,None,None,0,43,43,43,,,,,,,,,,,,,D001,visual,1,[],"['1', '2', '3', '4']",1,2023.2.3,harveyvisual,2.1,[],8,0.75,
4,dot,0.3,['dot'],['density'],black,0,44,44,44,,,17.800215005874634,17.510133028030396,17.810091972351074,dot,"[0.06, 0.08, 0.06, 0.1]","[[0.14909032788103166, -0.4768554918693636], [0.26071220381864263, -0.20018841858473793], [0.02634252458519163, -0.30967292471165575], [0.3541358554053611, -0.43808560323820217]]",density,black,,,D001,visual,1,[],"['1', '2', '3', '4']",1,2023.2.3,harveyvisual,2.1,[],8,0.75,
0,pause,0.4,None,None,None,0,45,45,45,,,,,,,,,,,,,D001,visual,1,[],"['1', '2', '3', '4']",1,2023.2.3,harveyvisual,2.1,[],8,0.75,
4,dot,0.3,['dot'],['density'],black,0,46,46,46,,,18.50021004676819,18.210103034973145,18.51116394996643,dot,"[0.06, 0.08, 0.08, 0.08]","[[0.2593869086993074, -0.26887741013308497], [0.09674879007849839, -0.39609983087723066], [-0.011093693993988496, -0.14004324908426333], [0.28630805459639813, -0.4681830009867555]]",density,black,,,D001,visual,1,[],"['1', '2', '3', '4']",1,2023.2.3,harveyvisual,2.1,[],8,0.75,
0,pause,0.4,None,None,None,0,47,47,47,,,,,,,,,,,,,D001,visual,1,[],"['1', '2', '3', '4']",1,2023.2.3,harveyvisual,2.1,[],8,0.75,
5,dot,0.3,['dot'],['density'],black,0,48,48,48,,,19.200220108032227,18.9101140499115,19.21022891998291,dot,"[0.1, 0.08, 0.1, 0.06, 0.08]","[[-0.3632963637400461, -0.33792544526642676], [-0.48189922448633543, -0.036156829306921726], [-0.2958020468624338, 0.07292024124872273], [-0.10639492237515816, -0.0008972940205680791], [-0.20818262001932955, -0.17666930306052683]]",density,black,,,D001,visual,1,[],"['1', '2', '3', '4']",1,2023.2.3,harveyvisual,2.1,[],8,0.75,
0,pause,0.4,None,None,None,0,49,49,49,,,,,,,,,,,,,D001,visual,1,[],"['1', '2', '3', '4']",1,2023.2.3,harveyvisual,2.1,[],8,0.75,
5,dot,0.3,['dot'],['density'],black,0,50,50,50,,,19.90023398399353,19.610218048095703,19.910212993621826,dot,"[0.06, 0.06, 0.1, 0.08, 0.1]","[[-0.07969108163070573, 0.258241044050758], [-0.3301768112222262, 0.22562982972330062], [-0.16453040906828167, -0.1622271318141552], [-0.21753854086321037, 0.04365873274764029], [0.030347216865940038, 0.07834852794011457]]",density,black,,,D001,visual,1,[],"['1', '2', '3', '4']",1,2023.2.3,harveyvisual,2.1,[],8,0.75,
0,pause,0.4,None,None,None,0,51,51,51,,,,,,,,,,,,,D001,visual,1,[],"['1', '2', '3', '4']",1,2023.2.3,harveyvisual,2.1,[],8,0.75,
5,dot,0.3,['dot'],['density'],white,0,52,52,52,,,20.60022211074829,20.310051918029785,20.61004900932312,dot,"[0.08, 0.1, 0.06, 0.08, 0.1]","[[-0.26965218803342234, -0.06061691990321757], [-0.44412238708790114, -0.1605793459593267], [-0.2738608688716076, -0.33598391440877745], [-0.06160694910013377, -0.19463283807086704], [-0.16469008497891707, 0.13324638745272324]]",density,white,,,D001,visual,1,[],"['1', '2', '3', '4']",1,2023.2.3,harveyvisual,2.1,[],8,0.75,
0,pause,0.4,None,None,None,0,53,53,53,,,,,,,,,,,1,20.6214439868927,D001,visual,1,[],"['1', '2', '3', '4']",1,2023.2.3,harveyvisual,2.1,[],8,0.75,
5,dot,0.3,['dot'],['density'],black,0,54,54,54,,,21.300216913223267,21.010008096694946,21.31004500389099,dot,"[0.1, 0.06, 0.08, 0.06, 0.08]","[[-0.0036269740154891753, 0.5431219823242713], [-0.2646325594942043, 0.5073179604697073], [-0.41902475937036154, 0.37311436690984484], [-0.007163214206743488, 0.2887893175302695], [-0.2156098228659233, 0.2684642371109035]]",density,black,,,D001,visual,1,[],"['1', '2', '3', '4']",1,2023.2.3,harveyvisual,2.1,[],8,0.75,
0,pause,0.4,None,None,None,0,55,55,55,,,,,,,,,,,,,D001,visual,1,[],"['1', '2', '3', '4']",1,2023.2.3,harveyvisual,2.1,[],8,0.75,
5,dot,0.3,['dot'],['density'],black,0,56,56,56,,,22.00023102760315,21.71003794670105,22.00998592376709,dot,"[0.08, 0.06, 0.1, 0.1, 0.06]","[[0.4409169755572007, 0.017856988789309493], [0.10933872532765951, -0.20637645515835812], [0.27728831588229885, 0.198954967346464], [0.3100556643305453, -0.16532657838491105], [0.11148968869271939, 0.006469487304542018]]",density,black,,,D001,visual,1,[],"['1', '2', '3', '4']",1,2023.2.3,harveyvisual,2.1,[],8,0.75,
0,pause,0.4,None,None,None,0,57,57,57,,,,,,,,,,,,,D001,visual,1,[],"['1', '2', '3', '4']",1,2023.2.3,harveyvisual,2.1,[],8,0.75,
5,dot,0.3,['dot'],['density'],black,0,58,58,58,,,22.700210094451904,22.41013193130493,22.71007490158081,dot,"[0.06, 0.06, 0.06, 0.08, 0.08]","[[0.07471778162596296, -0.10525453490666745], [0.30258431325283514, -0.18125951612401361], [-0.10797831538154114, 0.025200229490558432], [0.07898181201564736, 0.11749757771993925], [0.31731369449760916, 0.032388289652815004]]",density,black,,,D001,visual,1,[],"['1', '2', '3', '4']",1,2023.2.3,harveyvisual,2.1,[],8,0.75,
0,pause,0.4,None,None,None,0,59,59,59,,,,,,,,,,,,,D001,visual,1,[],"['1', '2', '3', '4']",1,2023.2.3,harveyvisual,2.1,[],8,0.75,
6,dot,0.3,['dot'],['density'],black,0,60,60,60,,,23.400208950042725,23.10997200012207,23.409982919692993,dot,"[0.08, 0.06, 0.1, 0.08, 0.06, 0.1]","[[-0.4718675517483807, -0.080313523620691], [-0.31247550484642445, -0.23218356379105512], [-0.2575593735283343, 0.24158811959194182], [-0.2948669609652105, 0.017652028830845004], [-0.0883702388727292, 0.027494606567874856], [-0.45154527444290743, 0.17691331155056722]]",density,black,,,D001,visual,1,[],"['1', '2', '3', '4']",1,2023.2.3,harveyvisual,2.1,[],8,0.75,
0,pause,0.4,None,None,None,0,61,61,61,,,,,,,,,,,,,D001,visual,1,[],"['1', '2', '3', '4']",1,2023.2.3,harveyvisual,2.1,[],8,0.75,
6,dot,0.3,['dot'],['density'],black,0,62,62,62,,,24.100219011306763,23.81003189086914,24.110016107559204,dot,"[0.08, 0.08, 0.1, 0.08, 0.08, 0.06]","[[0.500827999951601, -0.23304028533624072], [0.20916386845998064, 0.08030245107060778], [0.27809793757338463, -0.1905950399710685], [0.08327260932553728, -0.13599284299194644], [0.16768982653485215, -0.38480252821003114], [0.4174962964646186, 0.01069632702004041]]",density,black,,,D001,visual,1,[],"['1', '2', '3', '4']",1,2023.2.3,harveyvisual,2.1,[],8,0.75,
0,pause,0.4,None,None,None,0,63,63,63,,,,,,,,,,,,,D001,visual,1,[],"['1', '2', '3', '4']",1,2023.2.3,harveyvisual,2.1,[],8,0.75,
6,dot,0.3,['dot'],['density'],white,0,64,64,64,,,24.800216913223267,24.50996494293213,24.809932947158813,dot,"[0.1, 0.06, 0.06, 0.1, 0.08, 0.08]","[[-0.5416753121247185, 0.020803147184574915], [-0.3232269173664433, -0.07161231053200118], [-0.3008479376061402, -0.286480119217458], [-0.22299540496279888, 0.12470258063391813], [-0.10776740766186912, -0.19554033341247495], [-0.5165544979209102, -0.21376225914528924]]",density,white,,,D001,visual,1,[],"['1', '2', '3', '4']",1,2023.2.3,harveyvisual,2.1,[],8,0.75,
0,pause,0.4,None,None,None,0,65,65,65,,,,,,,,,,,1,24.888956785202026,D001,visual,1,[],"['1', '2', '3', '4']",1,2023.2.3,harveyvisual,2.1,[],8,0.75,
6,dot,0.3,['dot'],['density'],black,0,66,66,66,,,25.500211000442505,25.209950923919678,25.509934902191162,dot,"[0.06, 0.1, 0.08, 0.08, 0.08, 0.08]","[[-0.2715212558254698, 0.2586056842756752], [-0.41011716394998093, -0.23288273174477314], [-0.4259032553852052, 0.02963770343160952], [-0.037696467485790364, -0.07921729390734374], [-0.19058944014171011, 0.07565381115733183], [-0.22931220879523878, -0.14417898787482208]]",density,black,,,D001,visual,1,[],"['1', '2', '3', '4']",1,2023.2.3,harveyvisual,2.1,[],8,0.75,
0,pause,0.4,None,None,None,0,67,67,67,,,,,,,,,,,,,D001,visual,1,[],"['1', '2', '3', '4']",1,2023.2.3,harveyvisual,2.1,[],8,0.75,
6,dot,0.3,['dot'],['density'],black,0,68,68,68,,,26.200231075286865,25.909955978393555,26.209922075271606,dot,"[0.08, 0.06, 0.1, 0.06, 0.06, 0.08]","[[0.3299424372810393, 0.4114780133894161], [0.051944887288218326, -0.03233758374135307], [0.4337222981537534, -0.07578498258626121], [0.10477943773033714, 0.1703675017914044], [0.3400878522727408, 0.20016066552806494], [0.2510029109880425, 0.01747244452819591]]",density,black,,,D001,visual,1,[],"['1', '2', '3', '4']",1,2023.2.3,harveyvisual,2.1,[],8,0.75,
0,pause,0.4,None,None,None,0,69,69,69,,,,,,,,,,,,,D001,visual,1,[],"['1', '2', '3', '4']",1,2023.2.3,harveyvisual,2.1,[],8,0.75,
6,dot,0.3,['dot'],['density'],black,0,70,70,70,,,26.900216102600098,26.609915018081665,26.909900903701782,dot,"[0.06, 0.08, 0.06, 0.06, 0.06, 0.08]","[[-0.5416753121247185, 0.020803147184574915], [-0.3232269173664433, -0.07161231053200118], [-0.3008479376061402, -0.286480119217458], [-0.22299540496279888, 0.12470258063391813], [-0.10776740766186912, -0.19554033341247495], [-0.5165544979209102, -0.21376225914528924]]",density,black,,,D001,visual,1,[],"['1', '2', '3', '4']",1,2023.2.3,harveyvisual,2.1,[],8,0.75,
0,pause,0.4,None,None,None,0,71,71,71,,,,,,,,,,,,,D001,visual,1,[],"['1', '2', '3', '4']",1,2023.2.3,harveyvisual,2.1,[],8,0.75,
7,dot,0.3,['dot'],['density'],black,0,72,72,72,,,27.600219011306763,27.309881925582886,27.60988211631775,dot,"[0.1, 0.1, 0.08, 0.06, 0.06, 0.08, 0.08]","[[0.3474653327129969, -0.31878285251617694], [0.04167069501601444, -0.04495125607964222], [-0.05005146056072613, -0.501422524998621], [-0.11295401278341419, -0.30095052262615135], [0.08710344590613708, -0.2932726077696002], [0.25592372840254046, -0.13825923460737455], [-0.15770825932276006, -0.07757053521742455]]",density,black,,,D001,visual,1,[],"['1', '2', '3', '4']",1,2023.2.3,harveyvisual,2.1,[],8,0.75,
0,pause,0.4,None,None,None,0,73,73,73,,,,,,,,,,,,,D001,visual,1,[],"['1', '2', '3', '4']",1,2023.2.3,harveyvisual,2.1,[],8,0.75,
7,dot,0.3,['dot'],['density'],black,0,74,74,74,,,28.300235986709595,28.00987410545349,28.309866905212402,dot,"[0.1, 0.06, 0.08, 0.06, 0.06, 0.06, 0.1]","[[0.27964692832129656, -0.15500474148311624], [0.48019533028943556, 0.09933774746227163], [0.08203545767143021, 0.28019381302663365], [0.05572057582720619, -0.1426303369841539], [0.31711281236335803, 0.2944831276535668], [-0.041479771322150735, 0.11885700406191958], [0.21045310206912196, 0.07075003364957701]]",density,black,,,D001,visual,1,[],"['1', '2', '3', '4']",1,2023.2.3,harveyvisual,2.1,[],8,0.75,
0,pause,0.4,None,None,None,0,75,75,75,,,,,,,,,,,,,D001,visual,1,[],"['1', '2', '3', '4']",1,2023.2.3,harveyvisual,2.1,[],8,0.75,
7,dot,0.3,['dot'],['density'],black,0,76,76,76,,,29.000219106674194,28.709887981414795,29.00988006591797,dot,"[0.06, 0.1, 0.06, 0.1, 0.1, 0.06, 0.08]","[[-0.2314520007693297, 0.33838000150240727], [-0.18132207761103206, 0.5552670473927488], [0.017458222085991553, 0.32213086183097556], [0.10538257653630445, 0.5364165263315271], [-0.32661765694444117, 0.13553859080651098], [0.2001110614088519, 0.2352342526365964], [-0.07707990285528175, 0.1388757586163816]]",density,black,,,D001,visual,1,[],"['1', '2', '3', '4']",1,2023.2.3,harveyvisual,2.1,[],8,0.75,
0,pause,0.4,None,None,None,0,77,77,77,,,,,,,,,,,,,D001,visual,1,[],"['1', '2', '3', '4']",1,2023.2.3,harveyvisual,2.1,[],8,0.75,
7,dot,0.3,['dot'],['density'],white,0,78,78,78,,,29.700221061706543,29.409998893737793,29.70983099937439,dot,"[0.1, 0.08, 0.1, 0.08, 0.1, 0.08, 0.1]","[[-0.2822174821233986, 0.002117056236134186], [-0.10673242512413421, 0.4781556216085482], [-0.18432519539246728, 0.19072201575640843], [-0.4524596318479574, 0.13966285650530724], [0.06907010423411483, 0.2912708813513049], [-0.07412436007020941, -0.021022205933558278], [-0.3208835015251209, 0.3986768431743725]]",density,white,,,D001,visual,1,[],"['1', '2', '3', '4']",1,2023.2.3,harveyvisual,2.1,[],8,0.75,
0,pause,0.4,None,None,None,0,79,79,79,,,,,,,,,,,1,29.83961296081543,D001,visual,1,[],"['1', '2', '3', '4']",1,2023.2.3,harveyvisual,2.1,[],8,0.75,
7,dot,0.3,['dot'],['density'],black,0,80,80,80,,,30.400219917297363,30.10996699333191,30.409847021102905,dot,"[0.1, 0.08, 0.08, 0.08, 0.08, 0.08, 0.06]","[[-0.3242652666020733, -0.24505345323409705], [-0.563286395470885, 0.11160295583497896], [-0.1647097641571906, 0.12111961656459011], [-0.36052488434271157, 0.18805397786199418], [-0.09510517377503278, -0.06720219285628748], [-0.3867432997129629, -0.05120750304069932], [-0.32798962767594847, 0.38554234766764234]]",density,black,,,D001,visual,1,[],"['1', '2', '3', '4']",1,2023.2.3,harveyvisual,2.1,[],8,0.75,
0,pause,0.4,None,None,None,0,81,81,81,,,,,,,,,,,,,D001,visual,1,[],"['1', '2', '3', '4']",1,2023.2.3,harveyvisual,2.1,[],8,0.75,
7,dot,0.3,['dot'],['density'],black,0,82,82,82,,,31.10023307800293,30.809783935546875,31.109764099121094,dot,"[0.1, 0.1, 0.06, 0.1, 0.1, 0.1, 0.06]","[[0.27964692832129656, -0.15500474148311624], [0.48019533028943556, 0.09933774746227163], [0.08203545767143021, 0.28019381302663365], [0.05572057582720619, -0.1426303369841539], [0.31711281236335803, 0.2944831276535668], [-0.041479771322150735, 0.11885700406191958], [0.21045310206912196, 0.07075003364957701]]",density,black,,,D001,visual,1,[],"['1', '2', '3', '4']",1,2023.2.3,harveyvisual,2.1,[],8,0.75,
0,pause,0.4,None,None,None,0,83,83,83,,,,,,,,,,,,,D001,visual,1,[],"['1', '2', '3', '4']",1,2023.2.3,harveyvisual,2.1,[],8,0.75,
8,dot,0.3,['dot'],['density'],black,0,84,84,84,,,31.800216913223267,31.509793996810913,31.80980896949768,dot,"[0.08, 0.08, 0.06, 0.1, 0.06, 0.1, 0.06, 0.06]","[[0.28112832868380594, 0.3075763237432237], [-0.21381995858864508, 0.197554992839043], [0.14035436555963224, -0.1470740351963634], [-0.04856350071149823, -0.017306043905309515], [0.12070301707556046, 0.11279463428917226], [0.35236156425888765, 0.046198621115284964], [-0.012223412543992913, 0.3265760435025566], [0.11745206869397669, 0.49408919182137495]]",density,black,,,D001,visual,1,[],"['1', '2', '3', '4']",1,2023.2.3,harveyvisual,2.1,[],8,0.75,
0,pause,0.4,None,None,None,0,85,85,85,,,,,,,,,,,,,D001,visual,1,[],"['1', '2', '3', '4']",1,2023.2.3,harveyvisual,2.1,[],8,0.75,
8,dot,0.3,['dot'],['density'],black,0,86,86,86,,,32.50021409988403,32.209924936294556,32.509907960891724,dot,"[0.1, 0.1, 0.06, 0.1, 0.08, 0.1, 0.1, 0.06]","[[0.43039348711459674, -0.2176132953198537], [0.11499515674856413, 0.2899266495440316], [0.12808102003139596, -0.009244067984354065], [-0.030386771168905473, -0.2551920291624523], [0.3118809155168881, 0.2081403981228026], [-0.06282563634610334, 0.11114412413027695], [0.22944900542930163, -0.23921835558115082], [0.33219925311336224, 0.0035410395788749187]]",density,black,,,D001,visual,1,[],"['1', '2', '3', '4']",1,2023.2.3,harveyvisual,2.1,[],8,0.75,
0,pause,0.4,None,None,None,0,87,87,87,,,,,,,,,,,,,D001,visual,1,[],"['1', '2', '3', '4']",1,2023.2.3,harveyvisual,2.1,[],8,0.75,
8,dot,0.3,['dot'],['density'],black,0,88,88,88,,,33.20020604133606,32.90979290008545,33.20975303649902,dot,"[0.1, 0.1, 0.1, 0.1, 0.08, 0.08, 0.08, 0.1]","[[-0.3306282708070712, -0.09459634407206743], [0.17708038186302957, -0.36794437316098305], [-0.34368294577136044, -0.39688855169369486], [-0.16397220561896333, 0.03033928826277653], [-0.08476975953586025, -0.41834960305423746], [-0.16765121495786453, -0.2265743681515788], [0.0449590487082352, -0.10546915507075137], [-0.5574709661459258, -0.15664368712912546]]",density,black,,,D001,visual,1,[],"['1', '2', '3', '4']",1,2023.2.3,harveyvisual,2.1,[],8,0.75,
0,pause,0.4,None,None,None,0,89,89,89,,,,,,,,,,,,,D001,visual,1,[],"['1', '2', '3', '4']",1,2023.2.3,harveyvisual,2.1,[],8,0.75,
8,dot,0.3,['dot'],['density'],black,0,90,90,90,,,33.90022301673889,33.60970497131348,33.909696102142334,dot,"[0.06, 0.06, 0.1, 0.06, 0.08, 0.08, 0.1, 0.06]","[[-0.17382250058115215, 0.008030820220576582], [-0.5561520679887834, 0.09064024109159684], [-0.2322770524578434, -0.18818443710846813], [-0.41357291590276396, -0.2905316508268561], [-0.37423053416790164, -0.04064357687765813], [-0.014699175284411378, 0.15059198662288528], [-0.015485985535575739, -0.1348843831724925], [-0.36639977644872057, 0.228205681233079]]",density,black,,,D001,visual,1,[],"['1', '2', '3', '4']",1,2023.2.3,harveyvisual,2.1,[],8,0.75,
0,pause,0.4,None,None,None,0,91,91,91,,,,,,,,,,,,,D001,visual,1,[],"['1', '2', '3', '4']",1,2023.2.3,harveyvisual,2.1,[],8,0.75,
8,dot,0.3,['dot'],['density'],black,0,92,92,92,,,34.60022711753845,34.30970311164856,34.60968899726868,dot,"[0.1, 0.1, 0.1, 0.08, 0.06, 0.1, 0.08, 0.06]","[[-0.19469543066458847, -0.326291241472255], [0.30343637985980976, -0.10925869102227477], [-0.1969922581528186, -0.11664339975312436], [0.2570255161168456, -0.3247060146943647], [0.10684135558856425, -0.18174565546534566], [0.03482742583321104, -0.4893606045609451], [-0.015658395544436696, -0.0001692298399926468], [0.11980560642279467, 0.15585563517441894]]",density,black,,,D001,visual,1,[],"['1', '2', '3', '4']",1,2023.2.3,harveyvisual,2.1,[],8,0.75,
0,pause,0.4,None,None,None,0,93,93,93,,,,,,,,,,,,,D001,visual,1,[],"['1', '2', '3', '4']",1,2023.2.3,harveyvisual,2.1,[],8,0.75,
8,dot,0.3,['dot'],['density'],black,0,94,94,94,,,35.300206899642944,35.00974106788635,35.30966591835022,dot,"[0.06, 0.1, 0.06, 0.1, 0.08, 0.1, 0.1, 0.08]","[[-0.17001050475317317, -0.17367687575201368], [0.3600613666554234, 0.010096468830953859], [-0.08326222131596324, 0.04242117989324811], [0.04296950773068638, 0.29875887990525135], [0.04919814700692566, -0.23206276490508926], [0.2733682510361541, 0.19343137942482672], [0.15974695196996483, -0.02827404827190698], [-0.2919014881818027, 0.0006738684867251376]]",density,black,,,D001,visual,1,[],"['1', '2', '3', '4']",1,2023.2.3,harveyvisual,2.1,[],8,0.75,
0,pause,0.4,None,None,None,0,95,95,95,,,,,,,,,,,,,D001,visual,1,[],"['1', '2', '3', '4']",1,2023.2.3,harveyvisual,2.1,[],8,0.75,
9,dot,0.3,['dot'],['density'],black,0,96,96,96,,,36.000221967697144,35.709656953811646,36.00963997840881,dot,"[0.1, 0.1, 0.06, 0.08, 0.08, 0.06, 0.1, 0.08, 0.06]","[[0.31750259908069645, 0.09103062301409195], [-0.10814993995151222, -0.14883262012051235], [0.2615101699546999, -0.13245952524223892], [0.014531427323725789, 0.3887544696515085], [-0.1117096847062306, 0.09593752649312724], [0.07810272484559946, -0.019955638642360052], [-0.26173373106631487, 0.2840804484106463], [0.4370020372247476, 0.2669512546191977], [0.11115841416421544, 0.18722161068425575]]",density,black,,,D001,visual,1,[],"['1', '2', '3', '4']",1,2023.2.3,harveyvisual,2.1,[],8,0.75,
0,pause,0.4,None,None,None,0,97,97,97,,,,,,,,,,,,,D001,visual,1,[],"['1', '2', '3', '4']",1,2023.2.3,harveyvisual,2.1,[],8,0.75,
9,dot,0.3,['dot'],['density'],black,0,98,98,98,,,36.70022010803223,36.409624099731445,36.70961403846741,dot,"[0.1, 0.08, 0.06, 0.06, 0.08, 0.08, 0.08, 0.08, 0.08]","[[-0.08858128315591524, -0.3480052213079807], [0.37291707470974605, -0.0809562497479422], [-0.04311872097798103, 0.23152249840731254], [0.1734412630875083, -0.16491363602164627], [-0.024044713080900382, -0.04824256513196188], [0.126438571592319, 0.09122014985587756], [-0.2168202887682383, 0.11190421567656858], [-0.23215605484234547, -0.20356583507002532], [0.291417597339289, 0.24351333182926893]]",density,black,,,D001,visual,1,[],"['1', '2', '3', '4']",1,2023.2.3,harveyvisual,2.1,[],8,0.75,
0,pause,0.4,None,None,None,0,99,99,99,,,,,,,,,,,,,D001,visual,1,[],"['1', '2', '3', '4']",1,2023.2.3,harveyvisual,2.1,[],8,0.75,
9,dot,0.3,['dot'],['density'],black,0,100,100,100,,,37.40022397041321,37.10967707633972,37.40961694717407,dot,"[0.06, 0.1, 0.06, 0.1, 0.1, 0.08, 0.06, 0.06, 0.08]","[[0.08305850914464513, -0.5442468290176591], [0.035628337695759515, -0.10623885656661826], [-0.40455734034313895, -0.4103448572564978], [-0.27695520492017833, -0.22921059622728732], [-0.0679181879583315, -0.31282249044743377], [0.15394835823740735, -0.27999833282003045], [0.36545074601266236, -0.2024769979494575], [-0.18616414474285772, -0.004612976462616847], [-0.15152437179077458, -0.5570863580044498]]",density,black,,,D001,visual,1,[],"['1', '2', '3', '4']",1,2023.2.3,harveyvisual,2.1,[],8,0.75,
0,pause,0.4,None,None,None,0,101,101,101,,,,,,,,,,,,,D001,visual,1,[],"['1', '2', '3', '4']",1,2023.2.3,harveyvisual,2.1,[],8,0.75,
9,dot,0.3,['dot'],['density'],white,0,102,102,102,,,38.100208044052124,37.80959892272949,38.109771966934204,dot,"[0.08, 0.06, 0.06, 0.08, 0.08, 0.1, 0.1, 0.06, 0.08]","[[0.005765111513037631, -0.143111035787845], [-0.396275933094447, -0.3321437400526764], [0.037546025436095476, -0.5612590109297682], [-0.23561619682408028, -0.19372599185683617], [-0.24582953746203298, -0.47553838121684505], [-0.07047609790874906, -0.3562711323606942], [-0.09403038697424164, 0.06164574472317626], [0.13577280496850042, -0.3868547356250126], [0.15608206217807025, 0.06264253907795621]]",density,white,,,D001,visual,1,[],"['1', '2', '3', '4']",1,2023.2.3,harveyvisual,2.1,[],8,0.75,
0,pause,0.4,None,None,None,0,103,103,103,,,,,,,,,,,1,38.258877992630005,D001,visual,1,[],"['1', '2', '3', '4']",1,2023.2.3,harveyvisual,2.1,[],8,0.75,
9,dot,0.3,['dot'],['density'],black,0,104,104,104,,,38.800228118896484,38.50976896286011,38.809778928756714,dot,"[0.1, 0.08, 0.1, 0.1, 0.06, 0.08, 0.08, 0.1, 0.06]","[[0.5633060189111645, -0.020447411670609934], [0.24486306384976717, 0.44476630120442473], [0.18428866344346043, -0.051083701103786204], [0.30165572131442664, 0.2239114093385097], [-0.0017431279865323516, 0.11759053127645673], [0.36864926730470376, 0.029118730319846676], [0.08307425003498874, 0.31712463906399285], [0.26393370779995823, -0.24286541122091637], [0.5109425385251136, 0.2557989077594731]]",density,black,,,D001,visual,1,[],"['1', '2', '3', '4']",1,2023.2.3,harveyvisual,2.1,[],8,0.75,
0,pause,0.4,None,None,None,0,105,105,105,,,,,,,,,,,,,D001,visual,1,[],"['1', '2', '3', '4']",1,2023.2.3,harveyvisual,2.1,[],8,0.75,
9,dot,0.3,['dot'],['density'],black,0,106,106,106,,,39.500226974487305,39.20962190628052,39.509613037109375,dot,"[0.1, 0.06, 0.06, 0.08, 0.08, 0.08, 0.1, 0.08, 0.08]","[[-0.15654783233563613, 0.5456880468186037], [-0.24757731968740795, 0.34117179271889175], [0.237608115185398, 0.5379153628426676], [0.0469559873873498, 0.0609843963705915], [0.17872629641391088, 0.30721368784738284], [-0.014663874177430473, 0.385293302856951], [-0.1034840675008618, 0.1993866575147459], [0.37552485507684036, 0.26074226948317425], [-0.1631567374159006, -0.0021534685146951615]]",density,black,,,D001,visual,1,[],"['1', '2', '3', '4']",1,2023.2.3,harveyvisual,2.1,[],8,0.75,
0,pause,0.4,None,None,None,0,107,107,107,,,,,,,,,,,,,D001,visual,1,[],"['1', '2', '3', '4']",1,2023.2.3,harveyvisual,2.1,[],8,0.75,
20,dot,0.3,['dot'],['density'],black,0,108,108,108,,,40.20020890235901,39.926263093948364,40.209726095199585,dot,"[0.1, 0.06, 0.08, 0.08, 0.1, 0.08, 0.08, 0.1, 0.1, 0.06, 0.08, 0.06, 0.08, 0.08, 0.1, 0.06, 0.06, 0.06, 0.08, 0.1]","[[0.32643759249507653, 0.23658758299914107], [-0.485987306003935, 0.011390485932368244], [0.07215360816391247, 0.43160670992143635], [-0.26455521638836754, 0.3509685240162358], [0.2047985992886896, -0.43565738248310193], [-0.2021897359986936, 0.0718087919537792], [-0.5623519977636783, 0.21545672196791094], [0.08308978646604814, -0.15098980920878846], [0.4906132907064854, -0.28711013052708806], [0.5926005814939376, 0.10547520192151079], [-0.4051739462123447, -0.4319595870449037], [0.02332541668543109, 0.18130480786191716], [-0.47048602834616116, -0.2534735542443789], [-0.15569829441237504, -0.35902236871164184], [-0.10797129882247503, -0.5559677350120359], [0.35243413510808996, -0.029441201511255177], [-0.3687747637911838, 0.17611125335305944], [-0.22102397549757724, -0.1597708327541839], [-0.13230771863941182, 0.5872081142246087], [0.34739741253460676, 0.4685138118154513]]",density,black,,,D001,visual,1,[],"['1', '2', '3', '4']",1,2023.2.3,harveyvisual,2.1,[],8,0.75,
0,pause,0.4,None,None,None,0,109,109,109,,,,,,,,,,,,,D001,visual,1,[],"['1', '2', '3', '4']",1,2023.2.3,harveyvisual,2.1,[],8,0.75,
20,dot,0.3,['dot'],['density'],black,0,110,110,110,,,40.90023398399353,40.62637805938721,40.90957188606262,dot,"[0.06, 0.06, 0.08, 0.06, 0.08, 0.1, 0.1, 0.1, 0.06, 0.06, 0.06, 0.1, 0.06, 0.1, 0.06, 0.1, 0.08, 0.08, 0.1, 0.06]","[[-0.4788649041422377, 0.1831722652222168], [-0.6015957847792691, -0.05240840677183482], [0.1549192542098865, -0.12906083825178655], [0.20110083876284146, -0.38806240020544613], [-0.038878970895712794, 0.017231385807087163], [0.11045796472503644, 0.478925943316309], [0.11782765190508182, 0.26146154238079444], [0.3901283916133039, -0.006146727201342295], [-0.21486364222106302, -0.5359960132724606], [-0.16348069118123004, 0.22793681107975694], [-0.17779567519247108, -0.19456126815921548], [-0.49559813074696196, -0.230134559820446], [0.6043926551894366, 0.0031726757236351863], [-0.3115065749929838, 0.3684961907004538], [-0.08657281986963661, 0.5934236105095209], [-0.3020554118455414, 0.03182370991505834], [0.42122548845577323, -0.41521792039627065], [0.4327101765241571, -0.21648909005503472], [0.33572977083639355, 0.2484168966980872], [0.5495697930848268, 0.2270976868539062]]",density,black,,,D001,visual,1,[],"['1', '2', '3', '4']",1,2023.2.3,harveyvisual,2.1,[],8,0.75,
0,pause,0.4,None,None,None,0,111,111,111,,,,,,,,,,,,,D001,visual,1,[],"['1', '2', '3', '4']",1,2023.2.3,harveyvisual,2.1,[],8,0.75,
20,dot,0.3,['dot'],['density'],black,0,112,112,112,,,41.60020709037781,41.32637310028076,41.60954809188843,dot,"[0.1, 0.08, 0.06, 0.1, 0.08, 0.1, 0.08, 0.08, 0.08, 0.1, 0.1, 0.06, 0.08, 0.06, 0.1, 0.1, 0.1, 0.06, 0.06, 0.1]","[[-0.32242243091428113, -0.4021671827768249], [-0.34376840310536466, 0.2594658628345527], [0.08330673803633193, 0.5157982289882264], [0.24988550547487254, -0.023420933008804545], [0.5444429408323336, 0.22797489591050718], [0.26466666119923465, -0.23228903241609294], [-0.17613395211599775, -0.026677937197221446], [0.48477438845819265, -0.10264497052667709], [-0.5481339283018546, -0.07736822979083066], [-0.04644959447877062, -0.17676428097068708], [-0.016163932446385032, -0.4431963814786688], [-0.5563304308732892, 0.16342507679930413], [0.043416368969815156, 0.1620629519368263], [-0.05424644453735472, 0.34436749027229874], [0.22651416691275827, 0.28765902482689476], [0.24467613162783963, -0.4712511380036517], [-0.18638787947960872, 0.5199018628891083], [0.29503595378499226, 0.5240640464498479], [-0.3562572173985051, -0.11942151108794397], [-0.5374789950103782, -0.27352123915940585]]",density,black,,,D001,visual,1,[],"['1', '2', '3', '4']",1,2023.2.3,harveyvisual,2.1,[],8,0.75,
0,pause,0.4,None,None,None,0,113,113,113,,,,,,,,,,,,,D001,visual,1,[],"['1', '2', '3', '4']",1,2023.2.3,harveyvisual,2.1,[],8,0.75,
20,dot,0.3,['dot'],['density'],black,0,114,114,114,,,42.30021095275879,42.02621507644653,42.30953097343445,dot,"[0.06, 0.06, 0.1, 0.06, 0.08, 0.1, 0.1, 0.06, 0.1, 0.1, 0.08, 0.08, 0.1, 0.08, 0.08, 0.06, 0.06, 0.06, 0.1, 0.1]","[[-0.32142569391959536, 0.455519273992799], [0.31006391763718655, 0.13287247546261016], [-0.016320273410897146, -0.4457962331797355], [-0.09777643056409246, 0.4508063168934108], [-0.2687252759275343, 0.12615515395899746], [0.5967250064665256, 0.08326724945514563], [0.35149070952455597, 0.4476298322237983], [0.0018526647056424927, -0.24044693560966662], [-0.001133987320361407, 0.11133775013155245], [-0.5229512800783778, 0.2935755117185981], [0.3301905415246372, -0.18775681842456476], [-0.38422943910711516, -0.11469529691389535], [-0.23328981737462917, -0.2831879214946887], [-0.20156136246022743, -0.5459093659872435], [-0.48149852296099155, -0.3162082191658484], [0.3297402792403462, -0.43718798016184257], [-0.5741411047246925, 0.016860796524207772], [0.11812901845243307, 0.49619524214320443], [0.5759936776208109, -0.13535136244717838], [0.13095720370128738, 0.3050579958691013]]",density,black,,,D001,visual,1,[],"['1', '2', '3', '4']",1,2023.2.3,harveyvisual,2.1,[],8,0.75,
0,pause,0.4,None,None,None,0,115,115,115,,,,,,,,,,,,,D001,visual,1,[],"['1', '2', '3', '4']",1,2023.2.3,harveyvisual,2.1,[],8,0.75,
20,dot,0.3,['dot'],['density'],black,0,116,116,116,,,43.000235080718994,42.72619295120239,43.009511947631836,dot,"[0.08, 0.1, 0.08, 0.06, 0.08, 0.1, 0.08, 0.08, 0.06, 0.06, 0.08, 0.08, 0.1, 0.08, 0.06, 0.1, 0.1, 0.06, 0.1, 0.06]","[[-0.14074399429468937, -0.09166082598283726], [0.07023209277523668, 0.09961770333949371], [0.5161376560776681, -0.189313888361733], [-0.4925842910979307, -0.23513337053602618], [-0.2684776822831129, 0.0910545359952244], [0.27491253967649143, -0.4268901089082341], [0.47215458167026336, 0.15608126011592477], [0.26950417529820514, 0.19244666694545676], [0.0686317133962343, -0.4619654180638224], [0.6048597884047865, -0.0040047387585916625], [0.3798935882358587, 0.4072902789969946], [0.10879834540111766, -0.22747458198456694], [-0.5662500790127124, 0.09987464223596126], [-0.2138793075185932, 0.30498387572423435], [-0.17032655705424377, 0.5017607510484385], [-0.10324556635118887, -0.3203776032649236], [-0.11463264929324307, -0.5915343020393322], [0.043109037723549015, 0.37477913394631135], [-0.32272282454061013, -0.3746067030261031], [0.3340739398464121, -0.09413604081552135]]",density,black,,,D001,visual,1,[],"['1', '2', '3', '4']",1,2023.2.3,harveyvisual,2.1,[],8,0.75,
0,pause,0.4,None,None,None,0,117,117,117,,,,,,,,,,,,,D001,visual,1,[],"['1', '2', '3', '4']",1,2023.2.3,harveyvisual,2.1,[],8,0.75,
20,dot,0.3,['dot'],['density'],black,0,118,118,118,,,43.700217962265015,43.42617702484131,43.709492921829224,dot,"[0.06, 0.08, 0.06, 0.06, 0.08, 0.1, 0.08, 0.1, 0.1, 0.1, 0.1, 0.06, 0.08, 0.08, 0.06, 0.06, 0.08, 0.1, 0.08, 0.08]","[[0.5537012213664317, 0.014411507655987421], [0.2408059384621184, 0.14414663180769272], [-0.021074455138018977, 0.05017450623991604], [0.4447014112300912, -0.36719676294527226], [0.34398526840146726, 0.43301104777454613], [-0.01830993030834538, 0.2606483507513412], [-0.03382584077422757, -0.4075360106017427], [-0.4159173337558619, -0.308009439346809], [0.5238655559498883, 0.28944449211786377], [-0.5746107747159789, -0.050316225990574864], [0.3971396537969071, -0.136044014529218], [-0.270030515983213, 0.15990131149657172], [-0.2336609119437772, -0.24443927431458157], [0.09888055762187686, -0.26147289245682903], [-0.5038663769600882, 0.2537053346216786], [-0.31152485870071617, 0.4391593479721476], [0.20538898202624423, -0.07159546047876714], [-0.01601431100510997, 0.5527609827774905], [0.16417967621053453, -0.4762651042454494], [0.13658689375440425, 0.4223041830838966]]",density,black,,,D001,visual,1,[],"['1', '2', '3', '4']",1,2023.2.3,harveyvisual,2.1,[],8,0.75,
0,pause,0.4,None,None,None,0,119,119,119,,,,,,,,,,,,,D001,visual,1,[],"['1', '2', '3', '4']",1,2023.2.3,harveyvisual,2.1,[],8,0.75,
20,dot,0.3,['dot'],['density'],black,0,120,120,120,,,44.4002161026001,44.126152992248535,44.409483909606934,dot,"[0.1, 0.08, 0.06, 0.08, 0.06, 0.1, 0.1, 0.08, 0.1, 0.08, 0.08, 0.1, 0.06, 0.1, 0.1, 0.06, 0.06, 0.06, 0.08, 0.1]","[[-0.28396171697091244, 0.032240743796675075], [0.34744246360884556, 0.024714283405513127], [0.5578673276373022, -0.17121381636378286], [0.09873228706740489, -0.1404339058395475], [0.14946581067887643, 0.4891655836080895], [-0.2950114491407142, 0.3654922489359719], [-0.021646524055772498, -0.3230675582887897], [-0.04745648250872925, -0.5302048108769658], [0.22307994046807977, -0.44368185357727913], [-0.5456082385268546, 0.2522293618211812], [-0.2896033298511569, -0.5105553093720065], [0.5107173861016249, 0.20770691861817625], [-0.3609417195894008, -0.29186269643902174], [0.0963332755677031, 0.15206267147569263], [-0.16198308223673347, 0.1986988848630773], [-0.22509939521736227, -0.15036518188071563], [-0.14157559575350276, 0.5621371734409056], [-0.5985018308437803, 0.05375678083303029], [-0.5444901878844731, -0.23117871384375133], [-0.04137831355855681, 0.3542976743723618]]",density,black,,,D001,visual,1,[],"['1', '2', '3', '4']",1,2023.2.3,harveyvisual,2.1,[],8,0.75,
0,pause,0.4,None,None,None,0,121,121,121,,,,,,,,,,,,,D001,visual,1,[],"['1', '2', '3', '4']",1,2023.2.3,harveyvisual,2.1,[],8,0.75,
20,dot,0.3,['dot'],['density'],black,0,122,122,122,,,45.10021996498108,44.826143980026245,45.10942506790161,dot,"[0.08, 0.1, 0.06, 0.08, 0.08, 0.1, 0.06, 0.06, 0.1, 0.1, 0.08, 0.08, 0.06, 0.06, 0.08, 0.08, 0.06, 0.1, 0.08, 0.08]","[[-0.2491619199654309, -0.24252027055213993], [0.26084181247836946, -0.12859694546860329], [0.06630616537039202, -0.3685102320879059], [0.2711256846175506, -0.4010058606847924], [-0.41404391420988573, -0.08530555105466103], [0.6013428169689466, -0.0651584875452949], [-0.3923136691786812, 0.3165460958526836], [-0.13811949354793235, -0.051086120808169766], [0.5488413547570933, 0.13350015728437992], [0.3137972969158642, 0.16873728523999898], [-0.1939816058907654, 0.43684010227700754], [-0.48820850984756764, -0.33808842154101576], [0.3664664250446774, 0.41411116843513784], [-0.3051588169428133, 0.13294154239345368], [0.09759908952051144, 0.31787297025164873], [-0.17256367117568583, -0.4581500522749539], [-0.5054915148697968, 0.16368261811920815], [0.11902737955763776, 0.055807197809685904], [0.013155481017566695, -0.18504151088532161], [-0.07632153450259449, 0.21967690381948357]]",density,black,,,D001,visual,1,[],"['1', '2', '3', '4']",1,2023.2.3,harveyvisual,2.1,[],8,0.75,
0,pause,0.4,None,None,None,0,123,123,123,,,,,,,,,,,,,D001,visual,1,[],"['1', '2', '3', '4']",1,2023.2.3,harveyvisual,2.1,[],8,0.75,
20,dot,0.3,['dot'],['density'],black,0,124,124,124,,,45.800211906433105,45.526118993759155,45.80944204330444,dot,"[0.1, 0.08, 0.08, 0.08, 0.1, 0.08, 0.08, 0.08, 0.08, 0.06, 0.08, 0.08, 0.06, 0.08, 0.1, 0.08, 0.06, 0.06, 0.06, 0.08]","[[0.5637196542752804, 0.07975874050894086], [0.007068637891388674, 0.42003567831097743], [-0.17760250701518937, 0.2242408099609926], [0.3868538508282354, -0.11045592893690559], [0.057971369565649744, -0.48397633508547433], [0.26586327190386294, 0.21609900138169646], [0.24300972839184376, 0.019808064447060736], [-0.5904121363004902, 0.03217690048863173], [-0.04523379281538442, -0.07498832376763809], [-0.3534922079125692, 0.3639522940194281], [-0.36862198636922805, -0.03519840537458113], [-0.15296419973700015, -0.5618692362994068], [-0.16806933068253094, 0.5581070042447518], [0.4157031980328515, 0.4184548966976075], [-0.2863658681530435, -0.263046558300197], [0.25321032835162116, -0.4996352934747588], [0.052860720782312964, -0.2770095560637344], [0.0597760845748746, 0.09798832679097791], [0.5658535696076671, -0.17648446670904244], [-0.491418591375571, -0.23102002869981272]]",density,black,,,D001,visual,1,[],"['1', '2', '3', '4']",1,2023.2.3,harveyvisual,2.1,[],8,0.75,
0,pause,0.4,None,None,None,0,125,125,125,,,,,,,,,,,,,D001,visual,1,[],"['1', '2', '3', '4']",1,2023.2.3,harveyvisual,2.1,[],8,0.75,
20,dot,0.3,['dot'],['density'],black,0,126,126,126,,,46.50022792816162,46.22607493400574,46.50939393043518,dot,"[0.06, 0.06, 0.06, 0.06, 0.1, 0.1, 0.1, 0.08, 0.06, 0.06, 0.06, 0.08, 0.1, 0.06, 0.08, 0.1, 0.06, 0.1, 0.06, 0.1]","[[0.2306889766322996, -0.03480668864157921], [-0.5177302159044764, -0.015622222577562406], [0.15497418312707179, 0.4689291424378509], [-0.01663923342646989, -0.36137988630173495], [0.44156474428225045, 0.18993464112146863], [-0.05657286484860102, -0.060401670378726346], [-0.07687767493674869, 0.45192438776049304], [-0.2570643003843367, 0.046975512254371465], [0.5513913832756187, -0.0674143918773975], [0.2832518880217567, -0.3740012743726735], [-0.1920812379522866, -0.5282987300968811], [0.021422266887454522, 0.20094820461643403], [0.2470687452211433, 0.29164166463807795], [-0.4042097213454673, -0.44313604186802413], [-0.4616546738524019, -0.22978875151072414], [-0.37069855089547105, 0.2692292047417475], [0.14346633811455323, -0.5192821487855335], [0.5329934618435791, -0.25679057868283583], [-0.17503400721381407, -0.2463750806803463], [-0.25323861821658294, 0.5290924912471913]]",density,black,,,D001,visual,1,[],"['1', '2', '3', '4']",1,2023.2.3,harveyvisual,2.1,[],8,0.75,
0,pause,0.4,None,None,None,0,127,127,127,,,,,,,,,,,,,D001,visual,1,[],"['1', '2', '3', '4']",1,2023.2.3,harveyvisual,2.1,[],8,0.75,
20,dot,0.3,['dot'],['density'],white,0,128,128,128,,,47.20022702217102,46.92604303359985,47.20938491821289,dot,"[0.06, 0.06, 0.08, 0.08, 0.08, 0.08, 0.08, 0.06, 0.06, 0.06, 0.06, 0.1, 0.08, 0.1, 0.1, 0.1, 0.08, 0.1, 0.1, 0.1]","[[-0.4812111507136868, -0.011731319656465122], [0.32735814755551795, -0.299294981546558], [0.5605893799090121, -0.19608190262141986], [0.11485247933678466, -0.41395376926526267], [-0.4520987139982642, 0.35235004724490376], [0.43874244007464347, 0.2841372209993325], [-0.4657990066242499, -0.2296913826355641], [0.21566254316070688, -0.04322199331023624], [-0.3333948214152252, 0.18985187168088902], [0.03102820052591604, -0.20665840451286682], [-0.2664202485633647, 0.4455766005832156], [-0.37517257090760914, -0.46051656226068244], [-0.05817140743253668, -0.00929961886399544], [-0.16034264712624502, -0.56639488020276], [0.5533499255890612, 0.06918765138269062], [0.17846240808043734, 0.3670611165874442], [0.17158151684674627, 0.1655089094172124], [-0.1972623040864212, -0.3115969693699283], [-0.0356764282531713, 0.18794614040511293], [0.04064989936280217, 0.5152891107385051]]",density,white,,,D001,visual,1,[],"['1', '2', '3', '4']",1,2023.2.3,harveyvisual,2.1,[],8,0.75,
0,pause,0.4,None,None,None,0,129,129,129,,,,,,,,,,,1,47.39276385307312,D001,visual,1,[],"['1', '2', '3', '4']",1,2023.2.3,harveyvisual,2.1,[],8,0.75,
20,dot,0.3,['dot'],['density'],white,0,130,130,130,,,47.90023112297058,47.626046895980835,47.909390926361084,dot,"[0.08, 0.1, 0.1, 0.1, 0.08, 0.06, 0.06, 0.1, 0.1, 0.06, 0.08, 0.06, 0.08, 0.06, 0.08, 0.06, 0.1, 0.08, 0.06, 0.08]","[[0.4671764162002231, -0.29866707671160675], [-0.21191640714433052, -0.15549277053100613], [0.05612368955644553, -0.5460403128779402], [-0.4939414520329199, 0.03312784483652259], [0.5772811198149029, 0.1586499673261556], [0.3784126962884947, 0.2666467670724288], [0.009439281108692965, -0.054462545964752085], [0.273525150390176, -0.43145391140246403], [0.07764443824375011, 0.4691521110013669], [0.4265403370803441, -0.09665803417180369], [-0.41708208050691364, 0.3314205031950176], [-0.4323968364717202, -0.18147115351036802], [-0.2145734145488013, -0.43034688048909164], [0.056287971501182144, 0.22539580400550308], [0.1760940298219098, -0.24861494552207214], [-0.030649039667662525, -0.3470449498278195], [-0.11621457035773397, 0.5096680462071733], [-0.1719169871393894, 0.19937589647336385], [-0.4049147682534109, -0.4029192006344345], [0.22216791262056157, 0.10027802595462898]]",density,white,,,D001,visual,1,[],"['1', '2', '3', '4']",1,2023.2.3,harveyvisual,2.1,[],8,0.75,
0,pause,0.4,None,None,None,0,131,131,131,,,,,,,,,,,1,47.97683501243591,D001,visual,1,[],"['1', '2', '3', '4']",1,2023.2.3,harveyvisual,2.1,[],8,0.75,
20,dot,0.3,['dot'],['density'],white,0,132,132,132,,,48.600208044052124,48.32602500915527,48.60934495925903,dot,"[0.06, 0.06, 0.1, 0.1, 0.1, 0.06, 0.1, 0.08, 0.06, 0.1, 0.1, 0.08, 0.1, 0.08, 0.08, 0.08, 0.1, 0.06, 0.08, 0.1]","[[-0.36161043035751506, -0.278051957928257], [0.11437738112340834, -0.4923105597638736], [0.1759052739242073, 0.23874202432883507], [0.5543676733384392, 0.18287225538841875], [0.5427605103517533, -0.10590217810419872], [-0.5428920797686424, 0.2262650085564576], [0.4244484031789334, 0.3312312448352123], [-0.07407388936228798, -0.11931994442599059], [-0.01655280857375696, 0.11235101249706692], [0.034236136989046484, 0.4716642420103693], [-0.2886139447192818, 0.3773490781317401], [0.2875779392518708, -0.19781322488758085], [0.426820369806311, -0.33410906638646876], [-0.5664107446347629, 0.013065625400041359], [-0.1501925665313355, -0.4999501918709966], [-0.32928065777994764, 0.07215523223611464], [0.22825670326883063, 0.5602871515004446], [-0.16733189393320086, -0.304808096976184], [0.2874441654332258, 0.019197618513925097], [-0.34271953255348214, -0.48383749569691653]]",density,white,,,D001,visual,1,[],"['1', '2', '3', '4']",1,2023.2.3,harveyvisual,2.1,[],8,0.75,
0,pause,0.4,None,None,None,0,133,133,133,,,,,,,,,,,1,48.5948748588562,D001,visual,1,[],"['1', '2', '3', '4']",1,2023.2.3,harveyvisual,2.1,[],8,0.75,
20,dot,0.3,['dot'],['density'],black,0,134,134,134,,,49.30021595954895,49.02599811553955,49.30928993225098,dot,"[0.08, 0.06, 0.1, 0.08, 0.08, 0.06, 0.06, 0.1, 0.08, 0.08, 0.1, 0.08, 0.08, 0.1, 0.08, 0.08, 0.1, 0.08, 0.08, 0.06]","[[0.13955264542484436, -0.5748877498222186], [-0.46255231713596023, -0.22017238313946608], [0.5649914987972945, -0.14903637843225195], [0.2838466838301821, -0.3145213863641372], [0.3377738096514291, 0.3409518319658039], [-0.4051909952735189, 0.34181701729814506], [-0.06039892884182807, -0.4939542002336995], [0.06790020013010034, 0.4204092871536621], [-0.2799968570424454, 0.08302594195910606], [-0.03589470828169716, -0.07720316138731942], [-0.28397675613842566, -0.4677848248294059], [0.5739496813113855, 0.09956116221115857], [-0.48662094886722096, 0.1544499124332691], [-0.1532538467393923, -0.22951584164510552], [0.23504979317721775, -0.011722840996889472], [0.22430660291417026, 0.547742183611028], [-0.14377824852785354, 0.22451101344081126], [-0.6004066513370983, -0.05691294910289407], [-0.14965594055655057, 0.5735942314420194], [0.09219761519721714, 0.21804543003998433]]",density,black,,,D001,visual,1,[],"['1', '2', '3', '4']",1,2023.2.3,harveyvisual,2.1,[],8,0.75,
0,pause,0.4,None,None,None,0,135,135,135,,,,,,,,,,,,,D001,visual,1,[],"['1', '2', '3', '4']",1,2023.2.3,harveyvisual,2.1,[],8,0.75,
20,dot,0.3,['dot'],['density'],black,0,136,136,136,,,50.00022602081299,49.725955963134766,50.00930309295654,dot,"[0.06, 0.08, 0.1, 0.08, 0.06, 0.06, 0.06, 0.1, 0.1, 0.08, 0.06, 0.08, 0.08, 0.1, 0.08, 0.06, 0.08, 0.08, 0.08, 0.1]","[[0.4431297563256421, -0.3103412866919062], [-0.5427822446712731, 0.18186958667822195], [0.1957892771576406, 0.2577370199800961], [-0.49697462453547697, -0.21758660871230454], [-0.22164650618162351, 0.010083827667879519], [0.6029154882144546, -0.04609847686198665], [0.226261082243012, -0.38382663005029977], [0.03983501336392703, -0.06344332923565565], [-0.3063643001797842, -0.5091189377240548], [-0.13809394876437675, 0.5042863262424614], [-0.33266925999701663, 0.2730756796079109], [0.550343819324885, 0.14402338943670534], [-0.17937170803686336, -0.26272137211336805], [0.32049851031995746, 0.4633454340550842], [-0.07339543241920043, 0.17052797133917874], [0.2966588805323874, 0.0182755010880582], [0.4499205727316872, 0.313904554074212], [0.0028904005052793336, -0.6024653010682663], [0.09983917359281758, 0.5072866814188514], [-0.4356748166036926, -0.033413936421443524]]",density,black,,,D001,visual,1,[],"['1', '2', '3', '4']",1,2023.2.3,harveyvisual,2.1,[],8,0.75,
0,pause,0.4,None,None,None,0,137,137,137,,,,,,,,,,,,,D001,visual,1,[],"['1', '2', '3', '4']",1,2023.2.3,harveyvisual,2.1,[],8,0.75,
20,dot,0.3,['dot'],['density'],white,0,138,138,138,,,50.700222969055176,50.426011085510254,50.70933794975281,dot,"[0.06, 0.06, 0.1, 0.06, 0.06, 0.06, 0.08, 0.1, 0.06, 0.08, 0.1, 0.1, 0.08, 0.06, 0.08, 0.08, 0.1, 0.1, 0.1, 0.1]","[[-0.47675185906017237, 0.04908713055925695], [-0.1261776928975909, 0.5779444245368093], [0.218111946433585, -0.17339392974559836], [-0.07737454468067406, -0.339556098771431], [-0.48927234202018094, 0.30440621235720394], [0.48046572590551795, 0.1505350350301703], [-0.24512156781937722, -0.5524599020418187], [0.49487668138794827, -0.14699109727040172], [0.08987215871371179, 0.590817498802537], [-0.12462919031581449, 0.09631013776447994], [-0.5144113883438792, -0.26738781375328846], [-0.07604611151342444, 0.37193715700753893], [0.36824536380604844, -0.32283596886342436], [-0.05063343471496462, -0.5497533993493835], [0.06483187237159882, 0.07791142844431576], [-0.0018182205754866398, -0.15296089081164022], [-0.2802061151685026, -0.24406276753454414], [0.25812541298794767, 0.45275002773820516], [-0.28385956080318925, 0.39102815426811177], [0.26279859520536997, 0.0992952509072027]]",density,white,,,D001,visual,1,[],"['1', '2', '3', '4']",1,2023.2.3,harveyvisual,2.1,[],8,0.75,
0,pause,0.4,None,None,None,0,139,139,139,,,,,,,,,,,1,50.75224995613098,D001,visual,1,[],"['1', '2', '3', '4']",1,2023.2.3,harveyvisual,2.1,[],8,0.75,
20,dot,0.3,['dot'],['density'],black,0,140,140,140,,,51.40022802352905,51.12591099739075,51.40926909446716,dot,"[0.06, 0.06, 0.06, 0.1, 0.06, 0.1, 0.06, 0.08, 0.06, 0.08, 0.06, 0.08, 0.06, 0.1, 0.08, 0.1, 0.1, 0.08, 0.06, 0.1]","[[0.5341249080472045, 0.22311454652006674], [0.4602250187840381, -0.0391278808726368], [-0.06748000681584942, 0.32206400580140015], [0.10398471624441818, -0.11165283484668964], [-0.27342554864828933, -0.49727989508842535], [0.38398138103564383, -0.27787407094134653], [0.15300306763752303, 0.4808619644117783], [0.1666353095644577, 0.25047737672735837], [0.3724882410295284, 0.3414119288656973], [-0.13276314237396347, -0.001995962349530589], [-0.5631905329720909, -0.05581767139029059], [0.04177229457327003, -0.2965732986792896], [-0.08021118258898963, -0.4928488430146806], [-0.3115656976659638, 0.5039930801888518], [0.24785155308129403, -0.4339538017666927], [-0.3005271927300219, -0.3025034646625102], [-0.33649720576581815, 0.23966446726288881], [0.2386907213643632, 0.07520434097475726], [-0.5438560731717059, 0.2491436985257573], [-0.3457276721071397, 0.02981313757245707]]",density,black,,,D001,visual,1,[],"['1', '2', '3', '4']",1,2023.2.3,harveyvisual,2.1,[],8,0.75,
0,pause,0.4,None,None,None,0,141,141,141,,,,,,,,,,,,,D001,visual,1,[],"['1', '2', '3', '4']",1,2023.2.3,harveyvisual,2.1,[],8,0.75,
20,dot,0.3,['dot'],['density'],black,0,142,142,142,,,52.10021901130676,51.82593011856079,52.10930395126343,dot,"[0.06, 0.1, 0.1, 0.06, 0.08, 0.1, 0.1, 0.06, 0.1, 0.06, 0.06, 0.08, 0.08, 0.1, 0.08, 0.1, 0.1, 0.08, 0.08, 0.06]","[[-0.13665950650983943, -0.4142653144109957], [0.3608262881900446, -0.24541324401337694], [0.25481402877438086, -0.47981191995749045], [-0.27677363440103364, -0.1431522934790656], [5.3481600823523934e-05, 0.10975606167003293], [0.052127800844882444, -0.22724729077268385], [-0.41101161924622515, 0.047818817893804044], [0.510376859001609, 0.047455023282999276], [-0.29147577367734673, 0.3775210802933815], [-0.5062001979633461, -0.257299525824524], [0.17524960527520295, 0.02737831392587775], [0.3450591727236788, 0.1681028912588119], [-0.6052501638445396, 0.005533065845034182], [0.18339805675843956, 0.33051889504896603], [0.5027604956387149, 0.33136836416065363], [0.5358596130763645, -0.15072937226895394], [0.012983493430920978, 0.5517855413381666], [-0.4644420054298211, 0.2799957764860494], [-0.1971134644811695, 0.2032456053772832], [0.21622096578461847, 0.5648066523589146]]",density,black,,,D001,visual,1,[],"['1', '2', '3', '4']",1,2023.2.3,harveyvisual,2.1,[],8,0.75,
0,pause,0.4,None,None,None,0,143,143,143,,,,,,,,,,,,,D001,visual,1,[],"['1', '2', '3', '4']",1,2023.2.3,harveyvisual,2.1,[],8,0.75,
20,dot,0.3,['dot'],['density'],black,0,144,144,144,,,52.800225019454956,52.52590489387512,52.80922889709473,dot,"[0.1, 0.06, 0.1, 0.1, 0.08, 0.08, 0.06, 0.06, 0.08, 0.1, 0.1, 0.08, 0.06, 0.06, 0.1, 0.08, 0.06, 0.1, 0.1, 0.06]","[[0.13538452267124468, 0.3014521968675862], [-0.26330085576233386, -0.46794717639480915], [0.09598522978239721, 0.5598976326971757], [0.33332978460576124, 0.2493938203224232], [-0.5613967039730241, 0.1877058477475583], [-0.3088043054414747, 0.30448376824600276], [0.064174313424883, -0.027565223433558272], [0.5685006387317125, -0.20036805667058502], [0.3387442492034217, 0.47002701383346357], [-0.2407628583334126, 0.5088543385418915], [0.28171098454079, -0.4072591272412008], [-0.3889727931703829, -0.10225331509789093], [-0.09274069537291452, -0.1502663924128681], [0.420402565842677, 0.0023589188440925057], [-0.09846151320918439, 0.08036679679564951], [-0.017024804349005662, -0.4543688736740864], [-0.6037805074547958, -0.038969257898141915], [0.5194271954018174, 0.3055815329220385], [0.16435006597364332, -0.20998281948412173], [-0.053819970048294974, 0.40212972045566486]]",density,black,,,D001,visual,1,[],"['1', '2', '3', '4']",1,2023.2.3,harveyvisual,2.1,[],8,0.75,
0,pause,0.4,None,None,None,0,145,145,145,,,,,,,,,,,,,D001,visual,1,[],"['1', '2', '3', '4']",1,2023.2.3,harveyvisual,2.1,[],8,0.75,
20,dot,0.3,['dot'],['density'],black,0,146,146,146,,,53.50022292137146,53.22592806816101,53.50924301147461,dot,"[0.06, 0.1, 0.08, 0.1, 0.08, 0.08, 0.1, 0.1, 0.08, 0.06, 0.1, 0.1, 0.1, 0.06, 0.08, 0.06, 0.08, 0.08, 0.1, 0.06]","[[0.2731960917302242, -0.31604033224268735], [-0.08896623405510617, 0.24724973841791553], [-0.45663521844648347, -0.37902943494635816], [0.5110269527144363, 0.24770382676205016], [0.30637626668521123, 0.047097368371407655], [-0.043640815839347646, -0.02236439881232255], [0.1909708144549942, 0.34056243504652084], [-0.35135820070736695, -0.05512129189124665], [-0.2046304711910205, -0.5264776811833068], [0.5532507295454768, -0.018612222136214246], [-0.2934097667651609, 0.31584735449003987], [-0.5116697155701392, 0.19339054017666618], [0.041726943545566275, -0.48110962129425333], [-0.566368755981852, -0.14763165421325808], [0.03966532900386999, 0.5367307872489936], [0.10494668749479363, 0.13632848855637736], [0.46544824719562217, -0.2626165776971816], [-0.2734560491797258, -0.33052539500487177], [0.23676022778375005, 0.5525569249352243], [0.09548882450712137, -0.20799179727231687]]",density,black,,,D001,visual,1,[],"['1', '2', '3', '4']",1,2023.2.3,harveyvisual,2.1,[],8,0.75,
0,pause,0.4,None,None,None,0,147,147,147,,,,,,,,,,,,,D001,visual,1,[],"['1', '2', '3', '4']",1,2023.2.3,harveyvisual,2.1,[],8,0.75,
20,dot,0.3,['dot'],['density'],black,0,148,148,148,,,54.20023488998413,53.925909996032715,54.20915389060974,dot,"[0.1, 0.08, 0.06, 0.08, 0.08, 0.1, 0.08, 0.1, 0.08, 0.06, 0.06, 0.06, 0.1, 0.06, 0.06, 0.08, 0.06, 0.06, 0.1, 0.1]","[[0.2967632921140734, -0.2550550004551282], [-0.5664775811487153, -0.08789189102443581], [0.41101446804533237, -0.02736341342815246], [-0.03733150175667432, 0.16464802340462248], [0.5913926857911717, -0.12601470324718947], [-0.05519573067990402, -0.38051872266030184], [-0.255849534758955, -0.2985809692361032], [0.5205511978609748, 0.21385284550597805], [-0.48312242726777505, 0.312401871371846], [-0.22346827938852526, 0.28002790898400365], [-0.2140397041750941, -0.00816250057825485], [0.4201173554023062, 0.4318735635184505], [-0.11048342213034579, 0.577171375890237], [0.1543017137103906, 0.2140534032649043], [0.051803376960325, 0.4337492550832467], [0.11476482668565913, 0.02186498349890853], [-0.4830358647730862, -0.26466244444815235], [-0.055098639267148086, -0.580733799421087], [0.10311849637742854, -0.2316388016124093], [0.2762004833567605, -0.4866151351327896]]",density,black,,,D001,visual,1,[],"['1', '2', '3', '4']",1,2023.2.3,harveyvisual,2.1,[],8,0.75,
0,pause,0.4,None,None,None,0,149,149,149,,,,,,,,,,,,,D001,visual,1,[],"['1', '2', '3', '4']",1,2023.2.3,harveyvisual,2.1,[],8,0.75,
20,dot,0.3,['dot'],['density'],black,0,150,150,150,,,54.90022802352905,54.62600302696228,54.90918493270874,dot,"[0.08, 0.06, 0.08, 0.06, 0.1, 0.08, 0.1, 0.06, 0.1, 0.1, 0.1, 0.1, 0.06, 0.1, 0.1, 0.1, 0.1, 0.06, 0.1, 0.06]","[[0.5060402519697457, 0.31180623985481065], [0.5274135166043868, -0.21872756866282317], [-0.5251531643328813, 0.20253403251719743], [-0.11381848165473524, -0.29300136108322267], [0.34923695067551774, -0.09144740040552829], [0.37239996073629245, 0.1011335331163159], [-0.12967540389745674, 0.06655988317992312], [-0.36794197414686225, -0.33153845054155995], [0.5849487438662776, 0.13503630968210734], [0.19016923261950913, 0.22122244643430444], [0.13202920627295622, 0.41139771079936005], [-0.053422600358628, 0.2845149462580526], [0.08353021877850264, 0.0642153124519218], [-0.1670164910985939, -0.5013805476698289], [-0.10856799607776674, 0.5951051803626757], [0.16112753183034767, -0.3457359509180864], [-0.5460571046377112, -0.09649732591719073], [-0.3876657469358353, 0.35315884516278373], [-0.32200739762977987, 0.07615753102487333], [0.07081728346192184, -0.5378814539275151]]",density,black,,,D001,visual,1,[],"['1', '2', '3', '4']",1,2023.2.3,harveyvisual,2.1,[],8,0.75,
0,pause,0.4,None,None,None,0,151,151,151,,,,,,,,,,,,,D001,visual,1,[],"['1', '2', '3', '4']",1,2023.2.3,harveyvisual,2.1,[],8,0.75,
20,dot,0.3,['dot'],['density'],black,0,152,152,152,,,55.60021710395813,55.32598304748535,55.6091890335083,dot,"[0.06, 0.08, 0.08, 0.08, 0.08, 0.08, 0.1, 0.1, 0.08, 0.06, 0.06, 0.1, 0.06, 0.06, 0.06, 0.1, 0.1, 0.08, 0.06, 0.1]","[[-0.2918520638312859, -0.4898374226984617], [0.05120199283432447, -0.21893191037550724], [-0.23503155807231307, -0.16467579103859686], [-0.10213227479837406, 0.1554400135008288], [-0.019797159889154203, -0.5960397055831815], [0.30567816235366774, 0.21331212830105528], [0.473806911143713, 0.3455805600364746], [0.5939735919681722, 0.07173574290209114], [-0.565563333366895, 0.15937721866873852], [-0.06828470714296653, -0.3991634046248561], [0.407758041742306, -0.13258771204417458], [0.21722765146086187, 0.40880547605538453], [0.25440079717850084, -0.5140366209425172], [-0.5265832106762327, -0.19766345125259238], [-0.24460919639882467, 0.46232363678991517], [-0.37126516675302357, 0.30132698064361135], [-0.023770168618714282, 0.4212243244383398], [0.14553534699791537, -0.04698882920290959], [0.4235390902785131, -0.3752895773772922], [-0.3421924154703128, -0.0012769166482336503]]",density,black,,,D001,visual,1,[],"['1', '2', '3', '4']",1,2023.2.3,harveyvisual,2.1,[],8,0.75,
0,pause,0.4,None,None,None,0,153,153,153,,,,,,,,,,,,,D001,visual,1,[],"['1', '2', '3', '4']",1,2023.2.3,harveyvisual,2.1,[],8,0.75,
20,dot,0.3,['dot'],['density'],black,0,154,154,154,,,56.30022406578064,56.02584910392761,56.30912399291992,dot,"[0.06, 0.08, 0.06, 0.1, 0.08, 0.1, 0.06, 0.08, 0.06, 0.06, 0.1, 0.1, 0.06, 0.1, 0.06, 0.06, 0.08, 0.1, 0.08, 0.08]","[[-0.48119500849604074, 0.10934660711588884], [0.4734768367511778, -0.23382338544041434], [0.4386056360167375, 0.0725718233704356], [0.34648434015231677, 0.40411586795900906], [-0.2778303304825227, -0.22152042188496773], [0.09431479217142169, -0.1757660395878599], [0.2779494300888521, -0.4208524940457952], [0.2085433849238746, 0.007556237997647708], [0.0841896232560827, 0.46228930924130274], [-0.5582969398248604, -0.10092006537274167], [0.07390481265882076, -0.5093019788448184], [0.06964076100786698, 0.18717715593648332], [-0.28509990541736585, 0.021228309623475772], [-0.15573961418570226, -0.39784077458401257], [-0.201225876693216, 0.20828891648568348], [-0.12579232081020453, 0.4314613342541679], [-0.44061265015989376, -0.4140041414767261], [-0.3510060898699307, 0.33277232278557833], [-0.07470004847078482, -0.0032814345526801514], [0.52033439196915, 0.28931278402083005]]",density,black,,,D001,visual,1,[],"['1', '2', '3', '4']",1,2023.2.3,harveyvisual,2.1,[],8,0.75,
0,pause,0.4,None,None,None,0,155,155,155,,,,,,,,,,,,,D001,visual,1,[],"['1', '2', '3', '4']",1,2023.2.3,harveyvisual,2.1,[],8,0.75,
9,dot,0.3,['dot'],['density'],black,0,156,156,156,,,57.00022912025452,56.7091429233551,57.00916004180908,dot,"[0.08, 0.06, 0.08, 0.1, 0.1, 0.1, 0.06, 0.08, 0.08]","[[0.23250081832313607, -0.03448075506690146], [0.3034476098774822, 0.1830296703973891], [-0.18904104685434053, 0.18833284185042862], [0.2553794676357457, 0.5314352583170906], [0.16363099535363254, 0.3461022642192175], [-0.0841935017478271, 0.3664174397160571], [-0.26748786402911323, -0.05736109653727262], [0.043842773669028334, 0.577246673499167], [0.02102957219118283, 0.0979254794926055]]",density,black,,,D001,visual,1,[],"['1', '2', '3', '4']",1,2023.2.3,harveyvisual,2.1,[],8,0.75,
0,pause,0.4,None,None,None,0,157,157,157,,,,,,,,,,,,,D001,visual,1,[],"['1', '2', '3', '4']",1,2023.2.3,harveyvisual,2.1,[],8,0.75,
9,dot,0.3,['dot'],['density'],black,0,158,158,158,,,57.70021390914917,57.40925693511963,57.70916295051575,dot,"[0.08, 0.1, 0.1, 0.1, 0.1, 0.1, 0.08, 0.1, 0.08]","[[0.5633060189111645, -0.020447411670609934], [0.24486306384976717, 0.44476630120442473], [0.18428866344346043, -0.051083701103786204], [0.30165572131442664, 0.2239114093385097], [-0.0017431279865323516, 0.11759053127645673], [0.36864926730470376, 0.029118730319846676], [0.08307425003498874, 0.31712463906399285], [0.26393370779995823, -0.24286541122091637], [0.5109425385251136, 0.2557989077594731]]",density,black,,,D001,visual,1,[],"['1', '2', '3', '4']",1,2023.2.3,harveyvisual,2.1,[],8,0.75,
0,pause,0.4,None,None,None,0,159,159,159,,,,,,,,,,,,,D001,visual,1,[],"['1', '2', '3', '4']",1,2023.2.3,harveyvisual,2.1,[],8,0.75,
9,dot,0.3,['dot'],['density'],black,0,160,160,160,,,58.400222063064575,58.109143018722534,58.40922689437866,dot,"[0.08, 0.08, 0.08, 0.06, 0.1, 0.08, 0.08, 0.08, 0.06]","[[0.23250081832313607, -0.03448075506690146], [0.3034476098774822, 0.1830296703973891], [-0.18904104685434053, 0.18833284185042862], [0.2553794676357457, 0.5314352583170906], [0.16363099535363254, 0.3461022642192175], [-0.0841935017478271, 0.3664174397160571], [-0.26748786402911323, -0.05736109653727262], [0.043842773669028334, 0.577246673499167], [0.02102957219118283, 0.0979254794926055]]",density,black,,,D001,visual,1,[],"['1', '2', '3', '4']",1,2023.2.3,harveyvisual,2.1,[],8,0.75,
0,pause,0.4,None,None,None,0,161,161,161,,,,,,,,,,,,,D001,visual,1,[],"['1', '2', '3', '4']",1,2023.2.3,harveyvisual,2.1,[],8,0.75,
9,dot,0.3,['dot'],['density'],black,0,162,162,162,,,59.10021209716797,58.80908989906311,59.10910201072693,dot,"[0.06, 0.1, 0.08, 0.1, 0.08, 0.06, 0.06, 0.1, 0.1]","[[0.31750259908069645, 0.09103062301409195], [-0.10814993995151222, -0.14883262012051235], [0.2615101699546999, -0.13245952524223892], [0.014531427323725789, 0.3887544696515085], [-0.1117096847062306, 0.09593752649312724], [0.07810272484559946, -0.019955638642360052], [-0.26173373106631487, 0.2840804484106463], [0.4370020372247476, 0.2669512546191977], [0.11115841416421544, 0.18722161068425575]]",density,black,,,D001,visual,1,[],"['1', '2', '3', '4']",1,2023.2.3,harveyvisual,2.1,[],8,0.75,
0,pause,0.4,None,None,None,0,163,163,163,,,,,,,,,,,,,D001,visual,1,[],"['1', '2', '3', '4']",1,2023.2.3,harveyvisual,2.1,[],8,0.75,
9,dot,0.3,['dot'],['density'],white,0,164,164,164,,,59.800211906433105,59.50903511047363,59.809077978134155,dot,"[0.1, 0.08, 0.1, 0.06, 0.06, 0.1, 0.1, 0.08, 0.08]","[[-0.23139737267821464, 0.4582894628988488], [-0.22563640623437264, 0.09161215191469056], [0.08653997658409265, 0.18408404769425912], [-0.34134765149242685, 0.2795210921938051], [-0.45752590330905135, 0.08752711185150099], [-0.035040587470716034, -0.07657027701648178], [-0.27120713465948276, -0.1309343981320133], [-0.3537313425617488, -0.374673418779248], [-0.09309732942360581, 0.2754840453600595]]",density,white,,,D001,visual,1,[],"['1', '2', '3', '4']",1,2023.2.3,harveyvisual,2.1,[],8,0.75,
0,pause,0.4,None,None,None,0,165,165,165,,,,,,,,,,,1,59.92126488685608,D001,visual,1,[],"['1', '2', '3', '4']",1,2023.2.3,harveyvisual,2.1,[],8,0.75,
9,dot,0.3,['dot'],['density'],black,0,166,166,166,,,60.500221967697144,60.20907497406006,60.509066104888916,dot,"[0.1, 0.1, 0.1, 0.06, 0.1, 0.08, 0.06, 0.1, 0.1]","[[0.15603996265512696, -0.0872053538661942], [-0.29211765964195757, -0.04110002513656992], [-0.071087909845803, -0.33174387981618686], [-0.13011395490928096, 0.2584597801106329], [-0.08364541374476576, -0.0980664528631432], [-0.26669569773039664, -0.25481833902542456], [-0.35582819085755485, -0.4494505046102014], [-0.1269674344078877, -0.5566175884613933], [0.011820482989003244, 0.07934247632600783]]",density,black,,,D001,visual,1,[],"['1', '2', '3', '4']",1,2023.2.3,harveyvisual,2.1,[],8,0.75,
0,pause,0.4,None,None,None,0,167,167,167,,,,,,,,,,,,,D001,visual,1,[],"['1', '2', '3', '4']",1,2023.2.3,harveyvisual,2.1,[],8,0.75,
8,dot,0.3,['dot'],['density'],black,0,168,168,168,,,61.20021200180054,60.909018993377686,61.209022998809814,dot,"[0.1, 0.1, 0.08, 0.06, 0.06, 0.1, 0.1, 0.1]","[[-0.16499387414028463, -0.418455346753131], [0.031011941373623824, -0.006148034068666969], [-0.4150712424924157, -0.28668557629476243], [-0.199054958380199, -0.21375968732837633], [-0.4870789535587041, 0.00515905815181239], [-0.198479811208303, 0.006815000109153054], [-0.3273741662815474, 0.19008037141614484], [0.04340096687518584, -0.25044408321713213]]",density,black,,,D001,visual,1,[],"['1', '2', '3', '4']",1,2023.2.3,harveyvisual,2.1,[],8,0.75,
0,pause,0.4,None,None,None,0,169,169,169,,,,,,,,,,,,,D001,visual,1,[],"['1', '2', '3', '4']",1,2023.2.3,harveyvisual,2.1,[],8,0.75,
8,dot,0.3,['dot'],['density'],black,0,170,170,170,,,61.90023994445801,61.6089870929718,61.90897011756897,dot,"[0.08, 0.1, 0.1, 0.08, 0.1, 0.1, 0.1, 0.06]","[[-0.0012777187897950197, 0.3966007492927722], [-0.28447363834021117, 0.3159852715582059], [0.19942587273623266, 0.5530929527666414], [0.21318140018031628, 0.35154814550636243], [0.2022184519229619, 0.1402347591191321], [-0.03399167273692697, 0.18426518172063944], [0.09045107803968953, -0.0428478536761596], [-0.13826990130262626, -0.021750669296841257]]",density,black,,,D001,visual,1,[],"['1', '2', '3', '4']",1,2023.2.3,harveyvisual,2.1,[],8,0.75,
0,pause,0.4,None,None,None,0,171,171,171,,,,,,,,,,,,,D001,visual,1,[],"['1', '2', '3', '4']",1,2023.2.3,harveyvisual,2.1,[],8,0.75,
8,dot,0.3,['dot'],['density'],black,0,172,172,172,,,62.60023498535156,62.308964014053345,62.608975887298584,dot,"[0.1, 0.1, 0.1, 0.1, 0.1, 0.1, 0.06, 0.08]","[[-0.16499387414028463, -0.418455346753131], [0.031011941373623824, -0.006148034068666969], [-0.4150712424924157, -0.28668557629476243], [-0.199054958380199, -0.21375968732837633], [-0.4870789535587041, 0.00515905815181239], [-0.198479811208303, 0.006815000109153054], [-0.3273741662815474, 0.19008037141614484], [0.04340096687518584, -0.25044408321713213]]",density,black,,,D001,visual,1,[],"['1', '2', '3', '4']",1,2023.2.3,harveyvisual,2.1,[],8,0.75,
0,pause,0.4,None,None,None,0,173,173,173,,,,,,,,,,,,,D001,visual,1,[],"['1', '2', '3', '4']",1,2023.2.3,harveyvisual,2.1,[],8,0.75,
8,dot,0.3,['dot'],['density'],white,0,174,174,174,,,63.300225019454956,63.00900912284851,63.30901789665222,dot,"[0.08, 0.06, 0.08, 0.06, 0.06, 0.08, 0.06, 0.06]","[[0.1740819983727909, -0.16863019829442621], [0.14644114519141543, -0.4524198896657212], [0.0024885361438939093, 0.023531574910491997], [-0.23717340943857948, -0.31112918658627675], [-0.11311749148073028, -0.46867866316561874], [-0.17928248077090506, -0.060241557052319365], [-0.03957999532622772, -0.24759906754331504], [-0.4644327601918011, -0.3627803331480915]]",density,white,,,D001,visual,1,[],"['1', '2', '3', '4']",1,2023.2.3,harveyvisual,2.1,[],8,0.75,
0,pause,0.4,None,None,None,0,175,175,175,,,,,,,,,,,1,63.32569599151611,D001,visual,1,[],"['1', '2', '3', '4']",1,2023.2.3,harveyvisual,2.1,[],8,0.75,
8,dot,0.3,['dot'],['density'],black,0,176,176,176,,,64.00021696090698,63.7090060710907,64.00901389122009,dot,"[0.08, 0.1, 0.1, 0.08, 0.1, 0.08, 0.1, 0.1]","[[0.4578461037593053, -0.0425280984807614], [0.3105081462658962, -0.253400778181943], [0.5107466611240274, 0.18303335057259504], [0.05013881804369301, 0.21472050036076742], [0.11913774150617627, -0.046477809882714556], [0.3069987493408211, 0.11186211070896974], [0.10261508471656716, -0.25482825738733483], [-0.08881417545548334, 0.035709595317019026]]",density,black,,,D001,visual,1,[],"['1', '2', '3', '4']",1,2023.2.3,harveyvisual,2.1,[],8,0.75,
0,pause,0.4,None,None,None,0,177,177,177,,,,,,,,,,,,,D001,visual,1,[],"['1', '2', '3', '4']",1,2023.2.3,harveyvisual,2.1,[],8,0.75,
8,dot,0.3,['dot'],['density'],black,0,178,178,178,,,64.70022010803223,64.409010887146,64.70893597602844,dot,"[0.1, 0.08, 0.08, 0.06, 0.1, 0.06, 0.08, 0.08]","[[-0.19469543066458847, -0.326291241472255], [0.30343637985980976, -0.10925869102227477], [-0.1969922581528186, -0.11664339975312436], [0.2570255161168456, -0.3247060146943647], [0.10684135558856425, -0.18174565546534566], [0.03482742583321104, -0.4893606045609451], [-0.015658395544436696, -0.0001692298399926468], [0.11980560642279467, 0.15585563517441894]]",density,black,,,D001,visual,1,[],"['1', '2', '3', '4']",1,2023.2.3,harveyvisual,2.1,[],8,0.75,
0,pause,0.4,None,None,None,0,179,179,179,,,,,,,,,,,,,D001,visual,1,[],"['1', '2', '3', '4']",1,2023.2.3,harveyvisual,2.1,[],8,0.75,
7,dot,0.3,['dot'],['density'],white,0,180,180,180,,,65.4002161026001,65.1088879108429,65.40887689590454,dot,"[0.06, 0.1, 0.1, 0.1, 0.1, 0.1, 0.1]","[[0.19245168201499255, -0.1876960705048169], [-0.3381443552002159, -0.23329338142126996], [-0.10497405195571721, -0.20200038512761503], [-0.19215049966389516, -0.01485034356210763], [-0.14804808022624072, 0.20187381879058183], [0.049390412829639754, -0.0077734514623590935], [0.08212821656350888, 0.19234027401595055]]",density,white,,,D001,visual,1,[],"['1', '2', '3', '4']",1,2023.2.3,harveyvisual,2.1,[],8,0.75,
0,pause,0.4,None,None,None,0,181,181,181,,,,,,,,,,,1,65.44098782539368,D001,visual,1,[],"['1', '2', '3', '4']",1,2023.2.3,harveyvisual,2.1,[],8,0.75,
7,dot,0.3,['dot'],['density'],black,0,182,182,182,,,66.10023307800293,65.8089509010315,66.10886192321777,dot,"[0.1, 0.06, 0.08, 0.08, 0.06, 0.06, 0.08]","[[-0.4123410031792677, -0.32555807737620884], [-0.11281232420725038, -0.2658066965482441], [-0.16970574590124413, 0.10972852905085191], [-0.380148642061964, 0.19816541478521793], [-0.49975943015608576, -0.10400723965324657], [-0.30003386022098844, -0.09340949099572564], [-0.0679185705411078, -0.06780919729272472]]",density,black,,,D001,visual,1,[],"['1', '2', '3', '4']",1,2023.2.3,harveyvisual,2.1,[],8,0.75,
0,pause,0.4,None,None,None,0,183,183,183,,,,,,,,,,,,,D001,visual,1,[],"['1', '2', '3', '4']",1,2023.2.3,harveyvisual,2.1,[],8,0.75,
7,dot,0.3,['dot'],['density'],black,0,184,184,184,,,66.800213098526,66.50895190238953,66.80891609191895,dot,"[0.1, 0.06, 0.06, 0.1, 0.06, 0.06, 0.1]","[[-0.3423230189937584, -0.41219609722212536], [-0.1182323968952694, -0.35552357509158045], [-0.4111032443031386, -0.006313161275750597], [-0.5095560862941229, -0.2529410328503813], [-0.2588176969072235, -0.18091026219072012], [-0.0026253510642934245, -0.12197054074907589], [-0.16586784627322051, 0.0941069694468023]]",density,black,,,D001,visual,1,[],"['1', '2', '3', '4']",1,2023.2.3,harveyvisual,2.1,[],8,0.75,
0,pause,0.4,None,None,None,0,185,185,185,,,,,,,,,,,,,D001,visual,1,[],"['1', '2', '3', '4']",1,2023.2.3,harveyvisual,2.1,[],8,0.75,
7,dot,0.3,['dot'],['density'],black,0,186,186,186,,,67.50022912025452,67.20890498161316,67.5090479850769,dot,"[0.1, 0.08, 0.1, 0.08, 0.1, 0.1, 0.06]","[[0.3302081014073935, 0.19448071361351732], [-0.22286629369238187, 0.3450023392305547], [-0.11533339293480348, 0.13926201039730488], [0.12023407780451623, 0.21240672508650668], [0.2659789407074307, 0.3894086603790018], [0.026604934602130894, 0.39133200849180605], [0.212400253920387, 0.027377351413115796]]",density,black,,,D001,visual,1,[],"['1', '2', '3', '4']",1,2023.2.3,harveyvisual,2.1,[],8,0.75,
0,pause,0.4,None,None,None,0,187,187,187,,,,,,,,,,,,,D001,visual,1,[],"['1', '2', '3', '4']",1,2023.2.3,harveyvisual,2.1,[],8,0.75,
7,dot,0.3,['dot'],['density'],black,0,188,188,188,,,68.20023894309998,67.9088990688324,68.20880889892578,dot,"[0.08, 0.08, 0.06, 0.1, 0.08, 0.08, 0.06]","[[-0.3025445156539714, -0.42280529123536587], [0.12162933753582021, -0.2851722644810181], [-0.2753205641105948, -0.038672864930592576], [-0.4202189534315163, -0.18742991959605093], [-0.15636117447925973, -0.27217203193286355], [-0.09967880665522989, -0.47242523529006747], [-0.06261398545311019, -0.08879309989794046]]",density,black,,,D001,visual,1,[],"['1', '2', '3', '4']",1,2023.2.3,harveyvisual,2.1,[],8,0.75,
0,pause,0.4,None,None,None,0,189,189,189,,,,,,,,,,,1,68.17625880241394,D001,visual,1,[],"['1', '2', '3', '4']",1,2023.2.3,harveyvisual,2.1,[],8,0.75,
7,dot,0.3,['dot'],['density'],black,0,190,190,190,,,68.90022706985474,68.60890102386475,68.90880489349365,dot,"[0.1, 0.1, 0.1, 0.08, 0.08, 0.1, 0.06]","[[0.13823229125104186, -0.11287424625882309], [-0.082914425993103, 0.43156227464827385], [0.30107400633957315, 0.2583336012722512], [-0.1103107855725706, 0.20298726112520996], [0.37862923877470095, 0.05664428164281185], [0.10057609128089995, 0.3089177590539603], [0.1009283971288976, 0.1061295027106774]]",density,black,,,D001,visual,1,[],"['1', '2', '3', '4']",1,2023.2.3,harveyvisual,2.1,[],8,0.75,
0,pause,0.4,None,None,None,0,191,191,191,,,,,,,,,,,,,D001,visual,1,[],"['1', '2', '3', '4']",1,2023.2.3,harveyvisual,2.1,[],8,0.75,
6,dot,0.3,['dot'],['density'],black,0,192,192,192,,,69.60021710395813,69.30879211425781,69.60878491401672,dot,"[0.06, 0.1, 0.06, 0.1, 0.06, 0.06]","[[-0.362545063880459, -0.421860962952156], [-0.24010638466002518, -0.0327569241266412], [-0.22622339336134992, -0.23590116153186103], [-0.41823503972227205, -0.14060420183103206], [-0.028992295722001654, -0.1293578273409096], [-0.1459617666416116, -0.4591052827033254]]",density,black,,,D001,visual,1,[],"['1', '2', '3', '4']",1,2023.2.3,harveyvisual,2.1,[],8,0.75,
0,pause,0.4,None,None,None,0,193,193,193,,,,,,,,,,,,,D001,visual,1,[],"['1', '2', '3', '4']",1,2023.2.3,harveyvisual,2.1,[],8,0.75,
6,dot,0.3,['dot'],['density'],white,0,194,194,194,,,70.30024099349976,70.00879001617432,70.3087511062622,dot,"[0.06, 0.06, 0.06, 0.08, 0.1, 0.08]","[[0.4249538099490167, -0.025354946498656116], [0.305005901383002, 0.397829445973664], [0.04954868862097969, 0.09819418046919175], [0.452299537631068, 0.2574679639516015], [0.21081936584905453, -0.08903757916275208], [0.27954488569289765, 0.14103100078867375]]",density,white,,,D001,visual,1,[],"['1', '2', '3', '4']",1,2023.2.3,harveyvisual,2.1,[],8,0.75,
0,pause,0.4,None,None,None,0,195,195,195,,,,,,,,,,,,,D001,visual,1,[],"['1', '2', '3', '4']",1,2023.2.3,harveyvisual,2.1,[],8,0.75,
6,dot,0.3,['dot'],['density'],black,0,196,196,196,,,71.00022506713867,70.70875000953674,71.00874090194702,dot,"[0.1, 0.08, 0.1, 0.1, 0.1, 0.06]","[[0.4536033237290603, -0.10703390074252807], [0.4090862681261178, 0.14156446515860444], [0.3446070222150913, -0.333203595144996], [0.1541486512624917, 0.13839280063469406], [0.16833114318264894, -0.23068973514796048], [0.2520001164899556, -0.04323865486760776]]",density,black,,,D001,visual,1,[],"['1', '2', '3', '4']",1,2023.2.3,harveyvisual,2.1,[],8,0.75,
0,pause,0.4,None,None,None,0,197,197,197,,,,,,,,,,,,,D001,visual,1,[],"['1', '2', '3', '4']",1,2023.2.3,harveyvisual,2.1,[],8,0.75,
6,dot,0.3,['dot'],['density'],black,0,198,198,198,,,71.70022296905518,71.40872812271118,71.70872211456299,dot,"[0.1, 0.06, 0.1, 0.1, 0.1, 0.08]","[[-0.3495133471434448, -0.27378397825191725], [-0.13100446626766318, 0.13866361521721876], [-0.5155090776439144, 0.11776884681908774], [-0.4780287848267884, -0.11588239978167382], [-0.11897161770401087, -0.0933943475842369], [-0.303431097341306, -0.010759678588622423]]",density,black,,,D001,visual,1,[],"['1', '2', '3', '4']",1,2023.2.3,harveyvisual,2.1,[],8,0.75,
0,pause,0.4,None,None,None,0,199,199,199,,,,,,,,,,,,,D001,visual,1,[],"['1', '2', '3', '4']",1,2023.2.3,harveyvisual,2.1,[],8,0.75,
6,dot,0.3,['dot'],['density'],black,0,200,200,200,,,72.40024495124817,72.10871696472168,72.40870499610901,dot,"[0.06, 0.1, 0.08, 0.1, 0.1, 0.08]","[[-0.2094991805307552, 0.08302354111181451], [0.09557258300728075, 0.3458622669714129], [0.22056408800171526, -0.017094369341425636], [0.026601936584830878, 0.1297564650757722], [-0.11681768564656844, 0.2726391152528644], [-0.03570146891163527, -0.09222923444939024]]",density,black,,,D001,visual,1,[],"['1', '2', '3', '4']",1,2023.2.3,harveyvisual,2.1,[],8,0.75,
0,pause,0.4,None,None,None,0,201,201,201,,,,,,,,,,,,,D001,visual,1,[],"['1', '2', '3', '4']",1,2023.2.3,harveyvisual,2.1,[],8,0.75,
6,dot,0.3,['dot'],['density'],black,0,202,202,202,,,73.10023093223572,72.80869603157043,73.10871195793152,dot,"[0.08, 0.06, 0.08, 0.06, 0.1, 0.06]","[[0.23625405956766557, 0.3892633732772463], [0.11760889656980711, -0.0038201085241890706], [0.42882153754783053, 0.07157264481568941], [0.22360409458703237, 0.16865996735680294], [-0.08582952339030024, 0.051003002567710905], [-0.0010028139275050567, 0.23222523166366787]]",density,black,,,D001,visual,1,[],"['1', '2', '3', '4']",1,2023.2.3,harveyvisual,2.1,[],8,0.75,
0,pause,0.4,None,None,None,0,203,203,203,,,,,,,,,,,,,D001,visual,1,[],"['1', '2', '3', '4']",1,2023.2.3,harveyvisual,2.1,[],8,0.75,
5,dot,0.3,['dot'],['density'],white,0,204,204,204,,,73.80021500587463,73.50868701934814,73.80867505073547,dot,"[0.08, 0.08, 0.1, 0.08, 0.06]","[[-0.15120343604734773, 0.13880483605515373], [-0.27543704003083597, 0.3074941448909677], [-0.47853302670601033, 0.30949922786165307], [-0.3682774975032249, -0.13900280599659498], [-0.34692227301900613, 0.0889564565184539]]",density,white,,,D001,visual,1,[],"['1', '2', '3', '4']",1,2023.2.3,harveyvisual,2.1,[],8,0.75,
0,pause,0.4,None,None,None,0,205,205,205,,,,,,,,,,,1,73.82797980308533,D001,visual,1,[],"['1', '2', '3', '4']",1,2023.2.3,harveyvisual,2.1,[],8,0.75,
5,dot,0.3,['dot'],['density'],black,0,206,206,206,,,74.50021505355835,74.20865893363953,74.50870394706726,dot,"[0.06, 0.08, 0.1, 0.06, 0.1]","[[0.27183890960736007, -0.2807898153303064], [0.09520185447546438, -0.14661409162522948], [0.4811798017999712, -0.08799056171856828], [0.2824926782126669, -0.029701986940959574], [0.07325476391384783, 0.10525290151012107]]",density,black,,,D001,visual,1,[],"['1', '2', '3', '4']",1,2023.2.3,harveyvisual,2.1,[],8,0.75,
0,pause,0.4,None,None,None,0,207,207,207,,,,,,,,,,,,,D001,visual,1,[],"['1', '2', '3', '4']",1,2023.2.3,harveyvisual,2.1,[],8,0.75,
5,dot,0.3,['dot'],['density'],black,0,208,208,208,,,75.2002170085907,74.90862798690796,75.20866703987122,dot,"[0.1, 0.06, 0.06, 0.08, 0.08]","[[-0.3632963637400461, -0.33792544526642676], [-0.48189922448633543, -0.036156829306921726], [-0.2958020468624338, 0.07292024124872273], [-0.10639492237515816, -0.0008972940205680791], [-0.20818262001932955, -0.17666930306052683]]",density,black,,,D001,visual,1,[],"['1', '2', '3', '4']",1,2023.2.3,harveyvisual,2.1,[],8,0.75,
0,pause,0.4,None,None,None,0,209,209,209,,,,,,,,,,,,,D001,visual,1,[],"['1', '2', '3', '4']",1,2023.2.3,harveyvisual,2.1,[],8,0.75,
5,dot,0.3,['dot'],['density'],black,0,210,210,210,,,75.9002149105072,75.60864901542664,75.90862989425659,dot,"[0.08, 0.08, 0.1, 0.08, 0.06]","[[-0.11834215492801986, 0.412508379109845], [0.31881799646300274, 0.30859303438359803], [-0.06368743078099719, 0.10105058071702504], [0.1133485112468387, 0.46262203184429457], [0.11957051434631445, 0.24197418837926052]]",density,black,,,D001,visual,1,[],"['1', '2', '3', '4']",1,2023.2.3,harveyvisual,2.1,[],8,0.75,
0,pause,0.4,None,None,None,0,211,211,211,,,,,,,,,,,,,D001,visual,1,[],"['1', '2', '3', '4']",1,2023.2.3,harveyvisual,2.1,[],8,0.75,
5,dot,0.3,['dot'],['density'],black,0,212,212,212,,,76.60021209716797,76.30860900878906,76.60875105857849,dot,"[0.06, 0.1, 0.1, 0.08, 0.06]","[[0.2947939438731228, -0.23060267152592065], [-0.16069394766121817, -0.3416383267983795], [0.17571447256805817, -0.04795497140357211], [-0.06398416024856234, -0.043165972544212804], [0.046845399773749824, -0.2436216536023896]]",density,black,,,D001,visual,1,[],"['1', '2', '3', '4']",1,2023.2.3,harveyvisual,2.1,[],8,0.75,
0,pause,0.4,None,None,None,0,213,213,213,,,,,,,,,,,,,D001,visual,1,[],"['1', '2', '3', '4']",1,2023.2.3,harveyvisual,2.1,[],8,0.75,
5,dot,0.3,['dot'],['density'],black,0,214,214,214,,,77.30023002624512,77.00862693786621,77.30874991416931,dot,"[0.06, 0.08, 0.08, 0.06, 0.08]","[[-0.15120343604734773, 0.13880483605515373], [-0.27543704003083597, 0.3074941448909677], [-0.47853302670601033, 0.30949922786165307], [-0.3682774975032249, -0.13900280599659498], [-0.34692227301900613, 0.0889564565184539]]",density,black,,,D001,visual,1,[],"['1', '2', '3', '4']",1,2023.2.3,harveyvisual,2.1,[],8,0.75,
0,pause,0.4,None,None,None,0,215,215,215,,,,,,,,,,,,,D001,visual,1,[],"['1', '2', '3', '4']",1,2023.2.3,harveyvisual,2.1,[],8,0.75,
4,dot,0.3,['dot'],['density'],black,0,216,216,216,,,78.00021600723267,77.7085919380188,78.00858497619629,dot,"[0.1, 0.06, 0.08, 0.08]","[[0.14909032788103166, -0.4768554918693636], [0.26071220381864263, -0.20018841858473793], [0.02634252458519163, -0.30967292471165575], [0.3541358554053611, -0.43808560323820217]]",density,black,,,D001,visual,1,[],"['1', '2', '3', '4']",1,2023.2.3,harveyvisual,2.1,[],8,0.75,
0,pause,0.4,None,None,None,0,217,217,217,,,,,,,,,,,,,D001,visual,1,[],"['1', '2', '3', '4']",1,2023.2.3,harveyvisual,2.1,[],8,0.75,
4,dot,0.3,['dot'],['density'],black,0,218,218,218,,,78.70023989677429,78.4085750579834,78.7085371017456,dot,"[0.1, 0.08, 0.08, 0.1]","[[0.06326389353998313, -0.3457479010937814], [-0.07512051392095552, -0.02196355495157639], [0.09410934090401228, -0.14113260442523076], [-0.13717358852421138, -0.29916566844175635]]",density,black,,,D001,visual,1,[],"['1', '2', '3', '4']",1,2023.2.3,harveyvisual,2.1,[],8,0.75,
0,pause,0.4,None,None,None,0,219,219,219,,,,,,,,,,,,,D001,visual,1,[],"['1', '2', '3', '4']",1,2023.2.3,harveyvisual,2.1,[],8,0.75,
4,dot,0.3,['dot'],['density'],black,0,220,220,220,,,79.40024399757385,79.10859799385071,79.40860295295715,dot,"[0.1, 0.08, 0.08, 0.1]","[[-0.47693618450386616, -0.1525114564248906], [-0.12413069550496705, 0.03327587270375396], [-0.32964510574757994, -0.012304557788591533], [-0.22851041427491325, -0.22018408257550984]]",density,black,,,D001,visual,1,[],"['1', '2', '3', '4']",1,2023.2.3,harveyvisual,2.1,[],8,0.75,
0,pause,0.4,None,None,None,0,221,221,221,,,,,,,,,,,,,D001,visual,1,[],"['1', '2', '3', '4']",1,2023.2.3,harveyvisual,2.1,[],8,0.75,
4,dot,0.3,['dot'],['density'],black,0,222,222,222,,,80.10023903846741,79.80857801437378,80.10856699943542,dot,"[0.08, 0.1, 0.06, 0.06]","[[-0.46485289602757673, 0.3603628353310837], [-0.30733625211232357, 0.21626236973196436], [-0.38991578213366157, 0.024479253410336757], [-0.570234662048439, 0.14093512067028166]]",density,black,,,D001,visual,1,[],"['1', '2', '3', '4']",1,2023.2.3,harveyvisual,2.1,[],8,0.75,
0,pause,0.4,None,None,None,0,223,223,223,,,,,,,,,,,,,D001,visual,1,[],"['1', '2', '3', '4']",1,2023.2.3,harveyvisual,2.1,[],8,0.75,
4,dot,0.3,['dot'],['density'],black,0,224,224,224,,,80.80022811889648,80.50856399536133,80.80854606628418,dot,"[0.06, 0.06, 0.1, 0.08]","[[-0.46485289602757673, 0.3603628353310837], [-0.30733625211232357, 0.21626236973196436], [-0.38991578213366157, 0.024479253410336757], [-0.570234662048439, 0.14093512067028166]]",density,black,,,D001,visual,1,[],"['1', '2', '3', '4']",1,2023.2.3,harveyvisual,2.1,[],8,0.75,
0,pause,0.4,None,None,None,0,225,225,225,,,,,,,,,,,,,D001,visual,1,[],"['1', '2', '3', '4']",1,2023.2.3,harveyvisual,2.1,[],8,0.75,
4,dot,0.3,['dot'],['density'],black,0,226,226,226,,,81.5002269744873,81.20853304862976,81.50852298736572,dot,"[0.06, 0.06, 0.06, 0.08]","[[-0.03907102058372138, -0.1723346686752248], [0.13255167928633116, -0.03782047714335622], [0.2720101467217329, -0.23443565690461937], [0.07080951743106016, -0.35239766365090747]]",density,black,,,D001,visual,1,[],"['1', '2', '3', '4']",1,2023.2.3,harveyvisual,2.1,[],8,0.75,
0,pause,0.4,None,None,None,0,227,227,227,,,,,,,,,,,,,D001,visual,1,[],"['1', '2', '3', '4']",1,2023.2.3,harveyvisual,2.1,[],8,0.75,
3,dot,0.3,['dot'],['density'],black,0,228,228,228,,,82.20023798942566,81.90851306915283,82.20850992202759,dot,"[0.06, 0.08, 0.08]","[[0.3935061822875672, 0.2255916562549388], [0.5507663609445765, 0.05974239467682067], [0.33737455125106675, -0.013318187219183488]]",density,black,,,D001,visual,1,[],"['1', '2', '3', '4']",1,2023.2.3,harveyvisual,2.1,[],8,0.75,
0,pause,0.4,None,None,None,0,229,229,229,,,,,,,,,,,,,D001,visual,1,[],"['1', '2', '3', '4']",1,2023.2.3,harveyvisual,2.1,[],8,0.75,
3,dot,0.3,['dot'],['density'],black,0,230,230,230,,,82.90021800994873,82.60851192474365,82.90848994255066,dot,"[0.08, 0.06, 0.1]","[[0.5383732683216915, 0.24050044654635605], [0.337973319445641, 0.36292363064724675], [0.3422154310588786, 0.14570949010333048]]",density,black,,,D001,visual,1,[],"['1', '2', '3', '4']",1,2023.2.3,harveyvisual,2.1,[],8,0.75,
0,pause,0.4,None,None,None,0,231,231,231,,,,,,,,,,,,,D001,visual,1,[],"['1', '2', '3', '4']",1,2023.2.3,harveyvisual,2.1,[],8,0.75,
3,dot,0.3,['dot'],['density'],black,0,232,232,232,,,83.60021996498108,83.30848407745361,83.60846710205078,dot,"[0.08, 0.06, 0.06]","[[-0.1599523582230929, -0.020289166781496174], [-0.3458010015304564, -0.14250622038001895], [-0.3538668896253721, 0.08903610231223419]]",density,black,,,D001,visual,1,[],"['1', '2', '3', '4']",1,2023.2.3,harveyvisual,2.1,[],8,0.75,
0,pause,0.4,None,None,None,0,233,233,233,,,,,,,,,,,,,D001,visual,1,[],"['1', '2', '3', '4']",1,2023.2.3,harveyvisual,2.1,[],8,0.75,
3,dot,0.3,['dot'],['density'],black,0,234,234,234,,,84.3002290725708,84.008465051651,84.30845308303833,dot,"[0.06, 0.1, 0.08]","[[0.16698284004709638, 0.14340522813657522], [0.014382160343152013, -0.0120418799203457], [0.17626274868444566, -0.13037823744598942]]",density,black,,,D001,visual,1,[],"['1', '2', '3', '4']",1,2023.2.3,harveyvisual,2.1,[],8,0.75,
0,pause,0.4,None,None,None,0,235,235,235,,,,,,,,,,,,,D001,visual,1,[],"['1', '2', '3', '4']",1,2023.2.3,harveyvisual,2.1,[],8,0.75,
3,dot,0.3,['dot'],['density'],black,0,236,236,236,,,85.00022292137146,84.7085509300232,85.00836992263794,dot,"[0.08, 0.06, 0.1]","[[0.023581383320217864, -0.14485493475327696], [-0.06776129410461201, 0.04872406380669356], [0.14236151446293968, 0.029671970014602284]]",density,black,,,D001,visual,1,[],"['1', '2', '3', '4']",1,2023.2.3,harveyvisual,2.1,[],8,0.75,
0,pause,0.4,None,None,None,0,237,237,237,,,,,,,,,,,,,D001,visual,1,[],"['1', '2', '3', '4']",1,2023.2.3,harveyvisual,2.1,[],8,0.75,
3,dot,0.3,['dot'],['density'],black,0,238,238,238,,,85.70022702217102,85.40840291976929,85.7084150314331,dot,"[0.08, 0.08, 0.06]","[[-0.1599523582230929, -0.020289166781496174], [-0.3458010015304564, -0.14250622038001895], [-0.3538668896253721, 0.08903610231223419]]",density,black,,,D001,visual,1,[],"['1', '2', '3', '4']",1,2023.2.3,harveyvisual,2.1,[],8,0.75,
0,pause,0.4,None,None,None,0,239,239,239,,,,,,,,,,,,,D001,visual,1,[],"['1', '2', '3', '4']",1,2023.2.3,harveyvisual,2.1,[],8,0.75,
2,dot,0.3,['dot'],['density'],black,0,240,240,240,,,86.40023398399353,86.10838794708252,86.40834498405457,dot,"[0.06, 0.08]","[[0.28379985726396956, 0.19228106150028407], [0.10160376615595414, 0.2763535177041957]]",density,black,,,D001,visual,1,[],"['1', '2', '3', '4']",1,2023.2.3,harveyvisual,2.1,[],8,0.75,
0,pause,0.4,None,None,None,0,241,241,241,,,,,,,,,,,,,D001,visual,1,[],"['1', '2', '3', '4']",1,2023.2.3,harveyvisual,2.1,[],8,0.75,
2,dot,0.3,['dot'],['density'],black,0,242,242,242,,,87.10022401809692,86.80835103988647,87.10833191871643,dot,"[0.1, 0.06]","[[0.29932439847351855, -0.2783039550742582], [0.14276117392638485, -0.15345139110726028]]",density,black,,,D001,visual,1,[],"['1', '2', '3', '4']",1,2023.2.3,harveyvisual,2.1,[],8,0.75,
0,pause,0.4,None,None,None,0,243,243,243,,,,,,,,,,,,,D001,visual,1,[],"['1', '2', '3', '4']",1,2023.2.3,harveyvisual,2.1,[],8,0.75,
2,dot,0.3,['dot'],['density'],black,0,244,244,244,,,87.80022406578064,87.5083339214325,87.8083291053772,dot,"[0.1, 0.06]","[[-0.15489633838679245, 0.20775043904852977], [-0.02477214636975436, 0.05468251249351026]]",density,black,,,D001,visual,1,[],"['1', '2', '3', '4']",1,2023.2.3,harveyvisual,2.1,[],8,0.75,
0,pause,0.4,None,None,None,0,245,245,245,,,,,,,,,,,,,D001,visual,1,[],"['1', '2', '3', '4']",1,2023.2.3,harveyvisual,2.1,[],8,0.75,
2,dot,0.3,['dot'],['density'],black,0,246,246,246,,,88.50024795532227,88.20833110809326,88.508465051651,dot,"[0.06, 0.06]","[[0.1851205616289071, -0.3624876981064337], [0.3405923022038234, -0.23608025195482504]]",density,black,,,D001,visual,1,[],"['1', '2', '3', '4']",1,2023.2.3,harveyvisual,2.1,[],8,0.75,
0,pause,0.4,None,None,None,0,247,247,247,,,,,,,,,,,,,D001,visual,1,[],"['1', '2', '3', '4']",1,2023.2.3,harveyvisual,2.1,[],8,0.75,
2,dot,0.3,['dot'],['density'],black,0,248,248,248,,,89.20022702217102,88.9083399772644,89.20828795433044,dot,"[0.1, 0.06]","[[0.3859848860398513, -0.03650274153894256], [0.5613034441480618, 0.06134992989862206]]",density,black,,,D001,visual,1,[],"['1', '2', '3', '4']",1,2023.2.3,harveyvisual,2.1,[],8,0.75,
0,pause,0.4,None,None,None,0,249,249,249,,,,,,,,,,,,,D001,visual,1,[],"['1', '2', '3', '4']",1,2023.2.3,harveyvisual,2.1,[],8,0.75,
2,dot,0.3,['dot'],['density'],black,0,250,250,250,,,89.90023708343506,89.60829305648804,89.90830898284912,dot,"[0.06, 0.1]","[[-0.15001882639889116, 0.48719053997247297], [-0.1736568080125972, 0.28835755901726084]]",density,black,,,D001,visual,1,[],"['1', '2', '3', '4']",1,2023.2.3,harveyvisual,2.1,[],8,0.75,
0,pause,0.4,None,None,None,0,251,251,251,,,,,,,,,,,,,D001,visual,1,[],"['1', '2', '3', '4']",1,2023.2.3,harveyvisual,2.1,[],8,0.75,
1,dot,0.3,['dot'],['density'],black,0,252,252,252,,,90.60024499893188,90.30824494361877,90.60824489593506,dot,[0.08],"[0.4230572171255965, 0.15564154118015242]",density,black,,,D001,visual,1,[],"['1', '2', '3', '4']",1,2023.2.3,harveyvisual,2.1,[],8,0.75,
0,pause,0.4,None,None,None,0,253,253,253,,,,,,,,,,,,,D001,visual,1,[],"['1', '2', '3', '4']",1,2023.2.3,harveyvisual,2.1,[],8,0.75,
1,dot,0.3,['dot'],['density'],black,0,254,254,254,,,91.30021810531616,91.00826692581177,91.30822896957397,dot,[0.06],"[0.4420174282329864, -0.3383815273201445]",density,black,,,D001,visual,1,[],"['1', '2', '3', '4']",1,2023.2.3,harveyvisual,2.1,[],8,0.75,
0,pause,0.4,None,None,None,0,255,255,255,,,,,,,,,,,,,D001,visual,1,[],"['1', '2', '3', '4']",1,2023.2.3,harveyvisual,2.1,[],8,0.75,
1,dot,0.3,['dot'],['density'],black,0,256,256,256,,,92.00022101402283,91.70825409889221,92.008220911026,dot,[0.06],"[0.0038807231877187303, -0.2777732366953785]",density,black,,,D001,visual,1,[],"['1', '2', '3', '4']",1,2023.2.3,harveyvisual,2.1,[],8,0.75,
0,pause,0.4,None,None,None,0,257,257,257,,,,,,,,,,,,,D001,visual,1,[],"['1', '2', '3', '4']",1,2023.2.3,harveyvisual,2.1,[],8,0.75,
1,dot,0.3,['dot'],['density'],black,0,258,258,258,,,92.70022106170654,92.40823602676392,92.70823407173157,dot,[0.06],"[-0.30422713965878023, 0.0739284850406325]",density,black,,,D001,visual,1,[],"['1', '2', '3', '4']",1,2023.2.3,harveyvisual,2.1,[],8,0.75,
0,pause,0.4,None,None,None,0,259,259,259,,,,,,,,,,,,,D001,visual,1,[],"['1', '2', '3', '4']",1,2023.2.3,harveyvisual,2.1,[],8,0.75,
1,dot,0.3,['dot'],['density'],black,0,260,260,260,,,93.40024709701538,93.10820198059082,93.40816807746887,dot,[0.08],"[0.43730911014729085, 0.38068286015665653]",density,black,,,D001,visual,1,[],"['1', '2', '3', '4']",1,2023.2.3,harveyvisual,2.1,[],8,0.75,
0,pause,0.4,None,None,None,0,261,261,261,,,,,,,,,,,,,D001,visual,1,[],"['1', '2', '3', '4']",1,2023.2.3,harveyvisual,2.1,[],8,0.75,
1,dot,0.3,['dot'],['density'],black,0,262,262,262,,,94.10023808479309,93.80816698074341,94.10813689231873,dot,[0.06],"[0.5668064281626585, -0.020013277593342628]",density,black,,,D001,visual,1,[],"['1', '2', '3', '4']",1,2023.2.3,harveyvisual,2.1,[],8,0.75,
0,pause,0.4,None,None,None,0,263,263,263,,,,,,,,,,,,,D001,visual,1,[],"['1', '2', '3', '4']",1,2023.2.3,harveyvisual,2.1,[],8,0.75,
20,dot,0.3,['dot'],['density'],black,0,264,264,264,,,94.80021905899048,94.52483797073364,94.80823707580566,dot,"[0.1, 0.08, 0.06, 0.08, 0.08, 0.06, 0.06, 0.06, 0.06, 0.08, 0.08, 0.1, 0.08, 0.08, 0.08, 0.08, 0.1, 0.1, 0.06, 0.06]","[[-0.13438234630863294, -0.27000952257062855], [0.47507158834246466, 0.35527952359764603], [-0.5838056016383335, -0.04458586346699399], [-0.07231773024216215, -0.5673953231873669], [-0.33820394734069603, -0.05350647394003688], [0.07291067923408101, -0.35210685424605426], [0.013670435866791286, 0.27567216665717276], [0.33962498637477057, -0.15497792253939496], [0.5285452897271367, 0.0403567303982576], [-0.25325500545658164, 0.4236303346011051], [0.06347574928364386, -0.1531731331278584], [0.21037768007716295, -0.5578860505362407], [-0.497071279416385, 0.1495757261827948], [0.13730779187161835, 0.044522093838651466], [0.22059391719370913, 0.46853753012036736], [0.5342364146502748, -0.22007505258985843], [-0.13999773930858833, -0.07876947621756702], [0.29991695479871994, 0.14381097478437788], [-0.04103322910713325, 0.5719373023497444], [-0.2904405764236235, -0.4469554804823062]]",density,black,,,D001,visual,1,[],"['1', '2', '3', '4']",1,2023.2.3,harveyvisual,2.1,[],8,0.75,
0,pause,0.4,None,None,None,0,265,265,265,,,,,,,,,,,,,D001,visual,1,[],"['1', '2', '3', '4']",1,2023.2.3,harveyvisual,2.1,[],8,0.75,
20,dot,0.3,['dot'],['density'],black,0,266,266,266,,,95.50022101402283,95.22481298446655,95.50811409950256,dot,"[0.06, 0.1, 0.08, 0.08, 0.06, 0.06, 0.06, 0.08, 0.06, 0.06, 0.08, 0.06, 0.1, 0.06, 0.06, 0.06, 0.06, 0.06, 0.08, 0.08]","[[-0.31137177040091935, 0.4606738298619347], [-0.31153298628184106, -0.2361892341958638], [-0.1111203490002845, -0.5079124619905577], [0.27885534244527765, -0.23254726591800756], [-0.5572215706457925, -0.23048912265378074], [0.09804843883532155, 0.2936429778006986], [-0.018305907901560725, -0.11758628830402129], [-0.27513518178966584, 0.2262922457696056], [-0.5502945020815817, 0.2025060013179602], [0.5334562548560063, -0.1278405216248919], [0.06369307410219338, 0.49693009958706846], [0.2516493792829717, 0.5477394841600448], [0.5126954558630136, 0.22255078799678996], [0.26002864826071626, 0.10070623455957606], [-0.19415159981030505, 0.03460192009007568], [0.03225710050417385, -0.3336134508315201], [-0.47844831558305506, -0.017695845093888385], [-0.4075421708738953, -0.44727527627341584], [0.3510950554271832, -0.4914988642618051], [0.34527198144398275, 0.3732675964532137]]",density,black,,,D001,visual,1,[],"['1', '2', '3', '4']",1,2023.2.3,harveyvisual,2.1,[],8,0.75,
0,pause,0.4,None,None,None,0,267,267,267,,,,,,,,,,,,,D001,visual,1,[],"['1', '2', '3', '4']",1,2023.2.3,harveyvisual,2.1,[],8,0.75,
