num,mod,duration,shape,ll_cond,colors,.thisRepN,.thisTrialN,.thisN,.thisIndex,thisRow.t,notes,raw_global_time,t_start,t_stop,shapes,size,pos,cond,color,button,RT,participant,session,starting_run,left button (match/odd),right button (non-match/even),samples_per_block,psychopy version,expName,offset,audio,number_runs,radius,
1,dot,0.3,['dot'],['density'],black,0,0,0,0,,,2.4002270698547363,2.102741003036499,2.4026801586151123,dot,[0.06],"[-0.0300711363278092, -0.16168860719337894]",density,black,,,N009,visual,1,[],"['1', '2', '3', '4']",1,2023.2.3,harveyvisual,2.1,[],8,0.75,
0,pause,0.4,None,None,None,0,1,1,1,,,,,,,,,,,,,N009,visual,1,[],"['1', '2', '3', '4']",1,2023.2.3,harveyvisual,2.1,[],8,0.75,
1,dot,0.3,['dot'],['density'],black,0,2,2,2,,,3.100203037261963,2.8026680946350098,3.120089054107666,dot,[0.1],"[-0.3678067964802796, -0.3513177213804687]",density,black,,,N009,visual,1,[],"['1', '2', '3', '4']",1,2023.2.3,harveyvisual,2.1,[],8,0.75,
0,pause,0.4,None,None,None,0,3,3,3,,,,,,,,,,,,,N009,visual,1,[],"['1', '2', '3', '4']",1,2023.2.3,harveyvisual,2.1,[],8,0.75,
1,dot,0.3,['dot'],['density'],black,0,4,4,4,,,3.8002071380615234,3.503404140472412,3.820141077041626,dot,[0.1],"[-0.43400380483721984, 0.10531265887229962]",density,black,,,N009,visual,1,[],"['1', '2', '3', '4']",1,2023.2.3,harveyvisual,2.1,[],8,0.75,
0,pause,0.4,None,None,None,0,5,5,5,,,,,,,,,,,,,N009,visual,1,[],"['1', '2', '3', '4']",1,2023.2.3,harveyvisual,2.1,[],8,0.75,
1,dot,0.3,['dot'],['density'],black,0,6,6,6,,,4.5002031326293945,4.203052043914795,4.519676208496094,dot,[0.08],"[-0.00037526000000685745, -0.027921386894572527]",density,black,,,N009,visual,1,[],"['1', '2', '3', '4']",1,2023.2.3,harveyvisual,2.1,[],8,0.75,
0,pause,0.4,None,None,None,0,7,7,7,,,,,,,,,,,,,N009,visual,1,[],"['1', '2', '3', '4']",1,2023.2.3,harveyvisual,2.1,[],8,0.75,
1,dot,0.3,['dot'],['density'],black,0,8,8,8,,,5.200223207473755,4.9029541015625,5.219606161117554,dot,[0.06],"[0.5668064281626585, -0.020013277593342628]",density,black,,,N009,visual,1,[],"['1', '2', '3', '4']",1,2023.2.3,harveyvisual,2.1,[],8,0.75,
0,pause,0.4,None,None,None,0,9,9,9,,,,,,,,,,,,,N009,visual,1,[],"['1', '2', '3', '4']",1,2023.2.3,harveyvisual,2.1,[],8,0.75,
1,dot,0.3,['dot'],['density'],black,0,10,10,10,,,5.900200128555298,5.605276107788086,5.921922206878662,dot,[0.08],"[-0.4309303250570785, -0.37878052449928096]",density,black,,,N009,visual,1,[],"['1', '2', '3', '4']",1,2023.2.3,harveyvisual,2.1,[],8,0.75,
0,pause,0.4,None,None,None,0,11,11,11,,,,,,,,,,,,,N009,visual,1,[],"['1', '2', '3', '4']",1,2023.2.3,harveyvisual,2.1,[],8,0.75,
2,dot,0.3,['dot'],['density'],black,0,12,12,12,,,6.60020899772644,6.30531120300293,6.6219542026519775,dot,"[0.1, 0.06]","[[0.28379985726396956, 0.19228106150028407], [0.10160376615595414, 0.2763535177041957]]",density,black,,,N009,visual,1,[],"['1', '2', '3', '4']",1,2023.2.3,harveyvisual,2.1,[],8,0.75,
0,pause,0.4,None,None,None,0,13,13,13,,,,,,,,,,,,,N009,visual,1,[],"['1', '2', '3', '4']",1,2023.2.3,harveyvisual,2.1,[],8,0.75,
2,dot,0.3,['dot'],['density'],white,0,14,14,14,,,7.300214052200317,7.005291223526001,7.321901082992554,dot,"[0.08, 0.1]","[[0.45098141687762733, -0.20237638590572143], [0.5433504117931098, -0.02475258047346216]]",density,white,,,N009,visual,1,[],"['1', '2', '3', '4']",1,2023.2.3,harveyvisual,2.1,[],8,0.75,
0,pause,0.4,None,None,None,0,15,15,15,,,,,,,,,,,1,7.371165990829468,N009,visual,1,[],"['1', '2', '3', '4']",1,2023.2.3,harveyvisual,2.1,[],8,0.75,
2,dot,0.3,['dot'],['density'],white,0,16,16,16,,,8.000230073928833,7.705201148986816,8.021858215332031,dot,"[0.06, 0.08]","[[0.510744558366804, -0.07965895932329134], [0.5183014925016622, -0.2796299572401246]]",density,white,,,N009,visual,1,[],"['1', '2', '3', '4']",1,2023.2.3,harveyvisual,2.1,[],8,0.75,
0,pause,0.4,None,None,None,0,17,17,17,,,,,,,,,,,1,8.055434942245483,N009,visual,1,[],"['1', '2', '3', '4']",1,2023.2.3,harveyvisual,2.1,[],8,0.75,
2,dot,0.3,['dot'],['density'],white,0,18,18,18,,,8.700229167938232,8.405264139175415,8.721890211105347,dot,"[0.1, 0.1]","[[-0.15489633838679245, 0.20775043904852977], [-0.02477214636975436, 0.05468251249351026]]",density,white,,,N009,visual,1,[],"['1', '2', '3', '4']",1,2023.2.3,harveyvisual,2.1,[],8,0.75,
0,pause,0.4,None,None,None,0,19,19,19,,,,,,,,,,,1,8.706437110900879,N009,visual,1,[],"['1', '2', '3', '4']",1,2023.2.3,harveyvisual,2.1,[],8,0.75,
2,dot,0.3,['dot'],['density'],white,0,20,20,20,,,9.400229215621948,9.105195045471191,9.421852111816406,dot,"[0.06, 0.06]","[[0.075840462383643, -0.21806900392302264], [0.2761252679018853, -0.22101292055433702]]",density,white,,,N009,visual,1,[],"['1', '2', '3', '4']",1,2023.2.3,harveyvisual,2.1,[],8,0.75,
0,pause,0.4,None,None,None,0,21,21,21,,,,,,,,,,,1,9.379424095153809,N009,visual,1,[],"['1', '2', '3', '4']",1,2023.2.3,harveyvisual,2.1,[],8,0.75,
2,dot,0.3,['dot'],['density'],black,0,22,22,22,,,10.100224018096924,9.805168151855469,10.121827125549316,dot,"[0.08, 0.06]","[[0.11437717294043931, -0.408092871188616], [0.012734947149558614, -0.23578585574018435]]",density,black,,,N009,visual,1,[],"['1', '2', '3', '4']",1,2023.2.3,harveyvisual,2.1,[],8,0.75,
0,pause,0.4,None,None,None,0,23,23,23,,,,,,,,,,,,,N009,visual,1,[],"['1', '2', '3', '4']",1,2023.2.3,harveyvisual,2.1,[],8,0.75,
3,dot,0.3,['dot'],['density'],black,0,24,24,24,,,10.800213098526001,10.50531816482544,10.821974992752075,dot,"[0.06, 0.1, 0.1]","[[-0.476501853024302, 0.3110516410681161], [-0.26865065753742645, 0.4732574608261889], [-0.2772428868380306, 0.2516539537451065]]",density,black,,,N009,visual,1,[],"['1', '2', '3', '4']",1,2023.2.3,harveyvisual,2.1,[],8,0.75,
0,pause,0.4,None,None,None,0,25,25,25,,,,,,,,,,,,,N009,visual,1,[],"['1', '2', '3', '4']",1,2023.2.3,harveyvisual,2.1,[],8,0.75,
3,dot,0.3,['dot'],['density'],black,0,26,26,26,,,11.500213146209717,11.20517110824585,11.521862030029297,dot,"[0.08, 0.06, 0.06]","[[0.03752440580708033, 0.5298990797186869], [-0.14535247226304113, 0.44143535861080874], [0.07857889528852925, 0.30774558950641073]]",density,black,,,N009,visual,1,[],"['1', '2', '3', '4']",1,2023.2.3,harveyvisual,2.1,[],8,0.75,
0,pause,0.4,None,None,None,0,27,27,27,,,,,,,,,,,,,N009,visual,1,[],"['1', '2', '3', '4']",1,2023.2.3,harveyvisual,2.1,[],8,0.75,
3,dot,0.3,['dot'],['density'],black,0,28,28,28,,,12.200229167938232,11.905181169509888,12.221850156784058,dot,"[0.1, 0.06, 0.06]","[[0.5383732683216915, 0.24050044654635605], [0.337973319445641, 0.36292363064724675], [0.3422154310588786, 0.14570949010333048]]",density,black,,,N009,visual,1,[],"['1', '2', '3', '4']",1,2023.2.3,harveyvisual,2.1,[],8,0.75,
0,pause,0.4,None,None,None,0,29,29,29,,,,,,,,,,,,,N009,visual,1,[],"['1', '2', '3', '4']",1,2023.2.3,harveyvisual,2.1,[],8,0.75,
3,dot,0.3,['dot'],['density'],black,0,30,30,30,,,12.900225162506104,12.605118989944458,12.921775102615356,dot,"[0.08, 0.1, 0.08]","[[0.348550694073714, -0.26372109460002424], [0.5073713069625243, -0.14206826334288786], [0.3419709386041379, 0.005891602819957491]]",density,black,,,N009,visual,1,[],"['1', '2', '3', '4']",1,2023.2.3,harveyvisual,2.1,[],8,0.75,
0,pause,0.4,None,None,None,0,31,31,31,,,,,,,,,,,,,N009,visual,1,[],"['1', '2', '3', '4']",1,2023.2.3,harveyvisual,2.1,[],8,0.75,
3,dot,0.3,['dot'],['density'],white,0,32,32,32,,,13.600214004516602,13.305109024047852,13.621743202209473,dot,"[0.1, 0.08, 0.1]","[[-0.36641147837046456, 0.28339849123565264], [-0.19108570342652328, 0.4628134959899303], [-0.16564092668537764, 0.24926372681875647]]",density,white,,,N009,visual,1,[],"['1', '2', '3', '4']",1,2023.2.3,harveyvisual,2.1,[],8,0.75,
0,pause,0.4,None,None,None,0,33,33,33,,,,,,,,,,,1,13.66994309425354,N009,visual,1,[],"['1', '2', '3', '4']",1,2023.2.3,harveyvisual,2.1,[],8,0.75,
3,dot,0.3,['dot'],['density'],black,0,34,34,34,,,14.300212144851685,14.005036115646362,14.3217031955719,dot,"[0.1, 0.06, 0.08]","[[-0.021384933427115945, -0.26055744462645497], [0.16478637362895734, -0.404980755917603], [-0.025077849445719256, -0.48190209473619267]]",density,black,,,N009,visual,1,[],"['1', '2', '3', '4']",1,2023.2.3,harveyvisual,2.1,[],8,0.75,
0,pause,0.4,None,None,None,0,35,35,35,,,,,,,,,,,,,N009,visual,1,[],"['1', '2', '3', '4']",1,2023.2.3,harveyvisual,2.1,[],8,0.75,
4,dot,0.3,['dot'],['density'],black,0,36,36,36,,,15.000218152999878,14.705042123794556,15.02167820930481,dot,"[0.08, 0.08, 0.1, 0.1]","[[0.28769160010247724, 0.4706884012140322], [0.03735362687931127, 0.4645781312677133], [0.33102019499247487, 0.1847810932959147], [0.1685132699603264, 0.30497059043407926]]",density,black,,,N009,visual,1,[],"['1', '2', '3', '4']",1,2023.2.3,harveyvisual,2.1,[],8,0.75,
0,pause,0.4,None,None,None,0,37,37,37,,,,,,,,,,,,,N009,visual,1,[],"['1', '2', '3', '4']",1,2023.2.3,harveyvisual,2.1,[],8,0.75,
4,dot,0.3,['dot'],['density'],black,0,38,38,38,,,15.700206995010376,15.405081033706665,15.721716165542603,dot,"[0.06, 0.1, 0.1, 0.06]","[[0.1665887267295909, 0.08389582001604734], [0.4584359263982055, 0.26405512465689546], [0.4157764543415929, 0.03513878013061779], [0.2392225064082761, 0.29777239984320175]]",density,black,,,N009,visual,1,[],"['1', '2', '3', '4']",1,2023.2.3,harveyvisual,2.1,[],8,0.75,
0,pause,0.4,None,None,None,0,39,39,39,,,,,,,,,,,,,N009,visual,1,[],"['1', '2', '3', '4']",1,2023.2.3,harveyvisual,2.1,[],8,0.75,
4,dot,0.3,['dot'],['density'],black,0,40,40,40,,,16.40021800994873,16.10517716407776,16.421826124191284,dot,"[0.1, 0.1, 0.06, 0.1]","[[-0.4918595852306691, 0.19162898845839058], [-0.30188041745692074, 0.10218906117132437], [-0.3018224646415858, -0.14357118929282034], [-0.4853871342809682, -0.061736688026617866]]",density,black,,,N009,visual,1,[],"['1', '2', '3', '4']",1,2023.2.3,harveyvisual,2.1,[],8,0.75,
0,pause,0.4,None,None,None,0,41,41,41,,,,,,,,,,,,,N009,visual,1,[],"['1', '2', '3', '4']",1,2023.2.3,harveyvisual,2.1,[],8,0.75,
4,dot,0.3,['dot'],['density'],black,0,42,42,42,,,17.100216150283813,16.804994106292725,17.121769189834595,dot,"[0.06, 0.08, 0.1, 0.06]","[[-0.24231220575667195, -0.22966258239168486], [-0.5136420973432148, -0.13696856920477488], [-0.4300726721285167, 0.13088957628356482], [-0.3148289313469241, -0.03851715211982174]]",density,black,,,N009,visual,1,[],"['1', '2', '3', '4']",1,2023.2.3,harveyvisual,2.1,[],8,0.75,
0,pause,0.4,None,None,None,0,43,43,43,,,,,,,,,,,,,N009,visual,1,[],"['1', '2', '3', '4']",1,2023.2.3,harveyvisual,2.1,[],8,0.75,
4,dot,0.3,['dot'],['density'],black,0,44,44,44,,,17.800217151641846,17.50515913963318,17.82169008255005,dot,"[0.1, 0.08, 0.06, 0.06]","[[-0.42715721775789556, -0.3806885655784049], [-0.5104054706627589, -0.18016651458941194], [-0.409412055521987, 0.008153849732111747], [-0.2456709064377862, -0.21492281530681134]]",density,black,,,N009,visual,1,[],"['1', '2', '3', '4']",1,2023.2.3,harveyvisual,2.1,[],8,0.75,
0,pause,0.4,None,None,None,0,45,45,45,,,,,,,,,,,,,N009,visual,1,[],"['1', '2', '3', '4']",1,2023.2.3,harveyvisual,2.1,[],8,0.75,
4,dot,0.3,['dot'],['density'],black,0,46,46,46,,,18.500213146209717,18.205196142196655,18.521766185760498,dot,"[0.1, 0.1, 0.1, 0.08]","[[0.010836700166572746, 0.3385055392368038], [-0.21755291078517647, 0.23172276430217797], [0.04881011250022837, 0.13413393103699342], [-0.16894730197854985, 0.4434327172909165]]",density,black,,,N009,visual,1,[],"['1', '2', '3', '4']",1,2023.2.3,harveyvisual,2.1,[],8,0.75,
0,pause,0.4,None,None,None,0,47,47,47,,,,,,,,,,,,,N009,visual,1,[],"['1', '2', '3', '4']",1,2023.2.3,harveyvisual,2.1,[],8,0.75,
5,dot,0.3,['dot'],['density'],black,0,48,48,48,,,19.20021915435791,18.92162013053894,19.221583127975464,dot,"[0.06, 0.06, 0.08, 0.08, 0.08]","[[-0.4702494158317004, 0.19352793081356498], [-0.36864189631283095, -0.2113573127283173], [-0.3573601989406874, -0.007363185939446715], [-0.15559938224235453, -0.02548680069503583], [-0.25069196230576396, 0.1747846118010945]]",density,black,,,N009,visual,1,[],"['1', '2', '3', '4']",1,2023.2.3,harveyvisual,2.1,[],8,0.75,
0,pause,0.4,None,None,None,0,49,49,49,,,,,,,,,,,,,N009,visual,1,[],"['1', '2', '3', '4']",1,2023.2.3,harveyvisual,2.1,[],8,0.75,
5,dot,0.3,['dot'],['density'],black,0,50,50,50,,,19.900217056274414,19.621591091156006,19.92157006263733,dot,"[0.1, 0.1, 0.06, 0.08, 0.08]","[[-0.006164932418690097, -0.4528126201229341], [-0.1681524682570009, -0.11721653268637569], [-0.1959903964051736, -0.3710708837277218], [0.03544926667602863, -0.1302589477940128], [0.16830580561999814, -0.32298356607012285]]",density,black,,,N009,visual,1,[],"['1', '2', '3', '4']",1,2023.2.3,harveyvisual,2.1,[],8,0.75,
0,pause,0.4,None,None,None,0,51,51,51,,,,,,,,,,,,,N009,visual,1,[],"['1', '2', '3', '4']",1,2023.2.3,harveyvisual,2.1,[],8,0.75,
5,dot,0.3,['dot'],['density'],black,0,52,52,52,,,20.600211143493652,20.321599006652832,20.62158703804016,dot,"[0.08, 0.06, 0.1, 0.06, 0.08]","[[0.07471778162596296, -0.10525453490666745], [0.30258431325283514, -0.18125951612401361], [-0.10797831538154114, 0.025200229490558432], [0.07898181201564736, 0.11749757771993925], [0.31731369449760916, 0.032388289652815004]]",density,black,,,N009,visual,1,[],"['1', '2', '3', '4']",1,2023.2.3,harveyvisual,2.1,[],8,0.75,
0,pause,0.4,None,None,None,0,53,53,53,,,,,,,,,,,,,N009,visual,1,[],"['1', '2', '3', '4']",1,2023.2.3,harveyvisual,2.1,[],8,0.75,
5,dot,0.3,['dot'],['density'],black,0,54,54,54,,,21.300222158432007,21.02154517173767,21.321534156799316,dot,"[0.06, 0.06, 0.06, 0.08, 0.08]","[[-0.13250041589442924, 0.4634743177333449], [-0.03625216126902591, 0.28212032656479163], [0.10864293512180892, 0.5244886061775208], [-0.2806491611955352, 0.29160063440784684], [-0.17458602784440078, 0.11997474961663163]]",density,black,,,N009,visual,1,[],"['1', '2', '3', '4']",1,2023.2.3,harveyvisual,2.1,[],8,0.75,
0,pause,0.4,None,None,None,0,55,55,55,,,,,,,,,,,,,N009,visual,1,[],"['1', '2', '3', '4']",1,2023.2.3,harveyvisual,2.1,[],8,0.75,
5,dot,0.3,['dot'],['density'],black,0,56,56,56,,,22.000208139419556,21.72152805328369,22.02152109146118,dot,"[0.1, 0.06, 0.1, 0.06, 0.06]","[[0.21791283729510122, -0.3451859720731072], [0.5246150578842218, -0.1749209719782184], [0.23417080448362212, 0.06149420791510773], [0.21628546435715315, -0.14179681516434317], [0.46094971099473236, 0.03541120369123469]]",density,black,,,N009,visual,1,[],"['1', '2', '3', '4']",1,2023.2.3,harveyvisual,2.1,[],8,0.75,
0,pause,0.4,None,None,None,0,57,57,57,,,,,,,,,,,,,N009,visual,1,[],"['1', '2', '3', '4']",1,2023.2.3,harveyvisual,2.1,[],8,0.75,
5,dot,0.3,['dot'],['density'],black,0,58,58,58,,,22.700228214263916,22.421512126922607,22.721557140350342,dot,"[0.08, 0.06, 0.08, 0.08, 0.08]","[[0.10558973120531606, -0.20428866875977839], [-0.0893225412758366, 0.16524926947551877], [-0.05793580974794309, -0.07826743033729393], [0.11130747138107101, 0.10875249109580729], [0.28035132100960686, -0.09064984251937742]]",density,black,,,N009,visual,1,[],"['1', '2', '3', '4']",1,2023.2.3,harveyvisual,2.1,[],8,0.75,
0,pause,0.4,None,None,None,0,59,59,59,,,,,,,,,,,,,N009,visual,1,[],"['1', '2', '3', '4']",1,2023.2.3,harveyvisual,2.1,[],8,0.75,
6,dot,0.3,['dot'],['density'],black,0,60,60,60,,,23.40022301673889,23.12150812149048,23.421581029891968,dot,"[0.1, 0.08, 0.1, 0.08, 0.06, 0.1]","[[-0.5416753121247185, 0.020803147184574915], [-0.3232269173664433, -0.07161231053200118], [-0.3008479376061402, -0.286480119217458], [-0.22299540496279888, 0.12470258063391813], [-0.10776740766186912, -0.19554033341247495], [-0.5165544979209102, -0.21376225914528924]]",density,black,,,N009,visual,1,[],"['1', '2', '3', '4']",1,2023.2.3,harveyvisual,2.1,[],8,0.75,
0,pause,0.4,None,None,None,0,61,61,61,,,,,,,,,,,,,N009,visual,1,[],"['1', '2', '3', '4']",1,2023.2.3,harveyvisual,2.1,[],8,0.75,
6,dot,0.3,['dot'],['density'],black,0,62,62,62,,,24.100213050842285,23.821545124053955,24.121479988098145,dot,"[0.1, 0.08, 0.06, 0.06, 0.08, 0.06]","[[-0.2715212558254698, 0.2586056842756752], [-0.41011716394998093, -0.23288273174477314], [-0.4259032553852052, 0.02963770343160952], [-0.037696467485790364, -0.07921729390734374], [-0.19058944014171011, 0.07565381115733183], [-0.22931220879523878, -0.14417898787482208]]",density,black,,,N009,visual,1,[],"['1', '2', '3', '4']",1,2023.2.3,harveyvisual,2.1,[],8,0.75,
0,pause,0.4,None,None,None,0,63,63,63,,,,,,,,,,,,,N009,visual,1,[],"['1', '2', '3', '4']",1,2023.2.3,harveyvisual,2.1,[],8,0.75,
6,dot,0.3,['dot'],['density'],black,0,64,64,64,,,24.80022406578064,24.52147603034973,24.82144808769226,dot,"[0.06, 0.08, 0.08, 0.08, 0.1, 0.06]","[[0.1442800129286608, -0.025670240792647715], [-0.253335145558221, 0.06312541807928282], [0.15340240856287354, 0.2410349392962658], [-0.1639657784688781, 0.25075335361279655], [-0.07910231793701084, -0.12784096878077061], [-0.011661193723423325, 0.11361106492824657]]",density,black,,,N009,visual,1,[],"['1', '2', '3', '4']",1,2023.2.3,harveyvisual,2.1,[],8,0.75,
0,pause,0.4,None,None,None,0,65,65,65,,,,,,,,,,,,,N009,visual,1,[],"['1', '2', '3', '4']",1,2023.2.3,harveyvisual,2.1,[],8,0.75,
6,dot,0.3,['dot'],['density'],black,0,66,66,66,,,25.50021719932556,25.221479177474976,25.521473169326782,dot,"[0.08, 0.08, 0.08, 0.06, 0.08, 0.1]","[[-0.3078382271761739, 0.4361778186671046], [-0.059169983783578364, 0.44796520308269433], [-0.3209935464877752, 0.22545519901795916], [-0.10826469778565927, 0.24929594343002343], [-0.016554185736113114, 0.06783813438016018], [-0.29360476626160575, 0.00756342739423081]]",density,black,,,N009,visual,1,[],"['1', '2', '3', '4']",1,2023.2.3,harveyvisual,2.1,[],8,0.75,
0,pause,0.4,None,None,None,0,67,67,67,,,,,,,,,,,,,N009,visual,1,[],"['1', '2', '3', '4']",1,2023.2.3,harveyvisual,2.1,[],8,0.75,
6,dot,0.3,['dot'],['density'],black,0,68,68,68,,,26.20023202896118,25.921471118927002,26.22149109840393,dot,"[0.06, 0.06, 0.06, 0.1, 0.08, 0.08]","[[0.01776890784276672, 0.3448500499300058], [-0.18238616215991446, 0.4840889924469993], [-0.2129582374372363, 0.07157874559070018], [-0.41549008775918617, 0.14353268657608398], [0.019487844458329944, 0.1389587799501653], [-0.21004805074000235, 0.2837936954907191]]",density,black,,,N009,visual,1,[],"['1', '2', '3', '4']",1,2023.2.3,harveyvisual,2.1,[],8,0.75,
0,pause,0.4,None,None,None,0,69,69,69,,,,,,,,,,,,,N009,visual,1,[],"['1', '2', '3', '4']",1,2023.2.3,harveyvisual,2.1,[],8,0.75,
6,dot,0.3,['dot'],['density'],black,0,70,70,70,,,26.900228023529053,26.62141704559326,26.921393156051636,dot,"[0.1, 0.08, 0.1, 0.1, 0.06, 0.08]","[[-0.5042184434856596, 0.24959378884587158], [-0.14877643798118484, -0.059020126001740114], [-0.46546181494132466, -0.1471818588402077], [-0.26957518187208745, -0.22263810459524838], [-0.2342448443914648, 0.21754944417529726], [-0.37109182385784195, 0.03297203532481631]]",density,black,,,N009,visual,1,[],"['1', '2', '3', '4']",1,2023.2.3,harveyvisual,2.1,[],8,0.75,
0,pause,0.4,None,None,None,0,71,71,71,,,,,,,,,,,,,N009,visual,1,[],"['1', '2', '3', '4']",1,2023.2.3,harveyvisual,2.1,[],8,0.75,
7,dot,0.3,['dot'],['density'],black,0,72,72,72,,,27.600223064422607,27.321401119232178,27.621381998062134,dot,"[0.1, 0.1, 0.1, 0.08, 0.06, 0.08, 0.1]","[[-0.1635229753841098, 0.12186382262109141], [0.03437657187081179, 0.5178389267683822], [0.324184412335695, 0.17931743601205324], [0.08929018524031027, 0.11005745596178185], [-0.1318259817332877, 0.4026967659136047], [-0.053046683696667, -0.06058584598870606], [0.042745683665752716, 0.304616966822181]]",density,black,,,N009,visual,1,[],"['1', '2', '3', '4']",1,2023.2.3,harveyvisual,2.1,[],8,0.75,
0,pause,0.4,None,None,None,0,73,73,73,,,,,,,,,,,,,N009,visual,1,[],"['1', '2', '3', '4']",1,2023.2.3,harveyvisual,2.1,[],8,0.75,
7,dot,0.3,['dot'],['density'],black,0,74,74,74,,,28.300233125686646,28.021382093429565,28.321372032165527,dot,"[0.06, 0.06, 0.06, 0.1, 0.08, 0.08, 0.06]","[[-0.15204905838880944, -0.5333107186751418], [-0.1519936835116667, -0.2986813487337615], [0.3123805602017952, -0.370842296180838], [-0.04397638837772695, -0.01669328424437847], [0.11716920447009348, -0.14912816843546053], [0.1067198166566748, -0.5553575834591685], [0.04038917577175449, -0.3541606866516689]]",density,black,,,N009,visual,1,[],"['1', '2', '3', '4']",1,2023.2.3,harveyvisual,2.1,[],8,0.75,
0,pause,0.4,None,None,None,0,75,75,75,,,,,,,,,,,,,N009,visual,1,[],"['1', '2', '3', '4']",1,2023.2.3,harveyvisual,2.1,[],8,0.75,
7,dot,0.3,['dot'],['density'],black,0,76,76,76,,,29.00021505355835,28.72134804725647,29.02134418487549,dot,"[0.06, 0.1, 0.08, 0.08, 0.06, 0.1, 0.06]","[[0.020512593940644967, 0.06058225053891463], [-0.12457192929091994, 0.22210134043855223], [0.2267676360835929, 0.07227077176864677], [-0.19381219694833235, -0.14277017550647156], [0.096077147208419, -0.13886261858003718], [0.087393672000005, 0.26445259248386815], [-0.018663113410245565, 0.4344684582511623]]",density,black,,,N009,visual,1,[],"['1', '2', '3', '4']",1,2023.2.3,harveyvisual,2.1,[],8,0.75,
0,pause,0.4,None,None,None,0,77,77,77,,,,,,,,,,,,,N009,visual,1,[],"['1', '2', '3', '4']",1,2023.2.3,harveyvisual,2.1,[],8,0.75,
7,dot,0.3,['dot'],['density'],black,0,78,78,78,,,29.700215101242065,29.421327114105225,29.721326112747192,dot,"[0.06, 0.1, 0.1, 0.1, 0.06, 0.06, 0.08]","[[0.4852053974746821, 0.2414638673891567], [0.4489127705046299, 0.011725618337583463], [0.18065050592779294, 0.3526250807613559], [0.03625639584007868, 0.1261309995663498], [0.1794309074695897, -0.0624577020416761], [0.2856641480650803, 0.17770493422509798], [0.3124387752689665, -0.21816880331392838]]",density,black,,,N009,visual,1,[],"['1', '2', '3', '4']",1,2023.2.3,harveyvisual,2.1,[],8,0.75,
0,pause,0.4,None,None,None,0,79,79,79,,,,,,,,,,,,,N009,visual,1,[],"['1', '2', '3', '4']",1,2023.2.3,harveyvisual,2.1,[],8,0.75,
7,dot,0.3,['dot'],['density'],black,0,80,80,80,,,30.400206089019775,30.121329069137573,30.421313047409058,dot,"[0.08, 0.1, 0.1, 0.06, 0.08, 0.1, 0.06]","[[0.3302081014073935, 0.19448071361351732], [-0.22286629369238187, 0.3450023392305547], [-0.11533339293480348, 0.13926201039730488], [0.12023407780451623, 0.21240672508650668], [0.2659789407074307, 0.3894086603790018], [0.026604934602130894, 0.39133200849180605], [0.212400253920387, 0.027377351413115796]]",density,black,,,N009,visual,1,[],"['1', '2', '3', '4']",1,2023.2.3,harveyvisual,2.1,[],8,0.75,
0,pause,0.4,None,None,None,0,81,81,81,,,,,,,,,,,,,N009,visual,1,[],"['1', '2', '3', '4']",1,2023.2.3,harveyvisual,2.1,[],8,0.75,
7,dot,0.3,['dot'],['density'],black,0,82,82,82,,,31.100227117538452,30.821296215057373,31.121288061141968,dot,"[0.1, 0.06, 0.08, 0.08, 0.08, 0.06, 0.08]","[[0.373835093542847, 0.13553027784675922], [0.025265531087721685, -0.15487691700731251], [0.38086488534306906, -0.0720131222026176], [0.4315741710459581, -0.28075472739566504], [0.18097069018870113, 0.01647246612045595], [0.1962900518120967, -0.2624101628120604], [0.08955660480178401, 0.2127528718980948]]",density,black,,,N009,visual,1,[],"['1', '2', '3', '4']",1,2023.2.3,harveyvisual,2.1,[],8,0.75,
0,pause,0.4,None,None,None,0,83,83,83,,,,,,,,,,,,,N009,visual,1,[],"['1', '2', '3', '4']",1,2023.2.3,harveyvisual,2.1,[],8,0.75,
8,dot,0.3,['dot'],['density'],black,0,84,84,84,,,31.800209045410156,31.5212721824646,31.821269035339355,dot,"[0.06, 0.06, 0.06, 0.08, 0.06, 0.1, 0.08, 0.06]","[[0.34834348934164344, -0.28812382596974456], [-0.10329597477015798, -0.5243874580500916], [0.11080732975293575, -0.39067626210733153], [-0.006800183936578442, -0.10390350920236302], [0.17453264242573352, -0.004648084789036161], [-0.11839138898177409, -0.2765800857961495], [-0.2122949223397977, -0.08354151726817095], [0.0010823045536620208, 0.09995244087301837]]",density,black,,,N009,visual,1,[],"['1', '2', '3', '4']",1,2023.2.3,harveyvisual,2.1,[],8,0.75,
0,pause,0.4,None,None,None,0,85,85,85,,,,,,,,,,,,,N009,visual,1,[],"['1', '2', '3', '4']",1,2023.2.3,harveyvisual,2.1,[],8,0.75,
8,dot,0.3,['dot'],['density'],black,0,86,86,86,,,32.50020909309387,32.2212700843811,32.52126216888428,dot,"[0.06, 0.1, 0.06, 0.08, 0.1, 0.08, 0.08, 0.06]","[[0.32983457944800887, -0.09988122376634187], [0.002544499336209532, 0.05447162498302279], [0.49322357980250997, 0.04173156098678792], [0.3398992085464782, -0.3241559212022164], [0.12656458423521935, -0.36323236959635974], [0.5072737450674915, -0.19500703868861743], [0.06482113683766944, -0.1422911224505784], [0.25865538318477954, 0.20042726536108785]]",density,black,,,N009,visual,1,[],"['1', '2', '3', '4']",1,2023.2.3,harveyvisual,2.1,[],8,0.75,
0,pause,0.4,None,None,None,0,87,87,87,,,,,,,,,,,,,N009,visual,1,[],"['1', '2', '3', '4']",1,2023.2.3,harveyvisual,2.1,[],8,0.75,
8,dot,0.3,['dot'],['density'],black,0,88,88,88,,,33.200234174728394,32.92124915122986,33.221264123916626,dot,"[0.08, 0.06, 0.1, 0.08, 0.1, 0.08, 0.08, 0.1]","[[0.32983457944800887, -0.09988122376634187], [0.002544499336209532, 0.05447162498302279], [0.49322357980250997, 0.04173156098678792], [0.3398992085464782, -0.3241559212022164], [0.12656458423521935, -0.36323236959635974], [0.5072737450674915, -0.19500703868861743], [0.06482113683766944, -0.1422911224505784], [0.25865538318477954, 0.20042726536108785]]",density,black,,,N009,visual,1,[],"['1', '2', '3', '4']",1,2023.2.3,harveyvisual,2.1,[],8,0.75,
0,pause,0.4,None,None,None,0,89,89,89,,,,,,,,,,,,,N009,visual,1,[],"['1', '2', '3', '4']",1,2023.2.3,harveyvisual,2.1,[],8,0.75,
8,dot,0.3,['dot'],['density'],black,0,90,90,90,,,33.90022110939026,33.62128019332886,33.921300172805786,dot,"[0.1, 0.1, 0.06, 0.08, 0.06, 0.1, 0.06, 0.1]","[[0.4694715163891994, 0.13329625263481096], [0.14358160208090395, 0.35167434699812705], [0.41559735975202405, 0.3690190921299561], [-0.041805684447173724, 0.4315913723966695], [-0.04993254304034498, 0.2285123563850015], [0.25337459258073897, 0.16365346604105616], [0.18476510797087844, 0.5481483313560797], [0.14868800337579569, -0.10349430855878591]]",density,black,,,N009,visual,1,[],"['1', '2', '3', '4']",1,2023.2.3,harveyvisual,2.1,[],8,0.75,
0,pause,0.4,None,None,None,0,91,91,91,,,,,,,,,,,,,N009,visual,1,[],"['1', '2', '3', '4']",1,2023.2.3,harveyvisual,2.1,[],8,0.75,
8,dot,0.3,['dot'],['density'],black,0,92,92,92,,,34.60023617744446,34.321209192276,34.62120819091797,dot,"[0.06, 0.1, 0.1, 0.06, 0.06, 0.1, 0.1, 0.1]","[[-0.19469543066458847, -0.326291241472255], [0.30343637985980976, -0.10925869102227477], [-0.1969922581528186, -0.11664339975312436], [0.2570255161168456, -0.3247060146943647], [0.10684135558856425, -0.18174565546534566], [0.03482742583321104, -0.4893606045609451], [-0.015658395544436696, -0.0001692298399926468], [0.11980560642279467, 0.15585563517441894]]",density,black,,,N009,visual,1,[],"['1', '2', '3', '4']",1,2023.2.3,harveyvisual,2.1,[],8,0.75,
0,pause,0.4,None,None,None,0,93,93,93,,,,,,,,,,,,,N009,visual,1,[],"['1', '2', '3', '4']",1,2023.2.3,harveyvisual,2.1,[],8,0.75,
8,dot,0.3,['dot'],['density'],black,0,94,94,94,,,35.30022311210632,35.02119708061218,35.32117199897766,dot,"[0.06, 0.06, 0.1, 0.08, 0.1, 0.1, 0.08, 0.08]","[[0.11895989691250043, -0.4531686673706004], [-0.16516506104640707, -0.03240926074491446], [0.03539791161122963, 0.017706842047032937], [0.2602726326243711, -0.2021454296306109], [-0.07993394910368964, -0.42305571474287856], [-0.2833532244481061, -0.22994433794129646], [0.3633812293108319, -0.4186270945829863], [-0.04042382183071007, -0.1991401458565282]]",density,black,,,N009,visual,1,[],"['1', '2', '3', '4']",1,2023.2.3,harveyvisual,2.1,[],8,0.75,
0,pause,0.4,None,None,None,0,95,95,95,,,,,,,,,,,,,N009,visual,1,[],"['1', '2', '3', '4']",1,2023.2.3,harveyvisual,2.1,[],8,0.75,
9,dot,0.3,['dot'],['density'],black,0,96,96,96,,,36.00021004676819,35.721177101135254,36.02117419242859,dot,"[0.08, 0.08, 0.06, 0.08, 0.08, 0.06, 0.06, 0.06, 0.06]","[[0.22829877875946783, -0.39640994854570016], [0.3366371496270161, 0.05839125036393789], [-0.11436045239834208, -0.12024221759915668], [-0.02100147820737577, -0.3824026009196371], [0.08479146627654295, 0.024089629435920912], [0.16206374850784472, -0.16075841177209507], [0.38495438842944835, -0.24810596019115372], [-0.23418047716532614, 0.09565997955556291], [0.2111996426858246, 0.23215637940447356]]",density,black,,,N009,visual,1,[],"['1', '2', '3', '4']",1,2023.2.3,harveyvisual,2.1,[],8,0.75,
0,pause,0.4,None,None,None,0,97,97,97,,,,,,,,,,,,,N009,visual,1,[],"['1', '2', '3', '4']",1,2023.2.3,harveyvisual,2.1,[],8,0.75,
9,dot,0.3,['dot'],['density'],black,0,98,98,98,,,36.70021319389343,36.4211630821228,36.72115206718445,dot,"[0.06, 0.06, 0.06, 0.08, 0.08, 0.1, 0.06, 0.06, 0.08]","[[0.27429149071172837, 0.34251676390746333], [0.46797507249945486, 0.005491811463162166], [0.21235580877939833, 0.08757146436558581], [0.046223583492975936, 0.2932249054251131], [0.07051592556679111, -0.0704922843318231], [0.30438918969270623, -0.13028831600800136], [0.11534598117609637, 0.5236829685630697], [-0.06673610159464062, 0.12515255452502297], [-0.14439101605953233, -0.1332028051536465]]",density,black,,,N009,visual,1,[],"['1', '2', '3', '4']",1,2023.2.3,harveyvisual,2.1,[],8,0.75,
0,pause,0.4,None,None,None,0,99,99,99,,,,,,,,,,,,,N009,visual,1,[],"['1', '2', '3', '4']",1,2023.2.3,harveyvisual,2.1,[],8,0.75,
9,dot,0.3,['dot'],['density'],black,0,100,100,100,,,37.40022802352905,37.1211462020874,37.42114520072937,dot,"[0.06, 0.06, 0.06, 0.08, 0.06, 0.08, 0.06, 0.08, 0.06]","[[-0.3974741157875733, -0.3691322615124248], [0.01813275331019438, -0.041305186939584786], [-0.297817964195003, 0.1404435238036691], [-0.24996212712231053, -0.10674501212047392], [-0.45607543705465475, -0.10954340680539053], [-0.5097726394514722, 0.08872958744943038], [-0.16376728557074105, -0.3354799619734228], [-0.07115584905184995, 0.17737469530672276], [-0.4529869372404742, 0.29851616761646654]]",density,black,,,N009,visual,1,[],"['1', '2', '3', '4']",1,2023.2.3,harveyvisual,2.1,[],8,0.75,
0,pause,0.4,None,None,None,0,101,101,101,,,,,,,,,,,,,N009,visual,1,[],"['1', '2', '3', '4']",1,2023.2.3,harveyvisual,2.1,[],8,0.75,
9,dot,0.3,['dot'],['density'],black,0,102,102,102,,,38.10021209716797,37.82112216949463,38.12111020088196,dot,"[0.1, 0.06, 0.1, 0.08, 0.06, 0.08, 0.06, 0.08, 0.06]","[[-0.4007656520072294, -0.25517300445391483], [-0.002534053661406415, -0.03841937385778563], [0.03867088550537559, -0.37109058839216275], [0.14298263539714814, -0.19121790068267305], [-0.18592892280395246, 0.09800459324165622], [-0.17114407793371844, -0.47763389460370764], [0.20594417137152282, 0.033112046987541804], [-0.3669302527083935, -0.010624696365658668], [-0.20182203610849478, -0.19970173151634407]]",density,black,,,N009,visual,1,[],"['1', '2', '3', '4']",1,2023.2.3,harveyvisual,2.1,[],8,0.75,
0,pause,0.4,None,None,None,0,103,103,103,,,,,,,,,,,,,N009,visual,1,[],"['1', '2', '3', '4']",1,2023.2.3,harveyvisual,2.1,[],8,0.75,
9,dot,0.3,['dot'],['density'],black,0,104,104,104,,,38.800213098526,38.52116012573242,38.82109713554382,dot,"[0.08, 0.08, 0.08, 0.06, 0.06, 0.08, 0.06, 0.1, 0.06]","[[-0.5586095828397086, -0.08452232608263664], [-0.5120381862419278, 0.15370428824398014], [-0.08562135647518901, 0.024493186907675612], [-0.3204263364507457, 0.2397592637991136], [-0.21279117965626912, -0.18999926927512983], [-0.34615304282718484, -0.002506468551820401], [-0.32642794983948487, 0.4412976810435594], [-0.12278716272436474, 0.3390467791696382], [0.05505897535061007, 0.17426903254619158]]",density,black,,,N009,visual,1,[],"['1', '2', '3', '4']",1,2023.2.3,harveyvisual,2.1,[],8,0.75,
0,pause,0.4,None,None,None,0,105,105,105,,,,,,,,,,,,,N009,visual,1,[],"['1', '2', '3', '4']",1,2023.2.3,harveyvisual,2.1,[],8,0.75,
9,dot,0.3,['dot'],['density'],black,0,106,106,106,,,39.5002281665802,39.22117018699646,39.52114820480347,dot,"[0.06, 0.06, 0.08, 0.1, 0.08, 0.1, 0.1, 0.06, 0.1]","[[-0.03413633707233166, 0.539775862693792], [0.03045342777742709, 0.14881397110038386], [0.3968101769942594, 0.3516381959676015], [-0.12464897846505978, 0.27513009849494485], [0.24828272947848068, 0.13372878599656182], [0.1825630446668698, 0.5466865974155928], [-0.40057775338259505, 0.3148646888607764], [0.06988801613907401, -0.06658504348068199], [0.07277149512897427, 0.3699912437376705]]",density,black,,,N009,visual,1,[],"['1', '2', '3', '4']",1,2023.2.3,harveyvisual,2.1,[],8,0.75,
0,pause,0.4,None,None,None,0,107,107,107,,,,,,,,,,,,,N009,visual,1,[],"['1', '2', '3', '4']",1,2023.2.3,harveyvisual,2.1,[],8,0.75,
20,dot,0.3,['dot'],['density'],black,0,108,108,108,,,40.20021200180054,39.92108201980591,40.22106909751892,dot,"[0.08, 0.06, 0.08, 0.08, 0.08, 0.08, 0.08, 0.06, 0.08, 0.08, 0.08, 0.06, 0.08, 0.1, 0.06, 0.06, 0.08, 0.1, 0.08, 0.06]","[[-0.2524012024532617, 0.2923015296120507], [0.5070241405845269, -0.17889039019508046], [0.4290109466958537, 0.36535748630924253], [-0.11927052221192613, -0.17185421294271513], [0.3039183526144621, -0.306865887855606], [0.026639584531825355, 0.3934039297087769], [0.17629480033064993, -0.5205586825203751], [0.39630001051972885, 0.12504920773153888], [0.23058759193035738, 0.49538952045707363], [-0.5807757086133778, 0.06805215557406913], [0.01855109768210239, 0.04114456166591429], [-0.3870410460038133, -0.35272624981577605], [-0.2648931117861023, 0.48362097670832316], [0.3045214113776633, -0.09948948064026819], [-0.03668025026244803, -0.5293040330818399], [-0.36593480707333653, -0.07542321313424877], [-0.5737236493106557, -0.16205507593943366], [-0.44654371785716773, 0.2087035824040651], [0.0638972722585619, -0.2638418470058459], [0.04482948297771727, 0.6019279771341124]]",density,black,,,N009,visual,1,[],"['1', '2', '3', '4']",1,2023.2.3,harveyvisual,2.1,[],8,0.75,
0,pause,0.4,None,None,None,0,109,109,109,,,,,,,,,,,,,N009,visual,1,[],"['1', '2', '3', '4']",1,2023.2.3,harveyvisual,2.1,[],8,0.75,
20,dot,0.3,['dot'],['density'],black,0,110,110,110,,,40.900222063064575,40.62106704711914,40.92108416557312,dot,"[0.08, 0.1, 0.08, 0.1, 0.1, 0.1, 0.1, 0.1, 0.06, 0.06, 0.1, 0.06, 0.08, 0.08, 0.06, 0.06, 0.06, 0.06, 0.08, 0.06]","[[0.25053719860688406, 0.4204812510303948], [-0.5200393297733285, -0.13930307612432832], [-0.12144064296849982, -0.4723059005536602], [0.5358315786504159, 0.24155694861712662], [0.3815036343091631, 0.004514009459121282], [0.079267173234715, -0.23498769138827352], [0.028377132611940747, 0.23190805522529523], [-0.16940740440738938, 0.48359719448892546], [0.5341239105121219, -0.2733256833080865], [-0.339605980959436, 0.09511930548820235], [-0.3896637153576732, -0.4359276596853156], [-0.11045829440801835, 0.06384620517724382], [0.3651380743111783, -0.4609295755011648], [-0.4441311940871012, 0.2815214168196073], [-0.26727047726348196, -0.22934330904021277], [0.21232385263994058, 0.18021442964157175], [0.5703523216956489, -0.07011331769670373], [0.16220290410224036, -0.5190264861368815], [0.07889395742687344, 0.03753009283675768], [0.11111472186863602, 0.5938785197405207]]",density,black,,,N009,visual,1,[],"['1', '2', '3', '4']",1,2023.2.3,harveyvisual,2.1,[],8,0.75,
0,pause,0.4,None,None,None,0,111,111,111,,,,,,,,,,,,,N009,visual,1,[],"['1', '2', '3', '4']",1,2023.2.3,harveyvisual,2.1,[],8,0.75,
20,dot,0.3,['dot'],['density'],black,0,112,112,112,,,41.600218057632446,41.32103610038757,41.621089220047,dot,"[0.08, 0.06, 0.08, 0.06, 0.1, 0.06, 0.06, 0.06, 0.06, 0.08, 0.1, 0.06, 0.1, 0.06, 0.08, 0.06, 0.1, 0.1, 0.08, 0.08]","[[-0.502217810782581, 0.15480990892283986], [0.07815308552551192, 0.35138433005829617], [0.1953690618851155, -0.4703772336310036], [0.11725439947497307, 0.1233423845299626], [0.44049489068831205, 0.3552656535020004], [-0.13072045133337917, 0.25540627823741113], [-0.4089115909044977, -0.4373808310596924], [0.5674454769684133, 0.0006818953729692823], [-0.42955452699273855, -0.0883619028995743], [-0.10813511787640984, -0.07978143067305854], [-0.05911341472711551, -0.27378488468545353], [0.26271457946665866, -0.1142545775408057], [-0.0931162468075365, 0.5358448682955013], [0.44024164987719894, -0.24798240980262437], [-0.23793963205356633, 0.06154978381498111], [0.25501936312878337, 0.425388875171011], [-0.16076305763870502, -0.47240126344219296], [0.3055072277133938, 0.2110712497185011], [-0.27186392309686275, -0.2505917457967015], [-0.4618022542497725, 0.3574688216989027]]",density,black,,,N009,visual,1,[],"['1', '2', '3', '4']",1,2023.2.3,harveyvisual,2.1,[],8,0.75,
0,pause,0.4,None,None,None,0,113,113,113,,,,,,,,,,,,,N009,visual,1,[],"['1', '2', '3', '4']",1,2023.2.3,harveyvisual,2.1,[],8,0.75,
20,dot,0.3,['dot'],['density'],white,0,114,114,114,,,42.30021905899048,42.02110004425049,42.32101821899414,dot,"[0.08, 0.08, 0.08, 0.1, 0.08, 0.08, 0.06, 0.1, 0.1, 0.1, 0.06, 0.08, 0.08, 0.08, 0.06, 0.1, 0.1, 0.08, 0.06, 0.1]","[[-0.35863981528909583, -0.14712854887096932], [0.4252044321504199, 0.061484841476288965], [-0.44825529284904786, 0.3863228043351874], [-0.01216045895519402, -0.5598941132589716], [0.30259333444717773, -0.5024673809269734], [-0.47352769606261313, -0.3737894921219326], [0.10731256693306701, 0.12127954499626747], [-0.11919457869494732, -0.16385141917836638], [0.24710158702358265, -0.2503344717259314], [0.027639971637519745, 0.523376459603873], [-0.08107969763388534, 0.1583890367446117], [0.5423881493924146, 0.254307661891283], [0.402340946720141, 0.4515165457045037], [0.34152939994204423, 0.2551779542047341], [-0.27629646072449215, 0.054698013747353946], [0.44398361971194655, -0.2768590902274384], [0.03952815910739238, -0.32298472756278673], [0.5537191095648298, -0.10545277531782277], [-0.2837370645598903, -0.43341884331852887], [-0.6025419136566614, 0.006552189071124821]]",density,white,,,N009,visual,1,[],"['1', '2', '3', '4']",1,2023.2.3,harveyvisual,2.1,[],8,0.75,
0,pause,0.4,None,None,None,0,115,115,115,,,,,,,,,,,1,42.3024480342865,N009,visual,1,[],"['1', '2', '3', '4']",1,2023.2.3,harveyvisual,2.1,[],8,0.75,
20,dot,0.3,['dot'],['density'],black,0,116,116,116,,,43.00021815299988,42.72100114822388,43.020995140075684,dot,"[0.08, 0.06, 0.1, 0.08, 0.1, 0.06, 0.08, 0.1, 0.06, 0.06, 0.08, 0.1, 0.06, 0.06, 0.06, 0.08, 0.06, 0.08, 0.08, 0.1]","[[0.49877059070180507, -0.023569689176595354], [-0.256374926431965, -0.37614884634716284], [-0.1480206127477846, 0.0522576205104891], [-0.3823575186788041, -0.22319704918376404], [0.02592560212171402, 0.6018653829294549], [-0.39837536185958117, 0.1790653558862238], [-0.42928223416865946, 0.3761968791173413], [0.29762462550053337, 0.2227017579851409], [0.4739450518132581, -0.31099574071736735], [0.2529109842798226, -0.23791003365354635], [-0.038471304764148395, 0.24949057376074613], [0.0006179557976346839, -0.5927344897511888], [0.15220014896489575, 0.34896845509901875], [0.5498217718804798, 0.16529338068293636], [-0.5401987751769244, 0.04251748938027683], [0.3109359527796146, -0.47894006001743034], [0.2776241620856954, 0.5314651544721412], [-0.03627513759349199, -0.34859051007833086], [-0.22980300870821513, 0.4432747632165773], [0.23270362290230795, -0.021502334406766743]]",density,black,,,N009,visual,1,[],"['1', '2', '3', '4']",1,2023.2.3,harveyvisual,2.1,[],8,0.75,
0,pause,0.4,None,None,None,0,117,117,117,,,,,,,,,,,,,N009,visual,1,[],"['1', '2', '3', '4']",1,2023.2.3,harveyvisual,2.1,[],8,0.75,
20,dot,0.3,['dot'],['density'],black,0,118,118,118,,,43.70023012161255,43.42098808288574,43.72100019454956,dot,"[0.06, 0.1, 0.08, 0.08, 0.08, 0.06, 0.08, 0.1, 0.06, 0.08, 0.1, 0.08, 0.1, 0.1, 0.06, 0.08, 0.06, 0.1, 0.06, 0.08]","[[0.13528307052208943, 0.3428495374985584], [-0.3710270726201682, 0.26336382762477556], [-0.007512894183200558, -0.5963901639679606], [-0.21258397787964012, -0.33653728028297303], [0.598501108688822, 0.03638451200357244], [0.4406384785098493, 0.165384013794676], [0.43148835085924186, -0.32693722998623], [0.48710461862502996, -0.11853562728651407], [-0.44839504941927394, -0.2123806516880622], [0.05349145765678032, -0.17163557424829373], [-0.06538345460941608, 0.24742258330526035], [-0.5942363226134714, 0.06643772341604717], [0.2220713362839437, -0.4445569759909411], [0.1274724671909785, 0.5576213164217124], [0.1475895845869024, 0.024332906908383856], [-0.357621494896966, 0.017573533065674996], [-0.33354037495295286, 0.49306498514654407], [0.36078559099897467, 0.3813983563938002], [-0.11283530795677504, 0.4549454924035674], [0.0020498936890468444, -0.3822240649831949]]",density,black,,,N009,visual,1,[],"['1', '2', '3', '4']",1,2023.2.3,harveyvisual,2.1,[],8,0.75,
0,pause,0.4,None,None,None,0,119,119,119,,,,,,,,,,,,,N009,visual,1,[],"['1', '2', '3', '4']",1,2023.2.3,harveyvisual,2.1,[],8,0.75,
20,dot,0.3,['dot'],['density'],black,0,120,120,120,,,44.40022921562195,44.12095499038696,44.42098116874695,dot,"[0.1, 0.06, 0.08, 0.08, 0.08, 0.1, 0.1, 0.06, 0.08, 0.1, 0.08, 0.08, 0.06, 0.08, 0.06, 0.06, 0.06, 0.08, 0.08, 0.06]","[[-0.18246944168421908, 0.47063468740315095], [0.45719052947650896, -0.38545907098250787], [-0.1771530733819799, -0.1356640958462187], [-0.30008781778128574, 0.23442127009060743], [0.44770986323051354, 0.16352337755412727], [-0.3395919107037894, -0.29413098035796403], [0.3292004782360328, -0.14686205961969578], [-0.15348684579072613, -0.552457550584709], [-0.5022326013646026, 0.2918781180566043], [0.541197916743663, -0.11343230802147689], [-0.4643597756878445, -0.04946206334319331], [0.12450090217813126, -0.06621054470970711], [0.19217684693471104, -0.3896300723428352], [0.30755948333151384, 0.4770707418447271], [-0.10218883401214285, 0.23574376228967442], [0.01711826148404505, 0.5513550665356077], [-0.026644656664549182, -0.38304424645950536], [0.15674272990259286, 0.14922242650043327], [0.1110651031251082, -0.5885346391191884], [0.07257673211598104, 0.36301975616581195]]",density,black,,,N009,visual,1,[],"['1', '2', '3', '4']",1,2023.2.3,harveyvisual,2.1,[],8,0.75,
0,pause,0.4,None,None,None,0,121,121,121,,,,,,,,,,,,,N009,visual,1,[],"['1', '2', '3', '4']",1,2023.2.3,harveyvisual,2.1,[],8,0.75,
20,dot,0.3,['dot'],['density'],black,0,122,122,122,,,45.100213050842285,44.82097315788269,45.120965003967285,dot,"[0.08, 0.1, 0.06, 0.06, 0.1, 0.1, 0.1, 0.08, 0.08, 0.06, 0.06, 0.08, 0.06, 0.1, 0.06, 0.1, 0.08, 0.08, 0.06, 0.1]","[[-0.4306822753897229, -0.2458333604855128], [0.2390465027073284, -0.3409251792832151], [0.04266925789506826, -0.36655346592412286], [0.039695426907854325, 0.01371985979117818], [0.46391472336211137, -0.16671238535495136], [-0.5180475527233094, -0.05824530775378289], [-0.3924350702963296, 0.09812769244200942], [-0.11855173099612432, 0.536908501144254], [0.30583562084218097, 0.37276666718439955], [-0.18782984695919125, 0.11761684149506291], [0.11068160471195365, -0.5756945135304432], [-0.22001127672479542, 0.3305572655800536], [0.19955894422333065, 0.16999682183487974], [-0.4133068124012437, 0.3788533031641166], [-0.14602981975387613, -0.5047127607898734], [0.45069626934282614, 0.1262182693053105], [0.05177270160182701, 0.35230721189565994], [0.22348650971938344, 0.5540838042186038], [-0.3574706513037626, -0.4489289585866828], [-0.12701320415066208, -0.0932605489898245]]",density,black,,,N009,visual,1,[],"['1', '2', '3', '4']",1,2023.2.3,harveyvisual,2.1,[],8,0.75,
0,pause,0.4,None,None,None,0,123,123,123,,,,,,,,,,,,,N009,visual,1,[],"['1', '2', '3', '4']",1,2023.2.3,harveyvisual,2.1,[],8,0.75,
20,dot,0.3,['dot'],['density'],black,0,124,124,124,,,45.80023407936096,45.52097821235657,45.82090711593628,dot,"[0.06, 0.1, 0.08, 0.1, 0.1, 0.1, 0.06, 0.08, 0.1, 0.08, 0.08, 0.08, 0.1, 0.06, 0.1, 0.1, 0.1, 0.08, 0.08, 0.06]","[[0.42728240990328914, -0.3299162944411195], [0.4950730296223883, 0.10187539465700357], [-0.2054221941228167, 0.0599563435033047], [0.5934951723726519, -0.06802877315016867], [-0.07192078953213776, 0.41265606515250053], [0.06524303691331912, 0.11336758104527145], [-0.39470589939545964, -0.2065317777292872], [-0.5640453477984538, -0.10527551170020902], [-0.5884851712554885, 0.1029812703747732], [-0.14794477986587035, -0.5477439747902378], [0.5083043418627381, 0.3172093888798345], [-0.4530883277662292, 0.3781745211372186], [0.2938999621836048, -0.13892980113658315], [0.1266699619680155, -0.30690759860639416], [-0.06059582351383397, -0.1684168110778691], [-0.4172210280267512, -0.4013226855817017], [0.2897356192173778, 0.13671458792718383], [0.14234415246983068, 0.45761172897666824], [-0.40056770912496775, 0.14325202830785772], [-0.20429922666532063, 0.5515178906034628]]",density,black,,,N009,visual,1,[],"['1', '2', '3', '4']",1,2023.2.3,harveyvisual,2.1,[],8,0.75,
0,pause,0.4,None,None,None,0,125,125,125,,,,,,,,,,,,,N009,visual,1,[],"['1', '2', '3', '4']",1,2023.2.3,harveyvisual,2.1,[],8,0.75,
20,dot,0.3,['dot'],['density'],black,0,126,126,126,,,46.500208139419556,46.22089219093323,46.52092003822327,dot,"[0.1, 0.1, 0.1, 0.06, 0.08, 0.06, 0.08, 0.08, 0.1, 0.1, 0.06, 0.1, 0.1, 0.1, 0.1, 0.08, 0.1, 0.1, 0.08, 0.08]","[[-0.5258899421947645, 0.22830366690201742], [-0.4377692968970091, -0.2118545876364835], [0.423121040266753, 0.10636857676061923], [0.4872585291646828, -0.12054605908910634], [0.25342283023580514, -0.30277683091720686], [0.030502127336616613, -0.30145086254985126], [0.06587845269638593, 0.5666352905261434], [-0.33477721927238235, -0.3953947086296764], [0.007625912712166838, 0.24908621537861098], [0.33868324114676185, 0.2785996576323043], [0.4459619434598564, -0.36345953179745033], [0.3212184673445897, 0.509252351621357], [-0.3101238304281597, 0.03165461070451081], [-0.5173284331903447, 0.009575386950260445], [-0.3854885206188984, 0.3906995959369721], [-0.10444356431147928, -0.5523018201307998], [-0.13142664352489514, 0.5888536779990792], [-0.16843349149460674, -0.21660334567385348], [0.08474231901628848, -0.11787422089021843], [0.25779313215305366, -0.02107081780691733]]",density,black,,,N009,visual,1,[],"['1', '2', '3', '4']",1,2023.2.3,harveyvisual,2.1,[],8,0.75,
0,pause,0.4,None,None,None,0,127,127,127,,,,,,,,,,,,,N009,visual,1,[],"['1', '2', '3', '4']",1,2023.2.3,harveyvisual,2.1,[],8,0.75,
20,dot,0.3,['dot'],['density'],black,0,128,128,128,,,47.20023703575134,46.92088007926941,47.22093915939331,dot,"[0.06, 0.08, 0.1, 0.06, 0.06, 0.08, 0.06, 0.08, 0.08, 0.08, 0.06, 0.08, 0.06, 0.08, 0.1, 0.08, 0.08, 0.08, 0.1, 0.1]","[[-0.4704998537758531, -0.1637434031129501], [-0.009393741267089473, -0.36831722269152395], [0.5383113591929113, -0.22683646451808884], [-0.2345266928928515, -0.4926582705010951], [0.1441239048535653, -0.5073804296170374], [-0.15107702399830297, -0.13334504369893185], [0.4760061771671512, 0.2948415086160758], [0.29534102106499605, 0.19655126508307252], [-0.18295634059460764, 0.32108201732896924], [-0.22821501810489747, 0.04216205138629914], [0.31529612323738565, -0.059875051237698984], [0.03955133646652775, 0.20800620020058658], [0.2711229947408531, -0.34532985827568546], [0.03063778365860237, 0.5587036506608087], [-0.5927148820576683, 0.07300894326723227], [0.1313049275084064, -0.11023750179467223], [0.5531305077741172, 0.05334062758298283], [0.30200582498491835, 0.4490036662192859], [-0.46714688071085614, 0.37896610832498223], [-0.4342034157061167, 0.17719576702922424]]",density,black,,,N009,visual,1,[],"['1', '2', '3', '4']",1,2023.2.3,harveyvisual,2.1,[],8,0.75,
0,pause,0.4,None,None,None,0,129,129,129,,,,,,,,,,,,,N009,visual,1,[],"['1', '2', '3', '4']",1,2023.2.3,harveyvisual,2.1,[],8,0.75,
20,dot,0.3,['dot'],['density'],black,0,130,130,130,,,47.900235176086426,47.620962142944336,47.92087721824646,dot,"[0.06, 0.08, 0.1, 0.08, 0.06, 0.08, 0.1, 0.08, 0.1, 0.08, 0.08, 0.1, 0.08, 0.08, 0.1, 0.08, 0.1, 0.08, 0.06, 0.08]","[[-0.43739424734002796, 0.2929208634147115], [0.1583069086610961, -0.45544651376787987], [0.005444154820127611, 0.09733537412554427], [0.13660469771008366, 0.3306899207077858], [-0.30219967374741913, -0.050943934038037764], [-0.11310902395529204, -0.4106828528013402], [0.2879525749095597, -0.21814056900288759], [0.4108176778968765, -0.3827326643119415], [0.575944082520418, -0.04138522389488858], [0.5440525668314614, 0.21137853909103038], [-0.5780996011192107, -0.06846588582746553], [0.3775005819994598, 0.36365352069686735], [-0.5041830037799063, -0.3093617529664637], [-0.5260078007099916, 0.1186970718450433], [-0.1753027952768041, 0.3070503582493306], [-0.07079054154478615, -0.1307640724361584], [0.28315875815845837, 0.11751745969386873], [0.1424316104364276, 0.5342569431787888], [-0.21032933778420443, 0.5602099539484986], [-0.29000840237516456, 0.13986636218078885]]",density,black,,,N009,visual,1,[],"['1', '2', '3', '4']",1,2023.2.3,harveyvisual,2.1,[],8,0.75,
0,pause,0.4,None,None,None,0,131,131,131,,,,,,,,,,,,,N009,visual,1,[],"['1', '2', '3', '4']",1,2023.2.3,harveyvisual,2.1,[],8,0.75,
20,dot,0.3,['dot'],['density'],black,0,132,132,132,,,48.600239992141724,48.32087206840515,48.62085700035095,dot,"[0.08, 0.08, 0.1, 0.06, 0.06, 0.1, 0.08, 0.1, 0.06, 0.1, 0.06, 0.08, 0.08, 0.06, 0.1, 0.06, 0.06, 0.08, 0.1, 0.1]","[[-0.3998872625521931, 0.1379801163782779], [-0.2640192686037221, 0.3271567548247917], [0.4415318427007312, -0.19287737469028168], [0.23131897692714887, -0.3507265590232826], [-0.24839671412755976, -0.06949344685553432], [-0.003819443227070285, 0.34722123240246183], [-0.10129751452798896, 0.5850525575170074], [-0.48854258318685556, -0.13313943585294424], [0.2963632875348944, 0.2772011413469174], [0.4916161880453126, 0.3433811923131585], [-0.33902248722162137, -0.4658144431971996], [-0.4414374465811748, 0.40920447747465083], [-0.2265309087793041, -0.2660647418746002], [0.0103593042024831, -0.47474149243774744], [0.5664286970497702, 0.04131629489252009], [-0.5995525226732278, 0.06681153606481816], [0.22818206088907012, -0.5592064079350335], [0.30513018916695234, -0.04500548915812541], [0.08250509428882613, 0.5378764599558769], [0.044487479084970305, -0.16022868167475218]]",density,black,,,N009,visual,1,[],"['1', '2', '3', '4']",1,2023.2.3,harveyvisual,2.1,[],8,0.75,
0,pause,0.4,None,None,None,0,133,133,133,,,,,,,,,,,,,N009,visual,1,[],"['1', '2', '3', '4']",1,2023.2.3,harveyvisual,2.1,[],8,0.75,
20,dot,0.3,['dot'],['density'],black,0,134,134,134,,,49.30022621154785,49.02084302902222,49.32087802886963,dot,"[0.08, 0.06, 0.08, 0.08, 0.06, 0.1, 0.1, 0.1, 0.06, 0.08, 0.1, 0.06, 0.1, 0.1, 0.06, 0.08, 0.1, 0.1, 0.1, 0.06]","[[0.3513616291151561, -0.26824882037028985], [-0.3800820803200984, 0.18455153534413676], [0.5919590555248561, -0.031470451643773725], [-0.06445504614947029, 0.4535230279642969], [-0.6014438467992588, -0.0073011731338836], [0.16780794418241718, 0.34413029537747164], [-0.40859303461819263, -0.014196861572340902], [0.25861661779845624, 0.10035287365550827], [0.28704340294661435, -0.4990770503993747], [-0.3911728573531013, -0.3041800687928201], [0.03785034902644657, 0.03788943993524474], [0.4505714751621853, 0.3156510089883898], [0.06692529262301317, -0.3975117050526642], [-0.37583238420541787, 0.4391346790572192], [-0.1831644523148957, 0.1875670529354755], [-0.2336698819878904, -0.5249087125881197], [0.04966362622514997, -0.1723284086643126], [-0.18594139896347917, -0.2964983389758338], [0.1535493080552569, 0.577055828713379], [0.5687990591116335, 0.1661763819645413]]",density,black,,,N009,visual,1,[],"['1', '2', '3', '4']",1,2023.2.3,harveyvisual,2.1,[],8,0.75,
0,pause,0.4,None,None,None,0,135,135,135,,,,,,,,,,,,,N009,visual,1,[],"['1', '2', '3', '4']",1,2023.2.3,harveyvisual,2.1,[],8,0.75,
20,dot,0.3,['dot'],['density'],black,0,136,136,136,,,50.00022602081299,49.720832109451294,50.02080416679382,dot,"[0.08, 0.06, 0.08, 0.1, 0.08, 0.06, 0.1, 0.1, 0.06, 0.06, 0.1, 0.08, 0.06, 0.1, 0.06, 0.08, 0.08, 0.06, 0.08, 0.06]","[[-0.5114199978591254, -0.13937420696495667], [0.5102852875954845, -0.20111982827795555], [0.5834400498253508, 0.15849685506720984], [0.13543794152859956, -0.4900428967327821], [0.03675208200661617, 0.5193056041182582], [-0.5766421164251452, 0.17081658319811305], [-0.16764515391892065, -0.4689327999203416], [0.03141837512485213, -0.19339058361457417], [0.4204330308553189, -0.36950815600408266], [-0.4639929045508794, 0.3652420696170928], [0.25605502947437353, -0.0835119169347458], [0.18312111203767478, 0.20780127031116502], [-0.19937193601640574, 0.047888986158886815], [0.3983109448141019, 0.2841548441540626], [-0.276560567261463, -0.13732556776989358], [-0.3536047944160329, -0.4226553277308083], [-0.3034660468694648, 0.2096236526022207], [0.43884576627980343, 0.021721955001629267], [-0.09005672214888882, 0.36665462917406444], [-0.00935350953586811, 0.16568714768077608]]",density,black,,,N009,visual,1,[],"['1', '2', '3', '4']",1,2023.2.3,harveyvisual,2.1,[],8,0.75,
0,pause,0.4,None,None,None,0,137,137,137,,,,,,,,,,,,,N009,visual,1,[],"['1', '2', '3', '4']",1,2023.2.3,harveyvisual,2.1,[],8,0.75,
20,dot,0.3,['dot'],['density'],black,0,138,138,138,,,50.70022106170654,50.42079710960388,50.72078514099121,dot,"[0.1, 0.08, 0.1, 0.08, 0.08, 0.1, 0.1, 0.1, 0.06, 0.08, 0.08, 0.08, 0.1, 0.1, 0.1, 0.06, 0.06, 0.1, 0.08, 0.06]","[[0.5041462675160456, -0.09653999758236742], [0.43651056146860456, 0.2568051626386967], [-0.25198324087654367, -0.23101231712720832], [0.23224465415459283, -0.4719750735065444], [0.3917406232320496, -0.3082912924810907], [-0.5689732069299964, -0.02237511430953984], [0.3635585373543705, 0.0497872228188288], [-0.48170111222491735, 0.26041662977462315], [-0.33781651424111003, -0.025024656236534826], [-0.08818513444207521, -0.009096624770695616], [0.18578579870741785, 0.33692017159288046], [-0.38348424144317106, -0.46826319661495924], [0.036620328167748184, -0.42437533432191277], [-0.3280016997998454, 0.48855762938073977], [-0.03336470375356093, 0.3668040247489738], [-0.2553553876682133, 0.30191727384631484], [-0.11178701109644007, -0.5636960680280684], [0.07892007517070687, 0.5494402412751784], [-0.49460900404012675, -0.21449347921097942], [0.13385251542640597, -0.0486897488079856]]",density,black,,,N009,visual,1,[],"['1', '2', '3', '4']",1,2023.2.3,harveyvisual,2.1,[],8,0.75,
0,pause,0.4,None,None,None,0,139,139,139,,,,,,,,,,,,,N009,visual,1,[],"['1', '2', '3', '4']",1,2023.2.3,harveyvisual,2.1,[],8,0.75,
20,dot,0.3,['dot'],['density'],black,0,140,140,140,,,51.4002251625061,51.1207971572876,51.42080211639404,dot,"[0.1, 0.06, 0.08, 0.06, 0.08, 0.08, 0.06, 0.08, 0.1, 0.1, 0.08, 0.08, 0.1, 0.06, 0.08, 0.1, 0.06, 0.08, 0.06, 0.08]","[[0.589149942514536, -0.059200808105846076], [0.5659006304115387, 0.17350154695390466], [-0.2324593649078412, 0.48386597944450405], [0.023487308807964014, -0.3954511850752976], [-0.5201979912866909, -0.29949501634513087], [0.4820461699233666, -0.22586043334187986], [-0.06565010444914532, 0.24291794778737086], [0.2954733010298509, 0.1671069846185007], [0.2884318256706183, -0.3666318951313583], [-0.5749469354839966, 0.1258280422865034], [0.17534294585585797, 0.40282373882426925], [-0.38445348330617996, -0.02137698289365375], [0.37601062841104693, 0.43068151109050373], [-0.18507087529440702, -0.35522281415114787], [-0.27955232899352667, 0.27434824776468925], [0.08362150410543667, -0.18538380595914888], [0.02189180884059827, 0.5826964915814139], [0.006938416195896191, 0.05965305787053854], [0.4086703763536613, 0.006017705267961138], [-0.10859389257555957, -0.10921570222473598]]",density,black,,,N009,visual,1,[],"['1', '2', '3', '4']",1,2023.2.3,harveyvisual,2.1,[],8,0.75,
0,pause,0.4,None,None,None,0,141,141,141,,,,,,,,,,,,,N009,visual,1,[],"['1', '2', '3', '4']",1,2023.2.3,harveyvisual,2.1,[],8,0.75,
20,dot,0.3,['dot'],['density'],black,0,142,142,142,,,52.10023617744446,51.82082200050354,52.12079215049744,dot,"[0.1, 0.06, 0.06, 0.1, 0.08, 0.08, 0.1, 0.08, 0.06, 0.06, 0.08, 0.06, 0.08, 0.06, 0.1, 0.06, 0.1, 0.1, 0.08, 0.08]","[[0.40588876151235753, -0.15200003694061892], [-0.4367458992823686, 0.07021263213452839], [0.05085710639711016, 0.2627166807317949], [0.08485480094294573, -0.4495263406194089], [-0.34505089653195054, -0.3186463556169479], [-0.42093916230145656, 0.36870976302898684], [0.45840089111128945, 0.08500308858016475], [0.41248706296143667, 0.28637001970200254], [-0.330097507103496, -0.10644055710762229], [-0.09813873529762951, 0.41161000161885186], [-0.09936914852239243, -0.20638308358741303], [0.307118992303138, 0.4762848123472724], [0.29442226956878303, -0.3548755966942937], [0.2509128371484429, 0.09347458472074055], [0.022183486093594773, 0.02634826231916254], [-0.5338293186313454, -0.10985548576340934], [-0.24653117583832135, -0.499930005253453], [0.1070662108755207, 0.526912207041477], [-0.07033158667317896, -0.5801351695463047], [0.11084585397853108, -0.15977364994051002]]",density,black,,,N009,visual,1,[],"['1', '2', '3', '4']",1,2023.2.3,harveyvisual,2.1,[],8,0.75,
0,pause,0.4,None,None,None,0,143,143,143,,,,,,,,,,,,,N009,visual,1,[],"['1', '2', '3', '4']",1,2023.2.3,harveyvisual,2.1,[],8,0.75,
20,dot,0.3,['dot'],['density'],black,0,144,144,144,,,52.80023813247681,52.520793199539185,52.820785999298096,dot,"[0.1, 0.08, 0.1, 0.1, 0.08, 0.1, 0.08, 0.08, 0.06, 0.1, 0.1, 0.06, 0.08, 0.1, 0.1, 0.1, 0.08, 0.08, 0.06, 0.08]","[[0.3479868183633448, -0.1449858447643455], [0.5151393080461985, 0.23626087487120484], [-0.18013651024603428, 0.5367161666959531], [-0.08574932266377466, 0.045147459080166596], [-0.4435542467405237, 0.13524012058789409], [0.5376115226720141, -0.07975337281462522], [-0.45973555584702874, -0.1908492608629046], [-0.3268238525144901, 0.4144552664218082], [0.15479651594359167, 0.34486728741221484], [0.17074149636322655, 0.08455710211572187], [-0.2263596906355705, -0.1146418267366972], [-0.06112931843904679, -0.39873543771569986], [0.09675593593998955, -0.18405152144905512], [0.3788448007808747, 0.4332633158487978], [-0.6038331872558139, -0.026537510199242817], [0.20529867781122713, 0.5621790634892497], [0.5109526063298854, -0.3149130227562392], [-0.018069956439888735, 0.43262635436764907], [0.036135567120514245, -0.5953097568091871], [0.24319330783870996, -0.478396313019343]]",density,black,,,N009,visual,1,[],"['1', '2', '3', '4']",1,2023.2.3,harveyvisual,2.1,[],8,0.75,
0,pause,0.4,None,None,None,0,145,145,145,,,,,,,,,,,,,N009,visual,1,[],"['1', '2', '3', '4']",1,2023.2.3,harveyvisual,2.1,[],8,0.75,
20,dot,0.3,['dot'],['density'],black,0,146,146,146,,,53.50021314620972,53.22078609466553,53.52077913284302,dot,"[0.1, 0.1, 0.06, 0.1, 0.1, 0.08, 0.08, 0.1, 0.1, 0.1, 0.06, 0.1, 0.08, 0.08, 0.1, 0.08, 0.1, 0.1, 0.06, 0.1]","[[0.5894930618813837, -0.11538823280827465], [0.45804330150559946, 0.18692264763251565], [0.005830966003642191, 0.11027060325184979], [-0.008293165556538917, 0.3298694442068214], [-0.543534061510704, 0.02686902886921222], [-0.23715967253401044, -0.36538750680608373], [0.3413712491087042, 0.0030524756527974817], [-0.09553741386713932, -0.0587288275548038], [-0.39692925841454263, 0.40748866604051937], [0.09922598974827335, -0.15660883568485084], [0.1750050105819454, 0.5450292463781988], [-0.25925116539586335, 0.24525125656451718], [-0.3720958568954879, -0.1288034131485043], [0.3998038930512692, -0.18583379892625618], [0.23539661856953364, -0.39142328512426217], [0.21798824694798136, 0.33976158595976336], [-0.49639973009300786, 0.23360037370772024], [-0.046838588231661316, 0.5868978153695019], [-0.17963739651368082, 0.4368780283212249], [0.12090715396825458, -0.5867346146236978]]",density,black,,,N009,visual,1,[],"['1', '2', '3', '4']",1,2023.2.3,harveyvisual,2.1,[],8,0.75,
0,pause,0.4,None,None,None,0,147,147,147,,,,,,,,,,,,,N009,visual,1,[],"['1', '2', '3', '4']",1,2023.2.3,harveyvisual,2.1,[],8,0.75,
20,dot,0.3,['dot'],['density'],black,0,148,148,148,,,54.200218200683594,53.920719146728516,54.22073221206665,dot,"[0.08, 0.1, 0.08, 0.08, 0.1, 0.06, 0.1, 0.08, 0.08, 0.06, 0.1, 0.1, 0.06, 0.1, 0.06, 0.06, 0.08, 0.1, 0.1, 0.1]","[[-0.10341064210042761, 0.2608594050330084], [-0.27521631411340747, -0.2615462063003262], [0.02146535627482893, 0.5389760248254989], [-0.42735432028392206, 0.3398261589585184], [0.40189483715519103, -0.3444237258513677], [0.29640128185797365, 0.2756659364947639], [-0.17263736303031207, -0.4594406359925507], [-0.5952589430064659, 0.10493760507789139], [0.0578631517639987, -0.17830877905767567], [-0.3646217626381229, -0.4588804856269329], [0.5030824849029009, 0.30279959314917704], [-0.30703086991275014, 0.17445086615209116], [-0.19379624284647257, 0.5096513736728472], [0.10649690221861163, 0.23507769940827494], [-0.44254200342958633, -0.08314836169530276], [0.5652676628646923, -0.08722828840900879], [0.3376044271303096, -0.06174315212787307], [0.012508857539255791, -0.37852836908547727], [-0.14290200314026313, 0.015029978859376736], [0.28871033650801525, -0.5284995391997387]]",density,black,,,N009,visual,1,[],"['1', '2', '3', '4']",1,2023.2.3,harveyvisual,2.1,[],8,0.75,
0,pause,0.4,None,None,None,0,149,149,149,,,,,,,,,,,,,N009,visual,1,[],"['1', '2', '3', '4']",1,2023.2.3,harveyvisual,2.1,[],8,0.75,
20,dot,0.3,['dot'],['density'],white,0,150,150,150,,,54.900217056274414,54.6215980052948,54.920703172683716,dot,"[0.08, 0.08, 0.1, 0.1, 0.1, 0.1, 0.08, 0.06, 0.08, 0.08, 0.1, 0.08, 0.08, 0.1, 0.1, 0.1, 0.08, 0.06, 0.08, 0.06]","[[-0.08132362843458452, -0.21230123889366986], [-0.5035010154802456, 0.11374093638191018], [0.16219438299864308, -0.31375092213623246], [0.08436604608518328, 0.5748930607479303], [0.49945987062106656, 0.29775132971423807], [0.4504496082115038, -0.15743667616072557], [-0.32483085923977756, 0.48348448138176137], [-0.4604883124331585, -0.3572507315004692], [-0.10355254040747108, 0.3358505235211232], [-0.04582181550482434, -0.4393342611635097], [-0.3170080594894865, -0.19800531823009115], [-0.02770903960530624, 0.023886722581055064], [0.27681221980126924, 0.1837062105839875], [-0.22619774670556875, -0.5035587795868739], [-0.4875941673073075, -0.08480174120041883], [0.39577147185047823, -0.421008277062342], [0.07823124447261876, 0.1980979094303561], [0.5904539880537273, 0.07126359701175153], [0.24722388346554836, -0.13259416069909302], [0.2905106429695611, 0.394177642453045]]",density,white,,,N009,visual,1,[],"['1', '2', '3', '4']",1,2023.2.3,harveyvisual,2.1,[],8,0.75,
0,pause,0.4,None,None,None,0,151,151,151,,,,,,,,,,,1,54.91200399398804,N009,visual,1,[],"['1', '2', '3', '4']",1,2023.2.3,harveyvisual,2.1,[],8,0.75,
20,dot,0.3,['dot'],['density'],black,0,152,152,152,,,55.60022211074829,55.320725202560425,55.620755195617676,dot,"[0.1, 0.1, 0.08, 0.1, 0.08, 0.08, 0.1, 0.08, 0.08, 0.08, 0.1, 0.06, 0.08, 0.1, 0.06, 0.1, 0.1, 0.08, 0.08, 0.1]","[[0.24737576202704903, 0.26677429873391356], [0.023933736650084247, 0.021484544321425214], [-0.1677495287942608, -0.14520648846011347], [-0.5587166083981139, -0.009479782231662875], [0.5215781644845973, 0.07835465195780178], [-0.15975989721993733, 0.1531169188702467], [-0.10105001227815125, -0.5427140391079766], [-0.28145449946399675, 0.4954949530807954], [0.10514284440920618, -0.48758339425482283], [0.3445793982079861, -0.20535550867719743], [0.47378781654507607, 0.34144457015955665], [-0.008812673227779011, -0.2951807666068022], [0.18475752695003878, -0.08706261404394022], [-0.5179695402941619, 0.29599797596261235], [0.18876576421467828, 0.47512633922738734], [0.5619437389729068, -0.210682157521981], [0.3169904351647108, -0.49770480672579326], [0.009387727675421065, 0.26855315675829516], [-0.45008925268153605, -0.38185589104720863], [-0.35267065177838847, 0.10711659882774904]]",density,black,,,N009,visual,1,[],"['1', '2', '3', '4']",1,2023.2.3,harveyvisual,2.1,[],8,0.75,
0,pause,0.4,None,None,None,0,153,153,153,,,,,,,,,,,,,N009,visual,1,[],"['1', '2', '3', '4']",1,2023.2.3,harveyvisual,2.1,[],8,0.75,
20,dot,0.3,['dot'],['density'],white,0,154,154,154,,,56.30024218559265,56.020676136016846,56.32066202163696,dot,"[0.06, 0.08, 0.06, 0.08, 0.1, 0.08, 0.08, 0.08, 0.06, 0.08, 0.06, 0.08, 0.06, 0.1, 0.06, 0.08, 0.08, 0.1, 0.08, 0.06]","[[0.48131968584443674, -0.1845069590185122], [-0.1996617674094207, -0.2562457435058403], [0.1113530185058621, 0.3800889794736153], [-0.09743533990524944, 0.05333905775977443], [0.4898547889582322, 0.25754734433572296], [0.04204046537634287, -0.5023045588619498], [-0.5837320662984208, -0.07383172447552179], [-0.030819410599641883, 0.5068786252004072], [-0.33527590764554205, -0.4261529961410535], [0.174453380046666, 0.024106398375304372], [0.1483788031063561, -0.17953787289151296], [-0.42128039336818723, 0.39550349426152526], [0.32499243981877546, -0.36743058445781945], [-0.23054506422095455, 0.23209475533225177], [-0.2722807733605232, -0.024796616597301036], [0.6011930944539324, -0.001288421652992866], [-0.48311589844784897, -0.2701924073560549], [0.382469795042512, 0.0669791004783315], [-0.4712521620786677, 0.1568710797171764], [-0.02087066929090542, 0.24135715830570303]]",density,white,,,N009,visual,1,[],"['1', '2', '3', '4']",1,2023.2.3,harveyvisual,2.1,[],8,0.75,
0,pause,0.4,None,None,None,0,155,155,155,,,,,,,,,,,1,56.347254037857056,N009,visual,1,[],"['1', '2', '3', '4']",1,2023.2.3,harveyvisual,2.1,[],8,0.75,
9,dot,0.3,['dot'],['density'],black,0,156,156,156,,,57.00023102760315,56.72063612937927,57.02062702178955,dot,"[0.1, 0.08, 0.1, 0.06, 0.08, 0.06, 0.06, 0.08, 0.06]","[[-0.4219467838066047, -0.18114019941065054], [-0.2081543488995217, -0.4860059455967178], [-0.008274735502094755, -0.3457533902190916], [0.02376323820852766, -0.0891001390581758], [-0.4116277839025775, 0.058108040724694845], [-0.18144554169200455, -0.05292133149533743], [0.21944315682242976, -0.26450239569476724], [0.11466821484809545, 0.13327019789913197], [-0.2288148866166432, -0.2599929378926301]]",density,black,,,N009,visual,1,[],"['1', '2', '3', '4']",1,2023.2.3,harveyvisual,2.1,[],8,0.75,
0,pause,0.4,None,None,None,0,157,157,157,,,,,,,,,,,,,N009,visual,1,[],"['1', '2', '3', '4']",1,2023.2.3,harveyvisual,2.1,[],8,0.75,
9,dot,0.3,['dot'],['density'],black,0,158,158,158,,,57.700215101242065,57.42065405845642,57.72061514854431,dot,"[0.08, 0.06, 0.1, 0.06, 0.08, 0.06, 0.08, 0.1, 0.08]","[[0.43694394638140777, -0.3313910020207278], [-0.12671083892604185, -0.2904925475365486], [0.20104083284362928, 0.10806727359081147], [0.1376754545064979, -0.09924520624161907], [0.19021248837847174, -0.31516489548878085], [0.3653456942078643, -0.09076399745187974], [0.1403131072824284, -0.5562242851951704], [-0.005445667935095978, 0.0898710966384087], [-0.11923067905189093, -0.07827803450029165]]",density,black,,,N009,visual,1,[],"['1', '2', '3', '4']",1,2023.2.3,harveyvisual,2.1,[],8,0.75,
0,pause,0.4,None,None,None,0,159,159,159,,,,,,,,,,,,,N009,visual,1,[],"['1', '2', '3', '4']",1,2023.2.3,harveyvisual,2.1,[],8,0.75,
9,dot,0.3,['dot'],['density'],black,0,160,160,160,,,58.400230169296265,58.12060809135437,58.42059922218323,dot,"[0.06, 0.08, 0.06, 0.06, 0.1, 0.08, 0.1, 0.08, 0.1]","[[0.11766436913102363, -0.04327704920019282], [0.17973489876850246, -0.2957558932143311], [0.4322853556796634, 0.1292829237047714], [-0.0348924626991882, -0.2091692004054023], [0.511593351462966, -0.2715393032181878], [0.39631341359825684, -0.10388811790353111], [0.1759041025424718, 0.35783279634564974], [-0.11077337801993212, 0.08002505665429639], [0.1915495233696259, 0.15329463501335125]]",density,black,,,N009,visual,1,[],"['1', '2', '3', '4']",1,2023.2.3,harveyvisual,2.1,[],8,0.75,
0,pause,0.4,None,None,None,0,161,161,161,,,,,,,,,,,,,N009,visual,1,[],"['1', '2', '3', '4']",1,2023.2.3,harveyvisual,2.1,[],8,0.75,
9,dot,0.3,['dot'],['density'],black,0,162,162,162,,,59.100229024887085,58.82060217857361,59.12056803703308,dot,"[0.08, 0.08, 0.08, 0.08, 0.1, 0.06, 0.1, 0.08, 0.08]","[[-0.39546702852536103, 0.05887767166707298], [0.0019437857506851024, 0.07006750722115952], [0.08809400946991845, -0.15083790972035777], [-0.35358057288562594, -0.14123029179452673], [-0.18893042820243505, -0.004761820558363635], [-0.16054322822148615, -0.2701644482013472], [-0.3593088451216199, 0.2649120528395154], [-0.09346394646241396, -0.4621051997984888], [-0.5526246027455071, -0.11781718335669726]]",density,black,,,N009,visual,1,[],"['1', '2', '3', '4']",1,2023.2.3,harveyvisual,2.1,[],8,0.75,
0,pause,0.4,None,None,None,0,163,163,163,,,,,,,,,,,,,N009,visual,1,[],"['1', '2', '3', '4']",1,2023.2.3,harveyvisual,2.1,[],8,0.75,
9,dot,0.3,['dot'],['density'],black,0,164,164,164,,,59.800213098526,59.52063703536987,59.82056903839111,dot,"[0.1, 0.06, 0.06, 0.08, 0.06, 0.08, 0.06, 0.06, 0.1]","[[-0.05049485011715354, 0.3013521193238899], [0.15354596755057998, 0.36785015051376163], [0.22995749783639982, 0.07309138415424772], [0.13460311710395165, -0.18603378415368982], [0.33097739113381164, -0.13822260855557728], [-0.16464148731134703, 0.07190493829483618], [0.521154897315396, -0.007803673430992942], [0.02684304494395013, 0.0018704401699241912], [-0.15545279255173522, -0.15329938800760382]]",density,black,,,N009,visual,1,[],"['1', '2', '3', '4']",1,2023.2.3,harveyvisual,2.1,[],8,0.75,
0,pause,0.4,None,None,None,0,165,165,165,,,,,,,,,,,,,N009,visual,1,[],"['1', '2', '3', '4']",1,2023.2.3,harveyvisual,2.1,[],8,0.75,
9,dot,0.3,['dot'],['density'],black,0,166,166,166,,,60.50023603439331,60.22054314613342,60.52053713798523,dot,"[0.1, 0.06, 0.08, 0.1, 0.06, 0.1, 0.08, 0.06, 0.08]","[[-0.5586095828397086, -0.08452232608263664], [-0.5120381862419278, 0.15370428824398014], [-0.08562135647518901, 0.024493186907675612], [-0.3204263364507457, 0.2397592637991136], [-0.21279117965626912, -0.18999926927512983], [-0.34615304282718484, -0.002506468551820401], [-0.32642794983948487, 0.4412976810435594], [-0.12278716272436474, 0.3390467791696382], [0.05505897535061007, 0.17426903254619158]]",density,black,,,N009,visual,1,[],"['1', '2', '3', '4']",1,2023.2.3,harveyvisual,2.1,[],8,0.75,
0,pause,0.4,None,None,None,0,167,167,167,,,,,,,,,,,,,N009,visual,1,[],"['1', '2', '3', '4']",1,2023.2.3,harveyvisual,2.1,[],8,0.75,
8,dot,0.3,['dot'],['density'],black,0,168,168,168,,,61.200231075286865,60.920536041259766,61.22052001953125,dot,"[0.08, 0.1, 0.1, 0.06, 0.08, 0.08, 0.08, 0.08]","[[-0.25621621658373334, -0.516505587173681], [-0.1662036889407214, -0.08514196380588028], [-0.18387329975925823, -0.32724781719236296], [0.018951322384734254, -0.28276580262079387], [-0.4257935961758009, -0.11165978892152287], [-0.38337046113926315, -0.34678862335127664], [0.08447884857343574, -0.4920123821830729], [0.02561025798733424, 0.0007844895199748298]]",density,black,,,N009,visual,1,[],"['1', '2', '3', '4']",1,2023.2.3,harveyvisual,2.1,[],8,0.75,
0,pause,0.4,None,None,None,0,169,169,169,,,,,,,,,,,,,N009,visual,1,[],"['1', '2', '3', '4']",1,2023.2.3,harveyvisual,2.1,[],8,0.75,
8,dot,0.3,['dot'],['density'],black,0,170,170,170,,,61.90021514892578,61.620522022247314,61.92055606842041,dot,"[0.08, 0.08, 0.06, 0.06, 0.1, 0.08, 0.1, 0.06]","[[-0.21605400050023119, -0.36806604112140096], [-0.4331556331222778, 0.1336594927324191], [-0.3157474098875971, -0.1371073420352747], [-0.10064365538588134, -0.10053754910436148], [0.10862445751928086, -0.04115753002163663], [-0.19663983546434133, 0.09424647547905109], [-0.5379272585723496, -0.06117038891009633], [0.023355790718173546, -0.2955553217846553]]",density,black,,,N009,visual,1,[],"['1', '2', '3', '4']",1,2023.2.3,harveyvisual,2.1,[],8,0.75,
0,pause,0.4,None,None,None,0,171,171,171,,,,,,,,,,,,,N009,visual,1,[],"['1', '2', '3', '4']",1,2023.2.3,harveyvisual,2.1,[],8,0.75,
8,dot,0.3,['dot'],['density'],black,0,172,172,172,,,62.60023307800293,62.320552110672,62.620537996292114,dot,"[0.08, 0.06, 0.1, 0.06, 0.1, 0.08, 0.1, 0.08]","[[-0.19427332908310624, 0.44975086906229733], [-0.40583056883657587, 0.41268852933836647], [-0.1064323235824443, 0.09134240931295125], [0.037438273390647224, 0.2873761216870531], [-0.27580465694358225, 0.2567900319995576], [0.047234249799456944, 0.4983172858691376], [0.15563182967593078, 0.1192504703698398], [-0.32834908909536226, -0.014402300111889832]]",density,black,,,N009,visual,1,[],"['1', '2', '3', '4']",1,2023.2.3,harveyvisual,2.1,[],8,0.75,
0,pause,0.4,None,None,None,0,173,173,173,,,,,,,,,,,,,N009,visual,1,[],"['1', '2', '3', '4']",1,2023.2.3,harveyvisual,2.1,[],8,0.75,
8,dot,0.3,['dot'],['density'],black,0,174,174,174,,,63.300213098526,63.020538091659546,63.320733070373535,dot,"[0.06, 0.06, 0.06, 0.06, 0.1, 0.08, 0.08, 0.1]","[[-0.4462313073918426, 0.10595449025715867], [0.022923871415176152, 0.06290918987699953], [-0.12461589820496316, 0.4830175517012745], [-0.29730306390741434, 0.2752084497958106], [-0.2195410516364439, 0.056871795648565045], [0.008916049516666445, 0.2907399105306955], [-0.08256048209355603, -0.11638226771844133], [-0.4106304257826301, -0.09222594144079917]]",density,black,,,N009,visual,1,[],"['1', '2', '3', '4']",1,2023.2.3,harveyvisual,2.1,[],8,0.75,
0,pause,0.4,None,None,None,0,175,175,175,,,,,,,,,,,,,N009,visual,1,[],"['1', '2', '3', '4']",1,2023.2.3,harveyvisual,2.1,[],8,0.75,
8,dot,0.3,['dot'],['density'],black,0,176,176,176,,,64.00021505355835,63.72064518928528,64.02062201499939,dot,"[0.08, 0.08, 0.06, 0.08, 0.06, 0.08, 0.08, 0.06]","[[0.4578461037593053, -0.0425280984807614], [0.3105081462658962, -0.253400778181943], [0.5107466611240274, 0.18303335057259504], [0.05013881804369301, 0.21472050036076742], [0.11913774150617627, -0.046477809882714556], [0.3069987493408211, 0.11186211070896974], [0.10261508471656716, -0.25482825738733483], [-0.08881417545548334, 0.035709595317019026]]",density,black,,,N009,visual,1,[],"['1', '2', '3', '4']",1,2023.2.3,harveyvisual,2.1,[],8,0.75,
0,pause,0.4,None,None,None,0,177,177,177,,,,,,,,,,,,,N009,visual,1,[],"['1', '2', '3', '4']",1,2023.2.3,harveyvisual,2.1,[],8,0.75,
8,dot,0.3,['dot'],['density'],black,0,178,178,178,,,64.70023608207703,64.42062306404114,64.72047519683838,dot,"[0.1, 0.06, 0.1, 0.08, 0.08, 0.1, 0.06, 0.06]","[[-0.16499387414028463, -0.418455346753131], [0.031011941373623824, -0.006148034068666969], [-0.4150712424924157, -0.28668557629476243], [-0.199054958380199, -0.21375968732837633], [-0.4870789535587041, 0.00515905815181239], [-0.198479811208303, 0.006815000109153054], [-0.3273741662815474, 0.19008037141614484], [0.04340096687518584, -0.25044408321713213]]",density,black,,,N009,visual,1,[],"['1', '2', '3', '4']",1,2023.2.3,harveyvisual,2.1,[],8,0.75,
0,pause,0.4,None,None,None,0,179,179,179,,,,,,,,,,,,,N009,visual,1,[],"['1', '2', '3', '4']",1,2023.2.3,harveyvisual,2.1,[],8,0.75,
7,dot,0.3,['dot'],['density'],black,0,180,180,180,,,65.40023422241211,65.12046909332275,65.42060899734497,dot,"[0.06, 0.06, 0.1, 0.06, 0.06, 0.1, 0.08]","[[-0.15204905838880944, -0.5333107186751418], [-0.1519936835116667, -0.2986813487337615], [0.3123805602017952, -0.370842296180838], [-0.04397638837772695, -0.01669328424437847], [0.11716920447009348, -0.14912816843546053], [0.1067198166566748, -0.5553575834591685], [0.04038917577175449, -0.3541606866516689]]",density,black,,,N009,visual,1,[],"['1', '2', '3', '4']",1,2023.2.3,harveyvisual,2.1,[],8,0.75,
0,pause,0.4,None,None,None,0,181,181,181,,,,,,,,,,,,,N009,visual,1,[],"['1', '2', '3', '4']",1,2023.2.3,harveyvisual,2.1,[],8,0.75,
7,dot,0.3,['dot'],['density'],black,0,182,182,182,,,66.10024118423462,65.82049512863159,66.12061309814453,dot,"[0.06, 0.1, 0.06, 0.06, 0.08, 0.1, 0.08]","[[-0.08751196138777266, -0.40239331021683095], [-0.1389983634140625, -0.1821537091642013], [-0.5212097088452917, -0.15879536445288125], [-0.24197016774290594, 0.025691971861017886], [-0.324083892787021, -0.3083678109532634], [0.06465625853811506, -0.19815494036826437], [-0.2569867334647868, -0.5155038850209747]]",density,black,,,N009,visual,1,[],"['1', '2', '3', '4']",1,2023.2.3,harveyvisual,2.1,[],8,0.75,
0,pause,0.4,None,None,None,0,183,183,183,,,,,,,,,,,,,N009,visual,1,[],"['1', '2', '3', '4']",1,2023.2.3,harveyvisual,2.1,[],8,0.75,
7,dot,0.3,['dot'],['density'],black,0,184,184,184,,,66.80022621154785,66.52063322067261,66.82063412666321,dot,"[0.06, 0.06, 0.08, 0.08, 0.1, 0.06, 0.1]","[[0.21536278937261513, -0.01733091677764761], [-0.08931035591216824, -0.05246349631749078], [0.21870610454298933, 0.21067491250041093], [-0.1587576617113587, 0.26068369883413384], [0.04623079518225047, 0.4568527369480977], [0.022942391481424712, 0.13939122930077608], [-0.27674911739568203, 0.09730719745121558]]",density,black,,,N009,visual,1,[],"['1', '2', '3', '4']",1,2023.2.3,harveyvisual,2.1,[],8,0.75,
0,pause,0.4,None,None,None,0,185,185,185,,,,,,,,,,,,,N009,visual,1,[],"['1', '2', '3', '4']",1,2023.2.3,harveyvisual,2.1,[],8,0.75,
7,dot,0.3,['dot'],['density'],black,0,186,186,186,,,67.50023102760315,67.22041606903076,67.52038908004761,dot,"[0.06, 0.1, 0.08, 0.1, 0.06, 0.06, 0.06]","[[0.3032073476866497, 0.39528308644852606], [0.12977480624643314, 0.5338553612741447], [-0.07830532742558233, 0.5277294273979773], [0.000705909343175084, 0.04538848857330666], [-0.11442247498636825, 0.3203087976624053], [0.11424952152856681, 0.31372813630522095], [0.2743618672110132, 0.19233036806743029]]",density,black,,,N009,visual,1,[],"['1', '2', '3', '4']",1,2023.2.3,harveyvisual,2.1,[],8,0.75,
0,pause,0.4,None,None,None,0,187,187,187,,,,,,,,,,,,,N009,visual,1,[],"['1', '2', '3', '4']",1,2023.2.3,harveyvisual,2.1,[],8,0.75,
7,dot,0.3,['dot'],['density'],black,0,188,188,188,,,68.20023202896118,67.92034316062927,68.22035813331604,dot,"[0.1, 0.08, 0.06, 0.08, 0.08, 0.08, 0.1]","[[-0.4260259763687212, 0.0015611622021723967], [-0.003169876971998007, 0.13415651360788267], [-0.2586764037849864, 0.4417783913692737], [-0.4397986643511286, 0.306274470342183], [-0.0069778791964768315, 0.3653924841843964], [-0.25662591460159173, 0.21046748777052526], [-0.17930648864359452, 0.007725268650954965]]",density,black,,,N009,visual,1,[],"['1', '2', '3', '4']",1,2023.2.3,harveyvisual,2.1,[],8,0.75,
0,pause,0.4,None,None,None,0,189,189,189,,,,,,,,,,,,,N009,visual,1,[],"['1', '2', '3', '4']",1,2023.2.3,harveyvisual,2.1,[],8,0.75,
7,dot,0.3,['dot'],['density'],black,0,190,190,190,,,68.90023112297058,68.62038111686707,68.92031121253967,dot,"[0.1, 0.1, 0.08, 0.08, 0.08, 0.06, 0.08]","[[0.23608374802607182, -0.42864299173344095], [-0.09209027036414452, -0.12416238309953632], [0.2788105912293623, 0.0033410667889120396], [0.04539289310230788, 0.08875296613859053], [0.036272769320452085, -0.32980830156280494], [-0.23317126701056543, -0.2895908304292693], [0.15392952834370008, -0.16140965755482034]]",density,black,,,N009,visual,1,[],"['1', '2', '3', '4']",1,2023.2.3,harveyvisual,2.1,[],8,0.75,
0,pause,0.4,None,None,None,0,191,191,191,,,,,,,,,,,,,N009,visual,1,[],"['1', '2', '3', '4']",1,2023.2.3,harveyvisual,2.1,[],8,0.75,
6,dot,0.3,['dot'],['density'],black,0,192,192,192,,,69.60023212432861,69.32035613059998,69.6203601360321,dot,"[0.1, 0.08, 0.1, 0.08, 0.1, 0.06]","[[-0.24492162854676555, 0.16704436901929823], [-0.3861886513150086, 0.35601694661450933], [-0.48514013682315105, 0.15596888098880124], [-0.5451465436738104, -0.12931683943359434], [-0.11772959853104834, 0.007676420150436517], [-0.35755989064212684, -0.03355234579502648]]",density,black,,,N009,visual,1,[],"['1', '2', '3', '4']",1,2023.2.3,harveyvisual,2.1,[],8,0.75,
0,pause,0.4,None,None,None,0,193,193,193,,,,,,,,,,,,,N009,visual,1,[],"['1', '2', '3', '4']",1,2023.2.3,harveyvisual,2.1,[],8,0.75,
6,dot,0.3,['dot'],['density'],white,0,194,194,194,,,70.30021905899048,70.02030920982361,70.32033610343933,dot,"[0.08, 0.08, 0.08, 0.06, 0.08, 0.06]","[[0.1442800129286608, -0.025670240792647715], [-0.253335145558221, 0.06312541807928282], [0.15340240856287354, 0.2410349392962658], [-0.1639657784688781, 0.25075335361279655], [-0.07910231793701084, -0.12784096878077061], [-0.011661193723423325, 0.11361106492824657]]",density,white,,,N009,visual,1,[],"['1', '2', '3', '4']",1,2023.2.3,harveyvisual,2.1,[],8,0.75,
0,pause,0.4,None,None,None,0,195,195,195,,,,,,,,,,,1,70.38989615440369,N009,visual,1,[],"['1', '2', '3', '4']",1,2023.2.3,harveyvisual,2.1,[],8,0.75,
6,dot,0.3,['dot'],['density'],black,0,196,196,196,,,71.00024318695068,70.72047901153564,71.02030420303345,dot,"[0.08, 0.08, 0.06, 0.1, 0.08, 0.06]","[[-0.37443702985748106, 0.32648296684105377], [-0.5461381080049402, 0.20900463425646473], [-0.03667792491240075, 0.12745261621840673], [-0.13670974087354773, 0.4115775839407936], [-0.3800981804337871, 0.05314619565530939], [-0.23016292349935943, 0.18714801531232822]]",density,black,,,N009,visual,1,[],"['1', '2', '3', '4']",1,2023.2.3,harveyvisual,2.1,[],8,0.75,
0,pause,0.4,None,None,None,0,197,197,197,,,,,,,,,,,,,N009,visual,1,[],"['1', '2', '3', '4']",1,2023.2.3,harveyvisual,2.1,[],8,0.75,
6,dot,0.3,['dot'],['density'],black,0,198,198,198,,,71.70021605491638,71.42044615745544,71.7204110622406,dot,"[0.08, 0.1, 0.06, 0.08, 0.1, 0.1]","[[-0.25052904509636076, -0.46440103658729176], [-0.12772535636451293, 0.010821502090106766], [-0.031043743050516784, -0.3649555915866845], [-0.3754529733759062, -0.18839395716731677], [0.07378414788444272, -0.15062955699655364], [-0.17220243018048728, -0.20498996683935267]]",density,black,,,N009,visual,1,[],"['1', '2', '3', '4']",1,2023.2.3,harveyvisual,2.1,[],8,0.75,
0,pause,0.4,None,None,None,0,199,199,199,,,,,,,,,,,,,N009,visual,1,[],"['1', '2', '3', '4']",1,2023.2.3,harveyvisual,2.1,[],8,0.75,
6,dot,0.3,['dot'],['density'],black,0,200,200,200,,,72.4002251625061,72.12031722068787,72.420401096344,dot,"[0.08, 0.08, 0.1, 0.1, 0.06, 0.06]","[[0.01776890784276672, 0.3448500499300058], [-0.18238616215991446, 0.4840889924469993], [-0.2129582374372363, 0.07157874559070018], [-0.41549008775918617, 0.14353268657608398], [0.019487844458329944, 0.1389587799501653], [-0.21004805074000235, 0.2837936954907191]]",density,black,,,N009,visual,1,[],"['1', '2', '3', '4']",1,2023.2.3,harveyvisual,2.1,[],8,0.75,
0,pause,0.4,None,None,None,0,201,201,201,,,,,,,,,,,,,N009,visual,1,[],"['1', '2', '3', '4']",1,2023.2.3,harveyvisual,2.1,[],8,0.75,
6,dot,0.3,['dot'],['density'],black,0,202,202,202,,,73.10021710395813,72.82026505470276,73.12024903297424,dot,"[0.06, 0.06, 0.1, 0.06, 0.08, 0.1]","[[-0.12151555870586603, -0.4812968000001843], [0.16790488833295267, -0.2471088416996458], [0.27214716196035416, -0.49820278546509117], [-0.038147587524033764, -0.29309333197091036], [0.014949188681413147, -0.08915939926713055], [0.06798063624072649, -0.5852336971646088]]",density,black,,,N009,visual,1,[],"['1', '2', '3', '4']",1,2023.2.3,harveyvisual,2.1,[],8,0.75,
0,pause,0.4,None,None,None,0,203,203,203,,,,,,,,,,,,,N009,visual,1,[],"['1', '2', '3', '4']",1,2023.2.3,harveyvisual,2.1,[],8,0.75,
5,dot,0.3,['dot'],['density'],black,0,204,204,204,,,73.80022501945496,73.52024722099304,73.8202052116394,dot,"[0.1, 0.08, 0.1, 0.08, 0.1]","[[-0.24811222937808852, -0.0926462173418487], [-0.0684102839715827, 0.053707960252323945], [-0.4199359189551936, 0.028595247832400618], [-0.4311232183625476, -0.17348815390478414], [-0.08153496032007611, -0.23043043025001772]]",density,black,,,N009,visual,1,[],"['1', '2', '3', '4']",1,2023.2.3,harveyvisual,2.1,[],8,0.75,
0,pause,0.4,None,None,None,0,205,205,205,,,,,,,,,,,,,N009,visual,1,[],"['1', '2', '3', '4']",1,2023.2.3,harveyvisual,2.1,[],8,0.75,
5,dot,0.3,['dot'],['density'],black,0,206,206,206,,,74.50022506713867,74.22031307220459,74.52025318145752,dot,"[0.08, 0.08, 0.1, 0.08, 0.06]","[[-0.11834215492801986, 0.412508379109845], [0.31881799646300274, 0.30859303438359803], [-0.06368743078099719, 0.10105058071702504], [0.1133485112468387, 0.46262203184429457], [0.11957051434631445, 0.24197418837926052]]",density,black,,,N009,visual,1,[],"['1', '2', '3', '4']",1,2023.2.3,harveyvisual,2.1,[],8,0.75,
0,pause,0.4,None,None,None,0,207,207,207,,,,,,,,,,,,,N009,visual,1,[],"['1', '2', '3', '4']",1,2023.2.3,harveyvisual,2.1,[],8,0.75,
5,dot,0.3,['dot'],['density'],black,0,208,208,208,,,75.20024108886719,74.92019009590149,75.22018718719482,dot,"[0.1, 0.1, 0.08, 0.06, 0.06]","[[-0.4709100701083565, 0.02189337908226187], [-0.29145525575644754, 0.3795081276742083], [-0.23690205020139254, 0.016868774910060797], [-0.4278442329265702, 0.22919645259494104], [-0.09991604659712162, 0.23043195716445664]]",density,black,,,N009,visual,1,[],"['1', '2', '3', '4']",1,2023.2.3,harveyvisual,2.1,[],8,0.75,
0,pause,0.4,None,None,None,0,209,209,209,,,,,,,,,,,,,N009,visual,1,[],"['1', '2', '3', '4']",1,2023.2.3,harveyvisual,2.1,[],8,0.75,
5,dot,0.3,['dot'],['density'],black,0,210,210,210,,,75.90021514892578,75.62021112442017,75.92017316818237,dot,"[0.06, 0.08, 0.1, 0.08, 0.06]","[[-0.082153098152829, -0.06894165798345762], [0.016766770742065788, -0.42680196676869325], [0.2961099764235258, -0.14925166127785872], [-0.1456021726000032, -0.26669195071034546], [0.10213220283607832, -0.23321095001989858]]",density,black,,,N009,visual,1,[],"['1', '2', '3', '4']",1,2023.2.3,harveyvisual,2.1,[],8,0.75,
0,pause,0.4,None,None,None,0,211,211,211,,,,,,,,,,,,,N009,visual,1,[],"['1', '2', '3', '4']",1,2023.2.3,harveyvisual,2.1,[],8,0.75,
5,dot,0.3,['dot'],['density'],black,0,212,212,212,,,76.60025215148926,76.32016706466675,76.62013721466064,dot,"[0.08, 0.1, 0.06, 0.06, 0.08]","[[-0.4709100701083565, 0.02189337908226187], [-0.29145525575644754, 0.3795081276742083], [-0.23690205020139254, 0.016868774910060797], [-0.4278442329265702, 0.22919645259494104], [-0.09991604659712162, 0.23043195716445664]]",density,black,,,N009,visual,1,[],"['1', '2', '3', '4']",1,2023.2.3,harveyvisual,2.1,[],8,0.75,
0,pause,0.4,None,None,None,0,213,213,213,,,,,,,,,,,,,N009,visual,1,[],"['1', '2', '3', '4']",1,2023.2.3,harveyvisual,2.1,[],8,0.75,
5,dot,0.3,['dot'],['density'],black,0,214,214,214,,,77.30024218559265,77.02014398574829,77.32014799118042,dot,"[0.06, 0.1, 0.08, 0.08, 0.1]","[[-0.09836533996777486, -0.13487298234664027], [-0.39372579989196477, -0.3970332615714695], [-0.08519030630468749, -0.3439803803737387], [-0.28676510783747755, -0.22768547842943598], [-0.4191710438677135, -0.018830474544977712]]",density,black,,,N009,visual,1,[],"['1', '2', '3', '4']",1,2023.2.3,harveyvisual,2.1,[],8,0.75,
0,pause,0.4,None,None,None,0,215,215,215,,,,,,,,,,,,,N009,visual,1,[],"['1', '2', '3', '4']",1,2023.2.3,harveyvisual,2.1,[],8,0.75,
4,dot,0.3,['dot'],['density'],black,0,216,216,216,,,78.00023007392883,77.72010707855225,78.02009415626526,dot,"[0.08, 0.06, 0.08, 0.06]","[[-0.1807894278345534, -0.050693892368996955], [-0.03778933673514029, -0.29773510453537966], [0.0747201162679791, -0.1287424711559737], [-0.02241484737224569, 0.07404475448468936]]",density,black,,,N009,visual,1,[],"['1', '2', '3', '4']",1,2023.2.3,harveyvisual,2.1,[],8,0.75,
0,pause,0.4,None,None,None,0,217,217,217,,,,,,,,,,,,,N009,visual,1,[],"['1', '2', '3', '4']",1,2023.2.3,harveyvisual,2.1,[],8,0.75,
4,dot,0.3,['dot'],['density'],black,0,218,218,218,,,78.70023918151855,78.42009615898132,78.72009420394897,dot,"[0.08, 0.08, 0.08, 0.1]","[[-0.43942495523079517, -0.22401056498097033], [-0.009260832099230759, -0.1633376679159051], [-0.21598309108097546, -0.10172603009605206], [-0.2278206133413005, -0.33154874685782076]]",density,black,,,N009,visual,1,[],"['1', '2', '3', '4']",1,2023.2.3,harveyvisual,2.1,[],8,0.75,
0,pause,0.4,None,None,None,0,219,219,219,,,,,,,,,,,,,N009,visual,1,[],"['1', '2', '3', '4']",1,2023.2.3,harveyvisual,2.1,[],8,0.75,
4,dot,0.3,['dot'],['density'],black,0,220,220,220,,,79.40024018287659,79.1201171875,79.42006921768188,dot,"[0.1, 0.08, 0.08, 0.08]","[[0.06081986304483943, 0.35358512719402324], [0.4232304195196481, 0.14579533924648716], [0.12419639750553536, 0.133833625718984], [0.26609561976711055, 0.2970795792082364]]",density,black,,,N009,visual,1,[],"['1', '2', '3', '4']",1,2023.2.3,harveyvisual,2.1,[],8,0.75,
0,pause,0.4,None,None,None,0,221,221,221,,,,,,,,,,,,,N009,visual,1,[],"['1', '2', '3', '4']",1,2023.2.3,harveyvisual,2.1,[],8,0.75,
4,dot,0.3,['dot'],['density'],black,0,222,222,222,,,80.10023617744446,79.82013511657715,80.12005019187927,dot,"[0.1, 0.08, 0.06, 0.08]","[[0.06081986304483943, 0.35358512719402324], [0.4232304195196481, 0.14579533924648716], [0.12419639750553536, 0.133833625718984], [0.26609561976711055, 0.2970795792082364]]",density,black,,,N009,visual,1,[],"['1', '2', '3', '4']",1,2023.2.3,harveyvisual,2.1,[],8,0.75,
0,pause,0.4,None,None,None,0,223,223,223,,,,,,,,,,,,,N009,visual,1,[],"['1', '2', '3', '4']",1,2023.2.3,harveyvisual,2.1,[],8,0.75,
4,dot,0.3,['dot'],['density'],black,0,224,224,224,,,80.80021715164185,80.52004718780518,80.8200421333313,dot,"[0.06, 0.08, 0.06, 0.1]","[[0.3510671072586959, 0.39105757673094776], [0.13754249634966464, 0.24690230999823115], [0.2791454519284172, 0.028997379515453933], [0.42442503262497266, 0.18132357243737673]]",density,black,,,N009,visual,1,[],"['1', '2', '3', '4']",1,2023.2.3,harveyvisual,2.1,[],8,0.75,
0,pause,0.4,None,None,None,0,225,225,225,,,,,,,,,,,,,N009,visual,1,[],"['1', '2', '3', '4']",1,2023.2.3,harveyvisual,2.1,[],8,0.75,
4,dot,0.3,['dot'],['density'],black,0,226,226,226,,,81.50023221969604,81.22003507614136,81.520024061203,dot,"[0.06, 0.1, 0.08, 0.1]","[[0.041567121943163726, -0.05225384285034155], [-0.0805660347394345, -0.3501797602382367], [-0.1695568067340664, -0.0700859275369407], [0.1361950610904954, -0.2628340353233457]]",density,black,,,N009,visual,1,[],"['1', '2', '3', '4']",1,2023.2.3,harveyvisual,2.1,[],8,0.75,
0,pause,0.4,None,None,None,0,227,227,227,,,,,,,,,,,,,N009,visual,1,[],"['1', '2', '3', '4']",1,2023.2.3,harveyvisual,2.1,[],8,0.75,
3,dot,0.3,['dot'],['density'],black,0,228,228,228,,,82.2002260684967,81.9200382232666,82.21999406814575,dot,"[0.08, 0.1, 0.06]","[[-0.5649268285189266, -0.02945458741690218], [-0.36332336008090005, 0.05160617148840915], [-0.5004673786076542, 0.20230308468415367]]",density,black,,,N009,visual,1,[],"['1', '2', '3', '4']",1,2023.2.3,harveyvisual,2.1,[],8,0.75,
0,pause,0.4,None,None,None,0,229,229,229,,,,,,,,,,,,,N009,visual,1,[],"['1', '2', '3', '4']",1,2023.2.3,harveyvisual,2.1,[],8,0.75,
3,dot,0.3,['dot'],['density'],black,0,230,230,230,,,82.90022301673889,82.62010216712952,82.92003417015076,dot,"[0.1, 0.06, 0.08]","[[-0.32624451712468355, -0.43854848545497693], [-0.39409142490376414, -0.22516425170789148], [-0.152352104904091, -0.33204091051628687]]",density,black,,,N009,visual,1,[],"['1', '2', '3', '4']",1,2023.2.3,harveyvisual,2.1,[],8,0.75,
0,pause,0.4,None,None,None,0,231,231,231,,,,,,,,,,,,,N009,visual,1,[],"['1', '2', '3', '4']",1,2023.2.3,harveyvisual,2.1,[],8,0.75,
3,dot,0.3,['dot'],['density'],black,0,232,232,232,,,83.6002471446991,83.31997299194336,83.61996221542358,dot,"[0.06, 0.1, 0.06]","[[0.35100391059830643, -0.4491085892346253], [0.13011513135189492, -0.5590284990295896], [0.16905753934955023, -0.35714526366544236]]",density,black,,,N009,visual,1,[],"['1', '2', '3', '4']",1,2023.2.3,harveyvisual,2.1,[],8,0.75,
0,pause,0.4,None,None,None,0,233,233,233,,,,,,,,,,,,,N009,visual,1,[],"['1', '2', '3', '4']",1,2023.2.3,harveyvisual,2.1,[],8,0.75,
3,dot,0.3,['dot'],['density'],black,0,234,234,234,,,84.30024600028992,84.01997208595276,84.31994104385376,dot,"[0.1, 0.1, 0.06]","[[-0.1827482077423914, 0.13189758396693702], [0.006935645283384683, 0.04732296079382947], [-0.049709858873230685, 0.28599666368451326]]",density,black,,,N009,visual,1,[],"['1', '2', '3', '4']",1,2023.2.3,harveyvisual,2.1,[],8,0.75,
0,pause,0.4,None,None,None,0,235,235,235,,,,,,,,,,,,,N009,visual,1,[],"['1', '2', '3', '4']",1,2023.2.3,harveyvisual,2.1,[],8,0.75,
3,dot,0.3,['dot'],['density'],black,0,236,236,236,,,85.00024604797363,84.71992301940918,85.01992511749268,dot,"[0.06, 0.08, 0.08]","[[0.4995185571857965, 0.14229679706320136], [0.2944600495073675, 0.23335097983198633], [0.330752226915583, 0.0299241169750933]]",density,black,,,N009,visual,1,[],"['1', '2', '3', '4']",1,2023.2.3,harveyvisual,2.1,[],8,0.75,
0,pause,0.4,None,None,None,0,237,237,237,,,,,,,,,,,,,N009,visual,1,[],"['1', '2', '3', '4']",1,2023.2.3,harveyvisual,2.1,[],8,0.75,
3,dot,0.3,['dot'],['density'],black,0,238,238,238,,,85.7002341747284,85.41994500160217,85.71996307373047,dot,"[0.06, 0.08, 0.08]","[[0.07700183490032705, -0.35627018624379625], [-0.11838355721398923, -0.41989981358322065], [0.04553884901650391, -0.5822363694770394]]",density,black,,,N009,visual,1,[],"['1', '2', '3', '4']",1,2023.2.3,harveyvisual,2.1,[],8,0.75,
0,pause,0.4,None,None,None,0,239,239,239,,,,,,,,,,,,,N009,visual,1,[],"['1', '2', '3', '4']",1,2023.2.3,harveyvisual,2.1,[],8,0.75,
2,dot,0.3,['dot'],['density'],black,0,240,240,240,,,86.40023899078369,86.1199381351471,86.41994404792786,dot,"[0.08, 0.08]","[[0.3859848860398513, -0.03650274153894256], [0.5613034441480618, 0.06134992989862206]]",density,black,,,N009,visual,1,[],"['1', '2', '3', '4']",1,2023.2.3,harveyvisual,2.1,[],8,0.75,
0,pause,0.4,None,None,None,0,241,241,241,,,,,,,,,,,,,N009,visual,1,[],"['1', '2', '3', '4']",1,2023.2.3,harveyvisual,2.1,[],8,0.75,
2,dot,0.3,['dot'],['density'],black,0,242,242,242,,,87.10023999214172,86.81992316246033,87.11991906166077,dot,"[0.06, 0.06]","[[-0.19266755722762574, -0.036106715323925336], [-0.096675332858716, 0.13967695308521302]]",density,black,,,N009,visual,1,[],"['1', '2', '3', '4']",1,2023.2.3,harveyvisual,2.1,[],8,0.75,
0,pause,0.4,None,None,None,0,243,243,243,,,,,,,,,,,,,N009,visual,1,[],"['1', '2', '3', '4']",1,2023.2.3,harveyvisual,2.1,[],8,0.75,
2,dot,0.3,['dot'],['density'],black,0,244,244,244,,,87.80022406578064,87.51991510391235,87.81990504264832,dot,"[0.1, 0.08]","[[-0.16440981108753766, 0.5378091218652469], [-0.08422838651173449, 0.35445914222875186]]",density,black,,,N009,visual,1,[],"['1', '2', '3', '4']",1,2023.2.3,harveyvisual,2.1,[],8,0.75,
0,pause,0.4,None,None,None,0,245,245,245,,,,,,,,,,,,,N009,visual,1,[],"['1', '2', '3', '4']",1,2023.2.3,harveyvisual,2.1,[],8,0.75,
2,dot,0.3,['dot'],['density'],black,0,246,246,246,,,88.50022602081299,88.2198691368103,88.51999402046204,dot,"[0.08, 0.1]","[[-0.19482721327365293, -0.5079820576301489], [-0.36119809377872014, -0.396546877814361]]",density,black,,,N009,visual,1,[],"['1', '2', '3', '4']",1,2023.2.3,harveyvisual,2.1,[],8,0.75,
0,pause,0.4,None,None,None,0,247,247,247,,,,,,,,,,,,,N009,visual,1,[],"['1', '2', '3', '4']",1,2023.2.3,harveyvisual,2.1,[],8,0.75,
2,dot,0.3,['dot'],['density'],black,0,248,248,248,,,89.20024514198303,88.9198911190033,89.21984720230103,dot,"[0.06, 0.06]","[[-0.09730612249650272, 0.4989075015380273], [-0.22752244688881013, 0.34485221713342457]]",density,black,,,N009,visual,1,[],"['1', '2', '3', '4']",1,2023.2.3,harveyvisual,2.1,[],8,0.75,
0,pause,0.4,None,None,None,0,249,249,249,,,,,,,,,,,,,N009,visual,1,[],"['1', '2', '3', '4']",1,2023.2.3,harveyvisual,2.1,[],8,0.75,
2,dot,0.3,['dot'],['density'],black,0,250,250,250,,,89.90025115013123,89.61998510360718,89.91999816894531,dot,"[0.1, 0.1]","[[-0.15001882639889116, 0.48719053997247297], [-0.1736568080125972, 0.28835755901726084]]",density,black,,,N009,visual,1,[],"['1', '2', '3', '4']",1,2023.2.3,harveyvisual,2.1,[],8,0.75,
0,pause,0.4,None,None,None,0,251,251,251,,,,,,,,,,,,,N009,visual,1,[],"['1', '2', '3', '4']",1,2023.2.3,harveyvisual,2.1,[],8,0.75,
1,dot,0.3,['dot'],['density'],white,0,252,252,252,,,90.60023808479309,90.31998801231384,90.62000012397766,dot,[0.08],"[0.1600937909388646, -0.5041032805904762]",density,white,,,N009,visual,1,[],"['1', '2', '3', '4']",1,2023.2.3,harveyvisual,2.1,[],8,0.75,
0,pause,0.4,None,None,None,0,253,253,253,,,,,,,,,,,1,90.7014729976654,N009,visual,1,[],"['1', '2', '3', '4']",1,2023.2.3,harveyvisual,2.1,[],8,0.75,
1,dot,0.3,['dot'],['density'],black,0,254,254,254,,,91.30022406578064,91.01981019973755,91.31976413726807,dot,[0.08],"[-0.4519365434524677, 0.22287683068434597]",density,black,,,N009,visual,1,[],"['1', '2', '3', '4']",1,2023.2.3,harveyvisual,2.1,[],8,0.75,
0,pause,0.4,None,None,None,0,255,255,255,,,,,,,,,,,,,N009,visual,1,[],"['1', '2', '3', '4']",1,2023.2.3,harveyvisual,2.1,[],8,0.75,
1,dot,0.3,['dot'],['density'],black,0,256,256,256,,,92.0002191066742,91.71984601020813,92.01979207992554,dot,[0.1],"[-0.22356924330877379, 0.41145231278245986]",density,black,,,N009,visual,1,[],"['1', '2', '3', '4']",1,2023.2.3,harveyvisual,2.1,[],8,0.75,
0,pause,0.4,None,None,None,0,257,257,257,,,,,,,,,,,,,N009,visual,1,[],"['1', '2', '3', '4']",1,2023.2.3,harveyvisual,2.1,[],8,0.75,
1,dot,0.3,['dot'],['density'],black,0,258,258,258,,,92.70022821426392,92.41973900794983,92.71973705291748,dot,[0.08],"[0.5668064281626585, -0.020013277593342628]",density,black,,,N009,visual,1,[],"['1', '2', '3', '4']",1,2023.2.3,harveyvisual,2.1,[],8,0.75,
0,pause,0.4,None,None,None,0,259,259,259,,,,,,,,,,,,,N009,visual,1,[],"['1', '2', '3', '4']",1,2023.2.3,harveyvisual,2.1,[],8,0.75,
1,dot,0.3,['dot'],['density'],black,0,260,260,260,,,93.4002411365509,93.1197190284729,93.41970300674438,dot,[0.06],"[0.5286010678554951, -0.2554598500704326]",density,black,,,N009,visual,1,[],"['1', '2', '3', '4']",1,2023.2.3,harveyvisual,2.1,[],8,0.75,
0,pause,0.4,None,None,None,0,261,261,261,,,,,,,,,,,,,N009,visual,1,[],"['1', '2', '3', '4']",1,2023.2.3,harveyvisual,2.1,[],8,0.75,
1,dot,0.3,['dot'],['density'],black,0,262,262,262,,,94.10022616386414,93.81969618797302,94.11971306800842,dot,[0.06],"[0.30758596680771827, -0.21275106234766314]",density,black,,,N009,visual,1,[],"['1', '2', '3', '4']",1,2023.2.3,harveyvisual,2.1,[],8,0.75,
0,pause,0.4,None,None,None,0,263,263,263,,,,,,,,,,,,,N009,visual,1,[],"['1', '2', '3', '4']",1,2023.2.3,harveyvisual,2.1,[],8,0.75,
20,dot,0.3,['dot'],['density'],black,0,264,264,264,,,94.8002359867096,94.51968622207642,94.81967520713806,dot,"[0.06, 0.06, 0.08, 0.08, 0.08, 0.08, 0.08, 0.1, 0.1, 0.1, 0.08, 0.06, 0.1, 0.08, 0.08, 0.06, 0.1, 0.1, 0.06, 0.06]","[[-0.5202416484119987, 0.047139069452220905], [0.2928738124351745, 0.3451136200134103], [-0.06075182280869729, 0.4640292148591343], [-0.007756219096442973, -0.14689867963081005], [0.49202052635263593, 0.30641650247501445], [0.4407858073391274, -0.2715800121555113], [-0.5211613007158518, -0.1976726491951866], [-0.10873099537994563, 0.19932933489199534], [0.451708432050382, 0.08519568854015164], [-0.2699969658385121, 0.08307740656796081], [-0.19039808027805205, -0.5261127205251646], [0.13569587404926253, -0.5893520701254433], [0.27925147556407415, -0.09674217505149041], [-0.049095708727409204, -0.3482671169453477], [-0.35918371177395547, -0.3563647001566484], [0.31045115444148863, -0.4338021061582199], [0.14556552577453774, 0.2207259836759985], [0.5796566721543824, -0.1364996741364783], [-0.3637183753140979, 0.4263516238917641], [0.138704984013733, 0.5074235157957118]]",density,black,,,N009,visual,1,[],"['1', '2', '3', '4']",1,2023.2.3,harveyvisual,2.1,[],8,0.75,
0,pause,0.4,None,None,None,0,265,265,265,,,,,,,,,,,,,N009,visual,1,[],"['1', '2', '3', '4']",1,2023.2.3,harveyvisual,2.1,[],8,0.75,
20,dot,0.3,['dot'],['density'],black,0,266,266,266,,,95.50023221969604,95.21970009803772,95.51970314979553,dot,"[0.08, 0.06, 0.08, 0.08, 0.08, 0.06, 0.08, 0.08, 0.06, 0.06, 0.06, 0.08, 0.1, 0.06, 0.1, 0.1, 0.08, 0.08, 0.1, 0.1]","[[0.1594621019278335, 0.4222818287327178], [0.268328997802897, 0.11703220371647849], [-0.29389590186945985, 0.26330737753122335], [-0.5848414950392766, 0.051969547881380224], [-0.1246514156587415, -0.2116010174843363], [-0.33924791715521685, -0.36584859433251327], [0.38172778963159326, -0.3169517679036711], [-0.5386211320885809, -0.2106048498308225], [0.40757584029112237, -0.041919012561518365], [0.6014759048365089, -0.008017448588909543], [-0.07033693900176852, 0.5923416628420195], [0.13073288227216118, -0.543799964801439], [0.0840355428108992, 0.22162106291245132], [0.1308844889431353, -0.33983970382240225], [0.05003709376453591, -0.06774602619639558], [0.47180052256034755, 0.3261033649116964], [-0.25979919012619423, 0.009323942423215548], [0.5589728112667439, -0.21939867513631192], [-0.07732582290180656, -0.4041406494733557], [-0.5054237514649367, 0.3130142919055892]]",density,black,,,N009,visual,1,[],"['1', '2', '3', '4']",1,2023.2.3,harveyvisual,2.1,[],8,0.75,
0,pause,0.4,None,None,None,0,267,267,267,,,,,,,,,,,,,N009,visual,1,[],"['1', '2', '3', '4']",1,2023.2.3,harveyvisual,2.1,[],8,0.75,
