num,mod,duration,shape,ll_cond,colors,.thisRepN,.thisTrialN,.thisN,.thisIndex,thisRow.t,notes,raw_global_time,t_start,t_stop,shapes,size,pos,cond,color,button,RT,participant,session,starting_run,left button (match/odd),right button (non-match/even),samples_per_block,psychopy version,expName,offset,audio,number_runs,radius,
1,dot,0.3,['dot'],['density'],black,0,0,0,0,,,2.400222063064575,2.1012699604034424,2.417893886566162,dot,[0.08],"[0.19623115665255414, 0.1676894875529279]",density,black,,,N009,visual,1,[],"['1', '2', '3', '4']",1,2023.2.3,harveyvisual,2.1,[],8,0.75,
0,pause,0.4,None,None,None,0,1,1,1,,,,,,,,,,,,,N009,visual,1,[],"['1', '2', '3', '4']",1,2023.2.3,harveyvisual,2.1,[],8,0.75,
1,dot,0.3,['dot'],['density'],black,0,2,2,2,,,3.1002140045166016,2.8014230728149414,3.1183810234069824,dot,[0.06],"[-0.43400380483721984, 0.10531265887229962]",density,black,,,N009,visual,1,[],"['1', '2', '3', '4']",1,2023.2.3,harveyvisual,2.1,[],8,0.75,
0,pause,0.4,None,None,None,0,3,3,3,,,,,,,,,,,,,N009,visual,1,[],"['1', '2', '3', '4']",1,2023.2.3,harveyvisual,2.1,[],8,0.75,
1,dot,0.3,['dot'],['density'],black,0,4,4,4,,,3.800220012664795,3.501889944076538,3.8183820247650146,dot,[0.1],"[-0.4913090862596544, 0.31587628757091063]",density,black,,,N009,visual,1,[],"['1', '2', '3', '4']",1,2023.2.3,harveyvisual,2.1,[],8,0.75,
0,pause,0.4,None,None,None,0,5,5,5,,,,,,,,,,,,,N009,visual,1,[],"['1', '2', '3', '4']",1,2023.2.3,harveyvisual,2.1,[],8,0.75,
1,dot,0.3,['dot'],['density'],black,0,6,6,6,,,4.500225067138672,4.201662063598633,4.518366098403931,dot,[0.08],"[0.5163804524385218, 0.172353611070521]",density,black,,,N009,visual,1,[],"['1', '2', '3', '4']",1,2023.2.3,harveyvisual,2.1,[],8,0.75,
0,pause,0.4,None,None,None,0,7,7,7,,,,,,,,,,,,,N009,visual,1,[],"['1', '2', '3', '4']",1,2023.2.3,harveyvisual,2.1,[],8,0.75,
1,dot,0.3,['dot'],['density'],black,0,8,8,8,,,5.200237989425659,4.90164589881897,5.218342065811157,dot,[0.08],"[-0.06064478149429028, 0.10204082006191012]",density,black,,,N009,visual,1,[],"['1', '2', '3', '4']",1,2023.2.3,harveyvisual,2.1,[],8,0.75,
0,pause,0.4,None,None,None,0,9,9,9,,,,,,,,,,,,,N009,visual,1,[],"['1', '2', '3', '4']",1,2023.2.3,harveyvisual,2.1,[],8,0.75,
1,dot,0.3,['dot'],['density'],white,0,10,10,10,,,5.900222063064575,5.601747989654541,5.920667886734009,dot,[0.1],"[0.19623115665255414, 0.1676894875529279]",density,white,,,N009,visual,1,[],"['1', '2', '3', '4']",1,2023.2.3,harveyvisual,2.1,[],8,0.75,
0,pause,0.4,None,None,None,0,11,11,11,,,,,,,,,,,1,6.051587820053101,N009,visual,1,[],"['1', '2', '3', '4']",1,2023.2.3,harveyvisual,2.1,[],8,0.75,
2,dot,0.3,['dot'],['density'],black,0,12,12,12,,,6.60022497177124,6.320647954940796,6.620613098144531,dot,"[0.1, 0.08]","[[0.07059805578258149, -0.2458188734665979], [0.058763118304238846, -0.4455693812784497]]",density,black,,,N009,visual,1,[],"['1', '2', '3', '4']",1,2023.2.3,harveyvisual,2.1,[],8,0.75,
0,pause,0.4,None,None,None,0,13,13,13,,,,,,,,,,,,,N009,visual,1,[],"['1', '2', '3', '4']",1,2023.2.3,harveyvisual,2.1,[],8,0.75,
2,dot,0.3,['dot'],['density'],white,0,14,14,14,,,7.300230979919434,7.020633935928345,7.320627927780151,dot,"[0.08, 0.1]","[[-0.4579128382498026, -0.013317831223324628], [-0.28624676016543393, -0.11681778735554697]]",density,white,,,N009,visual,1,[],"['1', '2', '3', '4']",1,2023.2.3,harveyvisual,2.1,[],8,0.75,
0,pause,0.4,None,None,None,0,15,15,15,,,,,,,,,,,1,7.4297449588775635,N009,visual,1,[],"['1', '2', '3', '4']",1,2023.2.3,harveyvisual,2.1,[],8,0.75,
2,dot,0.3,['dot'],['density'],black,0,16,16,16,,,8.000218868255615,7.720634937286377,8.020591974258423,dot,"[0.06, 0.1]","[[0.5159928458027473, 0.13749655768121952], [0.38343727829172375, 0.28833164788761484]]",density,black,,,N009,visual,1,[],"['1', '2', '3', '4']",1,2023.2.3,harveyvisual,2.1,[],8,0.75,
0,pause,0.4,None,None,None,0,17,17,17,,,,,,,,,,,,,N009,visual,1,[],"['1', '2', '3', '4']",1,2023.2.3,harveyvisual,2.1,[],8,0.75,
2,dot,0.3,['dot'],['density'],black,0,18,18,18,,,8.700223922729492,8.420589923858643,8.720576047897339,dot,"[0.08, 0.08]","[[0.28379985726396956, 0.19228106150028407], [0.10160376615595414, 0.2763535177041957]]",density,black,,,N009,visual,1,[],"['1', '2', '3', '4']",1,2023.2.3,harveyvisual,2.1,[],8,0.75,
0,pause,0.4,None,None,None,0,19,19,19,,,,,,,,,,,,,N009,visual,1,[],"['1', '2', '3', '4']",1,2023.2.3,harveyvisual,2.1,[],8,0.75,
2,dot,0.3,['dot'],['density'],black,0,20,20,20,,,9.400216102600098,9.103978872299194,9.42055892944336,dot,"[0.1, 0.1]","[[0.1734117655345296, 0.46860731914486053], [-0.01847566562869785, 0.52581935004857]]",density,black,,,N009,visual,1,[],"['1', '2', '3', '4']",1,2023.2.3,harveyvisual,2.1,[],8,0.75,
0,pause,0.4,None,None,None,0,21,21,21,,,,,,,,,,,,,N009,visual,1,[],"['1', '2', '3', '4']",1,2023.2.3,harveyvisual,2.1,[],8,0.75,
2,dot,0.3,['dot'],['density'],black,0,22,22,22,,,10.10021686553955,9.803946018218994,10.120518922805786,dot,"[0.08, 0.08]","[[-0.40295961353468523, -0.33947470962363085], [-0.23663605411983973, -0.22749761394439932]]",density,black,,,N009,visual,1,[],"['1', '2', '3', '4']",1,2023.2.3,harveyvisual,2.1,[],8,0.75,
0,pause,0.4,None,None,None,0,23,23,23,,,,,,,,,,,,,N009,visual,1,[],"['1', '2', '3', '4']",1,2023.2.3,harveyvisual,2.1,[],8,0.75,
3,dot,0.3,['dot'],['density'],white,0,24,24,24,,,10.800236940383911,10.52065396308899,10.820528984069824,dot,"[0.06, 0.1, 0.1]","[[0.2768253388883432, 0.03346297355107007], [0.11287187477499526, -0.09417797505773098], [0.09003622344097514, 0.12370024427926096]]",density,white,,,N009,visual,1,[],"['1', '2', '3', '4']",1,2023.2.3,harveyvisual,2.1,[],8,0.75,
0,pause,0.4,None,None,None,0,25,25,25,,,,,,,,,,,1,10.810462951660156,N009,visual,1,[],"['1', '2', '3', '4']",1,2023.2.3,harveyvisual,2.1,[],8,0.75,
3,dot,0.3,['dot'],['density'],black,0,26,26,26,,,11.500225067138672,11.220648050308228,11.520665884017944,dot,"[0.1, 0.1, 0.08]","[[0.4290032298944087, 0.1407520187648592], [0.22848299553954127, 0.06362144779139585], [0.3595680574788582, -0.09433362503040832]]",density,black,,,N009,visual,1,[],"['1', '2', '3', '4']",1,2023.2.3,harveyvisual,2.1,[],8,0.75,
0,pause,0.4,None,None,None,0,27,27,27,,,,,,,,,,,,,N009,visual,1,[],"['1', '2', '3', '4']",1,2023.2.3,harveyvisual,2.1,[],8,0.75,
3,dot,0.3,['dot'],['density'],black,0,28,28,28,,,12.200218915939331,11.920509099960327,12.220630884170532,dot,"[0.06, 0.1, 0.08]","[[0.4995185571857965, 0.14229679706320136], [0.2944600495073675, 0.23335097983198633], [0.330752226915583, 0.0299241169750933]]",density,black,,,N009,visual,1,[],"['1', '2', '3', '4']",1,2023.2.3,harveyvisual,2.1,[],8,0.75,
0,pause,0.4,None,None,None,0,29,29,29,,,,,,,,,,,,,N009,visual,1,[],"['1', '2', '3', '4']",1,2023.2.3,harveyvisual,2.1,[],8,0.75,
3,dot,0.3,['dot'],['density'],black,0,30,30,30,,,12.900232076644897,12.620486974716187,12.920600891113281,dot,"[0.1, 0.08, 0.06]","[[0.348550694073714, -0.26372109460002424], [0.5073713069625243, -0.14206826334288786], [0.3419709386041379, 0.005891602819957491]]",density,black,,,N009,visual,1,[],"['1', '2', '3', '4']",1,2023.2.3,harveyvisual,2.1,[],8,0.75,
0,pause,0.4,None,None,None,0,31,31,31,,,,,,,,,,,,,N009,visual,1,[],"['1', '2', '3', '4']",1,2023.2.3,harveyvisual,2.1,[],8,0.75,
3,dot,0.3,['dot'],['density'],black,0,32,32,32,,,13.600226879119873,13.32063102722168,13.620617866516113,dot,"[0.1, 0.08, 0.06]","[[-0.27441186418729774, -0.31428620701652393], [-0.10438281902574013, -0.2032379983598837], [-0.31523395761825285, -0.08768035506307631]]",density,black,,,N009,visual,1,[],"['1', '2', '3', '4']",1,2023.2.3,harveyvisual,2.1,[],8,0.75,
0,pause,0.4,None,None,None,0,33,33,33,,,,,,,,,,,,,N009,visual,1,[],"['1', '2', '3', '4']",1,2023.2.3,harveyvisual,2.1,[],8,0.75,
3,dot,0.3,['dot'],['density'],black,0,34,34,34,,,14.300225973129272,14.020569086074829,14.32056188583374,dot,"[0.08, 0.08, 0.08]","[[0.3935061822875672, 0.2255916562549388], [0.5507663609445765, 0.05974239467682067], [0.33737455125106675, -0.013318187219183488]]",density,black,,,N009,visual,1,[],"['1', '2', '3', '4']",1,2023.2.3,harveyvisual,2.1,[],8,0.75,
0,pause,0.4,None,None,None,0,35,35,35,,,,,,,,,,,,,N009,visual,1,[],"['1', '2', '3', '4']",1,2023.2.3,harveyvisual,2.1,[],8,0.75,
4,dot,0.3,['dot'],['density'],black,0,36,36,36,,,15.000228881835938,14.720552921295166,15.020554065704346,dot,"[0.1, 0.1, 0.08, 0.1]","[[-0.03907102058372138, -0.1723346686752248], [0.13255167928633116, -0.03782047714335622], [0.2720101467217329, -0.23443565690461937], [0.07080951743106016, -0.35239766365090747]]",density,black,,,N009,visual,1,[],"['1', '2', '3', '4']",1,2023.2.3,harveyvisual,2.1,[],8,0.75,
0,pause,0.4,None,None,None,0,37,37,37,,,,,,,,,,,,,N009,visual,1,[],"['1', '2', '3', '4']",1,2023.2.3,harveyvisual,2.1,[],8,0.75,
4,dot,0.3,['dot'],['density'],black,0,38,38,38,,,15.700217008590698,15.420552968978882,15.720557928085327,dot,"[0.08, 0.1, 0.08, 0.06]","[[0.107131415583101, 0.03171316484874249], [0.3330877778846877, 0.14211400081541528], [0.23058747141838212, -0.24340322486593785], [0.3173726134345681, -0.05921806988573682]]",density,black,,,N009,visual,1,[],"['1', '2', '3', '4']",1,2023.2.3,harveyvisual,2.1,[],8,0.75,
0,pause,0.4,None,None,None,0,39,39,39,,,,,,,,,,,,,N009,visual,1,[],"['1', '2', '3', '4']",1,2023.2.3,harveyvisual,2.1,[],8,0.75,
4,dot,0.3,['dot'],['density'],black,0,40,40,40,,,16.400234937667847,16.12040901184082,16.420515060424805,dot,"[0.06, 0.1, 0.1, 0.06]","[[0.2593869086993074, -0.26887741013308497], [0.09674879007849839, -0.39609983087723066], [-0.011093693993988496, -0.14004324908426333], [0.28630805459639813, -0.4681830009867555]]",density,black,,,N009,visual,1,[],"['1', '2', '3', '4']",1,2023.2.3,harveyvisual,2.1,[],8,0.75,
0,pause,0.4,None,None,None,0,41,41,41,,,,,,,,,,,,,N009,visual,1,[],"['1', '2', '3', '4']",1,2023.2.3,harveyvisual,2.1,[],8,0.75,
4,dot,0.3,['dot'],['density'],black,0,42,42,42,,,17.100218057632446,16.820518970489502,17.120375871658325,dot,"[0.08, 0.08, 0.06, 0.1]","[[-0.5372831058023291, 0.07679305146548565], [-0.47746952625478134, -0.11455356156484316], [-0.2888199447118168, 0.02804534169422597], [-0.3317661241759115, -0.2533775510137967]]",density,black,,,N009,visual,1,[],"['1', '2', '3', '4']",1,2023.2.3,harveyvisual,2.1,[],8,0.75,
0,pause,0.4,None,None,None,0,43,43,43,,,,,,,,,,,,,N009,visual,1,[],"['1', '2', '3', '4']",1,2023.2.3,harveyvisual,2.1,[],8,0.75,
4,dot,0.3,['dot'],['density'],black,0,44,44,44,,,17.800239086151123,17.52037501335144,17.820488929748535,dot,"[0.08, 0.06, 0.08, 0.06]","[[0.010836700166572746, 0.3385055392368038], [-0.21755291078517647, 0.23172276430217797], [0.04881011250022837, 0.13413393103699342], [-0.16894730197854985, 0.4434327172909165]]",density,black,,,N009,visual,1,[],"['1', '2', '3', '4']",1,2023.2.3,harveyvisual,2.1,[],8,0.75,
0,pause,0.4,None,None,None,0,45,45,45,,,,,,,,,,,,,N009,visual,1,[],"['1', '2', '3', '4']",1,2023.2.3,harveyvisual,2.1,[],8,0.75,
4,dot,0.3,['dot'],['density'],black,0,46,46,46,,,18.500230073928833,18.220484972000122,18.520472049713135,dot,"[0.08, 0.08, 0.06, 0.06]","[[-0.43942495523079517, -0.22401056498097033], [-0.009260832099230759, -0.1633376679159051], [-0.21598309108097546, -0.10172603009605206], [-0.2278206133413005, -0.33154874685782076]]",density,black,,,N009,visual,1,[],"['1', '2', '3', '4']",1,2023.2.3,harveyvisual,2.1,[],8,0.75,
0,pause,0.4,None,None,None,0,47,47,47,,,,,,,,,,,,,N009,visual,1,[],"['1', '2', '3', '4']",1,2023.2.3,harveyvisual,2.1,[],8,0.75,
5,dot,0.3,['dot'],['density'],black,0,48,48,48,,,19.200238943099976,18.920469045639038,19.220453023910522,dot,"[0.06, 0.1, 0.06, 0.06, 0.08]","[[-0.18510638544872327, 0.41559840932892733], [-0.057175862535637494, 0.18304904272057057], [0.24003340414173915, 0.43371676657957026], [0.006490958465160464, 0.4770521622163581], [0.13658455045585424, 0.2476502540597336]]",density,black,,,N009,visual,1,[],"['1', '2', '3', '4']",1,2023.2.3,harveyvisual,2.1,[],8,0.75,
0,pause,0.4,None,None,None,0,49,49,49,,,,,,,,,,,,,N009,visual,1,[],"['1', '2', '3', '4']",1,2023.2.3,harveyvisual,2.1,[],8,0.75,
5,dot,0.3,['dot'],['density'],black,0,50,50,50,,,19.900239944458008,19.620460033416748,19.92043709754944,dot,"[0.08, 0.08, 0.06, 0.1, 0.08]","[[-0.10197385386246118, 0.24760023034087644], [-0.014646448823952617, 0.47519555304773536], [-0.21360058910662874, 0.441350445979826], [-0.3878570731713836, 0.20534708698022924], [-0.24187982362067023, 0.06730525069120082]]",density,black,,,N009,visual,1,[],"['1', '2', '3', '4']",1,2023.2.3,harveyvisual,2.1,[],8,0.75,
0,pause,0.4,None,None,None,0,51,51,51,,,,,,,,,,,,,N009,visual,1,[],"['1', '2', '3', '4']",1,2023.2.3,harveyvisual,2.1,[],8,0.75,
5,dot,0.3,['dot'],['density'],black,0,52,52,52,,,20.600226879119873,20.320441007614136,20.620414972305298,dot,"[0.1, 0.06, 0.08, 0.1, 0.08]","[[-0.09836533996777486, -0.13487298234664027], [-0.39372579989196477, -0.3970332615714695], [-0.08519030630468749, -0.3439803803737387], [-0.28676510783747755, -0.22768547842943598], [-0.4191710438677135, -0.018830474544977712]]",density,black,,,N009,visual,1,[],"['1', '2', '3', '4']",1,2023.2.3,harveyvisual,2.1,[],8,0.75,
0,pause,0.4,None,None,None,0,53,53,53,,,,,,,,,,,,,N009,visual,1,[],"['1', '2', '3', '4']",1,2023.2.3,harveyvisual,2.1,[],8,0.75,
5,dot,0.3,['dot'],['density'],black,0,54,54,54,,,21.30024003982544,21.020428895950317,21.32045292854309,dot,"[0.08, 0.08, 0.08, 0.1, 0.06]","[[-0.18510638544872327, 0.41559840932892733], [-0.057175862535637494, 0.18304904272057057], [0.24003340414173915, 0.43371676657957026], [0.006490958465160464, 0.4770521622163581], [0.13658455045585424, 0.2476502540597336]]",density,black,,,N009,visual,1,[],"['1', '2', '3', '4']",1,2023.2.3,harveyvisual,2.1,[],8,0.75,
0,pause,0.4,None,None,None,0,55,55,55,,,,,,,,,,,,,N009,visual,1,[],"['1', '2', '3', '4']",1,2023.2.3,harveyvisual,2.1,[],8,0.75,
5,dot,0.3,['dot'],['density'],black,0,56,56,56,,,22.000235080718994,21.720470905303955,22.02049994468689,dot,"[0.1, 0.08, 0.08, 0.06, 0.06]","[[-0.11834215492801986, 0.412508379109845], [0.31881799646300274, 0.30859303438359803], [-0.06368743078099719, 0.10105058071702504], [0.1133485112468387, 0.46262203184429457], [0.11957051434631445, 0.24197418837926052]]",density,black,,,N009,visual,1,[],"['1', '2', '3', '4']",1,2023.2.3,harveyvisual,2.1,[],8,0.75,
0,pause,0.4,None,None,None,0,57,57,57,,,,,,,,,,,,,N009,visual,1,[],"['1', '2', '3', '4']",1,2023.2.3,harveyvisual,2.1,[],8,0.75,
5,dot,0.3,['dot'],['density'],black,0,58,58,58,,,22.700241088867188,22.4204740524292,22.72050189971924,dot,"[0.1, 0.08, 0.1, 0.08, 0.06]","[[0.21791283729510122, -0.3451859720731072], [0.5246150578842218, -0.1749209719782184], [0.23417080448362212, 0.06149420791510773], [0.21628546435715315, -0.14179681516434317], [0.46094971099473236, 0.03541120369123469]]",density,black,,,N009,visual,1,[],"['1', '2', '3', '4']",1,2023.2.3,harveyvisual,2.1,[],8,0.75,
0,pause,0.4,None,None,None,0,59,59,59,,,,,,,,,,,,,N009,visual,1,[],"['1', '2', '3', '4']",1,2023.2.3,harveyvisual,2.1,[],8,0.75,
6,dot,0.3,['dot'],['density'],black,0,60,60,60,,,23.400234937667847,23.120212078094482,23.420347929000854,dot,"[0.06, 0.1, 0.06, 0.06, 0.08, 0.08]","[[0.285926512064941, -0.24481785515673876], [0.418595730147314, -0.41068201076939437], [0.08023911914447063, -0.2907744195836184], [0.5255309086764915, -0.21900298349449057], [0.21619509519697316, -0.004828458463526469], [0.21043770887025895, -0.4594541383061854]]",density,black,,,N009,visual,1,[],"['1', '2', '3', '4']",1,2023.2.3,harveyvisual,2.1,[],8,0.75,
0,pause,0.4,None,None,None,0,61,61,61,,,,,,,,,,,,,N009,visual,1,[],"['1', '2', '3', '4']",1,2023.2.3,harveyvisual,2.1,[],8,0.75,
6,dot,0.3,['dot'],['density'],black,0,62,62,62,,,24.100236892700195,23.820339918136597,24.120187997817993,dot,"[0.06, 0.1, 0.08, 0.1, 0.06, 0.1]","[[-0.21871154593458392, 0.523205648483303], [-0.10311842393244862, 0.3355489225101837], [0.008055670172287269, 0.5366903261171385], [0.1303263863168633, 0.3782575370349718], [0.03185769749340688, 0.17145177849191712], [-0.2810167974491763, 0.15418865533644557]]",density,black,,,N009,visual,1,[],"['1', '2', '3', '4']",1,2023.2.3,harveyvisual,2.1,[],8,0.75,
0,pause,0.4,None,None,None,0,63,63,63,,,,,,,,,,,,,N009,visual,1,[],"['1', '2', '3', '4']",1,2023.2.3,harveyvisual,2.1,[],8,0.75,
6,dot,0.3,['dot'],['density'],black,0,64,64,64,,,24.800225019454956,24.520335912704468,24.820178031921387,dot,"[0.08, 0.06, 0.06, 0.1, 0.1, 0.08]","[[-0.4718675517483807, -0.080313523620691], [-0.31247550484642445, -0.23218356379105512], [-0.2575593735283343, 0.24158811959194182], [-0.2948669609652105, 0.017652028830845004], [-0.0883702388727292, 0.027494606567874856], [-0.45154527444290743, 0.17691331155056722]]",density,black,,,N009,visual,1,[],"['1', '2', '3', '4']",1,2023.2.3,harveyvisual,2.1,[],8,0.75,
0,pause,0.4,None,None,None,0,65,65,65,,,,,,,,,,,,,N009,visual,1,[],"['1', '2', '3', '4']",1,2023.2.3,harveyvisual,2.1,[],8,0.75,
6,dot,0.3,['dot'],['density'],white,0,66,66,66,,,25.500241994857788,25.220359086990356,25.520169973373413,dot,"[0.1, 0.08, 0.06, 0.08, 0.08, 0.06]","[[0.1344939073868, 0.11682503965153783], [0.2622842826516073, -0.1576809643807538], [0.491422654665352, 0.2653315688189552], [0.5669231994484553, 0.0667155191364867], [0.2299276458131091, 0.29835232047215776], [0.3356420801536577, 0.10517090915368521]]",density,white,,,N009,visual,1,[],"['1', '2', '3', '4']",1,2023.2.3,harveyvisual,2.1,[],8,0.75,
0,pause,0.4,None,None,None,0,67,67,67,,,,,,,,,,,1,25.581164836883545,N009,visual,1,[],"['1', '2', '3', '4']",1,2023.2.3,harveyvisual,2.1,[],8,0.75,
6,dot,0.3,['dot'],['density'],black,0,68,68,68,,,26.20022487640381,25.920342922210693,26.220195055007935,dot,"[0.1, 0.06, 0.06, 0.08, 0.08, 0.06]","[[-0.3075905201299059, -0.4396409988488083], [-0.19740249700094745, -0.17714391351551703], [0.053731853964380204, -0.5240815929277938], [0.045148855841778586, -0.17580561296456876], [0.17596231810730836, -0.3386358025171148], [-0.08995737585576556, -0.36423659604885134]]",density,black,,,N009,visual,1,[],"['1', '2', '3', '4']",1,2023.2.3,harveyvisual,2.1,[],8,0.75,
0,pause,0.4,None,None,None,0,69,69,69,,,,,,,,,,,,,N009,visual,1,[],"['1', '2', '3', '4']",1,2023.2.3,harveyvisual,2.1,[],8,0.75,
6,dot,0.3,['dot'],['density'],black,0,70,70,70,,,26.90024709701538,26.620161056518555,26.9201180934906,dot,"[0.08, 0.08, 0.06, 0.08, 0.06, 0.08]","[[-0.5379788740814003, -0.011730333491669416], [-0.1820890739253136, -0.27973544868684425], [-0.07809457889047756, -0.09124846264896269], [-0.30616251401069866, -0.45101817852416426], [-0.44200878281119743, -0.26991620184617166], [-0.3315938551005316, -0.08696624632848979]]",density,black,,,N009,visual,1,[],"['1', '2', '3', '4']",1,2023.2.3,harveyvisual,2.1,[],8,0.75,
0,pause,0.4,None,None,None,0,71,71,71,,,,,,,,,,,,,N009,visual,1,[],"['1', '2', '3', '4']",1,2023.2.3,harveyvisual,2.1,[],8,0.75,
7,dot,0.3,['dot'],['density'],black,0,72,72,72,,,27.6002299785614,27.320348024368286,27.62025809288025,dot,"[0.1, 0.1, 0.08, 0.1, 0.08, 0.1, 0.06]","[[0.020512593940644967, 0.06058225053891463], [-0.12457192929091994, 0.22210134043855223], [0.2267676360835929, 0.07227077176864677], [-0.19381219694833235, -0.14277017550647156], [0.096077147208419, -0.13886261858003718], [0.087393672000005, 0.26445259248386815], [-0.018663113410245565, 0.4344684582511623]]",density,black,,,N009,visual,1,[],"['1', '2', '3', '4']",1,2023.2.3,harveyvisual,2.1,[],8,0.75,
0,pause,0.4,None,None,None,0,73,73,73,,,,,,,,,,,,,N009,visual,1,[],"['1', '2', '3', '4']",1,2023.2.3,harveyvisual,2.1,[],8,0.75,
7,dot,0.3,['dot'],['density'],white,0,74,74,74,,,28.3002450466156,28.0202419757843,28.32024097442627,dot,"[0.06, 0.1, 0.1, 0.06, 0.08, 0.06, 0.08]","[[-0.137089699111686, -0.0603537150230737], [-0.5113647139476066, -0.13847335204066147], [-0.15813839015967857, -0.36469710156031643], [-0.2936616210719107, -0.2141411575526577], [-0.32787652212665946, 0.04250548396893007], [0.004093135922799089, -0.22788394746255153], [-0.17456170860443615, 0.20133573380951708]]",density,white,,,N009,visual,1,[],"['1', '2', '3', '4']",1,2023.2.3,harveyvisual,2.1,[],8,0.75,
0,pause,0.4,None,None,None,0,75,75,75,,,,,,,,,,,1,28.38839292526245,N009,visual,1,[],"['1', '2', '3', '4']",1,2023.2.3,harveyvisual,2.1,[],8,0.75,
7,dot,0.3,['dot'],['density'],black,0,76,76,76,,,29.00022602081299,28.720232009887695,29.020092010498047,dot,"[0.08, 0.06, 0.08, 0.08, 0.08, 0.06, 0.08]","[[-0.3242652666020733, -0.24505345323409705], [-0.563286395470885, 0.11160295583497896], [-0.1647097641571906, 0.12111961656459011], [-0.36052488434271157, 0.18805397786199418], [-0.09510517377503278, -0.06720219285628748], [-0.3867432997129629, -0.05120750304069932], [-0.32798962767594847, 0.38554234766764234]]",density,black,,,N009,visual,1,[],"['1', '2', '3', '4']",1,2023.2.3,harveyvisual,2.1,[],8,0.75,
0,pause,0.4,None,None,None,0,77,77,77,,,,,,,,,,,,,N009,visual,1,[],"['1', '2', '3', '4']",1,2023.2.3,harveyvisual,2.1,[],8,0.75,
7,dot,0.3,['dot'],['density'],black,0,78,78,78,,,29.700243949890137,29.420130968093872,29.72020387649536,dot,"[0.1, 0.06, 0.06, 0.1, 0.1, 0.08, 0.1]","[[0.2966712274604575, -0.2131825579980761], [-0.1186836204372937, -0.4965034514665913], [-0.01440301872015537, -0.0403072600505146], [0.1950017499803942, -0.04023412759326238], [0.279011892689379, -0.46996203863525404], [-0.05628257964606558, -0.24364929332980273], [0.11956786588335709, -0.3438640467385331]]",density,black,,,N009,visual,1,[],"['1', '2', '3', '4']",1,2023.2.3,harveyvisual,2.1,[],8,0.75,
0,pause,0.4,None,None,None,0,79,79,79,,,,,,,,,,,,,N009,visual,1,[],"['1', '2', '3', '4']",1,2023.2.3,harveyvisual,2.1,[],8,0.75,
7,dot,0.3,['dot'],['density'],black,0,80,80,80,,,30.40023708343506,30.12004590034485,30.420181035995483,dot,"[0.06, 0.08, 0.1, 0.1, 0.08, 0.06, 0.06]","[[0.36124702795982905, 0.02861074637729004], [0.035495459613383976, -0.03736980990239832], [0.4545067059830119, -0.22475560039862832], [0.21831658066582188, 0.20471036725638603], [0.23621436127430617, -0.13960795011418334], [0.5606656921354746, -0.047865395727918474], [0.5468561378002438, 0.2161657569851178]]",density,black,,,N009,visual,1,[],"['1', '2', '3', '4']",1,2023.2.3,harveyvisual,2.1,[],8,0.75,
0,pause,0.4,None,None,None,0,81,81,81,,,,,,,,,,,,,N009,visual,1,[],"['1', '2', '3', '4']",1,2023.2.3,harveyvisual,2.1,[],8,0.75,
7,dot,0.3,['dot'],['density'],black,0,82,82,82,,,31.100229024887085,30.820169925689697,31.120009899139404,dot,"[0.06, 0.06, 0.08, 0.06, 0.08, 0.06, 0.1]","[[0.3302081014073935, 0.19448071361351732], [-0.22286629369238187, 0.3450023392305547], [-0.11533339293480348, 0.13926201039730488], [0.12023407780451623, 0.21240672508650668], [0.2659789407074307, 0.3894086603790018], [0.026604934602130894, 0.39133200849180605], [0.212400253920387, 0.027377351413115796]]",density,black,,,N009,visual,1,[],"['1', '2', '3', '4']",1,2023.2.3,harveyvisual,2.1,[],8,0.75,
0,pause,0.4,None,None,None,0,83,83,83,,,,,,,,,,,,,N009,visual,1,[],"['1', '2', '3', '4']",1,2023.2.3,harveyvisual,2.1,[],8,0.75,
8,dot,0.3,['dot'],['density'],black,0,84,84,84,,,31.800241947174072,31.52001690864563,31.820012092590332,dot,"[0.06, 0.08, 0.06, 0.08, 0.1, 0.06, 0.1, 0.08]","[[0.4359105889063985, -0.17362457700912998], [-0.10421753759268779, -0.0599030042764737], [0.3870326705858601, 0.24174009796940588], [0.2566713073165989, 0.014561377540278508], [0.2306797840234149, -0.3263374489921181], [0.47690301692068965, 0.04601699051563034], [0.08674944532705724, -0.15383855565976665], [0.03609124925759635, 0.09790267139194009]]",density,black,,,N009,visual,1,[],"['1', '2', '3', '4']",1,2023.2.3,harveyvisual,2.1,[],8,0.75,
0,pause,0.4,None,None,None,0,85,85,85,,,,,,,,,,,,,N009,visual,1,[],"['1', '2', '3', '4']",1,2023.2.3,harveyvisual,2.1,[],8,0.75,
8,dot,0.3,['dot'],['density'],black,0,86,86,86,,,32.50024604797363,32.22014498710632,32.52012491226196,dot,"[0.06, 0.06, 0.06, 0.06, 0.1, 0.06, 0.1, 0.1]","[[-0.012034279999911439, 0.06556808781241986], [-0.3446774290598954, 0.11122635080299646], [0.22428040003470762, 0.1796687910302273], [-0.037221971777983635, 0.5300244249381355], [-0.1456717336157172, 0.2672263832914442], [0.040508406505222534, 0.3412803201140432], [-0.26975617824218623, 0.48628578621654683], [0.24128509790231628, 0.4122343446782376]]",density,black,,,N009,visual,1,[],"['1', '2', '3', '4']",1,2023.2.3,harveyvisual,2.1,[],8,0.75,
0,pause,0.4,None,None,None,0,87,87,87,,,,,,,,,,,,,N009,visual,1,[],"['1', '2', '3', '4']",1,2023.2.3,harveyvisual,2.1,[],8,0.75,
8,dot,0.3,['dot'],['density'],black,0,88,88,88,,,33.20022392272949,32.92012095451355,33.22010087966919,dot,"[0.1, 0.06, 0.1, 0.06, 0.08, 0.1, 0.08, 0.1]","[[-0.13470540342303577, 0.06408260861786476], [-0.32633744656496655, 0.15045505181492372], [-0.2908673593763413, -0.0762007135190446], [-0.5368971138264618, 0.18470905249118252], [0.055331558945424124, 0.1732254888039505], [-0.30909967543404826, 0.3845911877556102], [-0.0777863596696305, 0.41921053595603236], [0.03181857584637903, -0.08967320215721851]]",density,black,,,N009,visual,1,[],"['1', '2', '3', '4']",1,2023.2.3,harveyvisual,2.1,[],8,0.75,
0,pause,0.4,None,None,None,0,89,89,89,,,,,,,,,,,,,N009,visual,1,[],"['1', '2', '3', '4']",1,2023.2.3,harveyvisual,2.1,[],8,0.75,
8,dot,0.3,['dot'],['density'],white,0,90,90,90,,,33.90021991729736,33.620140075683594,33.920130014419556,dot,"[0.06, 0.1, 0.08, 0.08, 0.08, 0.1, 0.08, 0.06]","[[0.2695774744445919, -0.006239189610034271], [0.562582848369008, 0.10338967896652898], [0.24075709842543627, 0.2415297589697605], [0.16944247952526825, 0.43473569867318385], [0.009973801462114143, 0.2622623098226203], [0.4378981685404615, 0.30984992123658367], [0.345623627049791, -0.19390063473497438], [0.01218861403819752, 6.35764658527089e-05]]",density,white,,,N009,visual,1,[],"['1', '2', '3', '4']",1,2023.2.3,harveyvisual,2.1,[],8,0.75,
0,pause,0.4,None,None,None,0,91,91,91,,,,,,,,,,,1,33.967272996902466,N009,visual,1,[],"['1', '2', '3', '4']",1,2023.2.3,harveyvisual,2.1,[],8,0.75,
8,dot,0.3,['dot'],['density'],black,0,92,92,92,,,34.60023498535156,34.32007694244385,34.62007689476013,dot,"[0.08, 0.08, 0.08, 0.1, 0.08, 0.06, 0.06, 0.08]","[[-0.0012777187897950197, 0.3966007492927722], [-0.28447363834021117, 0.3159852715582059], [0.19942587273623266, 0.5530929527666414], [0.21318140018031628, 0.35154814550636243], [0.2022184519229619, 0.1402347591191321], [-0.03399167273692697, 0.18426518172063944], [0.09045107803968953, -0.0428478536761596], [-0.13826990130262626, -0.021750669296841257]]",density,black,,,N009,visual,1,[],"['1', '2', '3', '4']",1,2023.2.3,harveyvisual,2.1,[],8,0.75,
0,pause,0.4,None,None,None,0,93,93,93,,,,,,,,,,,,,N009,visual,1,[],"['1', '2', '3', '4']",1,2023.2.3,harveyvisual,2.1,[],8,0.75,
8,dot,0.3,['dot'],['density'],black,0,94,94,94,,,35.300230979919434,35.02006697654724,35.31993103027344,dot,"[0.1, 0.06, 0.06, 0.08, 0.08, 0.08, 0.06, 0.1]","[[0.4694715163891994, 0.13329625263481096], [0.14358160208090395, 0.35167434699812705], [0.41559735975202405, 0.3690190921299561], [-0.041805684447173724, 0.4315913723966695], [-0.04993254304034498, 0.2285123563850015], [0.25337459258073897, 0.16365346604105616], [0.18476510797087844, 0.5481483313560797], [0.14868800337579569, -0.10349430855878591]]",density,black,,,N009,visual,1,[],"['1', '2', '3', '4']",1,2023.2.3,harveyvisual,2.1,[],8,0.75,
0,pause,0.4,None,None,None,0,95,95,95,,,,,,,,,,,,,N009,visual,1,[],"['1', '2', '3', '4']",1,2023.2.3,harveyvisual,2.1,[],8,0.75,
9,dot,0.3,['dot'],['density'],white,0,96,96,96,,,36.000226974487305,35.72006607055664,36.0200309753418,dot,"[0.08, 0.06, 0.08, 0.08, 0.1, 0.1, 0.06, 0.06, 0.1]","[[0.019793807854907846, -0.43234396454466956], [-0.19026732246162045, -0.30921043426246514], [0.04019268118281429, 0.04496242893187172], [-0.3995051790572048, -0.35321755636659735], [-0.3855517065125252, -0.10705750392277943], [0.08372722599267078, -0.1679482296571974], [0.2622756688563642, -0.3928589043728353], [-0.14305193053609555, -0.047108980659819465], [-0.27076529918092873, 0.10825753519043561]]",density,white,,,N009,visual,1,[],"['1', '2', '3', '4']",1,2023.2.3,harveyvisual,2.1,[],8,0.75,
0,pause,0.4,None,None,None,0,97,97,97,,,,,,,,,,,1,36.02349400520325,N009,visual,1,[],"['1', '2', '3', '4']",1,2023.2.3,harveyvisual,2.1,[],8,0.75,
9,dot,0.3,['dot'],['density'],white,0,98,98,98,,,36.70022487640381,36.419885873794556,36.719913959503174,dot,"[0.06, 0.06, 0.06, 0.06, 0.08, 0.08, 0.1, 0.08, 0.1]","[[0.050129075631511706, -0.29659829200500587], [0.1522424042566208, -0.02012498145544232], [-0.31773020450764894, 0.09756431981266957], [-0.25388767024787284, -0.20865833148222632], [-0.06549152868915667, -0.10253084504872755], [-0.047012852932693645, 0.11741599898337682], [0.26526013051082903, -0.18996189821299347], [0.2442588296558726, 0.17404051307925203], [0.053323608967773835, 0.34462047536600726]]",density,white,,,N009,visual,1,[],"['1', '2', '3', '4']",1,2023.2.3,harveyvisual,2.1,[],8,0.75,
0,pause,0.4,None,None,None,0,99,99,99,,,,,,,,,,,1,36.814574003219604,N009,visual,1,[],"['1', '2', '3', '4']",1,2023.2.3,harveyvisual,2.1,[],8,0.75,
9,dot,0.3,['dot'],['density'],black,0,100,100,100,,,37.400240898132324,37.119873046875,37.419883012771606,dot,"[0.1, 0.06, 0.06, 0.06, 0.1, 0.06, 0.08, 0.06, 0.06]","[[0.43694394638140777, -0.3313910020207278], [-0.12671083892604185, -0.2904925475365486], [0.20104083284362928, 0.10806727359081147], [0.1376754545064979, -0.09924520624161907], [0.19021248837847174, -0.31516489548878085], [0.3653456942078643, -0.09076399745187974], [0.1403131072824284, -0.5562242851951704], [-0.005445667935095978, 0.0898710966384087], [-0.11923067905189093, -0.07827803450029165]]",density,black,,,N009,visual,1,[],"['1', '2', '3', '4']",1,2023.2.3,harveyvisual,2.1,[],8,0.75,
0,pause,0.4,None,None,None,0,101,101,101,,,,,,,,,,,,,N009,visual,1,[],"['1', '2', '3', '4']",1,2023.2.3,harveyvisual,2.1,[],8,0.75,
9,dot,0.3,['dot'],['density'],black,0,102,102,102,,,38.10023093223572,37.81986403465271,38.119940996170044,dot,"[0.08, 0.1, 0.08, 0.1, 0.06, 0.1, 0.08, 0.08, 0.08]","[[-0.25982930089867384, 0.41046177320377714], [0.2391912210628672, 0.4152301159030731], [-0.011899047454085643, 0.5103750441914148], [0.15826907621474634, 0.20577518054892585], [-0.29033424199965224, 0.2058356795488901], [-0.056026696670660174, 0.08152775180209879], [-0.32571421803823364, -0.002973879155612714], [0.39820859476685, 0.29236875228581105], [-0.06367065787951752, 0.28966088639372295]]",density,black,,,N009,visual,1,[],"['1', '2', '3', '4']",1,2023.2.3,harveyvisual,2.1,[],8,0.75,
0,pause,0.4,None,None,None,0,103,103,103,,,,,,,,,,,,,N009,visual,1,[],"['1', '2', '3', '4']",1,2023.2.3,harveyvisual,2.1,[],8,0.75,
9,dot,0.3,['dot'],['density'],black,0,104,104,104,,,38.80022406578064,38.519855976104736,38.819977045059204,dot,"[0.06, 0.1, 0.06, 0.06, 0.08, 0.1, 0.1, 0.08, 0.1]","[[0.17250841666444466, -0.5173949811024123], [-0.03744062107829021, -0.3895067986023326], [0.30010350549611725, -0.35742528465303014], [0.33064876224298684, -0.08057424749072183], [-0.16743636965090838, -0.09291053242622109], [0.1226827020066543, -0.24711763375004436], [0.047527772487498496, -0.037432207059122605], [0.20928928941955194, 0.09999474740890861], [-0.30040876562534896, -0.42726910911839744]]",density,black,,,N009,visual,1,[],"['1', '2', '3', '4']",1,2023.2.3,harveyvisual,2.1,[],8,0.75,
0,pause,0.4,None,None,None,0,105,105,105,,,,,,,,,,,,,N009,visual,1,[],"['1', '2', '3', '4']",1,2023.2.3,harveyvisual,2.1,[],8,0.75,
9,dot,0.3,['dot'],['density'],black,0,106,106,106,,,39.5002338886261,39.21986699104309,39.51988101005554,dot,"[0.06, 0.08, 0.08, 0.08, 0.08, 0.06, 0.08, 0.06, 0.08]","[[-0.39546702852536103, 0.05887767166707298], [0.0019437857506851024, 0.07006750722115952], [0.08809400946991845, -0.15083790972035777], [-0.35358057288562594, -0.14123029179452673], [-0.18893042820243505, -0.004761820558363635], [-0.16054322822148615, -0.2701644482013472], [-0.3593088451216199, 0.2649120528395154], [-0.09346394646241396, -0.4621051997984888], [-0.5526246027455071, -0.11781718335669726]]",density,black,,,N009,visual,1,[],"['1', '2', '3', '4']",1,2023.2.3,harveyvisual,2.1,[],8,0.75,
0,pause,0.4,None,None,None,0,107,107,107,,,,,,,,,,,,,N009,visual,1,[],"['1', '2', '3', '4']",1,2023.2.3,harveyvisual,2.1,[],8,0.75,
20,dot,0.3,['dot'],['density'],white,0,108,108,108,,,40.20023989677429,39.91983890533447,40.21983289718628,dot,"[0.06, 0.06, 0.08, 0.06, 0.06, 0.1, 0.1, 0.06, 0.1, 0.1, 0.06, 0.08, 0.1, 0.06, 0.1, 0.08, 0.1, 0.08, 0.1, 0.08]","[[-0.5537587102321336, 0.17816179173951746], [0.2479914331429679, 0.22452689639131518], [0.10236919633084396, -0.40817204547984215], [0.3905194717756184, 0.3873791701009844], [0.19557806909083697, -0.09107141001638275], [-0.28067458644052345, 0.2068692803568598], [-0.3756071887911875, 0.42789604068923215], [-0.3970116323347751, -0.2991446551609985], [0.521560323445157, -0.11952021430421791], [-0.2526246780194006, -0.09092020774354931], [0.5516693577039319, 0.0782937140716587], [-0.10085242978741693, -0.5160770421946846], [0.23470048637564567, -0.5464443729409351], [0.28921539148184117, -0.3046669807570603], [-0.016774962161636986, 0.01881101351522596], [0.18370201009815434, 0.5219065654543898], [-0.502145891792597, -0.10073438251367567], [0.08994797081558148, 0.35452080272915965], [-0.03934848636739452, 0.5714054849954879], [0.33648292364627175, 0.04390177240442317]]",density,white,,,N009,visual,1,[],"['1', '2', '3', '4']",1,2023.2.3,harveyvisual,2.1,[],8,0.75,
0,pause,0.4,None,None,None,0,109,109,109,,,,,,,,,,,1,40.19182586669922,N009,visual,1,[],"['1', '2', '3', '4']",1,2023.2.3,harveyvisual,2.1,[],8,0.75,
20,dot,0.3,['dot'],['density'],black,0,110,110,110,,,40.90023398399353,40.61995506286621,40.919825077056885,dot,"[0.06, 0.1, 0.08, 0.08, 0.06, 0.08, 0.1, 0.06, 0.08, 0.08, 0.08, 0.06, 0.1, 0.06, 0.08, 0.08, 0.06, 0.06, 0.1, 0.06]","[[0.22274373729088137, -0.08022642155046716], [0.19644301477127035, 0.4989171481223962], [-0.15362991865860548, -0.3434370109989263], [0.0793063202604396, -0.26406757935066294], [-0.2895633142649637, -0.1366703442229668], [-0.46357674019402395, -0.3876881768320601], [-0.22516891662855198, 0.04411977742119977], [-0.19916751677218092, 0.23736237766732204], [0.02667446058309364, 0.38839040596356955], [-0.4372278734113876, 0.3145156248633074], [0.37418780368318716, 0.2980968576614533], [0.3664212297442889, -0.3805721561641505], [0.3766441696465824, 0.10558922285305272], [0.5467693909416286, -0.09540290448701497], [-0.526269973654748, 0.14315708369543123], [0.14832246130921312, -0.5336890616414632], [-0.585176067526665, -0.08338511648463792], [0.01374972632142557, 0.16195454222920314], [0.5732153173339242, 0.17949794634087257], [-0.31688718945972255, 0.49658238912984387]]",density,black,,,N009,visual,1,[],"['1', '2', '3', '4']",1,2023.2.3,harveyvisual,2.1,[],8,0.75,
0,pause,0.4,None,None,None,0,111,111,111,,,,,,,,,,,,,N009,visual,1,[],"['1', '2', '3', '4']",1,2023.2.3,harveyvisual,2.1,[],8,0.75,
20,dot,0.3,['dot'],['density'],black,0,112,112,112,,,41.60021901130676,41.3197979927063,41.61978101730347,dot,"[0.06, 0.08, 0.1, 0.1, 0.1, 0.1, 0.08, 0.08, 0.08, 0.1, 0.08, 0.06, 0.06, 0.1, 0.06, 0.08, 0.1, 0.08, 0.08, 0.1]","[[0.5290874191717517, -0.12050990667342248], [0.19066488164828077, -0.5066792902167546], [-0.36323212288199086, 0.1823110111889677], [0.4814056201981812, 0.3549862255166126], [-0.3819652897031376, -0.11117483127575367], [-0.6027377700433791, -6.626662316752685e-05], [-0.17720122877367894, 0.324438043401306], [-0.5097529712146941, -0.28382427732641213], [0.32506685618117803, 0.4872689267301562], [-0.04804945385802417, -0.4362610727724839], [0.1376559562705192, -0.30785521393538157], [0.02265428832387406, 0.3560935220801159], [0.12905241251407817, 0.010459889583695814], [-0.13926047499798216, 0.11229290317124119], [0.3224802639914548, 0.20828773137041712], [0.5080030471596543, 0.1577395110263815], [-0.45945386780212216, 0.3797834188717726], [0.49800552747132254, -0.3373247027629317], [-0.2655051554517195, -0.44826518832599693], [-0.13185872300712365, -0.18121450348135293]]",density,black,,,N009,visual,1,[],"['1', '2', '3', '4']",1,2023.2.3,harveyvisual,2.1,[],8,0.75,
0,pause,0.4,None,None,None,0,113,113,113,,,,,,,,,,,,,N009,visual,1,[],"['1', '2', '3', '4']",1,2023.2.3,harveyvisual,2.1,[],8,0.75,
20,dot,0.3,['dot'],['density'],black,0,114,114,114,,,42.300225019454956,42.019779920578,42.31978702545166,dot,"[0.08, 0.1, 0.1, 0.1, 0.06, 0.06, 0.06, 0.1, 0.08, 0.1, 0.1, 0.1, 0.08, 0.1, 0.06, 0.06, 0.08, 0.08, 0.06, 0.08]","[[-0.27827474447081707, 0.33588081916183776], [-0.1998723366636897, -0.4863942350622924], [-0.028791588808583124, 0.2555144906818062], [-0.5998823726351004, 0.008203313374115007], [-0.48913756656085483, 0.24322095501103025], [0.24805218272084228, 0.19842039003421919], [0.35674900158025225, -0.2945746789140701], [0.4513480950965333, -0.03585127328148424], [-0.30727033463966463, 0.015617050777063324], [0.12077623634769141, 0.5498366577872469], [0.3370046723353056, 0.45999994507603426], [0.5399604267621448, 0.17525378989564938], [0.06383990704660236, -0.4819051604651382], [-0.1924006001173516, 0.5619651627936041], [-0.39075147199592264, -0.3381951397009936], [0.136534593870281, 0.035100853475238836], [-0.058969386455306916, 0.0645109401032764], [0.5384982789270368, -0.21234073246076057], [-0.42789703834334986, -0.14610481709429546], [0.0006817556905305278, -0.12457129861345301]]",density,black,,,N009,visual,1,[],"['1', '2', '3', '4']",1,2023.2.3,harveyvisual,2.1,[],8,0.75,
0,pause,0.4,None,None,None,0,115,115,115,,,,,,,,,,,,,N009,visual,1,[],"['1', '2', '3', '4']",1,2023.2.3,harveyvisual,2.1,[],8,0.75,
20,dot,0.3,['dot'],['density'],white,0,116,116,116,,,43.00024390220642,42.71977686882019,43.01976704597473,dot,"[0.1, 0.06, 0.08, 0.08, 0.08, 0.06, 0.06, 0.08, 0.06, 0.08, 0.1, 0.1, 0.06, 0.1, 0.08, 0.06, 0.08, 0.08, 0.1, 0.06]","[[-0.17102950090558733, -0.5616099585827246], [-0.4758788109602236, 0.08659433330465882], [-0.38087844126180875, -0.27406805681277235], [0.14389502889212646, -0.5194551803725412], [-0.23891272609026154, 0.41206828579048704], [0.42741452937893476, -0.07539229248337359], [0.33619937006891787, -0.4725002691404763], [0.3703594947319392, 0.3072416065320181], [0.46306166960842543, -0.3073239252349355], [-0.21484076128226381, 0.12346494075779046], [0.19044470678134573, 0.5497400012853366], [-0.00514253943408749, 0.586716883340509], [0.580640365805393, 0.04721542553146893], [-0.09930119501392509, -0.10708173132418125], [-0.5985080015130979, -0.08514505670825695], [0.17580741241292652, 0.21494915406606885], [0.020846348501418754, -0.361535710578489], [-0.3688399347181569, -0.07248704138503642], [0.24231513922528725, -0.2882574854505804], [-0.020259731077657217, 0.17924860076453242]]",density,white,,,N009,visual,1,[],"['1', '2', '3', '4']",1,2023.2.3,harveyvisual,2.1,[],8,0.75,
0,pause,0.4,None,None,None,0,117,117,117,,,,,,,,,,,1,43.02021098136902,N009,visual,1,[],"['1', '2', '3', '4']",1,2023.2.3,harveyvisual,2.1,[],8,0.75,
20,dot,0.3,['dot'],['density'],black,0,118,118,118,,,43.700222969055176,43.419769048690796,43.719897985458374,dot,"[0.08, 0.06, 0.1, 0.08, 0.1, 0.1, 0.08, 0.08, 0.08, 0.06, 0.08, 0.1, 0.1, 0.06, 0.06, 0.1, 0.1, 0.06, 0.06, 0.06]","[[-0.3937280711352399, 0.3415139978020043], [-0.12141891376564218, 0.5310545310000354], [-0.2971918906145658, -0.11419057285938905], [0.018887274123245423, -0.4198753681393992], [0.504565701377451, 0.06112250786513579], [-0.553463826609898, 0.13343347428330177], [0.5080801236666773, 0.32836584536062213], [-0.3319557881226845, 0.09395574523002082], [-0.16670600302324062, -0.2711026077930683], [0.26729756278030314, -0.23948261816549227], [0.16164111646728507, 0.32866965843446005], [0.1597561015077631, 0.5194525004623951], [-0.10863383247859021, -0.0699543390094981], [0.260522414232896, -0.0006288157562353014], [0.12928089667882614, -0.5901949714398881], [0.4729175641153781, -0.2416262187958828], [-0.4661761200502684, -0.22601546472128403], [0.019935250289953355, 0.1284464576790605], [-0.1642102972332028, -0.5260653148303639], [0.35792243526796563, -0.43235896989522965]]",density,black,,,N009,visual,1,[],"['1', '2', '3', '4']",1,2023.2.3,harveyvisual,2.1,[],8,0.75,
0,pause,0.4,None,None,None,0,119,119,119,,,,,,,,,,,,,N009,visual,1,[],"['1', '2', '3', '4']",1,2023.2.3,harveyvisual,2.1,[],8,0.75,
20,dot,0.3,['dot'],['density'],black,0,120,120,120,,,44.40022301673889,44.119879961013794,44.41973090171814,dot,"[0.08, 0.06, 0.08, 0.06, 0.08, 0.08, 0.1, 0.1, 0.06, 0.1, 0.08, 0.08, 0.1, 0.08, 0.08, 0.08, 0.06, 0.08, 0.08, 0.1]","[[0.4122316698722298, 0.008408150575482054], [0.10811371985421026, 0.1617970581313154], [0.42101227864928503, 0.2918792707004331], [-0.5656576064676123, 0.0716109292604864], [0.13880330455562062, -0.3044621601030277], [0.2408130517525453, 0.3771989518423857], [0.43911842037592497, -0.2451598143249744], [-0.2965467350334583, -0.3996417817630184], [-0.4011449855555071, 0.24568749823022873], [-0.16865741537180334, 0.2880436823344539], [-0.07668669590548005, 0.49698280486544943], [-0.2063860853088202, -0.13703942440732503], [-0.018447893498290124, -0.46077872764057104], [-0.5548180292422623, -0.11753168284014057], [-0.2126710066687587, 0.06342055695186455], [0.1252355599273054, -0.09991869026084849], [0.603368686508822, -0.034570355606185016], [-0.4926181528253536, -0.3329188940289882], [-0.2763501834106929, 0.47705543325420885], [0.5551701641493997, 0.15015392992294802]]",density,black,,,N009,visual,1,[],"['1', '2', '3', '4']",1,2023.2.3,harveyvisual,2.1,[],8,0.75,
0,pause,0.4,None,None,None,0,121,121,121,,,,,,,,,,,,,N009,visual,1,[],"['1', '2', '3', '4']",1,2023.2.3,harveyvisual,2.1,[],8,0.75,
20,dot,0.3,['dot'],['density'],black,0,122,122,122,,,45.10022306442261,44.819873094558716,45.11972403526306,dot,"[0.06, 0.06, 0.06, 0.1, 0.1, 0.08, 0.06, 0.1, 0.06, 0.08, 0.06, 0.1, 0.06, 0.1, 0.06, 0.08, 0.06, 0.1, 0.1, 0.06]","[[0.4123634842721843, 0.1485246761972126], [-0.025584210325179657, -0.5058085898508755], [0.14480684791913545, 0.12008033089325765], [0.49483909278394356, -0.2669540022426745], [-0.5246394668884181, -0.09836188644881372], [-0.12383665572743863, 0.1937831390935444], [0.34669793905658264, -0.4560403535290748], [0.28825148491500807, 0.45194110701584034], [0.580681648618213, 0.005617486349226292], [-0.16753909428773062, 0.45349048010945403], [-0.14752272634022973, -0.034425167081287844], [0.3000087467568908, -0.022687810118689034], [-0.46512600086261935, 0.2129805641461936], [-0.26925757490626084, -0.36540546663251317], [0.5153463545912634, 0.30939292634959364], [0.2818830075193989, -0.22038282631954997], [0.03798303143258708, 0.46222430815696736], [-0.02867883008017491, -0.20341461966556484], [0.1391871513073233, -0.37776638370313975], [-0.5031685480444952, -0.3322711650129014]]",density,black,,,N009,visual,1,[],"['1', '2', '3', '4']",1,2023.2.3,harveyvisual,2.1,[],8,0.75,
0,pause,0.4,None,None,None,0,123,123,123,,,,,,,,,,,,,N009,visual,1,[],"['1', '2', '3', '4']",1,2023.2.3,harveyvisual,2.1,[],8,0.75,
20,dot,0.3,['dot'],['density'],black,0,124,124,124,,,45.80022096633911,45.519712924957275,45.819700956344604,dot,"[0.08, 0.1, 0.06, 0.06, 0.06, 0.08, 0.08, 0.1, 0.08, 0.1, 0.06, 0.08, 0.06, 0.06, 0.06, 0.08, 0.1, 0.08, 0.1, 0.06]","[[-0.22357748315062398, 0.009418254103715218], [0.3974214333398606, 0.045375890997366], [0.5039411433389133, 0.2255611336102365], [-0.438735284304135, -0.17426392902060778], [-0.19412778912275552, -0.2877438760436404], [0.20851003686934555, 0.31770526895966156], [-0.21075620144811352, 0.5362559529228302], [-0.08559064760850832, -0.44612142502033103], [0.45139259807023147, -0.36549151293506216], [-0.13876057928026297, 0.3602719874815705], [-0.34401477700643524, 0.3483055269811568], [0.09250821799521358, -0.3362951104694305], [0.6022528596141893, -0.0063211203691622975], [-0.4719412180538535, 0.053339194046396754], [0.05923866139226053, 0.5776595694745812], [0.2698704003074174, -0.0972841766874501], [0.03501005069591978, 0.09745032808489018], [0.019498614881464316, -0.09251382929876195], [-0.4154480098205279, -0.42850783124183567], [0.24415409586869274, -0.5292448862700351]]",density,black,,,N009,visual,1,[],"['1', '2', '3', '4']",1,2023.2.3,harveyvisual,2.1,[],8,0.75,
0,pause,0.4,None,None,None,0,125,125,125,,,,,,,,,,,,,N009,visual,1,[],"['1', '2', '3', '4']",1,2023.2.3,harveyvisual,2.1,[],8,0.75,
20,dot,0.3,['dot'],['density'],black,0,126,126,126,,,46.50023603439331,46.21970009803772,46.51982092857361,dot,"[0.08, 0.06, 0.08, 0.1, 0.08, 0.06, 0.08, 0.08, 0.08, 0.06, 0.08, 0.1, 0.08, 0.06, 0.08, 0.1, 0.1, 0.08, 0.06, 0.08]","[[-0.24905357433885744, 0.1141619870661309], [0.3292229287448175, -0.17349172244417976], [-0.4645062064040802, -0.08098547382599675], [-0.5331442331513139, 0.18584325928229112], [-0.0030727171590630986, -0.3328880995287318], [0.22482069455747555, 0.0562159481686314], [0.005726495595655412, -0.5301703870161161], [0.2836895978127645, -0.5329556375831855], [-0.2210981052055936, -0.1128394580773841], [0.3241490396456924, 0.41538973534038826], [0.47925387629350136, -0.012268942762185708], [-0.01941906038782426, 0.0009890576839086673], [0.08547011061110843, 0.3329403518708274], [-0.07848292481591201, 0.458243922453176], [-0.33989752789887717, -0.3640584704964269], [0.4648133864485319, 0.18318040443017042], [-0.3713491631312823, 0.3892964049782944], [-0.5084934374600057, -0.2652840204898056], [0.46977557053340113, -0.3633985485711994], [0.14374016445078575, 0.5515151164467933]]",density,black,,,N009,visual,1,[],"['1', '2', '3', '4']",1,2023.2.3,harveyvisual,2.1,[],8,0.75,
0,pause,0.4,None,None,None,0,127,127,127,,,,,,,,,,,,,N009,visual,1,[],"['1', '2', '3', '4']",1,2023.2.3,harveyvisual,2.1,[],8,0.75,
20,dot,0.3,['dot'],['density'],black,0,128,128,128,,,47.20023989677429,46.919800996780396,47.21970009803772,dot,"[0.1, 0.1, 0.08, 0.1, 0.08, 0.1, 0.08, 0.1, 0.08, 0.06, 0.08, 0.1, 0.08, 0.1, 0.1, 0.08, 0.08, 0.06, 0.06, 0.08]","[[-0.07348038722891836, 0.32369910950306646], [-0.273533315414253, 0.22493615342003215], [-0.4913170165139914, 0.14465002598933546], [0.21825436459427672, 0.06796245326377814], [0.13137981082422212, -0.49324247863455717], [-0.5054091903696764, -0.32191085034029104], [0.2726598451554775, 0.3098189919218365], [0.39559440239360544, -0.3008888018058712], [0.4555852849828784, 0.37713311060441457], [0.48183298257614504, 0.16942984381119697], [0.15089772255077805, -0.13251240497374245], [0.0847693017827863, 0.5660480994045668], [0.46664282898033005, -0.034535323060632894], [-0.13946348154149873, -0.36779442539411233], [-0.30735082040379713, -0.14850569713278194], [-0.19291816237523796, 0.051000584187079645], [0.26972500024275514, 0.5017737971980124], [-0.17356126332746685, 0.5507777610749143], [-0.5126768485056088, -0.10282920313569913], [0.02075430548098578, 0.011707921119255782]]",density,black,,,N009,visual,1,[],"['1', '2', '3', '4']",1,2023.2.3,harveyvisual,2.1,[],8,0.75,
0,pause,0.4,None,None,None,0,129,129,129,,,,,,,,,,,,,N009,visual,1,[],"['1', '2', '3', '4']",1,2023.2.3,harveyvisual,2.1,[],8,0.75,
20,dot,0.3,['dot'],['density'],black,0,130,130,130,,,47.90022397041321,47.61979603767395,47.91962289810181,dot,"[0.06, 0.1, 0.06, 0.06, 0.08, 0.08, 0.06, 0.08, 0.06, 0.1, 0.06, 0.1, 0.1, 0.1, 0.1, 0.08, 0.06, 0.1, 0.1, 0.1]","[[-0.29759728075004477, 0.18790247461691623], [0.31355094535114325, 0.018220727905064682], [-0.16591563058997155, 0.49251719495146895], [-0.44789662065728775, -0.12488850369674409], [0.05778279493679317, -0.16422803114538215], [0.2739123002399596, 0.5044587602353491], [0.00588791836956859, 0.2571985346446328], [0.5943230917339642, 0.0026738448202541926], [0.45100694998478585, 0.25477880043441914], [-0.5849317332098222, 0.10639989955552748], [-0.14640701914599463, -0.08320171353074679], [0.2359552493555367, 0.2271252853260627], [-0.05538930731964542, -0.35077370727500334], [0.24632513964499025, -0.24937308210654135], [0.07480713623175672, 0.5315577690193068], [-0.288278728631659, -0.4494016551727997], [0.4371013386476498, -0.28009060860352414], [-0.4988756559196955, -0.331165599752093], [-0.4546081313598124, 0.3903460866916588], [0.013628779792461798, 0.034943668596395305]]",density,black,,,N009,visual,1,[],"['1', '2', '3', '4']",1,2023.2.3,harveyvisual,2.1,[],8,0.75,
0,pause,0.4,None,None,None,0,131,131,131,,,,,,,,,,,,,N009,visual,1,[],"['1', '2', '3', '4']",1,2023.2.3,harveyvisual,2.1,[],8,0.75,
20,dot,0.3,['dot'],['density'],black,0,132,132,132,,,48.60023808479309,48.319814920425415,48.619664907455444,dot,"[0.08, 0.08, 0.1, 0.06, 0.1, 0.08, 0.06, 0.06, 0.06, 0.06, 0.06, 0.1, 0.08, 0.08, 0.06, 0.06, 0.1, 0.1, 0.06, 0.1]","[[0.15998141393424947, -0.36290973509084523], [-0.03838193719406602, -0.35441581703191516], [0.21672296739890085, -0.0035183024719004363], [0.29814113629098904, 0.32199551307847996], [-0.5568868947784286, 0.21748492809315054], [-0.3650559024822056, 0.1274915076676228], [-0.039160509919023645, -0.5752460938988033], [-0.40705209616917404, -0.31908818954230095], [-0.050594449741377834, 0.45023682854601077], [0.3208040344083972, -0.17829471442625888], [-0.22734164029209836, -0.030205824918448587], [-0.12832943347311293, 0.1691975913598146], [0.14718527217476607, 0.44345607571818424], [-0.2592698875891308, 0.36160827225663816], [0.37287557946135297, -0.4438731621120489], [-0.5743733901848025, -0.12852733016743242], [0.48424168614981544, 0.007339167409211866], [0.5373824510215693, -0.2490284493421855], [0.07104923639958238, -0.16142372145530298], [0.5293646276921663, 0.23269196366190997]]",density,black,,,N009,visual,1,[],"['1', '2', '3', '4']",1,2023.2.3,harveyvisual,2.1,[],8,0.75,
0,pause,0.4,None,None,None,0,133,133,133,,,,,,,,,,,,,N009,visual,1,[],"['1', '2', '3', '4']",1,2023.2.3,harveyvisual,2.1,[],8,0.75,
20,dot,0.3,['dot'],['density'],black,0,134,134,134,,,49.30024194717407,49.01965308189392,49.31976103782654,dot,"[0.08, 0.08, 0.1, 0.08, 0.1, 0.08, 0.06, 0.08, 0.08, 0.1, 0.08, 0.06, 0.1, 0.1, 0.06, 0.08, 0.06, 0.06, 0.06, 0.06]","[[-0.49740132556725414, -0.30878947026326226], [-0.3709489832657083, 0.26895048902687374], [0.20841763577959838, -0.46131725570972715], [0.40811845241286304, -0.3120393150381767], [0.5239775747482599, 0.20553454038402724], [0.17839138262503018, 0.017908088604414285], [-0.14366956624414973, -0.23766088274380764], [0.05475017569492502, -0.2340305676409571], [0.1114990983977443, 0.46342559583911713], [-0.4813976845786078, 0.10118863099022302], [-0.06047264891162962, 0.11541914006084175], [-0.2698935221480527, -0.4960167151663981], [0.5935145807414267, -0.020358534564673486], [-0.09787591221744985, 0.45402286167428363], [-0.5678609188759607, -0.11696005279573272], [-0.039989382110988014, -0.5519076740379124], [0.36323936897477926, -0.06737447150151754], [-0.25787468922344486, -0.04421274669938868], [0.27547391857706827, 0.31811954743210935], [-0.30748445954237424, 0.5048923151072737]]",density,black,,,N009,visual,1,[],"['1', '2', '3', '4']",1,2023.2.3,harveyvisual,2.1,[],8,0.75,
0,pause,0.4,None,None,None,0,135,135,135,,,,,,,,,,,,,N009,visual,1,[],"['1', '2', '3', '4']",1,2023.2.3,harveyvisual,2.1,[],8,0.75,
20,dot,0.3,['dot'],['density'],black,0,136,136,136,,,50.00024199485779,49.719619035720825,50.01961088180542,dot,"[0.08, 0.06, 0.1, 0.1, 0.1, 0.1, 0.1, 0.1, 0.06, 0.08, 0.08, 0.06, 0.1, 0.08, 0.08, 0.06, 0.06, 0.06, 0.06, 0.08]","[[0.07929944403133404, 0.22732420153942134], [0.3704997666618295, 0.1736031987106993], [-0.22053515971424242, -0.41684530905777223], [-0.3734984087666754, 0.08810788373171263], [0.2614097026948746, -0.4386393559638396], [0.48982011095432043, 0.3208522975018034], [-0.2124302913908137, 0.3041695052663147], [0.4964288485722682, -0.3241905022970135], [-0.3749902034157998, -0.23505127249126306], [0.5988606002118745, 0.008476792049921411], [-0.0016145220739044452, -0.057649292243607264], [0.21303589068471385, -0.039946041268769106], [-0.1274005768955438, 0.5414379152938956], [-0.02576300336852355, -0.37888231521878085], [0.1168561827907022, 0.48272206896344294], [-0.4124255558638512, 0.3140529284578974], [0.40199500726088944, -0.12136068588825827], [-0.582517808796476, -0.05899244469991462], [-0.10115157334160108, -0.5895676675986321], [-0.3090927995512605, 0.48500096145562377]]",density,black,,,N009,visual,1,[],"['1', '2', '3', '4']",1,2023.2.3,harveyvisual,2.1,[],8,0.75,
0,pause,0.4,None,None,None,0,137,137,137,,,,,,,,,,,,,N009,visual,1,[],"['1', '2', '3', '4']",1,2023.2.3,harveyvisual,2.1,[],8,0.75,
20,dot,0.3,['dot'],['density'],black,0,138,138,138,,,50.700233936309814,50.41978907585144,50.71957206726074,dot,"[0.08, 0.08, 0.1, 0.1, 0.1, 0.1, 0.06, 0.1, 0.1, 0.1, 0.06, 0.06, 0.06, 0.06, 0.06, 0.1, 0.08, 0.1, 0.1, 0.08]","[[0.06004415684078168, -0.0024952254980596944], [-0.1860129925895051, -0.11070780738817737], [-0.23900025995186636, 0.13560751746157884], [0.13694338287127072, 0.3107633491116236], [-0.04537551674098017, -0.5362077726681047], [0.5406889897702231, 0.0706106724650325], [-0.161998015331636, 0.4534767814038009], [0.29321686725822893, -0.456406056709698], [0.5151280211419224, 0.28909056059030364], [-0.42987093234098983, -0.2822864801592477], [0.11571476561022498, -0.31670256624631554], [-0.5961442206006355, -0.02470787024783043], [-0.06687059639357251, 0.2656163153242036], [-0.37965560694377903, -0.09104942613527728], [0.1254179563173644, 0.5169890604903133], [0.5134820198613815, -0.15370127720224955], [0.2641945198660408, -0.024844305053204563], [-0.36792095335078423, 0.3104417365005956], [0.33959712404062514, 0.48894844104179147], [0.32960520278038696, -0.23469757483859766]]",density,black,,,N009,visual,1,[],"['1', '2', '3', '4']",1,2023.2.3,harveyvisual,2.1,[],8,0.75,
0,pause,0.4,None,None,None,0,139,139,139,,,,,,,,,,,,,N009,visual,1,[],"['1', '2', '3', '4']",1,2023.2.3,harveyvisual,2.1,[],8,0.75,
20,dot,0.3,['dot'],['density'],black,0,140,140,140,,,51.4002480506897,51.119576930999756,51.41955494880676,dot,"[0.08, 0.08, 0.08, 0.08, 0.1, 0.08, 0.06, 0.08, 0.06, 0.08, 0.06, 0.08, 0.08, 0.08, 0.06, 0.1, 0.08, 0.08, 0.08, 0.08]","[[-0.5806669707807801, -0.01569715896866619], [-0.10659940232039711, 0.556438417485905], [0.13530956840830655, -0.5364033827474526], [-0.2264870373143114, 0.01847310557545323], [0.4825864126382883, -0.03010723474474597], [0.41264492012661724, 0.22099105997586177], [0.3152929867709171, -0.43546709037895687], [-0.20955822035494603, 0.26509131564753396], [-0.46368572574523503, -0.3053763381187308], [0.0958484550235249, 0.2563570770257164], [-0.4727308326603138, 0.2959424326944532], [0.2398993999412543, 0.021499397185389735], [-0.0451644824866031, -0.3473039108519007], [-0.18454975500805043, -0.19137125876951677], [0.215332590413581, 0.46491002940626003], [-0.04060827970220404, -0.0319577572470916], [0.149272328661176, -0.2274060351605695], [0.46854078642028163, -0.31005182930847464], [-0.26853945911559896, -0.5347956978309235], [0.5861296831604202, 0.12884363825974568]]",density,black,,,N009,visual,1,[],"['1', '2', '3', '4']",1,2023.2.3,harveyvisual,2.1,[],8,0.75,
0,pause,0.4,None,None,None,0,141,141,141,,,,,,,,,,,,,N009,visual,1,[],"['1', '2', '3', '4']",1,2023.2.3,harveyvisual,2.1,[],8,0.75,
20,dot,0.3,['dot'],['density'],black,0,142,142,142,,,52.100241899490356,51.819578886032104,52.11954998970032,dot,"[0.08, 0.08, 0.1, 0.08, 0.08, 0.1, 0.06, 0.1, 0.08, 0.1, 0.06, 0.08, 0.06, 0.1, 0.1, 0.08, 0.08, 0.08, 0.06, 0.1]","[[-0.4388996042422296, -0.24416738253716377], [0.5843076812662901, -0.09669285164328009], [0.169728877887256, 0.47457457718966745], [-0.015519582425015943, 0.5847404250126085], [-0.19029881972851148, 0.4609902599606598], [0.23532643272805165, -0.15658112475842556], [-0.482813195859883, 0.0255183705247915], [-0.10740391164954483, -0.5012820677659222], [0.06116666865436826, -0.3091190747018201], [0.2802742799005793, 0.12862797374830315], [0.3980652159226027, -0.44458951976062916], [-0.2356722162485425, -0.1886899523386295], [-0.43832440566379705, 0.30683701657378787], [0.4865412396752188, 0.29235947730951234], [-0.042216789024953294, 0.17220926637872835], [-0.23917746327121508, 0.09904609336019254], [-0.050651271897200534, -0.10776127112032291], [0.5627399894764166, 0.11890874529671361], [0.10892018182780416, -0.5847062619434006], [0.43376887805782205, -0.2555012482214234]]",density,black,,,N009,visual,1,[],"['1', '2', '3', '4']",1,2023.2.3,harveyvisual,2.1,[],8,0.75,
0,pause,0.4,None,None,None,0,143,143,143,,,,,,,,,,,,,N009,visual,1,[],"['1', '2', '3', '4']",1,2023.2.3,harveyvisual,2.1,[],8,0.75,
20,dot,0.3,['dot'],['density'],black,0,144,144,144,,,52.800249099731445,52.51968598365784,52.8195059299469,dot,"[0.1, 0.06, 0.06, 0.08, 0.08, 0.1, 0.1, 0.1, 0.06, 0.06, 0.06, 0.08, 0.08, 0.1, 0.08, 0.06, 0.08, 0.1, 0.1, 0.06]","[[0.1584303735238446, 0.5803914378046694], [-0.04844092714132031, -0.28530294683205], [-0.12542819004321593, 0.5695218721956063], [-0.4929372545271812, -0.0898538509470127], [0.49094479409378533, -0.09422856287014314], [0.37140606778872265, 0.08777110590315979], [-0.2597474573622322, 0.1179309660607536], [-0.12247796346939649, 0.3137712097778651], [0.15057062284723843, -0.3222976269348526], [0.221217090904129, -0.5457575972475368], [-0.3113990224615154, -0.19937591545523536], [-0.323662997600783, -0.4026795347821682], [0.3603937229505687, -0.29762871833566373], [0.049626466833955996, -0.022322858415687152], [0.07928679702623509, 0.33023201010040504], [-0.3366367445216473, 0.3161465345624589], [0.3098234200058698, 0.40710691416739275], [0.509452305456419, 0.24536896850763312], [-0.18291975183285986, -0.5595544650681601], [-0.5639661031743729, 0.20955246057714214]]",density,black,,,N009,visual,1,[],"['1', '2', '3', '4']",1,2023.2.3,harveyvisual,2.1,[],8,0.75,
0,pause,0.4,None,None,None,0,145,145,145,,,,,,,,,,,,,N009,visual,1,[],"['1', '2', '3', '4']",1,2023.2.3,harveyvisual,2.1,[],8,0.75,
20,dot,0.3,['dot'],['density'],black,0,146,146,146,,,53.50022888183594,53.2195360660553,53.51951289176941,dot,"[0.06, 0.06, 0.1, 0.08, 0.1, 0.06, 0.08, 0.08, 0.1, 0.08, 0.08, 0.1, 0.1, 0.08, 0.08, 0.08, 0.08, 0.06, 0.06, 0.08]","[[-0.05332675144191601, -0.4149314908003334], [0.06416547674907258, 0.18705867511894447], [-0.40447432979365744, 0.17766850691984787], [0.5916937763778364, 0.09351817123982614], [0.1327632965522284, -0.5728189149430823], [0.004373851790291927, 0.36796698996186317], [-0.4153698801553983, -0.383403830042969], [0.367792262972799, -0.02074844232871781], [-0.1444147509317455, -0.22034074566982692], [-0.2312697715587233, 0.4857399644006325], [0.14170400242230063, -0.03496976957052356], [0.3368230441570642, 0.34050375105749264], [-0.534819040084213, -0.2176530466327511], [0.28851249604086826, -0.19939280639771434], [-0.4055591536157524, -0.04311050299345942], [0.5473563346039828, -0.1948459368739276], [-0.6034602042390732, 0.029217628058913113], [0.5376079327618545, 0.27637061835574384], [-0.09820891974066093, 0.08717305946918175], [-0.21132975770217638, -0.5244769901878134]]",density,black,,,N009,visual,1,[],"['1', '2', '3', '4']",1,2023.2.3,harveyvisual,2.1,[],8,0.75,
0,pause,0.4,None,None,None,0,147,147,147,,,,,,,,,,,,,N009,visual,1,[],"['1', '2', '3', '4']",1,2023.2.3,harveyvisual,2.1,[],8,0.75,
20,dot,0.3,['dot'],['density'],black,0,148,148,148,,,54.20024108886719,53.91966509819031,54.21947193145752,dot,"[0.06, 0.08, 0.1, 0.06, 0.08, 0.1, 0.1, 0.06, 0.1, 0.06, 0.1, 0.06, 0.06, 0.06, 0.08, 0.1, 0.06, 0.1, 0.1, 0.1]","[[0.08934981133467046, -0.2742138920729712], [0.23532553880548035, 0.10363392012219963], [0.5726373225297642, 0.01616340766794], [-0.487698106036651, -0.2323308201599553], [-0.28382570946620217, -0.17987454566229477], [0.017293936925878883, 0.36743910179805317], [-0.22582464659007873, 0.09004941914652065], [0.2495180464003386, -0.42422188527657556], [-0.5351474989857707, 0.08781163423439359], [-0.02825047031576222, 0.16066751688063685], [-0.34882391195265816, -0.4849880743002262], [0.3044651988009841, 0.4645462302214515], [-0.4862836114621686, 0.293776705376432], [0.06902891688681478, -0.5517718333403028], [0.561588033687812, -0.2127992536082223], [0.21739668835295145, -0.08532514558607907], [0.3484586499199719, 0.2640243970194601], [0.030795439959154458, 0.5850816793433269], [-0.12972204642057295, -0.3098641808818183], [-0.35344969637337065, 0.44577294412055696]]",density,black,,,N009,visual,1,[],"['1', '2', '3', '4']",1,2023.2.3,harveyvisual,2.1,[],8,0.75,
0,pause,0.4,None,None,None,0,149,149,149,,,,,,,,,,,,,N009,visual,1,[],"['1', '2', '3', '4']",1,2023.2.3,harveyvisual,2.1,[],8,0.75,
20,dot,0.3,['dot'],['density'],black,0,150,150,150,,,54.90022802352905,54.61965608596802,54.91966795921326,dot,"[0.1, 0.08, 0.08, 0.1, 0.1, 0.1, 0.08, 0.1, 0.1, 0.08, 0.1, 0.08, 0.1, 0.08, 0.1, 0.1, 0.08, 0.06, 0.1, 0.06]","[[-0.1233474835156686, 0.4347238896622967], [0.4128183435508973, 0.05133009184609105], [-0.08894527370878114, 0.08403426137525327], [-0.02611666195654705, -0.344869138557252], [-0.43986106627846533, 0.21216293865472396], [-0.5614115779970136, -0.07522094797526396], [0.3533626106271398, -0.1942144499162919], [0.2370243157464057, 0.1577980559859038], [-0.1490113653980979, -0.5178242495022176], [0.4006090289790959, 0.4094245912262293], [0.11003736577762935, -0.5625611163946598], [-0.2946733796458291, 0.03945473124881593], [0.5689223012602455, -0.060946818180965284], [-0.3966467585865968, -0.41091440645529814], [0.05525142610553857, 0.30722031906910463], [0.4651170159332837, -0.36443845587325596], [0.26298579292107616, -0.40851422116997405], [0.0916554630562798, -0.03678537329923093], [0.18888684005201806, 0.495345125525685], [-0.07888268083932448, -0.1393155615829289]]",density,black,,,N009,visual,1,[],"['1', '2', '3', '4']",1,2023.2.3,harveyvisual,2.1,[],8,0.75,
0,pause,0.4,None,None,None,0,151,151,151,,,,,,,,,,,,,N009,visual,1,[],"['1', '2', '3', '4']",1,2023.2.3,harveyvisual,2.1,[],8,0.75,
20,dot,0.3,['dot'],['density'],black,0,152,152,152,,,55.60021996498108,55.319671869277954,55.61943697929382,dot,"[0.06, 0.06, 0.08, 0.08, 0.1, 0.06, 0.06, 0.06, 0.1, 0.06, 0.1, 0.06, 0.1, 0.1, 0.1, 0.06, 0.08, 0.1, 0.08, 0.08]","[[-0.22646055860593373, 0.348009523296943], [0.42548059804184823, 0.3332522532348474], [0.3603624448698214, 0.037294008070399676], [0.5448461146300562, -0.23441159386660573], [-0.3828716061189136, 0.23187432607393915], [-0.565225989664721, 0.10933642762917387], [-0.10891976982790563, -0.01803769026586921], [0.13320434702565054, 0.42615660888995077], [0.23715031752065718, -0.15071851181257356], [-0.315672262368698, -0.4863045407662034], [0.24563968181329987, -0.533281053385588], [0.09675112925372531, 0.050753539545011495], [-0.5518217575760037, -0.202696763293406], [-0.12180040089987271, 0.5617581067284014], [0.08904752906302793, -0.3277956879934416], [-0.014136707824840222, -0.6012269181554453], [-0.35319294970746073, -0.2031865194277772], [0.39318264459293506, -0.41171749363619714], [-0.12654783762084354, -0.21163757707519715], [0.5897364106259421, 0.12382022934673295]]",density,black,,,N009,visual,1,[],"['1', '2', '3', '4']",1,2023.2.3,harveyvisual,2.1,[],8,0.75,
0,pause,0.4,None,None,None,0,153,153,153,,,,,,,,,,,,,N009,visual,1,[],"['1', '2', '3', '4']",1,2023.2.3,harveyvisual,2.1,[],8,0.75,
20,dot,0.3,['dot'],['density'],black,0,154,154,154,,,56.30022597312927,56.01943802833557,56.319679975509644,dot,"[0.08, 0.08, 0.1, 0.06, 0.06, 0.08, 0.08, 0.06, 0.1, 0.06, 0.08, 0.08, 0.08, 0.1, 0.06, 0.08, 0.06, 0.06, 0.06, 0.06]","[[0.3554145335886736, -0.3261876493526289], [0.2748102579801335, -0.510083906947972], [0.022585580884305623, -0.019727212738161914], [-0.553977796188651, -0.17489214102257597], [0.30949304913311704, 0.032191621498038], [-0.3573237878255122, -0.024850517547537032], [0.15124997685284491, 0.5680834741546866], [-0.3658942431097342, -0.23836432008023115], [0.3844783301995175, 0.4644840406005678], [0.5258735323595917, -0.1537634285293365], [0.4994562924859204, 0.17832446336837415], [-0.12882406266080504, 0.140040600393465], [-0.41608042779410565, -0.43243927198704335], [-0.38605551316334735, 0.22850442021577455], [0.2073088937662565, 0.31256753984060404], [-0.14178701132242305, -0.4839304670039843], [0.15093430609036007, -0.24273285363415092], [-0.18813501724304588, 0.3806332985770723], [-0.06932474121558996, -0.28738745621591], [-0.3743473421316713, 0.46203583112800684]]",density,black,,,N009,visual,1,[],"['1', '2', '3', '4']",1,2023.2.3,harveyvisual,2.1,[],8,0.75,
0,pause,0.4,None,None,None,0,155,155,155,,,,,,,,,,,,,N009,visual,1,[],"['1', '2', '3', '4']",1,2023.2.3,harveyvisual,2.1,[],8,0.75,
9,dot,0.3,['dot'],['density'],black,0,156,156,156,,,57.000235080718994,56.719403982162476,57.01940989494324,dot,"[0.08, 0.08, 0.08, 0.1, 0.08, 0.08, 0.06, 0.08, 0.06]","[[0.27429149071172837, 0.34251676390746333], [0.46797507249945486, 0.005491811463162166], [0.21235580877939833, 0.08757146436558581], [0.046223583492975936, 0.2932249054251131], [0.07051592556679111, -0.0704922843318231], [0.30438918969270623, -0.13028831600800136], [0.11534598117609637, 0.5236829685630697], [-0.06673610159464062, 0.12515255452502297], [-0.14439101605953233, -0.1332028051536465]]",density,black,,,N009,visual,1,[],"['1', '2', '3', '4']",1,2023.2.3,harveyvisual,2.1,[],8,0.75,
0,pause,0.4,None,None,None,0,157,157,157,,,,,,,,,,,,,N009,visual,1,[],"['1', '2', '3', '4']",1,2023.2.3,harveyvisual,2.1,[],8,0.75,
9,dot,0.3,['dot'],['density'],black,0,158,158,158,,,57.70022392272949,57.41956686973572,57.71939492225647,dot,"[0.08, 0.1, 0.08, 0.06, 0.06, 0.1, 0.06, 0.08, 0.06]","[[0.12352761201622256, -0.5468572532837559], [0.3269537579821693, -0.14821727133703638], [-0.17374906020363926, -0.07190913605219341], [-0.07646026346349713, -0.5341566642345157], [0.06446752128858728, 0.011530587655488696], [0.17734850627899523, -0.32847254707869106], [-0.01015131191695844, -0.24065236825376074], [-0.3732824370369478, -0.21519922319826376], [-0.23017550258214428, -0.35747389881463476]]",density,black,,,N009,visual,1,[],"['1', '2', '3', '4']",1,2023.2.3,harveyvisual,2.1,[],8,0.75,
0,pause,0.4,None,None,None,0,159,159,159,,,,,,,,,,,,,N009,visual,1,[],"['1', '2', '3', '4']",1,2023.2.3,harveyvisual,2.1,[],8,0.75,
9,dot,0.3,['dot'],['density'],black,0,160,160,160,,,58.400245904922485,58.11950993537903,58.41935896873474,dot,"[0.08, 0.1, 0.08, 0.08, 0.1, 0.08, 0.1, 0.1, 0.1]","[[0.21556792455118703, 0.37642033042102185], [0.14366510572844648, -0.18651452926789283], [0.49642287684820396, -0.0794158383055628], [-0.04770628609247857, -0.12519201939426747], [0.20310136493979325, 0.154094551714378], [-0.004065485174475974, 0.09100382633055243], [-0.018053901421587658, 0.34918523294118026], [0.29624623666919286, -0.053344657000752645], [-0.2018857737562037, 0.01971770186205045]]",density,black,,,N009,visual,1,[],"['1', '2', '3', '4']",1,2023.2.3,harveyvisual,2.1,[],8,0.75,
0,pause,0.4,None,None,None,0,161,161,161,,,,,,,,,,,,,N009,visual,1,[],"['1', '2', '3', '4']",1,2023.2.3,harveyvisual,2.1,[],8,0.75,
9,dot,0.3,['dot'],['density'],black,0,162,162,162,,,59.10023307800293,58.81949210166931,59.11947989463806,dot,"[0.08, 0.08, 0.1, 0.08, 0.08, 0.1, 0.06, 0.06, 0.08]","[[0.30047334598257713, -0.32583448447642216], [0.4997394081452916, 0.05175273655880906], [0.13646797290608587, 0.02221883094322858], [0.11448241016544139, -0.2117191838414046], [0.417500260412479, 0.2413963184479076], [0.19152536325099656, 0.23172406522327998], [0.5046802385722475, -0.28323005758562664], [-0.037891296982194685, 0.14714919272112825], [0.3292067348064443, -0.0657181274468392]]",density,black,,,N009,visual,1,[],"['1', '2', '3', '4']",1,2023.2.3,harveyvisual,2.1,[],8,0.75,
0,pause,0.4,None,None,None,0,163,163,163,,,,,,,,,,,,,N009,visual,1,[],"['1', '2', '3', '4']",1,2023.2.3,harveyvisual,2.1,[],8,0.75,
9,dot,0.3,['dot'],['density'],black,0,164,164,164,,,59.80024600028992,59.519509077072144,59.819334983825684,dot,"[0.08, 0.1, 0.06, 0.06, 0.08, 0.06, 0.08, 0.06, 0.08]","[[-0.08858128315591524, -0.3480052213079807], [0.37291707470974605, -0.0809562497479422], [-0.04311872097798103, 0.23152249840731254], [0.1734412630875083, -0.16491363602164627], [-0.024044713080900382, -0.04824256513196188], [0.126438571592319, 0.09122014985587756], [-0.2168202887682383, 0.11190421567656858], [-0.23215605484234547, -0.20356583507002532], [0.291417597339289, 0.24351333182926893]]",density,black,,,N009,visual,1,[],"['1', '2', '3', '4']",1,2023.2.3,harveyvisual,2.1,[],8,0.75,
0,pause,0.4,None,None,None,0,165,165,165,,,,,,,,,,,,,N009,visual,1,[],"['1', '2', '3', '4']",1,2023.2.3,harveyvisual,2.1,[],8,0.75,
9,dot,0.3,['dot'],['density'],black,0,166,166,166,,,60.500240087509155,60.21933603286743,60.51946306228638,dot,"[0.06, 0.1, 0.06, 0.1, 0.06, 0.1, 0.08, 0.1, 0.08]","[[-0.5242180236495622, 0.2097960018926228], [-0.2671382220306689, 0.3003190330968159], [-0.06183693718886379, 0.22592490829479475], [-0.2001015593906042, -0.14641750634996328], [-0.09246193223873551, 0.43765994221656135], [-0.29330373087767303, 0.05285487614136386], [0.007094383220706952, 0.008748553761596398], [0.1465325421295601, 0.294910430799518], [0.04425292235957525, -0.2230758375085622]]",density,black,,,N009,visual,1,[],"['1', '2', '3', '4']",1,2023.2.3,harveyvisual,2.1,[],8,0.75,
0,pause,0.4,None,None,None,0,167,167,167,,,,,,,,,,,,,N009,visual,1,[],"['1', '2', '3', '4']",1,2023.2.3,harveyvisual,2.1,[],8,0.75,
8,dot,0.3,['dot'],['density'],black,0,168,168,168,,,61.20022106170654,60.91943907737732,61.219433069229126,dot,"[0.06, 0.08, 0.06, 0.1, 0.06, 0.08, 0.06, 0.1]","[[-0.0012777187897950197, 0.3966007492927722], [-0.28447363834021117, 0.3159852715582059], [0.19942587273623266, 0.5530929527666414], [0.21318140018031628, 0.35154814550636243], [0.2022184519229619, 0.1402347591191321], [-0.03399167273692697, 0.18426518172063944], [0.09045107803968953, -0.0428478536761596], [-0.13826990130262626, -0.021750669296841257]]",density,black,,,N009,visual,1,[],"['1', '2', '3', '4']",1,2023.2.3,harveyvisual,2.1,[],8,0.75,
0,pause,0.4,None,None,None,0,169,169,169,,,,,,,,,,,,,N009,visual,1,[],"['1', '2', '3', '4']",1,2023.2.3,harveyvisual,2.1,[],8,0.75,
8,dot,0.3,['dot'],['density'],black,0,170,170,170,,,61.90023398399353,61.6194269657135,61.91940999031067,dot,"[0.08, 0.06, 0.1, 0.08, 0.1, 0.08, 0.06, 0.06]","[[0.4694715163891994, 0.13329625263481096], [0.14358160208090395, 0.35167434699812705], [0.41559735975202405, 0.3690190921299561], [-0.041805684447173724, 0.4315913723966695], [-0.04993254304034498, 0.2285123563850015], [0.25337459258073897, 0.16365346604105616], [0.18476510797087844, 0.5481483313560797], [0.14868800337579569, -0.10349430855878591]]",density,black,,,N009,visual,1,[],"['1', '2', '3', '4']",1,2023.2.3,harveyvisual,2.1,[],8,0.75,
0,pause,0.4,None,None,None,0,171,171,171,,,,,,,,,,,,,N009,visual,1,[],"['1', '2', '3', '4']",1,2023.2.3,harveyvisual,2.1,[],8,0.75,
8,dot,0.3,['dot'],['density'],black,0,172,172,172,,,62.60024809837341,62.3192720413208,62.61940288543701,dot,"[0.06, 0.08, 0.06, 0.08, 0.08, 0.06, 0.1, 0.08]","[[-0.43120034012996816, -0.3965796075128045], [0.1478983624034229, -0.46770986256388064], [-0.23058307999139557, -0.3238539366063682], [-0.07988642296593639, -0.13993938361429092], [-0.08664795903044427, -0.5418074813242995], [0.11879255589163208, -0.1637425359681226], [-0.09873641234556067, 0.08705286872936738], [-0.025120016651009644, -0.34045580780112095]]",density,black,,,N009,visual,1,[],"['1', '2', '3', '4']",1,2023.2.3,harveyvisual,2.1,[],8,0.75,
0,pause,0.4,None,None,None,0,173,173,173,,,,,,,,,,,,,N009,visual,1,[],"['1', '2', '3', '4']",1,2023.2.3,harveyvisual,2.1,[],8,0.75,
8,dot,0.3,['dot'],['density'],black,0,174,174,174,,,63.300225019454956,63.01942491531372,63.31938886642456,dot,"[0.1, 0.1, 0.1, 0.06, 0.08, 0.06, 0.1, 0.08]","[[0.15461278376755175, 0.017690045563684864], [0.4404146441246234, 0.21813023399178458], [0.05487595867990863, 0.4084021637362207], [-0.13585566436679766, 0.08658391491112073], [0.3753260993018466, -0.0029057217730488138], [0.24206240898487613, 0.3367355195829085], [0.06992318211572668, 0.2078151862649802], [0.2541279777615451, -0.17357647893213385]]",density,black,,,N009,visual,1,[],"['1', '2', '3', '4']",1,2023.2.3,harveyvisual,2.1,[],8,0.75,
0,pause,0.4,None,None,None,0,175,175,175,,,,,,,,,,,,,N009,visual,1,[],"['1', '2', '3', '4']",1,2023.2.3,harveyvisual,2.1,[],8,0.75,
8,dot,0.3,['dot'],['density'],black,0,176,176,176,,,64.00023698806763,63.71941590309143,64.01938605308533,dot,"[0.1, 0.1, 0.08, 0.1, 0.1, 0.06, 0.08, 0.08]","[[-0.258715538922871, 0.3828151050353194], [-0.4384035523576633, -0.18689856672911037], [-0.5586779833045601, 0.15056420889708766], [-0.1699372658897842, -0.04883432605429875], [-0.36053016753151684, 0.02858569738219561], [-0.199221799186684, 0.1876786431210615], [0.004458053620249285, 0.1240038339062716], [0.019420137312414813, -0.16023679021787893]]",density,black,,,N009,visual,1,[],"['1', '2', '3', '4']",1,2023.2.3,harveyvisual,2.1,[],8,0.75,
0,pause,0.4,None,None,None,0,177,177,177,,,,,,,,,,,,,N009,visual,1,[],"['1', '2', '3', '4']",1,2023.2.3,harveyvisual,2.1,[],8,0.75,
8,dot,0.3,['dot'],['density'],black,0,178,178,178,,,64.70022988319397,64.41938996315002,64.71938109397888,dot,"[0.08, 0.06, 0.06, 0.06, 0.08, 0.06, 0.08, 0.08]","[[-0.08486713456805763, -0.4233549652310786], [-0.34121661687321897, 0.009931669871959016], [0.06179899905610707, -0.01287726204627424], [-0.01080387642187049, -0.20774715314808884], [-0.2259787915635077, -0.2257096572683263], [-0.31087639520469923, -0.4457762681120083], [-0.07938707884489006, 0.17996906985975966], [-0.13919465900414296, -0.03133413505419433]]",density,black,,,N009,visual,1,[],"['1', '2', '3', '4']",1,2023.2.3,harveyvisual,2.1,[],8,0.75,
0,pause,0.4,None,None,None,0,179,179,179,,,,,,,,,,,,,N009,visual,1,[],"['1', '2', '3', '4']",1,2023.2.3,harveyvisual,2.1,[],8,0.75,
7,dot,0.3,['dot'],['density'],black,0,180,180,180,,,65.40022206306458,65.11937808990479,65.41936087608337,dot,"[0.06, 0.06, 0.1, 0.1, 0.1, 0.08, 0.1]","[[-0.15204905838880944, -0.5333107186751418], [-0.1519936835116667, -0.2986813487337615], [0.3123805602017952, -0.370842296180838], [-0.04397638837772695, -0.01669328424437847], [0.11716920447009348, -0.14912816843546053], [0.1067198166566748, -0.5553575834591685], [0.04038917577175449, -0.3541606866516689]]",density,black,,,N009,visual,1,[],"['1', '2', '3', '4']",1,2023.2.3,harveyvisual,2.1,[],8,0.75,
0,pause,0.4,None,None,None,0,181,181,181,,,,,,,,,,,,,N009,visual,1,[],"['1', '2', '3', '4']",1,2023.2.3,harveyvisual,2.1,[],8,0.75,
7,dot,0.3,['dot'],['density'],black,0,182,182,182,,,66.10022687911987,65.81921100616455,66.11934304237366,dot,"[0.08, 0.06, 0.06, 0.1, 0.1, 0.08, 0.08]","[[0.14162553822338392, 0.3850374027840034], [0.14862566890709045, -0.11120959689479885], [0.39332636479883865, 0.3869926518090174], [0.40462455387813373, -0.12110830933676162], [0.23143806607869288, 0.12402376181071403], [0.031443448417621304, 0.15083815177969048], [0.4360523150463376, 0.1818515773867412]]",density,black,,,N009,visual,1,[],"['1', '2', '3', '4']",1,2023.2.3,harveyvisual,2.1,[],8,0.75,
0,pause,0.4,None,None,None,0,183,183,183,,,,,,,,,,,,,N009,visual,1,[],"['1', '2', '3', '4']",1,2023.2.3,harveyvisual,2.1,[],8,0.75,
7,dot,0.3,['dot'],['density'],black,0,184,184,184,,,66.80024790763855,66.51921391487122,66.81933498382568,dot,"[0.1, 0.08, 0.08, 0.08, 0.1, 0.06, 0.1]","[[-0.3423230189937584, -0.41219609722212536], [-0.1182323968952694, -0.35552357509158045], [-0.4111032443031386, -0.006313161275750597], [-0.5095560862941229, -0.2529410328503813], [-0.2588176969072235, -0.18091026219072012], [-0.0026253510642934245, -0.12197054074907589], [-0.16586784627322051, 0.0941069694468023]]",density,black,,,N009,visual,1,[],"['1', '2', '3', '4']",1,2023.2.3,harveyvisual,2.1,[],8,0.75,
0,pause,0.4,None,None,None,0,185,185,185,,,,,,,,,,,,,N009,visual,1,[],"['1', '2', '3', '4']",1,2023.2.3,harveyvisual,2.1,[],8,0.75,
7,dot,0.3,['dot'],['density'],black,0,186,186,186,,,67.50023198127747,67.21918296813965,67.51917791366577,dot,"[0.1, 0.06, 0.06, 0.1, 0.1, 0.08, 0.1]","[[-0.0840690222646118, 0.326581156863932], [0.2873095043411744, 0.40733497502034743], [0.3312644566818162, -0.06338498518608723], [-0.0506181805300269, 0.10889297565070959], [0.1236891467835978, 0.25045991881734525], [0.122473450616654, -0.061936092255746894], [0.3019459967494134, 0.15241064997072415]]",density,black,,,N009,visual,1,[],"['1', '2', '3', '4']",1,2023.2.3,harveyvisual,2.1,[],8,0.75,
0,pause,0.4,None,None,None,0,187,187,187,,,,,,,,,,,,,N009,visual,1,[],"['1', '2', '3', '4']",1,2023.2.3,harveyvisual,2.1,[],8,0.75,
7,dot,0.3,['dot'],['density'],black,0,188,188,188,,,68.2002420425415,67.91931509971619,68.21918797492981,dot,"[0.06, 0.08, 0.08, 0.06, 0.08, 0.1, 0.06]","[[-0.1639205104410485, 0.5375336320852997], [0.13665370749938832, 0.21910895384688228], [-0.33778978147358674, 0.04597826141406851], [-0.2268593015261854, 0.22000868921510455], [-0.39586497221419475, 0.3389169711393182], [-0.023188047053822363, 0.08417042442854547], [-0.025005414605345992, 0.38521147685537843]]",density,black,,,N009,visual,1,[],"['1', '2', '3', '4']",1,2023.2.3,harveyvisual,2.1,[],8,0.75,
0,pause,0.4,None,None,None,0,189,189,189,,,,,,,,,,,,,N009,visual,1,[],"['1', '2', '3', '4']",1,2023.2.3,harveyvisual,2.1,[],8,0.75,
7,dot,0.3,['dot'],['density'],black,0,190,190,190,,,68.90024995803833,68.61928987503052,68.91911101341248,dot,"[0.1, 0.1, 0.08, 0.08, 0.06, 0.06, 0.06]","[[-0.2877807563129739, -0.2392998172879968], [-0.4930284393840153, 0.02918626900802282], [-0.13307942101536208, -0.4135874564509098], [-0.1727922191076213, -0.04289663127052677], [-0.3943840059764042, -0.4351600913800347], [-0.03321109949484203, -0.21096883087625085], [-0.5418728138863746, -0.1990057631286019]]",density,black,,,N009,visual,1,[],"['1', '2', '3', '4']",1,2023.2.3,harveyvisual,2.1,[],8,0.75,
0,pause,0.4,None,None,None,0,191,191,191,,,,,,,,,,,,,N009,visual,1,[],"['1', '2', '3', '4']",1,2023.2.3,harveyvisual,2.1,[],8,0.75,
6,dot,0.3,['dot'],['density'],black,0,192,192,192,,,69.60023999214172,69.31908106803894,69.61908602714539,dot,"[0.1, 0.06, 0.06, 0.1, 0.06, 0.06]","[[-0.5416753121247185, 0.020803147184574915], [-0.3232269173664433, -0.07161231053200118], [-0.3008479376061402, -0.286480119217458], [-0.22299540496279888, 0.12470258063391813], [-0.10776740766186912, -0.19554033341247495], [-0.5165544979209102, -0.21376225914528924]]",density,black,,,N009,visual,1,[],"['1', '2', '3', '4']",1,2023.2.3,harveyvisual,2.1,[],8,0.75,
0,pause,0.4,None,None,None,0,193,193,193,,,,,,,,,,,,,N009,visual,1,[],"['1', '2', '3', '4']",1,2023.2.3,harveyvisual,2.1,[],8,0.75,
6,dot,0.3,['dot'],['density'],black,0,194,194,194,,,70.30024290084839,70.01909399032593,70.31907606124878,dot,"[0.08, 0.1, 0.08, 0.06, 0.1, 0.06]","[[-0.2715212558254698, 0.2586056842756752], [-0.41011716394998093, -0.23288273174477314], [-0.4259032553852052, 0.02963770343160952], [-0.037696467485790364, -0.07921729390734374], [-0.19058944014171011, 0.07565381115733183], [-0.22931220879523878, -0.14417898787482208]]",density,black,,,N009,visual,1,[],"['1', '2', '3', '4']",1,2023.2.3,harveyvisual,2.1,[],8,0.75,
0,pause,0.4,None,None,None,0,195,195,195,,,,,,,,,,,,,N009,visual,1,[],"['1', '2', '3', '4']",1,2023.2.3,harveyvisual,2.1,[],8,0.75,
6,dot,0.3,['dot'],['density'],black,0,196,196,196,,,71.00024604797363,70.71906089782715,71.01902890205383,dot,"[0.08, 0.08, 0.1, 0.08, 0.08, 0.1]","[[-0.31609589870198396, -0.31007670116123803], [-0.4478311917512715, 0.10082722748193511], [-0.2864981571692688, -0.05140390439239721], [-0.09675803094031296, -0.12021517342888931], [-0.4941273593136662, -0.13098935533792763], [-0.1300426850498692, 0.1160403058404222]]",density,black,,,N009,visual,1,[],"['1', '2', '3', '4']",1,2023.2.3,harveyvisual,2.1,[],8,0.75,
0,pause,0.4,None,None,None,0,197,197,197,,,,,,,,,,,,,N009,visual,1,[],"['1', '2', '3', '4']",1,2023.2.3,harveyvisual,2.1,[],8,0.75,
6,dot,0.3,['dot'],['density'],black,0,198,198,198,,,71.70022487640381,71.41901707649231,71.71906208992004,dot,"[0.08, 0.08, 0.1, 0.1, 0.1, 0.06]","[[-0.11553075830627273, 0.47698778124428043], [-0.1112787518129194, 0.10456141670764223], [-0.48855705683845824, 0.21494657582805063], [-0.2538299919008863, 0.2532006538804931], [-0.3271837865365474, 0.4662148945367939], [0.006792750312598743, 0.27345996435494924]]",density,black,,,N009,visual,1,[],"['1', '2', '3', '4']",1,2023.2.3,harveyvisual,2.1,[],8,0.75,
0,pause,0.4,None,None,None,0,199,199,199,,,,,,,,,,,,,N009,visual,1,[],"['1', '2', '3', '4']",1,2023.2.3,harveyvisual,2.1,[],8,0.75,
6,dot,0.3,['dot'],['density'],black,0,200,200,200,,,72.40022397041321,72.11904287338257,72.41904807090759,dot,"[0.08, 0.1, 0.08, 0.06, 0.08, 0.08]","[[-0.12151555870586603, -0.4812968000001843], [0.16790488833295267, -0.2471088416996458], [0.27214716196035416, -0.49820278546509117], [-0.038147587524033764, -0.29309333197091036], [0.014949188681413147, -0.08915939926713055], [0.06798063624072649, -0.5852336971646088]]",density,black,,,N009,visual,1,[],"['1', '2', '3', '4']",1,2023.2.3,harveyvisual,2.1,[],8,0.75,
0,pause,0.4,None,None,None,0,201,201,201,,,,,,,,,,,,,N009,visual,1,[],"['1', '2', '3', '4']",1,2023.2.3,harveyvisual,2.1,[],8,0.75,
6,dot,0.3,['dot'],['density'],black,0,202,202,202,,,73.10022687911987,72.81904888153076,73.11901307106018,dot,"[0.08, 0.06, 0.08, 0.06, 0.1, 0.08]","[[0.3299424372810393, 0.4114780133894161], [0.051944887288218326, -0.03233758374135307], [0.4337222981537534, -0.07578498258626121], [0.10477943773033714, 0.1703675017914044], [0.3400878522727408, 0.20016066552806494], [0.2510029109880425, 0.01747244452819591]]",density,black,,,N009,visual,1,[],"['1', '2', '3', '4']",1,2023.2.3,harveyvisual,2.1,[],8,0.75,
0,pause,0.4,None,None,None,0,203,203,203,,,,,,,,,,,,,N009,visual,1,[],"['1', '2', '3', '4']",1,2023.2.3,harveyvisual,2.1,[],8,0.75,
5,dot,0.3,['dot'],['density'],white,0,204,204,204,,,73.80023503303528,73.51896691322327,73.81896090507507,dot,"[0.08, 0.08, 0.08, 0.06, 0.06]","[[-0.07969108163070573, 0.258241044050758], [-0.3301768112222262, 0.22562982972330062], [-0.16453040906828167, -0.1622271318141552], [-0.21753854086321037, 0.04365873274764029], [0.030347216865940038, 0.07834852794011457]]",density,white,,,N009,visual,1,[],"['1', '2', '3', '4']",1,2023.2.3,harveyvisual,2.1,[],8,0.75,
0,pause,0.4,None,None,None,0,205,205,205,,,,,,,,,,,1,73.89699602127075,N009,visual,1,[],"['1', '2', '3', '4']",1,2023.2.3,harveyvisual,2.1,[],8,0.75,
5,dot,0.3,['dot'],['density'],black,0,206,206,206,,,74.50022792816162,74.21897602081299,74.51902794837952,dot,"[0.08, 0.1, 0.08, 0.08, 0.08]","[[0.029171133319913545, -0.11913068329317353], [-0.2981845944788078, -0.46624640290839614], [-0.1844599491613969, -0.04126455345730423], [-0.2900988597239497, -0.2493716418714862], [-0.0791391532727178, -0.3057260733699829]]",density,black,,,N009,visual,1,[],"['1', '2', '3', '4']",1,2023.2.3,harveyvisual,2.1,[],8,0.75,
0,pause,0.4,None,None,None,0,207,207,207,,,,,,,,,,,,,N009,visual,1,[],"['1', '2', '3', '4']",1,2023.2.3,harveyvisual,2.1,[],8,0.75,
5,dot,0.3,['dot'],['density'],black,0,208,208,208,,,75.20024108886719,74.91895508766174,75.21893095970154,dot,"[0.08, 0.06, 0.06, 0.06, 0.08]","[[-0.08906257038347729, 0.3326351968500321], [0.2173987091792188, 0.026220721131276364], [0.07996259445097068, 0.4821024141609844], [0.14345365083950706, 0.2501481494916038], [-0.03323208063638199, 0.08804517681276208]]",density,black,,,N009,visual,1,[],"['1', '2', '3', '4']",1,2023.2.3,harveyvisual,2.1,[],8,0.75,
0,pause,0.4,None,None,None,0,209,209,209,,,,,,,,,,,,,N009,visual,1,[],"['1', '2', '3', '4']",1,2023.2.3,harveyvisual,2.1,[],8,0.75,
5,dot,0.3,['dot'],['density'],white,0,210,210,210,,,75.90024995803833,75.61891508102417,75.91891503334045,dot,"[0.1, 0.06, 0.1, 0.06, 0.1]","[[-0.17224806752104949, 0.21128771658676965], [-0.35983128753182364, -0.1328600505582573], [-0.33716814897054914, 0.09708697582185674], [-0.044562237693599294, -0.03778919281981133], [-0.17109626387405982, -0.21732524013947077]]",density,white,,,N009,visual,1,[],"['1', '2', '3', '4']",1,2023.2.3,harveyvisual,2.1,[],8,0.75,
0,pause,0.4,None,None,None,0,211,211,211,,,,,,,,,,,1,76.00324296951294,N009,visual,1,[],"['1', '2', '3', '4']",1,2023.2.3,harveyvisual,2.1,[],8,0.75,
5,dot,0.3,['dot'],['density'],black,0,212,212,212,,,76.60024809837341,76.3189148902893,76.6189079284668,dot,"[0.08, 0.08, 0.06, 0.08, 0.1]","[[-0.07969108163070573, 0.258241044050758], [-0.3301768112222262, 0.22562982972330062], [-0.16453040906828167, -0.1622271318141552], [-0.21753854086321037, 0.04365873274764029], [0.030347216865940038, 0.07834852794011457]]",density,black,,,N009,visual,1,[],"['1', '2', '3', '4']",1,2023.2.3,harveyvisual,2.1,[],8,0.75,
0,pause,0.4,None,None,None,0,213,213,213,,,,,,,,,,,,,N009,visual,1,[],"['1', '2', '3', '4']",1,2023.2.3,harveyvisual,2.1,[],8,0.75,
5,dot,0.3,['dot'],['density'],black,0,214,214,214,,,77.3002519607544,77.01893186569214,77.31891798973083,dot,"[0.08, 0.1, 0.08, 0.06, 0.1]","[[-0.053215572458232586, 0.27221330895143253], [0.10089702531331296, 0.1334794413224796], [0.12897289155288158, 0.4002796015157326], [0.3022660506716914, 0.02685289149411272], [0.2804295634962893, 0.24950018434757285]]",density,black,,,N009,visual,1,[],"['1', '2', '3', '4']",1,2023.2.3,harveyvisual,2.1,[],8,0.75,
0,pause,0.4,None,None,None,0,215,215,215,,,,,,,,,,,,,N009,visual,1,[],"['1', '2', '3', '4']",1,2023.2.3,harveyvisual,2.1,[],8,0.75,
4,dot,0.3,['dot'],['density'],black,0,216,216,216,,,78.00023293495178,77.7188949584961,78.01884603500366,dot,"[0.08, 0.08, 0.08, 0.1]","[[-0.34940937311115045, -0.11648702989399858], [-0.2695829051223266, -0.4589438614516443], [-0.4698604504367728, -0.3018413850444449], [-0.18849712946501163, -0.26902343222239633]]",density,black,,,N009,visual,1,[],"['1', '2', '3', '4']",1,2023.2.3,harveyvisual,2.1,[],8,0.75,
0,pause,0.4,None,None,None,0,217,217,217,,,,,,,,,,,,,N009,visual,1,[],"['1', '2', '3', '4']",1,2023.2.3,harveyvisual,2.1,[],8,0.75,
4,dot,0.3,['dot'],['density'],black,0,218,218,218,,,78.7002489566803,78.41888093948364,78.71887707710266,dot,"[0.1, 0.08, 0.1, 0.08]","[[0.2541297109701026, -0.03410267595110144], [0.396116024817599, -0.19002287009394117], [0.4303711222235913, 0.2602585224666286], [0.4446461975978109, 0.027516111316963392]]",density,black,,,N009,visual,1,[],"['1', '2', '3', '4']",1,2023.2.3,harveyvisual,2.1,[],8,0.75,
0,pause,0.4,None,None,None,0,219,219,219,,,,,,,,,,,,,N009,visual,1,[],"['1', '2', '3', '4']",1,2023.2.3,harveyvisual,2.1,[],8,0.75,
4,dot,0.3,['dot'],['density'],black,0,220,220,220,,,79.40022587776184,79.11888194084167,79.41886806488037,dot,"[0.08, 0.06, 0.06, 0.08]","[[-0.264878088602857, 0.22906395790450432], [0.07239228809704809, 0.2615492699427171], [0.10034738543262733, 0.4676118263175188], [-0.09637524959065707, 0.3769302803343899]]",density,black,,,N009,visual,1,[],"['1', '2', '3', '4']",1,2023.2.3,harveyvisual,2.1,[],8,0.75,
0,pause,0.4,None,None,None,0,221,221,221,,,,,,,,,,,,,N009,visual,1,[],"['1', '2', '3', '4']",1,2023.2.3,harveyvisual,2.1,[],8,0.75,
4,dot,0.3,['dot'],['density'],black,0,222,222,222,,,80.10024094581604,79.81881999969482,80.11882209777832,dot,"[0.06, 0.08, 0.1, 0.1]","[[-0.4771446773377139, 0.25157103962592786], [-0.4259846000875058, -0.15982147080050188], [-0.5514119563937664, 0.017569371675289724], [-0.3400083930451492, 0.09263869595453958]]",density,black,,,N009,visual,1,[],"['1', '2', '3', '4']",1,2023.2.3,harveyvisual,2.1,[],8,0.75,
0,pause,0.4,None,None,None,0,223,223,223,,,,,,,,,,,,,N009,visual,1,[],"['1', '2', '3', '4']",1,2023.2.3,harveyvisual,2.1,[],8,0.75,
4,dot,0.3,['dot'],['density'],black,0,224,224,224,,,80.80023503303528,80.51883006095886,80.81879305839539,dot,"[0.1, 0.1, 0.08, 0.06]","[[-0.4116264312708952, 0.16775371224632304], [-0.5618780911112883, -0.04134114392370045], [-0.3363713887364365, -0.04915619770205748], [-0.48212301157369764, -0.2249233832905235]]",density,black,,,N009,visual,1,[],"['1', '2', '3', '4']",1,2023.2.3,harveyvisual,2.1,[],8,0.75,
0,pause,0.4,None,None,None,0,225,225,225,,,,,,,,,,,,,N009,visual,1,[],"['1', '2', '3', '4']",1,2023.2.3,harveyvisual,2.1,[],8,0.75,
4,dot,0.3,['dot'],['density'],black,0,226,226,226,,,81.5002269744873,81.21877193450928,81.51877903938293,dot,"[0.06, 0.06, 0.1, 0.08]","[[-0.34940937311115045, -0.11648702989399858], [-0.2695829051223266, -0.4589438614516443], [-0.4698604504367728, -0.3018413850444449], [-0.18849712946501163, -0.26902343222239633]]",density,black,,,N009,visual,1,[],"['1', '2', '3', '4']",1,2023.2.3,harveyvisual,2.1,[],8,0.75,
0,pause,0.4,None,None,None,0,227,227,227,,,,,,,,,,,,,N009,visual,1,[],"['1', '2', '3', '4']",1,2023.2.3,harveyvisual,2.1,[],8,0.75,
3,dot,0.3,['dot'],['density'],black,0,228,228,228,,,82.2002329826355,81.91879105567932,82.21879196166992,dot,"[0.06, 0.08, 0.1]","[[-0.3391924794566746, 0.43027756448319565], [-0.33080415183405026, 0.2112686575961512], [-0.14277619127331137, 0.29962579604826906]]",density,black,,,N009,visual,1,[],"['1', '2', '3', '4']",1,2023.2.3,harveyvisual,2.1,[],8,0.75,
0,pause,0.4,None,None,None,0,229,229,229,,,,,,,,,,,,,N009,visual,1,[],"['1', '2', '3', '4']",1,2023.2.3,harveyvisual,2.1,[],8,0.75,
3,dot,0.3,['dot'],['density'],black,0,230,230,230,,,82.90024304389954,82.61895895004272,82.91880488395691,dot,"[0.08, 0.1, 0.06]","[[-0.1591938184585166, 0.2573970255855866], [-0.049574382916532336, 0.44031337398050124], [0.08264166875933507, 0.262381570646859]]",density,black,,,N009,visual,1,[],"['1', '2', '3', '4']",1,2023.2.3,harveyvisual,2.1,[],8,0.75,
0,pause,0.4,None,None,None,0,231,231,231,,,,,,,,,,,,,N009,visual,1,[],"['1', '2', '3', '4']",1,2023.2.3,harveyvisual,2.1,[],8,0.75,
3,dot,0.3,['dot'],['density'],black,0,232,232,232,,,83.60024404525757,83.31877207756042,83.61895895004272,dot,"[0.1, 0.06, 0.1]","[[-0.42255820389626353, 0.35871945956833473], [-0.19896656331745483, 0.3032224324013186], [-0.25553590712368324, 0.5056038804507684]]",density,black,,,N009,visual,1,[],"['1', '2', '3', '4']",1,2023.2.3,harveyvisual,2.1,[],8,0.75,
0,pause,0.4,None,None,None,0,233,233,233,,,,,,,,,,,,,N009,visual,1,[],"['1', '2', '3', '4']",1,2023.2.3,harveyvisual,2.1,[],8,0.75,
3,dot,0.3,['dot'],['density'],black,0,234,234,234,,,84.3002359867096,84.01874995231628,84.31874895095825,dot,"[0.1, 0.06, 0.06]","[[-0.476501853024302, 0.3110516410681161], [-0.26865065753742645, 0.4732574608261889], [-0.2772428868380306, 0.2516539537451065]]",density,black,,,N009,visual,1,[],"['1', '2', '3', '4']",1,2023.2.3,harveyvisual,2.1,[],8,0.75,
0,pause,0.4,None,None,None,0,235,235,235,,,,,,,,,,,,,N009,visual,1,[],"['1', '2', '3', '4']",1,2023.2.3,harveyvisual,2.1,[],8,0.75,
3,dot,0.3,['dot'],['density'],black,0,236,236,236,,,85.00025200843811,84.71873998641968,85.01869988441467,dot,"[0.06, 0.06, 0.1]","[[0.026071599024748527, -0.32860913997604846], [-0.11834724389398482, -0.18584523127985947], [0.10068982493997472, -0.12518245043845455]]",density,black,,,N009,visual,1,[],"['1', '2', '3', '4']",1,2023.2.3,harveyvisual,2.1,[],8,0.75,
0,pause,0.4,None,None,None,0,237,237,237,,,,,,,,,,,,,N009,visual,1,[],"['1', '2', '3', '4']",1,2023.2.3,harveyvisual,2.1,[],8,0.75,
3,dot,0.3,['dot'],['density'],black,0,238,238,238,,,85.70025300979614,85.41894197463989,85.7188630104065,dot,"[0.08, 0.08, 0.08]","[[-0.36641147837046456, 0.28339849123565264], [-0.19108570342652328, 0.4628134959899303], [-0.16564092668537764, 0.24926372681875647]]",density,black,,,N009,visual,1,[],"['1', '2', '3', '4']",1,2023.2.3,harveyvisual,2.1,[],8,0.75,
0,pause,0.4,None,None,None,0,239,239,239,,,,,,,,,,,,,N009,visual,1,[],"['1', '2', '3', '4']",1,2023.2.3,harveyvisual,2.1,[],8,0.75,
2,dot,0.3,['dot'],['density'],black,0,240,240,240,,,86.40023303031921,86.11883497238159,86.41881394386292,dot,"[0.06, 0.08]","[[0.24265818653156754, -0.3775895252336694], [0.4224299169789366, -0.289759305909148]]",density,black,,,N009,visual,1,[],"['1', '2', '3', '4']",1,2023.2.3,harveyvisual,2.1,[],8,0.75,
0,pause,0.4,None,None,None,0,241,241,241,,,,,,,,,,,,,N009,visual,1,[],"['1', '2', '3', '4']",1,2023.2.3,harveyvisual,2.1,[],8,0.75,
2,dot,0.3,['dot'],['density'],black,0,242,242,242,,,87.10022687911987,86.81880307197571,87.11879396438599,dot,"[0.06, 0.06]","[[0.4298854344354601, 0.24556028782034023], [0.23727674624932948, 0.18886586315459258]]",density,black,,,N009,visual,1,[],"['1', '2', '3', '4']",1,2023.2.3,harveyvisual,2.1,[],8,0.75,
0,pause,0.4,None,None,None,0,243,243,243,,,,,,,,,,,,,N009,visual,1,[],"['1', '2', '3', '4']",1,2023.2.3,harveyvisual,2.1,[],8,0.75,
2,dot,0.3,['dot'],['density'],black,0,244,244,244,,,87.8002450466156,87.51879692077637,87.81876802444458,dot,"[0.08, 0.08]","[[0.29932439847351855, -0.2783039550742582], [0.14276117392638485, -0.15345139110726028]]",density,black,,,N009,visual,1,[],"['1', '2', '3', '4']",1,2023.2.3,harveyvisual,2.1,[],8,0.75,
0,pause,0.4,None,None,None,0,245,245,245,,,,,,,,,,,,,N009,visual,1,[],"['1', '2', '3', '4']",1,2023.2.3,harveyvisual,2.1,[],8,0.75,
2,dot,0.3,['dot'],['density'],black,0,246,246,246,,,88.50025010108948,88.21863007545471,88.51879596710205,dot,"[0.08, 0.1]","[[-0.20887660672828282, 0.3399455197969581], [-0.34272369919491674, 0.19089688818271272]]",density,black,,,N009,visual,1,[],"['1', '2', '3', '4']",1,2023.2.3,harveyvisual,2.1,[],8,0.75,
0,pause,0.4,None,None,None,0,247,247,247,,,,,,,,,,,,,N009,visual,1,[],"['1', '2', '3', '4']",1,2023.2.3,harveyvisual,2.1,[],8,0.75,
2,dot,0.3,['dot'],['density'],white,0,248,248,248,,,89.2002489566803,88.91876697540283,89.21862387657166,dot,"[0.08, 0.08]","[[-0.22226122312079244, -0.00806926593831646], [-0.023245446524914906, -0.037240983575548024]]",density,white,,,N009,visual,1,[],"['1', '2', '3', '4']",1,2023.2.3,harveyvisual,2.1,[],8,0.75,
0,pause,0.4,None,None,None,0,249,249,249,,,,,,,,,,,1,89.24012088775635,N009,visual,1,[],"['1', '2', '3', '4']",1,2023.2.3,harveyvisual,2.1,[],8,0.75,
2,dot,0.3,['dot'],['density'],black,0,250,250,250,,,89.90024590492249,89.61875009536743,89.9187560081482,dot,"[0.1, 0.1]","[[0.09481659993656301, 0.43631713998557026], [0.0662189159667295, 0.23745101446818795]]",density,black,,,N009,visual,1,[],"['1', '2', '3', '4']",1,2023.2.3,harveyvisual,2.1,[],8,0.75,
0,pause,0.4,None,None,None,0,251,251,251,,,,,,,,,,,,,N009,visual,1,[],"['1', '2', '3', '4']",1,2023.2.3,harveyvisual,2.1,[],8,0.75,
1,dot,0.3,['dot'],['density'],black,0,252,252,252,,,90.60024905204773,90.31874299049377,90.61873888969421,dot,[0.1],"[0.4420174282329864, -0.3383815273201445]",density,black,,,N009,visual,1,[],"['1', '2', '3', '4']",1,2023.2.3,harveyvisual,2.1,[],8,0.75,
0,pause,0.4,None,None,None,0,253,253,253,,,,,,,,,,,,,N009,visual,1,[],"['1', '2', '3', '4']",1,2023.2.3,harveyvisual,2.1,[],8,0.75,
1,dot,0.3,['dot'],['density'],black,0,254,254,254,,,91.30025100708008,91.01859307289124,91.31856298446655,dot,[0.1],"[-0.2532192430475575, -0.5275431624831907]",density,black,,,N009,visual,1,[],"['1', '2', '3', '4']",1,2023.2.3,harveyvisual,2.1,[],8,0.75,
0,pause,0.4,None,None,None,0,255,255,255,,,,,,,,,,,,,N009,visual,1,[],"['1', '2', '3', '4']",1,2023.2.3,harveyvisual,2.1,[],8,0.75,
1,dot,0.3,['dot'],['density'],black,0,256,256,256,,,92.00024890899658,91.71858286857605,92.01870203018188,dot,[0.08],"[-0.40242150741388927, 0.27329756427278695]",density,black,,,N009,visual,1,[],"['1', '2', '3', '4']",1,2023.2.3,harveyvisual,2.1,[],8,0.75,
0,pause,0.4,None,None,None,0,257,257,257,,,,,,,,,,,,,N009,visual,1,[],"['1', '2', '3', '4']",1,2023.2.3,harveyvisual,2.1,[],8,0.75,
1,dot,0.3,['dot'],['density'],black,0,258,258,258,,,92.70025110244751,92.41854906082153,92.71872806549072,dot,[0.06],"[0.19623115665255414, 0.1676894875529279]",density,black,,,N009,visual,1,[],"['1', '2', '3', '4']",1,2023.2.3,harveyvisual,2.1,[],8,0.75,
0,pause,0.4,None,None,None,0,259,259,259,,,,,,,,,,,,,N009,visual,1,[],"['1', '2', '3', '4']",1,2023.2.3,harveyvisual,2.1,[],8,0.75,
1,dot,0.3,['dot'],['density'],black,0,260,260,260,,,93.40024495124817,93.11869287490845,93.41867899894714,dot,[0.1],"[0.0038807231877187303, -0.2777732366953785]",density,black,,,N009,visual,1,[],"['1', '2', '3', '4']",1,2023.2.3,harveyvisual,2.1,[],8,0.75,
0,pause,0.4,None,None,None,0,261,261,261,,,,,,,,,,,,,N009,visual,1,[],"['1', '2', '3', '4']",1,2023.2.3,harveyvisual,2.1,[],8,0.75,
1,dot,0.3,['dot'],['density'],black,0,262,262,262,,,94.10022306442261,93.81869101524353,94.11868500709534,dot,[0.1],"[0.15956500649880873, 0.2640393008039057]",density,black,,,N009,visual,1,[],"['1', '2', '3', '4']",1,2023.2.3,harveyvisual,2.1,[],8,0.75,
0,pause,0.4,None,None,None,0,263,263,263,,,,,,,,,,,,,N009,visual,1,[],"['1', '2', '3', '4']",1,2023.2.3,harveyvisual,2.1,[],8,0.75,
20,dot,0.3,['dot'],['density'],black,0,264,264,264,,,94.80023407936096,94.51864194869995,94.8186628818512,dot,"[0.1, 0.08, 0.08, 0.08, 0.06, 0.06, 0.1, 0.06, 0.06, 0.1, 0.06, 0.06, 0.1, 0.06, 0.06, 0.08, 0.1, 0.1, 0.1, 0.06]","[[-0.40968540103200307, 0.35610538312260137], [0.1914131690907247, 0.20623196320920922], [0.41241851745055647, -0.22228059889264584], [-0.11392974552112956, -0.5835545972228112], [-0.04544509357024307, -0.33413042814942256], [0.5879227065359426, 0.07301237785423778], [0.4204457436789616, 0.3196093769221108], [0.15904793328998623, 0.008321537356282493], [0.05445465730210919, 0.39749221254062905], [-0.2525000176621074, 0.1525236623790498], [-0.10270496086472825, -0.04515270912778657], [-0.5973989855097723, 0.09305958143181496], [-0.5771409487643064, -0.16714850505282908], [0.3931865718696478, 0.09485931646480839], [-0.3648748791132586, -0.419740975844941], [0.16302436367084394, -0.4741697333038193], [-0.1240842873828839, 0.5889500809999679], [0.21758998500768012, -0.285653954811479], [-0.4071232422034815, -0.07557915376744379], [-0.027062715182044395, 0.22642543119472247]]",density,black,,,N009,visual,1,[],"['1', '2', '3', '4']",1,2023.2.3,harveyvisual,2.1,[],8,0.75,
0,pause,0.4,None,None,None,0,265,265,265,,,,,,,,,,,,,N009,visual,1,[],"['1', '2', '3', '4']",1,2023.2.3,harveyvisual,2.1,[],8,0.75,
20,dot,0.3,['dot'],['density'],black,0,266,266,266,,,95.50024199485779,95.21866703033447,95.51861500740051,dot,"[0.1, 0.06, 0.06, 0.1, 0.08, 0.1, 0.1, 0.08, 0.1, 0.1, 0.06, 0.1, 0.1, 0.1, 0.08, 0.08, 0.1, 0.06, 0.06, 0.06]","[[-0.2968076123989127, -0.30897724528454407], [-0.07595557087929639, 0.2825044452469445], [-0.1720154116111522, 0.4955073085269778], [-0.5132701593657082, 0.25770452345942146], [0.19160782894975315, -0.5539912544589887], [0.3983124922793525, 0.06859820708389996], [0.08351709554594677, -0.21985025310724204], [-0.47261633547558946, -0.13809782970695417], [0.5146799789905238, -0.17670136795992814], [0.5260007472497527, 0.215052241015592], [-0.16871503339094474, -0.16457188407789253], [0.19996143778576414, -0.042254360372258604], [-0.11504733538359568, 0.07050012111737813], [-0.3364276983451856, 0.37027351192434166], [-0.09901620016015689, -0.3899767741591443], [-0.3923130529745641, 0.0919877356305786], [0.10881045123775757, 0.19303846503894573], [-0.011951411711538351, -0.6009393490009749], [0.3017095284446959, 0.2932030371103027], [0.3391061477193512, -0.431457089767911]]",density,black,,,N009,visual,1,[],"['1', '2', '3', '4']",1,2023.2.3,harveyvisual,2.1,[],8,0.75,
0,pause,0.4,None,None,None,0,267,267,267,,,,,,,,,,,,,N009,visual,1,[],"['1', '2', '3', '4']",1,2023.2.3,harveyvisual,2.1,[],8,0.75,
