num,mod,duration,shape,ll_cond,colors,.thisRepN,.thisTrialN,.thisN,.thisIndex,thisRow.t,notes,raw_global_time,t_start,t_stop,shapes,size,pos,cond,color,button,RT,participant,session,starting_run,left button (match/odd),right button (non-match/even),samples_per_block,psychopy version,expName,offset,audio,number_runs,radius,
1,dot,0.3,['dot'],['density'],black,0,0,0,0,,,2.4002368450164795,2.1031999588012695,2.403122901916504,dot,[0.06],"[0.2830289625583117, -0.03026882548871228]",density,black,,,N009,visual,1,[],"['1', '2', '3', '4']",1,2023.2.3,harveyvisual,2.1,[],8,0.75,
0,pause,0.4,None,None,None,0,1,1,1,,,,,,,,,,,,,N009,visual,1,[],"['1', '2', '3', '4']",1,2023.2.3,harveyvisual,2.1,[],8,0.75,
1,dot,0.3,['dot'],['density'],black,0,2,2,2,,,3.100224018096924,2.8031208515167236,3.1030938625335693,dot,[0.06],"[0.21839164384074103, 0.06179923858190914]",density,black,,,N009,visual,1,[],"['1', '2', '3', '4']",1,2023.2.3,harveyvisual,2.1,[],8,0.75,
0,pause,0.4,None,None,None,0,3,3,3,,,,,,,,,,,,,N009,visual,1,[],"['1', '2', '3', '4']",1,2023.2.3,harveyvisual,2.1,[],8,0.75,
1,dot,0.3,['dot'],['density'],black,0,4,4,4,,,3.800217866897583,3.5036299228668213,3.8202738761901855,dot,[0.06],"[0.075024325262877, 0.28946834799837856]",density,black,,,N009,visual,1,[],"['1', '2', '3', '4']",1,2023.2.3,harveyvisual,2.1,[],8,0.75,
0,pause,0.4,None,None,None,0,5,5,5,,,,,,,,,,,,,N009,visual,1,[],"['1', '2', '3', '4']",1,2023.2.3,harveyvisual,2.1,[],8,0.75,
1,dot,0.3,['dot'],['density'],black,0,6,6,6,,,4.500213861465454,4.203757047653198,4.520423889160156,dot,[0.06],"[0.15956500649880873, 0.2640393008039057]",density,black,,,N009,visual,1,[],"['1', '2', '3', '4']",1,2023.2.3,harveyvisual,2.1,[],8,0.75,
0,pause,0.4,None,None,None,0,7,7,7,,,,,,,,,,,,,N009,visual,1,[],"['1', '2', '3', '4']",1,2023.2.3,harveyvisual,2.1,[],8,0.75,
1,dot,0.3,['dot'],['density'],black,0,8,8,8,,,5.200222969055176,4.903811931610107,5.2206079959869385,dot,[0.06],"[0.0956549371127339, 0.09579573331985794]",density,black,,,N009,visual,1,[],"['1', '2', '3', '4']",1,2023.2.3,harveyvisual,2.1,[],8,0.75,
0,pause,0.4,None,None,None,0,9,9,9,,,,,,,,,,,,,N009,visual,1,[],"['1', '2', '3', '4']",1,2023.2.3,harveyvisual,2.1,[],8,0.75,
1,dot,0.3,['dot'],['density'],black,0,10,10,10,,,5.900219917297363,5.603575944900513,5.920222997665405,dot,[0.08],"[-0.4913090862596544, 0.31587628757091063]",density,black,,,N009,visual,1,[],"['1', '2', '3', '4']",1,2023.2.3,harveyvisual,2.1,[],8,0.75,
0,pause,0.4,None,None,None,0,11,11,11,,,,,,,,,,,,,N009,visual,1,[],"['1', '2', '3', '4']",1,2023.2.3,harveyvisual,2.1,[],8,0.75,
2,dot,0.3,['dot'],['density'],black,0,12,12,12,,,6.600230932235718,6.305769920349121,6.622423887252808,dot,"[0.08, 0.08]","[[0.002249876020969301, 0.20442088447143333], [-0.056293345030126195, 0.39599742374220376]]",density,black,,,N009,visual,1,[],"['1', '2', '3', '4']",1,2023.2.3,harveyvisual,2.1,[],8,0.75,
0,pause,0.4,None,None,None,0,13,13,13,,,,,,,,,,,,,N009,visual,1,[],"['1', '2', '3', '4']",1,2023.2.3,harveyvisual,2.1,[],8,0.75,
2,dot,0.3,['dot'],['density'],black,0,14,14,14,,,7.300233840942383,7.005733013153076,7.322954893112183,dot,"[0.08, 0.08]","[[-0.3970652553054307, 0.36151140161898554], [-0.22306532646831484, 0.26288994227005946]]",density,black,,,N009,visual,1,[],"['1', '2', '3', '4']",1,2023.2.3,harveyvisual,2.1,[],8,0.75,
0,pause,0.4,None,None,None,0,15,15,15,,,,,,,,,,,,,N009,visual,1,[],"['1', '2', '3', '4']",1,2023.2.3,harveyvisual,2.1,[],8,0.75,
2,dot,0.3,['dot'],['density'],black,0,16,16,16,,,8.000211954116821,7.7057390213012695,8.022388935089111,dot,"[0.08, 0.08]","[[0.3859848860398513, -0.03650274153894256], [0.5613034441480618, 0.06134992989862206]]",density,black,,,N009,visual,1,[],"['1', '2', '3', '4']",1,2023.2.3,harveyvisual,2.1,[],8,0.75,
0,pause,0.4,None,None,None,0,17,17,17,,,,,,,,,,,,,N009,visual,1,[],"['1', '2', '3', '4']",1,2023.2.3,harveyvisual,2.1,[],8,0.75,
2,dot,0.3,['dot'],['density'],black,0,18,18,18,,,8.70022201538086,8.405839920043945,8.722359895706177,dot,"[0.06, 0.06]","[[0.4162662019019998, 0.09129510669171749], [0.33420900269466314, 0.27427456354974017]]",density,black,,,N009,visual,1,[],"['1', '2', '3', '4']",1,2023.2.3,harveyvisual,2.1,[],8,0.75,
0,pause,0.4,None,None,None,0,19,19,19,,,,,,,,,,,,,N009,visual,1,[],"['1', '2', '3', '4']",1,2023.2.3,harveyvisual,2.1,[],8,0.75,
2,dot,0.3,['dot'],['density'],black,0,20,20,20,,,9.400214910507202,9.105823993682861,9.42245602607727,dot,"[0.06, 0.08]","[[0.21195259569903124, -0.4986433684978455], [0.023877440871594643, -0.42921284787985464]]",density,black,,,N009,visual,1,[],"['1', '2', '3', '4']",1,2023.2.3,harveyvisual,2.1,[],8,0.75,
0,pause,0.4,None,None,None,0,21,21,21,,,,,,,,,,,,,N009,visual,1,[],"['1', '2', '3', '4']",1,2023.2.3,harveyvisual,2.1,[],8,0.75,
2,dot,0.3,['dot'],['density'],black,0,22,22,22,,,10.100230932235718,9.80579400062561,10.122439861297607,dot,"[0.1, 0.06]","[[0.500151128333041, 0.1656925720118866], [0.3771979967144504, 0.3235340638115745]]",density,black,,,N009,visual,1,[],"['1', '2', '3', '4']",1,2023.2.3,harveyvisual,2.1,[],8,0.75,
0,pause,0.4,None,None,None,0,23,23,23,,,,,,,,,,,,,N009,visual,1,[],"['1', '2', '3', '4']",1,2023.2.3,harveyvisual,2.1,[],8,0.75,
3,dot,0.3,['dot'],['density'],black,0,24,24,24,,,10.800221920013428,10.505777835845947,10.822404861450195,dot,"[0.06, 0.08, 0.1]","[[0.023581383320217864, -0.14485493475327696], [-0.06776129410461201, 0.04872406380669356], [0.14236151446293968, 0.029671970014602284]]",density,black,,,N009,visual,1,[],"['1', '2', '3', '4']",1,2023.2.3,harveyvisual,2.1,[],8,0.75,
0,pause,0.4,None,None,None,0,25,25,25,,,,,,,,,,,,,N009,visual,1,[],"['1', '2', '3', '4']",1,2023.2.3,harveyvisual,2.1,[],8,0.75,
3,dot,0.3,['dot'],['density'],black,0,26,26,26,,,11.500224828720093,11.205742835998535,11.522548913955688,dot,"[0.06, 0.06, 0.1]","[[-0.015545778166788895, 0.3668732894324268], [-0.08169376046335623, 0.5804400028356697], [-0.24536523618143577, 0.46292967544173164]]",density,black,,,N009,visual,1,[],"['1', '2', '3', '4']",1,2023.2.3,harveyvisual,2.1,[],8,0.75,
0,pause,0.4,None,None,None,0,27,27,27,,,,,,,,,,,,,N009,visual,1,[],"['1', '2', '3', '4']",1,2023.2.3,harveyvisual,2.1,[],8,0.75,
3,dot,0.3,['dot'],['density'],black,0,28,28,28,,,12.200232028961182,11.905735969543457,12.222375869750977,dot,"[0.06, 0.08, 0.08]","[[0.11213305146232053, -0.07893917948794166], [0.05639720131197772, -0.2966044022377523], [-0.1031859716129837, -0.13437008874356654]]",density,black,,,N009,visual,1,[],"['1', '2', '3', '4']",1,2023.2.3,harveyvisual,2.1,[],8,0.75,
0,pause,0.4,None,None,None,0,29,29,29,,,,,,,,,,,,,N009,visual,1,[],"['1', '2', '3', '4']",1,2023.2.3,harveyvisual,2.1,[],8,0.75,
3,dot,0.3,['dot'],['density'],black,0,30,30,30,,,12.90022587776184,12.605854988098145,12.92237401008606,dot,"[0.08, 0.06, 0.1]","[[0.026071599024748527, -0.32860913997604846], [-0.11834724389398482, -0.18584523127985947], [0.10068982493997472, -0.12518245043845455]]",density,black,,,N009,visual,1,[],"['1', '2', '3', '4']",1,2023.2.3,harveyvisual,2.1,[],8,0.75,
0,pause,0.4,None,None,None,0,31,31,31,,,,,,,,,,,,,N009,visual,1,[],"['1', '2', '3', '4']",1,2023.2.3,harveyvisual,2.1,[],8,0.75,
3,dot,0.3,['dot'],['density'],black,0,32,32,32,,,13.600222826004028,13.30566692352295,13.622364044189453,dot,"[0.1, 0.1, 0.1]","[[-0.27441186418729774, -0.31428620701652393], [-0.10438281902574013, -0.2032379983598837], [-0.31523395761825285, -0.08768035506307631]]",density,black,,,N009,visual,1,[],"['1', '2', '3', '4']",1,2023.2.3,harveyvisual,2.1,[],8,0.75,
0,pause,0.4,None,None,None,0,33,33,33,,,,,,,,,,,,,N009,visual,1,[],"['1', '2', '3', '4']",1,2023.2.3,harveyvisual,2.1,[],8,0.75,
3,dot,0.3,['dot'],['density'],black,0,34,34,34,,,14.300215005874634,14.005681037902832,14.322356939315796,dot,"[0.1, 0.08, 0.1]","[[0.48628142840140876, 0.1515230430224543], [0.28796188866220057, 0.19625725416133796], [0.3371406364253883, -0.002661880310138811]]",density,black,,,N009,visual,1,[],"['1', '2', '3', '4']",1,2023.2.3,harveyvisual,2.1,[],8,0.75,
0,pause,0.4,None,None,None,0,35,35,35,,,,,,,,,,,,,N009,visual,1,[],"['1', '2', '3', '4']",1,2023.2.3,harveyvisual,2.1,[],8,0.75,
4,dot,0.3,['dot'],['density'],black,0,36,36,36,,,15.000211000442505,14.705663919448853,15.022318840026855,dot,"[0.1, 0.06, 0.1, 0.08]","[[0.2593869086993074, -0.26887741013308497], [0.09674879007849839, -0.39609983087723066], [-0.011093693993988496, -0.14004324908426333], [0.28630805459639813, -0.4681830009867555]]",density,black,,,N009,visual,1,[],"['1', '2', '3', '4']",1,2023.2.3,harveyvisual,2.1,[],8,0.75,
0,pause,0.4,None,None,None,0,37,37,37,,,,,,,,,,,,,N009,visual,1,[],"['1', '2', '3', '4']",1,2023.2.3,harveyvisual,2.1,[],8,0.75,
4,dot,0.3,['dot'],['density'],black,0,38,38,38,,,15.700223922729492,15.406762838363647,15.722301006317139,dot,"[0.1, 0.08, 0.06, 0.06]","[[0.3510671072586959, 0.39105757673094776], [0.13754249634966464, 0.24690230999823115], [0.2791454519284172, 0.028997379515453933], [0.42442503262497266, 0.18132357243737673]]",density,black,,,N009,visual,1,[],"['1', '2', '3', '4']",1,2023.2.3,harveyvisual,2.1,[],8,0.75,
0,pause,0.4,None,None,None,0,39,39,39,,,,,,,,,,,,,N009,visual,1,[],"['1', '2', '3', '4']",1,2023.2.3,harveyvisual,2.1,[],8,0.75,
4,dot,0.3,['dot'],['density'],black,0,40,40,40,,,16.400221824645996,16.1056809425354,16.42243194580078,dot,"[0.08, 0.08, 0.08, 0.1]","[[-0.24855901342904946, 0.4326179111294549], [-0.33066739519925503, 0.24314919490711104], [-0.015728317870896572, 0.5189617074191414], [-0.09686463175319387, 0.28200212383687606]]",density,black,,,N009,visual,1,[],"['1', '2', '3', '4']",1,2023.2.3,harveyvisual,2.1,[],8,0.75,
0,pause,0.4,None,None,None,0,41,41,41,,,,,,,,,,,,,N009,visual,1,[],"['1', '2', '3', '4']",1,2023.2.3,harveyvisual,2.1,[],8,0.75,
4,dot,0.3,['dot'],['density'],black,0,42,42,42,,,17.10021686553955,16.80561089515686,17.12227702140808,dot,"[0.1, 0.08, 0.1, 0.1]","[[-0.22711054503220823, -0.5144049053218714], [-0.016307770745122817, -0.5558659767831347], [-0.26432457165568224, -0.2824025039497699], [-0.026303944553407815, -0.34464361634901186]]",density,black,,,N009,visual,1,[],"['1', '2', '3', '4']",1,2023.2.3,harveyvisual,2.1,[],8,0.75,
0,pause,0.4,None,None,None,0,43,43,43,,,,,,,,,,,,,N009,visual,1,[],"['1', '2', '3', '4']",1,2023.2.3,harveyvisual,2.1,[],8,0.75,
4,dot,0.3,['dot'],['density'],black,0,44,44,44,,,17.800222873687744,17.505602836608887,17.822250843048096,dot,"[0.1, 0.06, 0.1, 0.1]","[[-0.3130108772186628, 0.4658633188731559], [0.06875292536802097, 0.3619778545149697], [-0.12928423743784842, 0.28835211797578114], [-0.08764786508193922, 0.5151731075523892]]",density,black,,,N009,visual,1,[],"['1', '2', '3', '4']",1,2023.2.3,harveyvisual,2.1,[],8,0.75,
0,pause,0.4,None,None,None,0,45,45,45,,,,,,,,,,,,,N009,visual,1,[],"['1', '2', '3', '4']",1,2023.2.3,harveyvisual,2.1,[],8,0.75,
4,dot,0.3,['dot'],['density'],black,0,46,46,46,,,18.500234842300415,18.20565390586853,18.52223801612854,dot,"[0.1, 0.1, 0.06, 0.1]","[[0.06241226843583792, -0.3147100539198924], [0.2553405417111816, -0.24584579293690137], [0.0027514156828475403, -0.09786489187307437], [0.1660279615748852, 0.026007470517245626]]",density,black,,,N009,visual,1,[],"['1', '2', '3', '4']",1,2023.2.3,harveyvisual,2.1,[],8,0.75,
0,pause,0.4,None,None,None,0,47,47,47,,,,,,,,,,,,,N009,visual,1,[],"['1', '2', '3', '4']",1,2023.2.3,harveyvisual,2.1,[],8,0.75,
5,dot,0.3,['dot'],['density'],black,0,48,48,48,,,19.200225830078125,18.905544996261597,19.222338914871216,dot,"[0.06, 0.1, 0.1, 0.1, 0.1]","[[-0.3593586909609717, -0.014123405231526708], [-0.016214713675271986, 0.25764317450247104], [-0.14180258575993823, 0.0328893580167688], [-0.4739301778776912, 0.15719809156630632], [-0.2718601341595813, 0.23222304362681612]]",density,black,,,N009,visual,1,[],"['1', '2', '3', '4']",1,2023.2.3,harveyvisual,2.1,[],8,0.75,
0,pause,0.4,None,None,None,0,49,49,49,,,,,,,,,,,,,N009,visual,1,[],"['1', '2', '3', '4']",1,2023.2.3,harveyvisual,2.1,[],8,0.75,
5,dot,0.3,['dot'],['density'],black,0,50,50,50,,,19.900234937667847,19.605756998062134,19.922196865081787,dot,"[0.1, 0.08, 0.1, 0.1, 0.06]","[[0.05896558140131438, -0.5342250951568444], [0.41924064092593105, -0.38742881471212404], [0.0789485457987589, -0.15857793529431863], [0.19859038409043042, -0.3300393182504279], [-0.04229804568701367, -0.31959008629620334]]",density,black,,,N009,visual,1,[],"['1', '2', '3', '4']",1,2023.2.3,harveyvisual,2.1,[],8,0.75,
0,pause,0.4,None,None,None,0,51,51,51,,,,,,,,,,,,,N009,visual,1,[],"['1', '2', '3', '4']",1,2023.2.3,harveyvisual,2.1,[],8,0.75,
5,dot,0.3,['dot'],['density'],black,0,52,52,52,,,20.600239992141724,20.30552101135254,20.62231683731079,dot,"[0.06, 0.06, 0.06, 0.08, 0.1]","[[0.36014554898799966, 0.387810422325294], [0.055757472799778995, 0.16941293674392635], [0.2210739480460382, 0.008175952352481365], [0.48495712857242873, 0.07425785546611247], [0.25975240449222103, 0.2092734881649904]]",density,black,,,N009,visual,1,[],"['1', '2', '3', '4']",1,2023.2.3,harveyvisual,2.1,[],8,0.75,
0,pause,0.4,None,None,None,0,53,53,53,,,,,,,,,,,,,N009,visual,1,[],"['1', '2', '3', '4']",1,2023.2.3,harveyvisual,2.1,[],8,0.75,
5,dot,0.3,['dot'],['density'],white,0,54,54,54,,,21.300220012664795,21.005515813827515,21.32307195663452,dot,"[0.08, 0.06, 0.08, 0.06, 0.1]","[[-0.3632963637400461, -0.33792544526642676], [-0.48189922448633543, -0.036156829306921726], [-0.2958020468624338, 0.07292024124872273], [-0.10639492237515816, -0.0008972940205680791], [-0.20818262001932955, -0.17666930306052683]]",density,white,,,N009,visual,1,[],"['1', '2', '3', '4']",1,2023.2.3,harveyvisual,2.1,[],8,0.75,
0,pause,0.4,None,None,None,0,55,55,55,,,,,,,,,,,1,20.912086963653564,N009,visual,1,[],"['1', '2', '3', '4']",1,2023.2.3,harveyvisual,2.1,[],8,0.75,
5,dot,0.3,['dot'],['density'],black,0,56,56,56,,,22.000236988067627,21.705487966537476,22.02215886116028,dot,"[0.06, 0.1, 0.1, 0.06, 0.1]","[[0.34746533592570195, 0.16118282603596082], [0.14457128296481445, 0.28865621170929245], [0.4549189851861922, 0.34228556952890804], [0.008483415068308318, 0.44103246018778014], [0.27150044131742485, 0.4621652121832405]]",density,black,,,N009,visual,1,[],"['1', '2', '3', '4']",1,2023.2.3,harveyvisual,2.1,[],8,0.75,
0,pause,0.4,None,None,None,0,57,57,57,,,,,,,,,,,,,N009,visual,1,[],"['1', '2', '3', '4']",1,2023.2.3,harveyvisual,2.1,[],8,0.75,
5,dot,0.3,['dot'],['density'],black,0,58,58,58,,,22.70022702217102,22.405470848083496,22.7221200466156,dot,"[0.1, 0.1, 0.1, 0.08, 0.06]","[[-0.13250041589442924, 0.4634743177333449], [-0.03625216126902591, 0.28212032656479163], [0.10864293512180892, 0.5244886061775208], [-0.2806491611955352, 0.29160063440784684], [-0.17458602784440078, 0.11997474961663163]]",density,black,,,N009,visual,1,[],"['1', '2', '3', '4']",1,2023.2.3,harveyvisual,2.1,[],8,0.75,
0,pause,0.4,None,None,None,0,59,59,59,,,,,,,,,,,,,N009,visual,1,[],"['1', '2', '3', '4']",1,2023.2.3,harveyvisual,2.1,[],8,0.75,
6,dot,0.3,['dot'],['density'],black,0,60,60,60,,,23.400235891342163,23.122113943099976,23.422112941741943,dot,"[0.08, 0.06, 0.06, 0.08, 0.1, 0.08]","[[-0.11553075830627273, 0.47698778124428043], [-0.1112787518129194, 0.10456141670764223], [-0.48855705683845824, 0.21494657582805063], [-0.2538299919008863, 0.2532006538804931], [-0.3271837865365474, 0.4662148945367939], [0.006792750312598743, 0.27345996435494924]]",density,black,,,N009,visual,1,[],"['1', '2', '3', '4']",1,2023.2.3,harveyvisual,2.1,[],8,0.75,
0,pause,0.4,None,None,None,0,61,61,61,,,,,,,,,,,,,N009,visual,1,[],"['1', '2', '3', '4']",1,2023.2.3,harveyvisual,2.1,[],8,0.75,
6,dot,0.3,['dot'],['density'],black,0,62,62,62,,,24.100236892700195,23.822113037109375,24.12209701538086,dot,"[0.06, 0.06, 0.06, 0.08, 0.1, 0.1]","[[0.21259181929123794, -0.28356491423097735], [0.48303195854319764, 0.06048455888335473], [0.22913681079270962, 0.07473613686017411], [0.4939377514137012, -0.2837040300549214], [0.055643620130747785, -0.14290468481535015], [0.3711413815128542, -0.10952979375652658]]",density,black,,,N009,visual,1,[],"['1', '2', '3', '4']",1,2023.2.3,harveyvisual,2.1,[],8,0.75,
0,pause,0.4,None,None,None,0,63,63,63,,,,,,,,,,,,,N009,visual,1,[],"['1', '2', '3', '4']",1,2023.2.3,harveyvisual,2.1,[],8,0.75,
6,dot,0.3,['dot'],['density'],black,0,64,64,64,,,24.800232887268066,24.506534814834595,24.822078943252563,dot,"[0.08, 0.08, 0.06, 0.06, 0.1, 0.06]","[[-0.5379788740814003, -0.011730333491669416], [-0.1820890739253136, -0.27973544868684425], [-0.07809457889047756, -0.09124846264896269], [-0.30616251401069866, -0.45101817852416426], [-0.44200878281119743, -0.26991620184617166], [-0.3315938551005316, -0.08696624632848979]]",density,black,,,N009,visual,1,[],"['1', '2', '3', '4']",1,2023.2.3,harveyvisual,2.1,[],8,0.75,
0,pause,0.4,None,None,None,0,65,65,65,,,,,,,,,,,,,N009,visual,1,[],"['1', '2', '3', '4']",1,2023.2.3,harveyvisual,2.1,[],8,0.75,
6,dot,0.3,['dot'],['density'],black,0,66,66,66,,,25.500228881835938,25.2220618724823,25.52202796936035,dot,"[0.08, 0.08, 0.06, 0.06, 0.1, 0.06]","[[-0.3078382271761739, 0.4361778186671046], [-0.059169983783578364, 0.44796520308269433], [-0.3209935464877752, 0.22545519901795916], [-0.10826469778565927, 0.24929594343002343], [-0.016554185736113114, 0.06783813438016018], [-0.29360476626160575, 0.00756342739423081]]",density,black,,,N009,visual,1,[],"['1', '2', '3', '4']",1,2023.2.3,harveyvisual,2.1,[],8,0.75,
0,pause,0.4,None,None,None,0,67,67,67,,,,,,,,,,,,,N009,visual,1,[],"['1', '2', '3', '4']",1,2023.2.3,harveyvisual,2.1,[],8,0.75,
6,dot,0.3,['dot'],['density'],black,0,68,68,68,,,26.200225830078125,25.922055959701538,26.22217583656311,dot,"[0.08, 0.1, 0.08, 0.1, 0.06, 0.1]","[[-0.5416753121247185, 0.020803147184574915], [-0.3232269173664433, -0.07161231053200118], [-0.3008479376061402, -0.286480119217458], [-0.22299540496279888, 0.12470258063391813], [-0.10776740766186912, -0.19554033341247495], [-0.5165544979209102, -0.21376225914528924]]",density,black,,,N009,visual,1,[],"['1', '2', '3', '4']",1,2023.2.3,harveyvisual,2.1,[],8,0.75,
0,pause,0.4,None,None,None,0,69,69,69,,,,,,,,,,,,,N009,visual,1,[],"['1', '2', '3', '4']",1,2023.2.3,harveyvisual,2.1,[],8,0.75,
6,dot,0.3,['dot'],['density'],black,0,70,70,70,,,26.900221824645996,26.622010946273804,26.922024965286255,dot,"[0.08, 0.08, 0.1, 0.06, 0.1, 0.08]","[[0.23625405956766557, 0.3892633732772463], [0.11760889656980711, -0.0038201085241890706], [0.42882153754783053, 0.07157264481568941], [0.22360409458703237, 0.16865996735680294], [-0.08582952339030024, 0.051003002567710905], [-0.0010028139275050567, 0.23222523166366787]]",density,black,,,N009,visual,1,[],"['1', '2', '3', '4']",1,2023.2.3,harveyvisual,2.1,[],8,0.75,
0,pause,0.4,None,None,None,0,71,71,71,,,,,,,,,,,,,N009,visual,1,[],"['1', '2', '3', '4']",1,2023.2.3,harveyvisual,2.1,[],8,0.75,
7,dot,0.3,['dot'],['density'],black,0,72,72,72,,,27.60022783279419,27.324014902114868,27.621973991394043,dot,"[0.06, 0.06, 0.1, 0.08, 0.08, 0.1, 0.06]","[[-0.4069355390488937, 0.37207368581823036], [-0.24593577727054447, 0.19917396778247878], [-0.42360727833657225, -0.08003411738888748], [-0.22269992972584096, -0.007913174381400552], [-0.5458110461780458, 0.2006057762678532], [-0.12767295506375728, 0.3689678629588407], [-0.26313434255033313, 0.5223746060296944]]",density,black,,,N009,visual,1,[],"['1', '2', '3', '4']",1,2023.2.3,harveyvisual,2.1,[],8,0.75,
0,pause,0.4,None,None,None,0,73,73,73,,,,,,,,,,,,,N009,visual,1,[],"['1', '2', '3', '4']",1,2023.2.3,harveyvisual,2.1,[],8,0.75,
7,dot,0.3,['dot'],['density'],white,0,74,74,74,,,28.300230026245117,28.022006034851074,28.321964979171753,dot,"[0.06, 0.1, 0.1, 0.1, 0.08, 0.08, 0.08]","[[0.373835093542847, 0.13553027784675922], [0.025265531087721685, -0.15487691700731251], [0.38086488534306906, -0.0720131222026176], [0.4315741710459581, -0.28075472739566504], [0.18097069018870113, 0.01647246612045595], [0.1962900518120967, -0.2624101628120604], [0.08955660480178401, 0.2127528718980948]]",density,white,,,N009,visual,1,[],"['1', '2', '3', '4']",1,2023.2.3,harveyvisual,2.1,[],8,0.75,
0,pause,0.4,None,None,None,0,75,75,75,,,,,,,,,,,1,27.94792890548706,N009,visual,1,[],"['1', '2', '3', '4']",1,2023.2.3,harveyvisual,2.1,[],8,0.75,
7,dot,0.3,['dot'],['density'],black,0,76,76,76,,,29.000218868255615,28.722288846969604,29.021960020065308,dot,"[0.1, 0.08, 0.1, 0.1, 0.1, 0.08, 0.1]","[[-0.23895008888738212, 0.05027357720500052], [0.04847041368780161, 0.3376116924566045], [0.007425979130163878, -0.07582657330311053], [-0.16109724709992976, 0.33554312732420544], [-0.17199436159673825, -0.1887904434853683], [0.1858169564317131, 0.14031933770952934], [-0.038655615351801086, 0.15226176997737048]]",density,black,,,N009,visual,1,[],"['1', '2', '3', '4']",1,2023.2.3,harveyvisual,2.1,[],8,0.75,
0,pause,0.4,None,None,None,0,77,77,77,,,,,,,,,,,,,N009,visual,1,[],"['1', '2', '3', '4']",1,2023.2.3,harveyvisual,2.1,[],8,0.75,
7,dot,0.3,['dot'],['density'],white,0,78,78,78,,,29.700228929519653,29.42226791381836,29.721953868865967,dot,"[0.1, 0.06, 0.1, 0.06, 0.1, 0.06, 0.08]","[[-0.2314520007693297, 0.33838000150240727], [-0.18132207761103206, 0.5552670473927488], [0.017458222085991553, 0.32213086183097556], [0.10538257653630445, 0.5364165263315271], [-0.32661765694444117, 0.13553859080651098], [0.2001110614088519, 0.2352342526365964], [-0.07707990285528175, 0.1388757586163816]]",density,white,,,N009,visual,1,[],"['1', '2', '3', '4']",1,2023.2.3,harveyvisual,2.1,[],8,0.75,
0,pause,0.4,None,None,None,0,79,79,79,,,,,,,,,,,1,29.33219289779663,N009,visual,1,[],"['1', '2', '3', '4']",1,2023.2.3,harveyvisual,2.1,[],8,0.75,
7,dot,0.3,['dot'],['density'],black,0,80,80,80,,,30.400233030319214,30.121953010559082,30.42280888557434,dot,"[0.08, 0.06, 0.06, 0.08, 0.06, 0.1, 0.1]","[[-0.137089699111686, -0.0603537150230737], [-0.5113647139476066, -0.13847335204066147], [-0.15813839015967857, -0.36469710156031643], [-0.2936616210719107, -0.2141411575526577], [-0.32787652212665946, 0.04250548396893007], [0.004093135922799089, -0.22788394746255153], [-0.17456170860443615, 0.20133573380951708]]",density,black,,,N009,visual,1,[],"['1', '2', '3', '4']",1,2023.2.3,harveyvisual,2.1,[],8,0.75,
0,pause,0.4,None,None,None,0,81,81,81,,,,,,,,,,,,,N009,visual,1,[],"['1', '2', '3', '4']",1,2023.2.3,harveyvisual,2.1,[],8,0.75,
7,dot,0.3,['dot'],['density'],black,0,82,82,82,,,31.100221872329712,30.821935892105103,31.121925830841064,dot,"[0.06, 0.1, 0.1, 0.1, 0.1, 0.06, 0.1]","[[-0.0840690222646118, 0.326581156863932], [0.2873095043411744, 0.40733497502034743], [0.3312644566818162, -0.06338498518608723], [-0.0506181805300269, 0.10889297565070959], [0.1236891467835978, 0.25045991881734525], [0.122473450616654, -0.061936092255746894], [0.3019459967494134, 0.15241064997072415]]",density,black,,,N009,visual,1,[],"['1', '2', '3', '4']",1,2023.2.3,harveyvisual,2.1,[],8,0.75,
0,pause,0.4,None,None,None,0,83,83,83,,,,,,,,,,,,,N009,visual,1,[],"['1', '2', '3', '4']",1,2023.2.3,harveyvisual,2.1,[],8,0.75,
8,dot,0.3,['dot'],['density'],black,0,84,84,84,,,31.800230979919434,31.521890878677368,31.821858882904053,dot,"[0.06, 0.1, 0.06, 0.1, 0.1, 0.06, 0.1, 0.1]","[[-0.2395708272612018, -0.3613018167456044], [-0.39529086986423073, -0.13116056396528103], [0.016143118738118, -0.3000453801144436], [-0.10247857353615338, 0.12176090555598315], [0.11784264820349834, -0.12422453235794288], [-0.1468533202112338, -0.18280007972172757], [-0.31504288856899026, 0.06147683711297207], [0.2614313121475242, -0.33215718180641224]]",density,black,,,N009,visual,1,[],"['1', '2', '3', '4']",1,2023.2.3,harveyvisual,2.1,[],8,0.75,
0,pause,0.4,None,None,None,0,85,85,85,,,,,,,,,,,,,N009,visual,1,[],"['1', '2', '3', '4']",1,2023.2.3,harveyvisual,2.1,[],8,0.75,
8,dot,0.3,['dot'],['density'],black,0,86,86,86,,,32.500216007232666,32.222041845321655,32.521870851516724,dot,"[0.1, 0.1, 0.06, 0.06, 0.08, 0.1, 0.1, 0.06]","[[-0.012034279999911439, 0.06556808781241986], [-0.3446774290598954, 0.11122635080299646], [0.22428040003470762, 0.1796687910302273], [-0.037221971777983635, 0.5300244249381355], [-0.1456717336157172, 0.2672263832914442], [0.040508406505222534, 0.3412803201140432], [-0.26975617824218623, 0.48628578621654683], [0.24128509790231628, 0.4122343446782376]]",density,black,,,N009,visual,1,[],"['1', '2', '3', '4']",1,2023.2.3,harveyvisual,2.1,[],8,0.75,
0,pause,0.4,None,None,None,0,87,87,87,,,,,,,,,,,,,N009,visual,1,[],"['1', '2', '3', '4']",1,2023.2.3,harveyvisual,2.1,[],8,0.75,
8,dot,0.3,['dot'],['density'],black,0,88,88,88,,,33.20022892951965,32.921865940093994,33.22201991081238,dot,"[0.1, 0.06, 0.08, 0.1, 0.1, 0.08, 0.06, 0.06]","[[0.2564657333297123, -0.5164120873644681], [0.16207736998829034, -0.17430025554579232], [0.3801370228700199, -0.12440354324600712], [0.3861419762144276, -0.3474957963553726], [0.023072413076989942, -0.006703975881976366], [-0.07114697953604181, -0.35683211304459495], [0.45447188669532573, 0.06927659529933487], [0.23571610799738704, 0.02784742549372824]]",density,black,,,N009,visual,1,[],"['1', '2', '3', '4']",1,2023.2.3,harveyvisual,2.1,[],8,0.75,
0,pause,0.4,None,None,None,0,89,89,89,,,,,,,,,,,,,N009,visual,1,[],"['1', '2', '3', '4']",1,2023.2.3,harveyvisual,2.1,[],8,0.75,
8,dot,0.3,['dot'],['density'],black,0,90,90,90,,,33.900229930877686,33.62368083000183,33.921849966049194,dot,"[0.06, 0.06, 0.08, 0.08, 0.1, 0.08, 0.1, 0.06]","[[-0.17001050475317317, -0.17367687575201368], [0.3600613666554234, 0.010096468830953859], [-0.08326222131596324, 0.04242117989324811], [0.04296950773068638, 0.29875887990525135], [0.04919814700692566, -0.23206276490508926], [0.2733682510361541, 0.19343137942482672], [0.15974695196996483, -0.02827404827190698], [-0.2919014881818027, 0.0006738684867251376]]",density,black,,,N009,visual,1,[],"['1', '2', '3', '4']",1,2023.2.3,harveyvisual,2.1,[],8,0.75,
0,pause,0.4,None,None,None,0,91,91,91,,,,,,,,,,,,,N009,visual,1,[],"['1', '2', '3', '4']",1,2023.2.3,harveyvisual,2.1,[],8,0.75,
8,dot,0.3,['dot'],['density'],white,0,92,92,92,,,34.60021996498108,34.32189893722534,34.621865034103394,dot,"[0.08, 0.08, 0.06, 0.06, 0.1, 0.1, 0.1, 0.1]","[[0.016639406518403475, -0.10031965053970064], [-0.49734137941811546, 0.023312718056099104], [0.03171158295547566, 0.2028207856397581], [-0.3777108616291506, 0.18827317115199685], [-0.2734124440264558, -0.20525012861841768], [-0.1742574757978524, 0.04093824739900491], [-0.17815403785603903, 0.26205888083036905], [-0.2502819750276768, 0.4804358206127844]]",density,white,,,N009,visual,1,[],"['1', '2', '3', '4']",1,2023.2.3,harveyvisual,2.1,[],8,0.75,
0,pause,0.4,None,None,None,0,93,93,93,,,,,,,,,,,1,34.174768924713135,N009,visual,1,[],"['1', '2', '3', '4']",1,2023.2.3,harveyvisual,2.1,[],8,0.75,
8,dot,0.3,['dot'],['density'],black,0,94,94,94,,,35.300220012664795,35.02187705039978,35.32276892662048,dot,"[0.06, 0.1, 0.1, 0.08, 0.06, 0.06, 0.06, 0.08]","[[-0.2395708272612018, -0.3613018167456044], [-0.39529086986423073, -0.13116056396528103], [0.016143118738118, -0.3000453801144436], [-0.10247857353615338, 0.12176090555598315], [0.11784264820349834, -0.12422453235794288], [-0.1468533202112338, -0.18280007972172757], [-0.31504288856899026, 0.06147683711297207], [0.2614313121475242, -0.33215718180641224]]",density,black,,,N009,visual,1,[],"['1', '2', '3', '4']",1,2023.2.3,harveyvisual,2.1,[],8,0.75,
0,pause,0.4,None,None,None,0,95,95,95,,,,,,,,,,,,,N009,visual,1,[],"['1', '2', '3', '4']",1,2023.2.3,harveyvisual,2.1,[],8,0.75,
9,dot,0.3,['dot'],['density'],black,0,96,96,96,,,36.00022101402283,35.72182893753052,36.021827936172485,dot,"[0.1, 0.08, 0.06, 0.1, 0.1, 0.1, 0.1, 0.1, 0.06]","[[0.31750259908069645, 0.09103062301409195], [-0.10814993995151222, -0.14883262012051235], [0.2615101699546999, -0.13245952524223892], [0.014531427323725789, 0.3887544696515085], [-0.1117096847062306, 0.09593752649312724], [0.07810272484559946, -0.019955638642360052], [-0.26173373106631487, 0.2840804484106463], [0.4370020372247476, 0.2669512546191977], [0.11115841416421544, 0.18722161068425575]]",density,black,,,N009,visual,1,[],"['1', '2', '3', '4']",1,2023.2.3,harveyvisual,2.1,[],8,0.75,
0,pause,0.4,None,None,None,0,97,97,97,,,,,,,,,,,,,N009,visual,1,[],"['1', '2', '3', '4']",1,2023.2.3,harveyvisual,2.1,[],8,0.75,
9,dot,0.3,['dot'],['density'],black,0,98,98,98,,,36.700222969055176,36.42186403274536,36.72180700302124,dot,"[0.1, 0.06, 0.1, 0.06, 0.1, 0.06, 0.1, 0.1, 0.1]","[[0.26246064217380705, -0.20881461689055444], [-0.05738061480455322, -0.2104867327221427], [-0.15279665209492657, -0.4570696492981838], [-0.25848085101471047, 0.03539482855188907], [0.05438928923437074, -0.041842351158073866], [-0.266438460152573, -0.22510974363943476], [-0.08630847597628627, 0.16925380219028288], [0.1378984379274782, 0.16880467564350782], [0.14927440204233722, -0.41110624343475755]]",density,black,,,N009,visual,1,[],"['1', '2', '3', '4']",1,2023.2.3,harveyvisual,2.1,[],8,0.75,
0,pause,0.4,None,None,None,0,99,99,99,,,,,,,,,,,,,N009,visual,1,[],"['1', '2', '3', '4']",1,2023.2.3,harveyvisual,2.1,[],8,0.75,
9,dot,0.3,['dot'],['density'],black,0,100,100,100,,,37.40022301673889,37.12271285057068,37.42177391052246,dot,"[0.08, 0.06, 0.08, 0.06, 0.06, 0.1, 0.1, 0.08, 0.08]","[[-0.13146557112902973, 0.14116723461389186], [0.2951467361821443, -0.02824752732805288], [0.19428532799116477, -0.23589609671221848], [-0.28731157875063357, -0.1506919145754202], [-0.013954936164563217, -0.2914313940092583], [0.05437169614590384, 0.05057158482376688], [-0.11710547218270359, -0.5628603002908775], [-0.3181416531292253, -0.36750682532956547], [-0.10064922490671671, -0.07835054634105423]]",density,black,,,N009,visual,1,[],"['1', '2', '3', '4']",1,2023.2.3,harveyvisual,2.1,[],8,0.75,
0,pause,0.4,None,None,None,0,101,101,101,,,,,,,,,,,,,N009,visual,1,[],"['1', '2', '3', '4']",1,2023.2.3,harveyvisual,2.1,[],8,0.75,
9,dot,0.3,['dot'],['density'],black,0,102,102,102,,,38.10022783279419,37.821779012680054,38.12194585800171,dot,"[0.08, 0.08, 0.1, 0.06, 0.08, 0.06, 0.1, 0.1, 0.08]","[[0.30047334598257713, -0.32583448447642216], [0.4997394081452916, 0.05175273655880906], [0.13646797290608587, 0.02221883094322858], [0.11448241016544139, -0.2117191838414046], [0.417500260412479, 0.2413963184479076], [0.19152536325099656, 0.23172406522327998], [0.5046802385722475, -0.28323005758562664], [-0.037891296982194685, 0.14714919272112825], [0.3292067348064443, -0.0657181274468392]]",density,black,,,N009,visual,1,[],"['1', '2', '3', '4']",1,2023.2.3,harveyvisual,2.1,[],8,0.75,
0,pause,0.4,None,None,None,0,103,103,103,,,,,,,,,,,,,N009,visual,1,[],"['1', '2', '3', '4']",1,2023.2.3,harveyvisual,2.1,[],8,0.75,
9,dot,0.3,['dot'],['density'],black,0,104,104,104,,,38.80022096633911,38.521798849105835,38.821717977523804,dot,"[0.1, 0.1, 0.08, 0.1, 0.06, 0.08, 0.08, 0.06, 0.08]","[[0.08964926938552661, 0.05394775442474662], [0.013667798857315082, 0.3651287039276397], [-0.3518235196438996, 0.4482863301015001], [0.0843039828244993, 0.5528122926054443], [-0.16049547673848438, 0.0730005648255046], [-0.2144141911430125, 0.27623828598157274], [0.3465547907671387, 0.0307758660088046], [-0.13596480001028877, 0.5242376261272882], [0.2304522598158348, 0.3521277948761275]]",density,black,,,N009,visual,1,[],"['1', '2', '3', '4']",1,2023.2.3,harveyvisual,2.1,[],8,0.75,
0,pause,0.4,None,None,None,0,105,105,105,,,,,,,,,,,,,N009,visual,1,[],"['1', '2', '3', '4']",1,2023.2.3,harveyvisual,2.1,[],8,0.75,
9,dot,0.3,['dot'],['density'],black,0,106,106,106,,,39.50023698806763,39.22263503074646,39.52175283432007,dot,"[0.08, 0.1, 0.1, 0.06, 0.1, 0.1, 0.06, 0.1, 0.06]","[[-0.5586095828397086, -0.08452232608263664], [-0.5120381862419278, 0.15370428824398014], [-0.08562135647518901, 0.024493186907675612], [-0.3204263364507457, 0.2397592637991136], [-0.21279117965626912, -0.18999926927512983], [-0.34615304282718484, -0.002506468551820401], [-0.32642794983948487, 0.4412976810435594], [-0.12278716272436474, 0.3390467791696382], [0.05505897535061007, 0.17426903254619158]]",density,black,,,N009,visual,1,[],"['1', '2', '3', '4']",1,2023.2.3,harveyvisual,2.1,[],8,0.75,
0,pause,0.4,None,None,None,0,107,107,107,,,,,,,,,,,,,N009,visual,1,[],"['1', '2', '3', '4']",1,2023.2.3,harveyvisual,2.1,[],8,0.75,
20,dot,0.3,['dot'],['density'],black,0,108,108,108,,,40.200233936309814,39.92259693145752,40.22169303894043,dot,"[0.1, 0.1, 0.06, 0.08, 0.1, 0.06, 0.08, 0.08, 0.1, 0.08, 0.1, 0.08, 0.06, 0.08, 0.06, 0.1, 0.06, 0.08, 0.08, 0.1]","[[0.47162869545314956, 0.08715233541266354], [-0.45328753609639555, 0.007171037112139567], [0.3075938854943162, 0.48437445799250556], [-0.16116048759383023, -0.07110152468991549], [-0.20013737435817103, 0.2414483298210789], [0.5231781089922592, -0.20681478860395466], [0.1745492237833477, 0.0031875550364351968], [-0.5522634285554374, -0.2307882447641364], [0.11613043513045851, 0.47736008615889003], [-0.48169230698600507, 0.21247280893420006], [0.4041966864644241, -0.3718028015391586], [0.25268407096934886, -0.5217452793771346], [-0.26801252126186476, -0.32601272495954453], [-0.2787659259963331, 0.4518411864424414], [0.22796352441821655, -0.2783167186720772], [0.34382749934380996, 0.2762489478395266], [0.04452037842588075, -0.41427636117765665], [0.060682685040228224, 0.2124671628353907], [-0.22841953064167403, -0.5179275007034292], [0.05250328298283535, -0.19196237222643592]]",density,black,,,N009,visual,1,[],"['1', '2', '3', '4']",1,2023.2.3,harveyvisual,2.1,[],8,0.75,
0,pause,0.4,None,None,None,0,109,109,109,,,,,,,,,,,,,N009,visual,1,[],"['1', '2', '3', '4']",1,2023.2.3,harveyvisual,2.1,[],8,0.75,
20,dot,0.3,['dot'],['density'],black,0,110,110,110,,,40.90021800994873,40.62357997894287,40.9225549697876,dot,"[0.1, 0.1, 0.06, 0.06, 0.1, 0.06, 0.06, 0.1, 0.06, 0.1, 0.1, 0.08, 0.06, 0.06, 0.06, 0.08, 0.08, 0.1, 0.08, 0.1]","[[-0.46465954008329713, -0.07187156451654875], [-0.020229235969957404, 0.14774617050689232], [0.359712532581866, -0.3578847605743232], [-0.08977287634351061, 0.37640199872069136], [-0.0037100948165089687, -0.41796546999894296], [-0.0807262897978297, 0.5970869698804543], [0.5895226671484369, 0.02326572372297034], [-0.2699929452285858, -0.4492756546634949], [0.42820454711189326, 0.2083546795893353], [-0.42085823753952145, 0.15792800173415567], [0.15005603749274077, 0.31331854155842687], [-0.33442216177722317, 0.3949645191638351], [0.21146809281850687, 0.1177395072996188], [0.21786667944400384, -0.5438064321576331], [0.13808106364803518, -0.10877158852870977], [-0.4550741205764631, -0.33115053583570625], [-0.26364897802049664, -0.07650527712503641], [0.12551433358105246, 0.5458114826568675], [0.35755901041482197, -0.09080191889215689], [-0.15392088555861666, -0.25936593403465646]]",density,black,,,N009,visual,1,[],"['1', '2', '3', '4']",1,2023.2.3,harveyvisual,2.1,[],8,0.75,
0,pause,0.4,None,None,None,0,111,111,111,,,,,,,,,,,,,N009,visual,1,[],"['1', '2', '3', '4']",1,2023.2.3,harveyvisual,2.1,[],8,0.75,
20,dot,0.3,['dot'],['density'],white,0,112,112,112,,,41.60023784637451,41.321796894073486,41.62163496017456,dot,"[0.1, 0.1, 0.08, 0.08, 0.1, 0.08, 0.06, 0.06, 0.06, 0.08, 0.1, 0.08, 0.06, 0.08, 0.08, 0.1, 0.08, 0.08, 0.08, 0.08]","[[-0.40850179179344953, 0.29650623744796045], [0.35030022745396727, -0.48669021600892626], [-0.5596590684348431, -0.13262632124107998], [-0.3140668909439899, 0.05807527678220603], [0.08370773841962609, -0.5290768990107588], [-0.20903281143148467, -0.43356978359292964], [0.16833317647083157, 0.07791525630978058], [0.3867995668925175, 0.39266052515547223], [-0.07043885463636024, -0.2916699758673036], [-0.021281055262365345, 0.12313921633611202], [0.39158826015315606, 0.10919612684662383], [0.4744743162268682, -0.2877139481941373], [0.02976657294144669, 0.37683751290482825], [-0.3693859621942614, -0.27068958389250025], [-0.5414096292347669, 0.057360096667831206], [0.11418642587051842, 0.5936274030629989], [0.20634195396209742, -0.24397223400469303], [0.5419740707261543, -0.04208722672658341], [-0.19408516263761588, 0.38463168228110134], [-0.22989112745509926, -0.13687440375824644]]",density,white,,,N009,visual,1,[],"['1', '2', '3', '4']",1,2023.2.3,harveyvisual,2.1,[],8,0.75,
0,pause,0.4,None,None,None,0,113,113,113,,,,,,,,,,,1,41.22659492492676,N009,visual,1,[],"['1', '2', '3', '4']",1,2023.2.3,harveyvisual,2.1,[],8,0.75,
20,dot,0.3,['dot'],['density'],black,0,114,114,114,,,42.300240993499756,42.02166485786438,42.321637868881226,dot,"[0.06, 0.06, 0.08, 0.1, 0.08, 0.06, 0.06, 0.1, 0.08, 0.08, 0.06, 0.08, 0.08, 0.06, 0.06, 0.06, 0.06, 0.08, 0.08, 0.1]","[[-0.21576395801195214, 0.11707888766279317], [-0.5038131488497681, -0.04174882021797538], [0.07415505607816664, 0.14013437793460193], [-0.17424616892214112, -0.49540133828894023], [0.25129576854232716, 0.412571070822885], [0.5513136965703375, -0.12354682761028321], [0.41338691835741337, -0.37308942416487156], [-0.34449655324949724, -0.23176115312156254], [-0.251523201250699, 0.5440029805543208], [0.4789906465867716, 0.16606928869127913], [0.45951888974238997, 0.36779286635100833], [0.2331245529144066, -0.45607136929026415], [0.14871118034949393, -0.13972707144264923], [-0.42459230525487657, 0.3043050178742892], [-0.14803786550237236, -0.15423523178459442], [0.010272735151298784, 0.49197697002206486], [0.041127849290086615, -0.506480537799853], [0.2888050309180912, 0.1322695608618466], [-0.43160543371741894, -0.4036048290537708], [-0.5681691175955881, 0.17218754319769153]]",density,black,,,N009,visual,1,[],"['1', '2', '3', '4']",1,2023.2.3,harveyvisual,2.1,[],8,0.75,
0,pause,0.4,None,None,None,0,115,115,115,,,,,,,,,,,,,N009,visual,1,[],"['1', '2', '3', '4']",1,2023.2.3,harveyvisual,2.1,[],8,0.75,
20,dot,0.3,['dot'],['density'],white,0,116,116,116,,,43.00021481513977,42.721619844436646,43.021596908569336,dot,"[0.06, 0.08, 0.06, 0.08, 0.1, 0.1, 0.1, 0.08, 0.06, 0.06, 0.08, 0.1, 0.06, 0.06, 0.06, 0.1, 0.1, 0.06, 0.08, 0.08]","[[0.2896582344937021, 0.11286219022007626], [0.6048855396747937, -0.02100624911530363], [-0.3007436046382115, 0.3351145364455572], [0.24880965388098242, -0.23134523841064036], [0.4786476326051853, 0.3278072717223863], [-0.5901717725092409, -0.1001494605312521], [0.47644863019492634, -0.22816027544814257], [-0.2123502499651822, -0.4564203898613075], [0.03505170342401964, 0.5150338653925183], [-0.20925843433477498, 0.16116760820782627], [-0.008372319382548787, 0.2422123161432217], [-0.3563702635468804, -0.17624037224087263], [0.3720447102476484, -0.46376581883455], [-0.5847164629718149, 0.13437615181042514], [-0.020866740861553712, -0.06895896247411915], [-0.448221621249099, -0.3959084268714205], [0.18437492500506292, -0.5693818744984087], [-0.3887360644558573, 0.051122894682529674], [0.041285135339435564, -0.33568940574184103], [-0.18301300610437665, 0.54561784843894]]",density,white,,,N009,visual,1,[],"['1', '2', '3', '4']",1,2023.2.3,harveyvisual,2.1,[],8,0.75,
0,pause,0.4,None,None,None,0,117,117,117,,,,,,,,,,,1,42.61775493621826,N009,visual,1,[],"['1', '2', '3', '4']",1,2023.2.3,harveyvisual,2.1,[],8,0.75,
20,dot,0.3,['dot'],['density'],black,0,118,118,118,,,43.70024490356445,43.42162489891052,43.72165584564209,dot,"[0.1, 0.1, 0.1, 0.1, 0.08, 0.06, 0.1, 0.1, 0.08, 0.08, 0.06, 0.08, 0.08, 0.06, 0.08, 0.1, 0.06, 0.06, 0.1, 0.08]","[[0.31008063599377944, -0.002779932296717802], [-0.603282415497595, -0.04187925518240305], [-0.24656580116848997, -0.01471620598877954], [0.10627245792829276, 0.34924813975482616], [0.06220601856712049, 0.13849972899378404], [-0.2101500164457582, -0.40283971694364623], [0.038114792464758795, -0.4627694714319214], [0.43283643318470244, 0.20673360455451706], [-0.17490863824597802, 0.21442743866216563], [0.31778752237500596, -0.2504091989853901], [-0.05572380584704728, -0.17736203012802954], [0.3580244395826311, 0.4047972212487564], [0.5559571762863013, -0.043691549412232855], [-0.3900916373539384, 0.166592643424971], [-0.12114736498347234, 0.45506184511963554], [0.14168278054301187, -0.1316167074466827], [-0.37992843864648795, -0.1633106041881237], [0.2313475643389854, -0.5001756157394868], [0.12033358155756124, 0.5558405380508132], [-0.365511963349429, 0.40265343281820315]]",density,black,,,N009,visual,1,[],"['1', '2', '3', '4']",1,2023.2.3,harveyvisual,2.1,[],8,0.75,
0,pause,0.4,None,None,None,0,119,119,119,,,,,,,,,,,,,N009,visual,1,[],"['1', '2', '3', '4']",1,2023.2.3,harveyvisual,2.1,[],8,0.75,
20,dot,0.3,['dot'],['density'],black,0,120,120,120,,,44.40022397041321,44.12270784378052,44.421594858169556,dot,"[0.08, 0.06, 0.06, 0.1, 0.06, 0.06, 0.08, 0.1, 0.1, 0.08, 0.06, 0.08, 0.06, 0.1, 0.08, 0.06, 0.08, 0.1, 0.08, 0.08]","[[-0.5135332853889677, 0.1491107225270596], [-0.03227164046539743, 0.4781208804634457], [0.16563101564784122, -0.5157451297483318], [0.17208871827178096, -0.12363773644261666], [-0.0774477582414903, -0.13713409574183827], [0.37699853357112467, -0.12863797858677412], [-0.25124735087493166, 0.4359773217008448], [-0.5902119973110641, -0.04896951286945175], [0.4934608890915614, 0.03579433310900826], [0.27510894041307277, 0.24265359363664785], [0.4216976219165284, -0.3562842292390019], [-0.4107278221988154, 0.32891475107386614], [-0.010678045830676997, 0.1594855140177882], [0.481603414027613, 0.3527696398631124], [-0.27217082467097875, 0.11560574395008838], [-0.28919664274491264, -0.16229331299915772], [0.32082573870923226, 0.4776120402254994], [-0.34704291373860213, -0.49126734726226456], [-0.45949840895193056, -0.28123247933871015], [-0.08005306614253216, -0.5633370789361827]]",density,black,,,N009,visual,1,[],"['1', '2', '3', '4']",1,2023.2.3,harveyvisual,2.1,[],8,0.75,
0,pause,0.4,None,None,None,0,121,121,121,,,,,,,,,,,,,N009,visual,1,[],"['1', '2', '3', '4']",1,2023.2.3,harveyvisual,2.1,[],8,0.75,
20,dot,0.3,['dot'],['density'],black,0,122,122,122,,,45.10023593902588,44.822521924972534,45.12170886993408,dot,"[0.06, 0.08, 0.08, 0.1, 0.06, 0.06, 0.1, 0.08, 0.06, 0.1, 0.1, 0.1, 0.06, 0.08, 0.1, 0.06, 0.1, 0.06, 0.1, 0.06]","[[-0.45051370411597, -0.2631933665517523], [0.5401615063498079, -0.0562396754171757], [-0.3702727785256384, 0.4722612410386961], [-0.3034553518464266, -0.12895861438344397], [0.34896149974188484, 0.23822993332066245], [0.11846870486967054, -0.4396225067564715], [0.26384804220094515, 0.5275950215346191], [0.3108772116014201, -0.4106798515917154], [-0.4814157580744923, -0.058679720694600424], [0.1296397009017325, 0.2632633904142728], [-0.5866249851719395, 0.10036649198172637], [-0.2141582655467575, -0.3842785105826245], [0.34246135021046054, -0.0934179773921312], [-0.29302819658537554, 0.19211465501117253], [-0.05821621266525345, 0.5500479334919729], [-0.012171258699015697, -0.1698130657239778], [-0.15319365638840599, 0.335672459765333], [-0.12537106367494882, -0.015226207966173577], [0.5627393889817313, 0.17898548587905141], [0.5143779758523733, -0.25746547892336413]]",density,black,,,N009,visual,1,[],"['1', '2', '3', '4']",1,2023.2.3,harveyvisual,2.1,[],8,0.75,
0,pause,0.4,None,None,None,0,123,123,123,,,,,,,,,,,,,N009,visual,1,[],"['1', '2', '3', '4']",1,2023.2.3,harveyvisual,2.1,[],8,0.75,
20,dot,0.3,['dot'],['density'],black,0,124,124,124,,,45.80024003982544,45.52157783508301,45.822598934173584,dot,"[0.1, 0.06, 0.06, 0.06, 0.06, 0.06, 0.1, 0.08, 0.1, 0.08, 0.1, 0.1, 0.1, 0.08, 0.08, 0.08, 0.08, 0.1, 0.08, 0.06]","[[0.07154401757142237, 0.21288012007444568], [0.34851950503559825, -0.47042747205485536], [0.4435901878393983, 0.32370872094314523], [0.5084054484837887, -0.19072054742149544], [-0.25343624286781563, -0.4392077333485561], [-0.47770721733417043, 0.12420184260669831], [0.5752242315991604, 0.07689647674248926], [0.06082810806030137, -0.3273524434302427], [0.20857026212723062, 0.5614103270888485], [-0.3545654546908691, 0.40174017105405], [-0.16499404217837677, 0.06143082737298955], [0.13660253685559454, -0.5105093199118056], [-0.27817890433927234, -0.12787473290009682], [-0.1069353481408048, 0.4749161490087388], [0.1246398831506148, -0.09393072056011076], [-0.4985104414288461, -0.09839763827327216], [0.32115465861292736, -0.27085134320095905], [-0.38520232197158677, -0.29214735335296566], [0.25340661304463374, 0.11674421277296365], [-0.07385362212875968, -0.5536428617360992]]",density,black,,,N009,visual,1,[],"['1', '2', '3', '4']",1,2023.2.3,harveyvisual,2.1,[],8,0.75,
0,pause,0.4,None,None,None,0,125,125,125,,,,,,,,,,,,,N009,visual,1,[],"['1', '2', '3', '4']",1,2023.2.3,harveyvisual,2.1,[],8,0.75,
20,dot,0.3,['dot'],['density'],black,0,126,126,126,,,46.50021696090698,46.22154688835144,46.52153992652893,dot,"[0.06, 0.1, 0.06, 0.1, 0.06, 0.1, 0.06, 0.1, 0.1, 0.08, 0.1, 0.08, 0.08, 0.06, 0.06, 0.06, 0.1, 0.06, 0.06, 0.08]","[[-0.22311419779043695, -0.5217181992292038], [0.03242558511988913, 0.47910480513757914], [-0.22664658529939657, 0.24022842164165803], [0.037471885043990016, -0.2908837737444486], [0.5510470706712386, 0.07573441951186471], [-0.4122305984979801, -0.0565203283640206], [0.2364446581646411, -0.14609392220169604], [-0.30540143030217604, -0.2931584800566872], [0.40956028588617654, 0.2916533364468871], [0.5122825652661432, -0.14363834697240116], [-0.38799359206486256, 0.4032249383959476], [0.3986231357258089, -0.3779003406229453], [0.16993923222341745, 0.10970131718620313], [-0.24309526920156044, 0.037671941463885195], [-0.14682758460892498, -0.16263651551920855], [-0.2103787765095077, 0.5080964034284763], [-0.03411065773824362, 0.2747800092520315], [-0.5324853259578171, -0.21187314461720483], [-0.0199557105723972, 0.0406355018247323], [-0.5425017645173412, 0.19280002290731568]]",density,black,,,N009,visual,1,[],"['1', '2', '3', '4']",1,2023.2.3,harveyvisual,2.1,[],8,0.75,
0,pause,0.4,None,None,None,0,127,127,127,,,,,,,,,,,,,N009,visual,1,[],"['1', '2', '3', '4']",1,2023.2.3,harveyvisual,2.1,[],8,0.75,
20,dot,0.3,['dot'],['density'],black,0,128,128,128,,,47.200242042541504,46.921512842178345,47.22153401374817,dot,"[0.08, 0.08, 0.1, 0.08, 0.06, 0.08, 0.08, 0.08, 0.06, 0.06, 0.08, 0.06, 0.08, 0.1, 0.08, 0.1, 0.1, 0.1, 0.08, 0.08]","[[0.17882018588594095, -0.02850474381317525], [0.47373308175935447, 0.28408735321230283], [-0.4745398839809587, 0.06361391481747025], [-0.4233425705086765, 0.25486946075410966], [0.48946923060389447, 0.04647006588310598], [-0.1032975679787691, -0.043095408011246006], [-0.07617619082762084, -0.29818208161976284], [-0.1759798189020843, 0.15791721277350845], [0.3220516912209914, -0.40896380033426777], [-0.01977537110792904, 0.32459866060155906], [-0.11021620976235275, 0.5476356751152762], [0.1060588859399273, -0.40277121418512374], [0.307316859512482, -0.20504088397294018], [0.5339952893360521, -0.2763265313884975], [-0.3537663362820278, -0.4632510158116765], [-0.5367517990799567, -0.24081280723451842], [0.31904439431786036, 0.4357457242340437], [-0.31070347985129554, 0.5034443523569774], [0.1858699868287127, 0.23822320101981742], [-0.08158502682407043, -0.5821896922987195]]",density,black,,,N009,visual,1,[],"['1', '2', '3', '4']",1,2023.2.3,harveyvisual,2.1,[],8,0.75,
0,pause,0.4,None,None,None,0,129,129,129,,,,,,,,,,,,,N009,visual,1,[],"['1', '2', '3', '4']",1,2023.2.3,harveyvisual,2.1,[],8,0.75,
20,dot,0.3,['dot'],['density'],black,0,130,130,130,,,47.900233030319214,47.621498823165894,47.9214928150177,dot,"[0.08, 0.1, 0.08, 0.08, 0.1, 0.06, 0.06, 0.06, 0.06, 0.08, 0.08, 0.06, 0.1, 0.08, 0.08, 0.1, 0.06, 0.06, 0.06, 0.1]","[[0.4995625510059839, 0.018521582753361965], [0.3272304413907856, 0.4753738465291417], [0.3043304542801094, 0.22198168657414985], [-0.5674057125540325, 0.10290495325806956], [-0.34319826319872276, 0.14722978180657864], [0.09264494846310989, 0.3853212991507392], [-0.19951441907436845, -0.007984273866084801], [0.2888505890890303, -0.10167140397164048], [-0.16740238715896927, 0.28893480905168156], [0.2829292075984673, -0.4414586240516248], [-0.004442619219403587, -0.44049073290945506], [-0.4707017741902474, -0.18643146390772916], [-0.1118812111569209, 0.5032056063717402], [-0.1511711037451965, -0.5752422580970458], [0.5273892378677197, -0.28224455364871065], [-0.24793599626419333, -0.2724009689003455], [0.5413433288347577, 0.23606907872337346], [0.04188082617236677, -0.22516961857951784], [0.12254639264758671, 0.11007143328624958], [-0.4213659247236795, 0.3970056378161779]]",density,black,,,N009,visual,1,[],"['1', '2', '3', '4']",1,2023.2.3,harveyvisual,2.1,[],8,0.75,
0,pause,0.4,None,None,None,0,131,131,131,,,,,,,,,,,,,N009,visual,1,[],"['1', '2', '3', '4']",1,2023.2.3,harveyvisual,2.1,[],8,0.75,
20,dot,0.3,['dot'],['density'],black,0,132,132,132,,,48.60023283958435,48.321475982666016,48.621476888656616,dot,"[0.1, 0.06, 0.06, 0.1, 0.06, 0.08, 0.08, 0.06, 0.06, 0.08, 0.06, 0.08, 0.06, 0.08, 0.1, 0.06, 0.1, 0.1, 0.08, 0.1]","[[0.2232732452021695, 0.14479609372729418], [-0.4771618945364864, -0.3540404688538162], [-0.5878635015621365, -0.1391981204838919], [0.005201537780323284, -0.04288439040496128], [0.28611987253627924, -0.275172592860788], [-0.28869145109212924, -0.2993275316337507], [-0.5103825536311013, 0.07131177493211582], [0.04985583281809336, 0.5390718172840578], [0.02413948979336078, -0.4973967341075722], [0.5792984933202697, -0.07920762568912044], [-0.25759584393853596, 0.2561677283063373], [0.4183878534586293, 0.27772866812644226], [0.0053272699151067915, 0.2490713659387629], [-0.20886750241616742, -0.004289919531867192], [0.22298924300516054, -0.46608854247832904], [-0.12092635325539047, 0.44104051027855684], [0.24702241017279636, -0.06350861401449748], [0.4749644296428507, -0.36303448958784923], [0.45431327506969776, 0.087302184291004], [0.2943435602846406, 0.4909220888863849]]",density,black,,,N009,visual,1,[],"['1', '2', '3', '4']",1,2023.2.3,harveyvisual,2.1,[],8,0.75,
0,pause,0.4,None,None,None,0,133,133,133,,,,,,,,,,,,,N009,visual,1,[],"['1', '2', '3', '4']",1,2023.2.3,harveyvisual,2.1,[],8,0.75,
20,dot,0.3,['dot'],['density'],black,0,134,134,134,,,49.30024290084839,49.02257585525513,49.32236695289612,dot,"[0.08, 0.06, 0.06, 0.08, 0.06, 0.06, 0.06, 0.1, 0.1, 0.08, 0.1, 0.1, 0.1, 0.1, 0.08, 0.06, 0.1, 0.06, 0.08, 0.06]","[[0.4609524389304346, -0.19802897131513203], [-0.5648146252447352, -0.12254598100491144], [-0.4014966298543442, -0.34139291963177], [-0.2635743672007397, 0.02575997253558504], [0.16949978988926362, -0.2867525112478102], [-0.12318222643245108, 0.46135668831683574], [-0.579956206756767, 0.17313474221533529], [0.31759997777123383, -0.06504083903191898], [-0.1512790695158444, 0.18739993163833724], [0.17337226224808977, -0.5578304993065756], [0.4567018413559599, 0.3374455981738382], [-0.30521214382190187, -0.17675647620849416], [-0.3819184408461368, 0.18937747763813717], [0.26215908943143573, 0.32017522562365697], [-0.45722319697321645, 0.3782407555694111], [-0.233490302346466, -0.5351310178921724], [0.08483403347170604, 0.03277788152332595], [0.10901949791227972, 0.5834642244539919], [0.5436112018820308, 0.04908353960932976], [-0.006933643521612076, -0.14866455527794797]]",density,black,,,N009,visual,1,[],"['1', '2', '3', '4']",1,2023.2.3,harveyvisual,2.1,[],8,0.75,
0,pause,0.4,None,None,None,0,135,135,135,,,,,,,,,,,,,N009,visual,1,[],"['1', '2', '3', '4']",1,2023.2.3,harveyvisual,2.1,[],8,0.75,
20,dot,0.3,['dot'],['density'],black,0,136,136,136,,,50.00022292137146,49.72146487236023,50.02155590057373,dot,"[0.08, 0.1, 0.06, 0.08, 0.06, 0.1, 0.08, 0.06, 0.06, 0.1, 0.06, 0.08, 0.08, 0.06, 0.08, 0.06, 0.08, 0.08, 0.1, 0.06]","[[-0.2077461383456387, 0.4800274888216509], [-0.09733791720191898, 0.32357961144868197], [0.2068359118686739, -0.38707732448110516], [-0.3376365276541628, 0.2303105867367975], [0.15042494665430473, 0.45516258610158133], [0.39135278923243266, -0.06428548934907052], [-0.5219478916123189, -0.07198141486468881], [-0.08865461037162814, 0.08792710632567535], [-0.3611434907735076, 0.04107718618946288], [0.42641778228212124, 0.2995701113914396], [-0.23734337598898708, -0.4263641530003082], [-0.5550722343323093, 0.1510967563819429], [0.1779403828781596, 0.2503369669948813], [-0.009633508584401262, -0.4181175495446152], [0.13693923955948117, -0.1909498915097706], [0.572025816966586, 0.17662794727338646], [-0.44431070313771637, -0.2824877857001814], [0.39564857813981436, -0.36207415240803614], [-0.09792856322097898, -0.15166474130030894], [-0.3981684437569173, 0.44070053450557783]]",density,black,,,N009,visual,1,[],"['1', '2', '3', '4']",1,2023.2.3,harveyvisual,2.1,[],8,0.75,
0,pause,0.4,None,None,None,0,137,137,137,,,,,,,,,,,,,N009,visual,1,[],"['1', '2', '3', '4']",1,2023.2.3,harveyvisual,2.1,[],8,0.75,
20,dot,0.3,['dot'],['density'],black,0,138,138,138,,,50.70023703575134,50.42144203186035,50.72231984138489,dot,"[0.06, 0.1, 0.08, 0.1, 0.06, 0.06, 0.1, 0.06, 0.1, 0.08, 0.06, 0.06, 0.06, 0.06, 0.08, 0.1, 0.06, 0.1, 0.06, 0.1]","[[0.4579917395432703, 0.33925424844855046], [0.5270779646783422, 0.040195699161815146], [0.2969130625808264, 0.19566344318114648], [-0.4414299757736241, 0.10565149378475108], [-0.41294188857237746, -0.3375618053596056], [-0.60524862480924, 0.005996806629639177], [-0.13071740857640596, 0.2459477460689592], [0.39209395853684403, -0.3055226160840888], [-0.2571533610127155, -0.4848327436332348], [-0.07058721871638962, -0.1887812471862944], [0.2775480554663806, -0.1408280832521711], [0.03778490212080998, -0.587411490335549], [0.32085980460642605, -0.4988970424360135], [0.24502531509708536, 0.49812192574414726], [-0.32754455513694597, 0.48081784376147296], [-0.13285900171584236, 0.5136691627977058], [-0.2922915993372281, -0.057810563360609024], [-0.5573972269200448, -0.18903044384586967], [0.15072043936695712, 0.006386146988775487], [-0.46595860016954915, 0.2997361993126229]]",density,black,,,N009,visual,1,[],"['1', '2', '3', '4']",1,2023.2.3,harveyvisual,2.1,[],8,0.75,
0,pause,0.4,None,None,None,0,139,139,139,,,,,,,,,,,,,N009,visual,1,[],"['1', '2', '3', '4']",1,2023.2.3,harveyvisual,2.1,[],8,0.75,
20,dot,0.3,['dot'],['density'],black,0,140,140,140,,,51.40023589134216,51.12139296531677,51.421427965164185,dot,"[0.1, 0.08, 0.1, 0.06, 0.1, 0.06, 0.06, 0.1, 0.06, 0.08, 0.1, 0.1, 0.06, 0.06, 0.1, 0.08, 0.06, 0.08, 0.1, 0.1]","[[-0.3885327055823561, -0.1238739425682906], [0.46079931246873296, 0.33734537506747286], [-0.3199644849053909, 0.4856847083022636], [0.4481580945713547, -0.10941161002447464], [0.18604479176553812, -0.11536930461465533], [-0.15029229635183244, 0.016826455647569016], [0.35857914130999247, -0.4252645012269999], [-0.532129727960371, 0.06787116510159169], [-0.04053561129796135, -0.5992075467473426], [0.08740568342791866, 0.049682194041129946], [0.060255542124441286, 0.40692770350174823], [0.2985291348886445, 0.056665438335135376], [0.2521153054274029, 0.40386252129463196], [-0.20346777225917478, -0.40264529841669955], [0.5408073293162233, 0.16496316480957873], [0.06176781803769438, -0.27528565729810683], [-0.028977292348749684, 0.5996305481736666], [-0.4028615574252684, -0.40953701894857086], [0.18547797668218657, -0.534815511674337], [-0.21383522730871396, 0.24499433503320867]]",density,black,,,N009,visual,1,[],"['1', '2', '3', '4']",1,2023.2.3,harveyvisual,2.1,[],8,0.75,
0,pause,0.4,None,None,None,0,141,141,141,,,,,,,,,,,,,N009,visual,1,[],"['1', '2', '3', '4']",1,2023.2.3,harveyvisual,2.1,[],8,0.75,
20,dot,0.3,['dot'],['density'],white,0,142,142,142,,,52.10022497177124,51.821430921554565,52.121387004852295,dot,"[0.06, 0.08, 0.1, 0.1, 0.06, 0.08, 0.08, 0.1, 0.08, 0.06, 0.08, 0.06, 0.08, 0.1, 0.06, 0.1, 0.06, 0.08, 0.1, 0.08]","[[-0.22190281180770133, 0.40740744525738015], [-0.06891420189549724, 0.5616890235479264], [0.34376192167167696, 0.2326894576819143], [0.48823884981515786, 0.09973290266853785], [-0.17159878103802068, -0.41366325349980165], [0.3042621312554974, -0.377954430476686], [-0.022389294886625777, -0.11147434598524592], [-0.19394503256182605, 0.04729044523173376], [0.2425821413358028, -0.17865895646030044], [-0.5764302783964576, -0.010740839418750286], [-0.07989194590685467, 0.2742119515504562], [-0.2999368517846933, -0.1536989357139305], [0.5590050793110654, -0.2158608862078853], [-0.020959862343533198, -0.5347193850454235], [-0.48851474907047576, 0.3372192174923626], [-0.5205046285456493, -0.25913814995609097], [0.20191495312170227, 0.5152487368225606], [-0.29943471165638874, 0.2300764106388934], [0.026990461263845522, 0.11574294650762251], [0.07669493358033208, -0.30596474672268503]]",density,white,,,N009,visual,1,[],"['1', '2', '3', '4']",1,2023.2.3,harveyvisual,2.1,[],8,0.75,
0,pause,0.4,None,None,None,0,143,143,143,,,,,,,,,,,1,51.653860092163086,N009,visual,1,[],"['1', '2', '3', '4']",1,2023.2.3,harveyvisual,2.1,[],8,0.75,
20,dot,0.3,['dot'],['density'],black,0,144,144,144,,,52.800235986709595,52.52138900756836,52.821385860443115,dot,"[0.06, 0.06, 0.1, 0.1, 0.08, 0.08, 0.06, 0.06, 0.1, 0.1, 0.1, 0.08, 0.1, 0.08, 0.1, 0.1, 0.08, 0.1, 0.08, 0.08]","[[-0.2903929642568009, 0.08608171826518374], [0.2382509979820141, -0.09723554227198672], [-0.41517892692172553, 0.41582551165988996], [0.03031334847425604, 0.036624321087846745], [-0.32418681357573265, -0.4460406912458914], [0.30168857705488494, -0.39040114704055895], [-0.5582538170102704, -0.11922641990944252], [0.511018148732662, 0.183264614877937], [-0.06720327602038167, 0.5429253544802153], [-0.1391482210433838, -0.34625468920853597], [0.4378776654400919, -0.23792146910398337], [0.41567089262721424, 0.4322522880869041], [-0.5117194942013572, 0.22241883879593105], [0.6013224303659647, -0.06880697899864269], [-0.1697988125564992, 0.31747397300123303], [0.2663456317574636, 0.22362510492657228], [-0.14273059463232046, -0.13140872534338144], [0.11281645448373734, -0.26645159659780115], [0.15799069317516745, 0.48742933158398327], [-0.16521853435110784, -0.5805511712130366]]",density,black,,,N009,visual,1,[],"['1', '2', '3', '4']",1,2023.2.3,harveyvisual,2.1,[],8,0.75,
0,pause,0.4,None,None,None,0,145,145,145,,,,,,,,,,,,,N009,visual,1,[],"['1', '2', '3', '4']",1,2023.2.3,harveyvisual,2.1,[],8,0.75,
20,dot,0.3,['dot'],['density'],black,0,146,146,146,,,53.500218868255615,53.221367835998535,53.52137088775635,dot,"[0.08, 0.08, 0.1, 0.1, 0.06, 0.06, 0.08, 0.08, 0.1, 0.1, 0.06, 0.08, 0.06, 0.06, 0.06, 0.06, 0.08, 0.08, 0.1, 0.08]","[[-0.3025378334506764, 0.40756775120501365], [-0.42230212666045885, -0.14851276851211964], [0.5568699817741435, -0.1906068907364566], [-0.33299779549670844, -0.4746001667281341], [0.425359626168042, -0.3595915923677395], [0.08042186019394648, 0.27635330471925723], [-0.4028545072902122, 0.13659284687901313], [0.18562171739400646, 0.5540482135950651], [0.2548968708743571, -0.10424495968852127], [0.3833916923397612, 0.2654860607761852], [-0.09340393163478256, 0.17503410968289623], [0.13146022204707053, -0.34416548108097944], [-0.11673835518735576, -0.5414281934463658], [-0.006126020744426031, -0.17753886569046806], [0.42622316772306756, -0.008176480429070598], [-0.20477473214974212, 0.01842650822958647], [-0.1832683967120256, -0.322982837914718], [0.5779880561100151, 0.10621965502567571], [0.10317235772147326, 0.018858540814113534], [-0.5002084269054535, 0.314515082132771]]",density,black,,,N009,visual,1,[],"['1', '2', '3', '4']",1,2023.2.3,harveyvisual,2.1,[],8,0.75,
0,pause,0.4,None,None,None,0,147,147,147,,,,,,,,,,,,,N009,visual,1,[],"['1', '2', '3', '4']",1,2023.2.3,harveyvisual,2.1,[],8,0.75,
20,dot,0.3,['dot'],['density'],black,0,148,148,148,,,54.2002329826355,53.92136597633362,54.22132587432861,dot,"[0.08, 0.08, 0.06, 0.1, 0.08, 0.08, 0.06, 0.1, 0.08, 0.1, 0.06, 0.06, 0.06, 0.08, 0.08, 0.1, 0.06, 0.08, 0.1, 0.08]","[[0.5208339050954144, 0.17304688167958432], [0.5376161303100276, -0.019284295301324805], [-0.03716274333845415, -0.3072299262570841], [-0.5504920159707716, 0.12397450760806744], [-0.3904255728502679, -0.061065878050127975], [0.10195128140520793, 0.050557976433810214], [-0.08522025893760077, -0.026409838737026736], [0.24242732194521588, -0.1792467164913778], [-0.321647902939216, 0.1662714417388801], [0.3621946726971683, -0.33119851500231656], [0.15561452265536002, 0.4366270255756459], [0.34004574897675754, 0.35082722282125767], [-0.2264759811281012, 0.4988474429168249], [-0.35043597776833363, -0.38919490290286496], [-0.0339233908717359, 0.5707994879443499], [-0.4762102832240927, 0.3028861720449398], [0.5269625962060375, -0.2264094928978988], [-0.004782135506626095, 0.24471934647212168], [-0.555027716474555, -0.17380382409188905], [0.31093304875699757, 0.1407763750677382]]",density,black,,,N009,visual,1,[],"['1', '2', '3', '4']",1,2023.2.3,harveyvisual,2.1,[],8,0.75,
0,pause,0.4,None,None,None,0,149,149,149,,,,,,,,,,,,,N009,visual,1,[],"['1', '2', '3', '4']",1,2023.2.3,harveyvisual,2.1,[],8,0.75,
20,dot,0.3,['dot'],['density'],black,0,150,150,150,,,54.90024399757385,54.621337890625,54.92129397392273,dot,"[0.1, 0.06, 0.08, 0.1, 0.1, 0.06, 0.08, 0.1, 0.06, 0.08, 0.1, 0.08, 0.1, 0.06, 0.06, 0.08, 0.1, 0.06, 0.08, 0.1]","[[0.5876569203892602, 0.061403336845094775], [-0.39008581244497653, -0.11306401279595346], [-0.047509100180839425, 0.1439147814704531], [0.34276785201589133, -0.40553765544528775], [-0.41570897183200645, 0.20628299315773913], [-0.25158184306178494, -0.2595777729847043], [0.5194313775635145, -0.17559570744527297], [0.2279184139901651, -0.23297734881801424], [0.5169191828034606, 0.2695952650329613], [-0.41061445289262966, -0.43618346913641515], [0.048633436414533326, 0.4730426436988139], [-0.11112418492133624, -0.11860701654611194], [0.275944316332839, 0.2705256479963757], [0.2705305226112852, 0.056447458791694216], [-0.19359553592427725, 0.5130081204003782], [-0.017245522670656266, -0.44848125963145175], [0.0813698202166776, 0.0009103998608839259], [-0.5893639445100008, 0.0030671152067829333], [0.28356099364670573, 0.5119190198585658], [-0.26417162970536856, 0.05703061822368549]]",density,black,,,N009,visual,1,[],"['1', '2', '3', '4']",1,2023.2.3,harveyvisual,2.1,[],8,0.75,
0,pause,0.4,None,None,None,0,151,151,151,,,,,,,,,,,,,N009,visual,1,[],"['1', '2', '3', '4']",1,2023.2.3,harveyvisual,2.1,[],8,0.75,
20,dot,0.3,['dot'],['density'],black,0,152,152,152,,,55.600236892700195,55.321287870407104,55.62128496170044,dot,"[0.08, 0.1, 0.06, 0.06, 0.06, 0.06, 0.1, 0.08, 0.06, 0.1, 0.06, 0.08, 0.1, 0.1, 0.1, 0.1, 0.06, 0.06, 0.08, 0.06]","[[-0.3694360684416207, 0.03728697483008364], [0.39700829975250074, -0.048122798506082365], [0.580474474327909, 0.09425901914697143], [0.0957766479666684, 0.19989553790096748], [-0.09507557954036505, -0.4508214929920974], [0.044406786758914074, 0.48227507593205954], [0.2590133810667391, 0.4797394454758094], [-0.5337214467186221, 0.2648077437814303], [-0.15454190028169495, 0.2590531369452713], [-0.3741381082992662, 0.41712984830118766], [-0.5907874129278013, -0.05501730379332577], [-0.39813961145700205, -0.1715998772089246], [0.17419993523360522, -0.3416570975254052], [0.07447415586285111, -0.10523052757596602], [0.44362040500892863, 0.3629465520777887], [0.3427523884389093, -0.46545322720360005], [-0.3626155394566946, -0.4462431041357199], [0.575757429323046, -0.14077811000438614], [-0.08792293847009269, 0.010044916028272621], [-0.17814457992461397, -0.16557709817643002]]",density,black,,,N009,visual,1,[],"['1', '2', '3', '4']",1,2023.2.3,harveyvisual,2.1,[],8,0.75,
0,pause,0.4,None,None,None,0,153,153,153,,,,,,,,,,,,,N009,visual,1,[],"['1', '2', '3', '4']",1,2023.2.3,harveyvisual,2.1,[],8,0.75,
20,dot,0.3,['dot'],['density'],black,0,154,154,154,,,56.30023002624512,56.021312952041626,56.32136392593384,dot,"[0.06, 0.08, 0.06, 0.1, 0.08, 0.1, 0.06, 0.1, 0.06, 0.1, 0.06, 0.08, 0.1, 0.08, 0.06, 0.08, 0.08, 0.06, 0.1, 0.06]","[[0.18322596780918854, 0.10101603081299093], [-0.34510901153036666, -0.11805896650794301], [0.5818757153873496, -0.004933859623442449], [-0.12027461793146499, 0.1583604949353169], [-0.45854753290984335, 0.041515371514204535], [-0.03573675856152814, 0.44502730011367464], [0.46950538210305093, -0.2041705079163463], [0.23411541265101732, -0.11063814092436597], [-0.05792764940967832, -0.08434788240495839], [-0.06630940210730585, -0.2780522289186651], [-0.46804818945169396, -0.379125757264596], [-0.08373358150217369, -0.5367053953320685], [0.18176351152979886, -0.3974870658897709], [0.30833981461127413, 0.38531390578722646], [0.4750940944848513, 0.18329250922379908], [-0.3044138912683748, 0.3896840738522602], [-0.47856320641062233, 0.26562516315673823], [-0.5827652229640244, -0.10846719285513076], [-0.28324973363576994, -0.5260142740969267], [0.3908930001342158, 0.0023533822248894]]",density,black,,,N009,visual,1,[],"['1', '2', '3', '4']",1,2023.2.3,harveyvisual,2.1,[],8,0.75,
0,pause,0.4,None,None,None,0,155,155,155,,,,,,,,,,,,,N009,visual,1,[],"['1', '2', '3', '4']",1,2023.2.3,harveyvisual,2.1,[],8,0.75,
9,dot,0.3,['dot'],['density'],black,0,156,156,156,,,57.00023293495178,56.72128987312317,57.021283864974976,dot,"[0.1, 0.08, 0.06, 0.06, 0.1, 0.08, 0.06, 0.08, 0.1]","[[-0.011980588702785358, -0.14271344386551676], [-0.15345504415890063, -0.3599837049237609], [0.2909474261289129, -0.3591516282942406], [0.16239073734315843, -0.5386624114967425], [0.2227638828830022, -0.11271380419745088], [0.06426208015886789, 0.04859175461581491], [-0.3648571389210414, -0.3413683676300365], [0.3831858227582706, 0.019718563726728144], [0.06479696894599615, -0.3534524636945761]]",density,black,,,N009,visual,1,[],"['1', '2', '3', '4']",1,2023.2.3,harveyvisual,2.1,[],8,0.75,
0,pause,0.4,None,None,None,0,157,157,157,,,,,,,,,,,,,N009,visual,1,[],"['1', '2', '3', '4']",1,2023.2.3,harveyvisual,2.1,[],8,0.75,
9,dot,0.3,['dot'],['density'],black,0,158,158,158,,,57.70025181770325,57.421278953552246,57.72127294540405,dot,"[0.06, 0.1, 0.1, 0.06, 0.1, 0.06, 0.1, 0.1, 0.06]","[[0.11766436913102363, -0.04327704920019282], [0.17973489876850246, -0.2957558932143311], [0.4322853556796634, 0.1292829237047714], [-0.0348924626991882, -0.2091692004054023], [0.511593351462966, -0.2715393032181878], [0.39631341359825684, -0.10388811790353111], [0.1759041025424718, 0.35783279634564974], [-0.11077337801993212, 0.08002505665429639], [0.1915495233696259, 0.15329463501335125]]",density,black,,,N009,visual,1,[],"['1', '2', '3', '4']",1,2023.2.3,harveyvisual,2.1,[],8,0.75,
0,pause,0.4,None,None,None,0,159,159,159,,,,,,,,,,,,,N009,visual,1,[],"['1', '2', '3', '4']",1,2023.2.3,harveyvisual,2.1,[],8,0.75,
9,dot,0.3,['dot'],['density'],black,0,160,160,160,,,58.40024185180664,58.12124586105347,58.421205043792725,dot,"[0.1, 0.08, 0.08, 0.1, 0.06, 0.1, 0.1, 0.06, 0.1]","[[-0.23139737267821464, 0.4582894628988488], [-0.22563640623437264, 0.09161215191469056], [0.08653997658409265, 0.18408404769425912], [-0.34134765149242685, 0.2795210921938051], [-0.45752590330905135, 0.08752711185150099], [-0.035040587470716034, -0.07657027701648178], [-0.27120713465948276, -0.1309343981320133], [-0.3537313425617488, -0.374673418779248], [-0.09309732942360581, 0.2754840453600595]]",density,black,,,N009,visual,1,[],"['1', '2', '3', '4']",1,2023.2.3,harveyvisual,2.1,[],8,0.75,
0,pause,0.4,None,None,None,0,161,161,161,,,,,,,,,,,,,N009,visual,1,[],"['1', '2', '3', '4']",1,2023.2.3,harveyvisual,2.1,[],8,0.75,
9,dot,0.3,['dot'],['density'],white,0,162,162,162,,,59.10022187232971,58.82124304771423,59.121256828308105,dot,"[0.06, 0.06, 0.1, 0.06, 0.1, 0.08, 0.1, 0.06, 0.1]","[[0.019793807854907846, -0.43234396454466956], [-0.19026732246162045, -0.30921043426246514], [0.04019268118281429, 0.04496242893187172], [-0.3995051790572048, -0.35321755636659735], [-0.3855517065125252, -0.10705750392277943], [0.08372722599267078, -0.1679482296571974], [0.2622756688563642, -0.3928589043728353], [-0.14305193053609555, -0.047108980659819465], [-0.27076529918092873, 0.10825753519043561]]",density,white,,,N009,visual,1,[],"['1', '2', '3', '4']",1,2023.2.3,harveyvisual,2.1,[],8,0.75,
0,pause,0.4,None,None,None,0,163,163,163,,,,,,,,,,,1,58.6927809715271,N009,visual,1,[],"['1', '2', '3', '4']",1,2023.2.3,harveyvisual,2.1,[],8,0.75,
9,dot,0.3,['dot'],['density'],white,0,164,164,164,,,59.80023789405823,59.52117991447449,59.822993993759155,dot,"[0.1, 0.08, 0.1, 0.08, 0.08, 0.08, 0.08, 0.1, 0.06]","[[0.4907720478217397, -0.04420899316542184], [0.34945142516086164, 0.15252383324094793], [0.5574461082468273, 0.19132091369540322], [0.27860246559707486, -0.040271372914082004], [0.05137088633600719, 0.3166781443626957], [0.3859483744724672, 0.35594746641407654], [0.08124150308634055, -0.11830714188255424], [-0.07254784919135501, 0.1430213671552253], [0.33979531306265204, -0.26214422422440126]]",density,white,,,N009,visual,1,[],"['1', '2', '3', '4']",1,2023.2.3,harveyvisual,2.1,[],8,0.75,
0,pause,0.4,None,None,None,0,165,165,165,,,,,,,,,,,1,59.473809003829956,N009,visual,1,[],"['1', '2', '3', '4']",1,2023.2.3,harveyvisual,2.1,[],8,0.75,
9,dot,0.3,['dot'],['density'],black,0,166,166,166,,,60.50023102760315,60.22224497795105,60.52117300033569,dot,"[0.06, 0.08, 0.06, 0.1, 0.1, 0.08, 0.1, 0.1, 0.06]","[[0.5633060189111645, -0.020447411670609934], [0.24486306384976717, 0.44476630120442473], [0.18428866344346043, -0.051083701103786204], [0.30165572131442664, 0.2239114093385097], [-0.0017431279865323516, 0.11759053127645673], [0.36864926730470376, 0.029118730319846676], [0.08307425003498874, 0.31712463906399285], [0.26393370779995823, -0.24286541122091637], [0.5109425385251136, 0.2557989077594731]]",density,black,,,N009,visual,1,[],"['1', '2', '3', '4']",1,2023.2.3,harveyvisual,2.1,[],8,0.75,
0,pause,0.4,None,None,None,0,167,167,167,,,,,,,,,,,,,N009,visual,1,[],"['1', '2', '3', '4']",1,2023.2.3,harveyvisual,2.1,[],8,0.75,
8,dot,0.3,['dot'],['density'],black,0,168,168,168,,,61.20022892951965,60.9211950302124,61.22113490104675,dot,"[0.08, 0.08, 0.1, 0.08, 0.08, 0.06, 0.06, 0.08]","[[-0.2395708272612018, -0.3613018167456044], [-0.39529086986423073, -0.13116056396528103], [0.016143118738118, -0.3000453801144436], [-0.10247857353615338, 0.12176090555598315], [0.11784264820349834, -0.12422453235794288], [-0.1468533202112338, -0.18280007972172757], [-0.31504288856899026, 0.06147683711297207], [0.2614313121475242, -0.33215718180641224]]",density,black,,,N009,visual,1,[],"['1', '2', '3', '4']",1,2023.2.3,harveyvisual,2.1,[],8,0.75,
0,pause,0.4,None,None,None,0,169,169,169,,,,,,,,,,,,,N009,visual,1,[],"['1', '2', '3', '4']",1,2023.2.3,harveyvisual,2.1,[],8,0.75,
8,dot,0.3,['dot'],['density'],black,0,170,170,170,,,61.900240898132324,61.62112903594971,61.92116093635559,dot,"[0.06, 0.1, 0.06, 0.06, 0.08, 0.08, 0.06, 0.08]","[[0.4359105889063985, -0.17362457700912998], [-0.10421753759268779, -0.0599030042764737], [0.3870326705858601, 0.24174009796940588], [0.2566713073165989, 0.014561377540278508], [0.2306797840234149, -0.3263374489921181], [0.47690301692068965, 0.04601699051563034], [0.08674944532705724, -0.15383855565976665], [0.03609124925759635, 0.09790267139194009]]",density,black,,,N009,visual,1,[],"['1', '2', '3', '4']",1,2023.2.3,harveyvisual,2.1,[],8,0.75,
0,pause,0.4,None,None,None,0,171,171,171,,,,,,,,,,,,,N009,visual,1,[],"['1', '2', '3', '4']",1,2023.2.3,harveyvisual,2.1,[],8,0.75,
8,dot,0.3,['dot'],['density'],black,0,172,172,172,,,62.60024094581604,62.32115697860718,62.62111282348633,dot,"[0.1, 0.06, 0.1, 0.1, 0.1, 0.1, 0.06, 0.1]","[[-0.19427332908310624, 0.44975086906229733], [-0.40583056883657587, 0.41268852933836647], [-0.1064323235824443, 0.09134240931295125], [0.037438273390647224, 0.2873761216870531], [-0.27580465694358225, 0.2567900319995576], [0.047234249799456944, 0.4983172858691376], [0.15563182967593078, 0.1192504703698398], [-0.32834908909536226, -0.014402300111889832]]",density,black,,,N009,visual,1,[],"['1', '2', '3', '4']",1,2023.2.3,harveyvisual,2.1,[],8,0.75,
0,pause,0.4,None,None,None,0,173,173,173,,,,,,,,,,,,,N009,visual,1,[],"['1', '2', '3', '4']",1,2023.2.3,harveyvisual,2.1,[],8,0.75,
8,dot,0.3,['dot'],['density'],black,0,174,174,174,,,63.30022883415222,63.02108883857727,63.321115016937256,dot,"[0.08, 0.06, 0.06, 0.1, 0.1, 0.1, 0.08, 0.08]","[[0.4359105889063985, -0.17362457700912998], [-0.10421753759268779, -0.0599030042764737], [0.3870326705858601, 0.24174009796940588], [0.2566713073165989, 0.014561377540278508], [0.2306797840234149, -0.3263374489921181], [0.47690301692068965, 0.04601699051563034], [0.08674944532705724, -0.15383855565976665], [0.03609124925759635, 0.09790267139194009]]",density,black,,,N009,visual,1,[],"['1', '2', '3', '4']",1,2023.2.3,harveyvisual,2.1,[],8,0.75,
0,pause,0.4,None,None,None,0,175,175,175,,,,,,,,,,,,,N009,visual,1,[],"['1', '2', '3', '4']",1,2023.2.3,harveyvisual,2.1,[],8,0.75,
8,dot,0.3,['dot'],['density'],white,0,176,176,176,,,64.0002338886261,63.72115397453308,64.02111196517944,dot,"[0.08, 0.06, 0.1, 0.1, 0.06, 0.08, 0.06, 0.06]","[[-0.19469543066458847, -0.326291241472255], [0.30343637985980976, -0.10925869102227477], [-0.1969922581528186, -0.11664339975312436], [0.2570255161168456, -0.3247060146943647], [0.10684135558856425, -0.18174565546534566], [0.03482742583321104, -0.4893606045609451], [-0.015658395544436696, -0.0001692298399926468], [0.11980560642279467, 0.15585563517441894]]",density,white,,,N009,visual,1,[],"['1', '2', '3', '4']",1,2023.2.3,harveyvisual,2.1,[],8,0.75,
0,pause,0.4,None,None,None,0,177,177,177,,,,,,,,,,,1,63.533324003219604,N009,visual,1,[],"['1', '2', '3', '4']",1,2023.2.3,harveyvisual,2.1,[],8,0.75,
8,dot,0.3,['dot'],['density'],black,0,178,178,178,,,64.70023894309998,64.42105793952942,64.72109603881836,dot,"[0.06, 0.08, 0.06, 0.08, 0.08, 0.08, 0.06, 0.06]","[[-0.17382250058115215, 0.008030820220576582], [-0.5561520679887834, 0.09064024109159684], [-0.2322770524578434, -0.18818443710846813], [-0.41357291590276396, -0.2905316508268561], [-0.37423053416790164, -0.04064357687765813], [-0.014699175284411378, 0.15059198662288528], [-0.015485985535575739, -0.1348843831724925], [-0.36639977644872057, 0.228205681233079]]",density,black,,,N009,visual,1,[],"['1', '2', '3', '4']",1,2023.2.3,harveyvisual,2.1,[],8,0.75,
0,pause,0.4,None,None,None,0,179,179,179,,,,,,,,,,,,,N009,visual,1,[],"['1', '2', '3', '4']",1,2023.2.3,harveyvisual,2.1,[],8,0.75,
7,dot,0.3,['dot'],['density'],black,0,180,180,180,,,65.40023803710938,65.12212681770325,65.42103695869446,dot,"[0.1, 0.08, 0.08, 0.1, 0.06, 0.08, 0.08]","[[-0.4123410031792677, -0.32555807737620884], [-0.11281232420725038, -0.2658066965482441], [-0.16970574590124413, 0.10972852905085191], [-0.380148642061964, 0.19816541478521793], [-0.49975943015608576, -0.10400723965324657], [-0.30003386022098844, -0.09340949099572564], [-0.0679185705411078, -0.06780919729272472]]",density,black,,,N009,visual,1,[],"['1', '2', '3', '4']",1,2023.2.3,harveyvisual,2.1,[],8,0.75,
0,pause,0.4,None,None,None,0,181,181,181,,,,,,,,,,,,,N009,visual,1,[],"['1', '2', '3', '4']",1,2023.2.3,harveyvisual,2.1,[],8,0.75,
7,dot,0.3,['dot'],['density'],black,0,182,182,182,,,66.10024785995483,65.8210220336914,66.12101793289185,dot,"[0.08, 0.06, 0.1, 0.08, 0.08, 0.06, 0.1]","[[0.3474653327129969, -0.31878285251617694], [0.04167069501601444, -0.04495125607964222], [-0.05005146056072613, -0.501422524998621], [-0.11295401278341419, -0.30095052262615135], [0.08710344590613708, -0.2932726077696002], [0.25592372840254046, -0.13825923460737455], [-0.15770825932276006, -0.07757053521742455]]",density,black,,,N009,visual,1,[],"['1', '2', '3', '4']",1,2023.2.3,harveyvisual,2.1,[],8,0.75,
0,pause,0.4,None,None,None,0,183,183,183,,,,,,,,,,,,,N009,visual,1,[],"['1', '2', '3', '4']",1,2023.2.3,harveyvisual,2.1,[],8,0.75,
7,dot,0.3,['dot'],['density'],white,0,184,184,184,,,66.80023884773254,66.52103400230408,66.8231189250946,dot,"[0.06, 0.08, 0.08, 0.1, 0.06, 0.1, 0.06]","[[0.3899189512010899, -0.40728696153528776], [0.20392863561369634, -0.3305625840210526], [0.31626985815109576, 0.13567824844623666], [0.5017338684339655, -0.028549680114735937], [0.11648855723187378, -0.1078833072829627], [0.07041138378868489, 0.08730219371944997], [0.32910598476010167, -0.13660711058181768]]",density,white,,,N009,visual,1,[],"['1', '2', '3', '4']",1,2023.2.3,harveyvisual,2.1,[],8,0.75,
0,pause,0.4,None,None,None,0,185,185,185,,,,,,,,,,,1,66.39068007469177,N009,visual,1,[],"['1', '2', '3', '4']",1,2023.2.3,harveyvisual,2.1,[],8,0.75,
7,dot,0.3,['dot'],['density'],black,0,186,186,186,,,67.50023794174194,67.2213249206543,67.52522683143616,dot,"[0.08, 0.1, 0.08, 0.1, 0.1, 0.1, 0.1]","[[-0.39883248072855915, 0.30823732592088265], [-0.041341486549100435, 0.2390478988097413], [-0.013495537319202725, 0.5211111720540192], [-0.2415889716500472, 0.10795059447242317], [-0.023803066389735523, 0.02076064871433158], [0.14387498046506175, 0.3548008600093999], [-0.24331877599120405, 0.46521846842164205]]",density,black,,,N009,visual,1,[],"['1', '2', '3', '4']",1,2023.2.3,harveyvisual,2.1,[],8,0.75,
0,pause,0.4,None,None,None,0,187,187,187,,,,,,,,,,,,,N009,visual,1,[],"['1', '2', '3', '4']",1,2023.2.3,harveyvisual,2.1,[],8,0.75,
7,dot,0.3,['dot'],['density'],black,0,188,188,188,,,68.20022797584534,67.9213080406189,68.22100400924683,dot,"[0.06, 0.1, 0.1, 0.06, 0.1, 0.06, 0.1]","[[0.43636558899465056, -0.019888822856555858], [0.3422654810486562, -0.28596623187093184], [0.19265053263460555, -0.4439876245838232], [0.13726272111749335, -0.2453614523272762], [0.002381890354708078, -0.04768315945896726], [0.5336827108411983, -0.21507725682246784], [0.22437755209563529, -0.002563521851875305]]",density,black,,,N009,visual,1,[],"['1', '2', '3', '4']",1,2023.2.3,harveyvisual,2.1,[],8,0.75,
0,pause,0.4,None,None,None,0,189,189,189,,,,,,,,,,,,,N009,visual,1,[],"['1', '2', '3', '4']",1,2023.2.3,harveyvisual,2.1,[],8,0.75,
7,dot,0.3,['dot'],['density'],black,0,190,190,190,,,68.90023589134216,68.62098789215088,68.92099404335022,dot,"[0.06, 0.06, 0.08, 0.1, 0.08, 0.06, 0.06]","[[0.19245168201499255, -0.1876960705048169], [-0.3381443552002159, -0.23329338142126996], [-0.10497405195571721, -0.20200038512761503], [-0.19215049966389516, -0.01485034356210763], [-0.14804808022624072, 0.20187381879058183], [0.049390412829639754, -0.0077734514623590935], [0.08212821656350888, 0.19234027401595055]]",density,black,,,N009,visual,1,[],"['1', '2', '3', '4']",1,2023.2.3,harveyvisual,2.1,[],8,0.75,
0,pause,0.4,None,None,None,0,191,191,191,,,,,,,,,,,,,N009,visual,1,[],"['1', '2', '3', '4']",1,2023.2.3,harveyvisual,2.1,[],8,0.75,
6,dot,0.3,['dot'],['density'],white,0,192,192,192,,,69.60024094581604,69.32097697257996,69.62094783782959,dot,"[0.1, 0.08, 0.06, 0.06, 0.08, 0.1]","[[-0.25052904509636076, -0.46440103658729176], [-0.12772535636451293, 0.010821502090106766], [-0.031043743050516784, -0.3649555915866845], [-0.3754529733759062, -0.18839395716731677], [0.07378414788444272, -0.15062955699655364], [-0.17220243018048728, -0.20498996683935267]]",density,white,,,N009,visual,1,[],"['1', '2', '3', '4']",1,2023.2.3,harveyvisual,2.1,[],8,0.75,
0,pause,0.4,None,None,None,0,193,193,193,,,,,,,,,,,1,69.15401887893677,N009,visual,1,[],"['1', '2', '3', '4']",1,2023.2.3,harveyvisual,2.1,[],8,0.75,
6,dot,0.3,['dot'],['density'],black,0,194,194,194,,,70.30024194717407,70.0209789276123,70.32096004486084,dot,"[0.1, 0.08, 0.06, 0.06, 0.1, 0.1]","[[-0.06594826066790033, 0.1051940440944823], [0.15491437476435005, 0.24610541937573027], [-0.07004887042171212, 0.3755397070333221], [0.22920853754483062, 0.04629278748534093], [0.14611265926610215, 0.46549762069565603], [0.352938231914746, 0.33060025924169734]]",density,black,,,N009,visual,1,[],"['1', '2', '3', '4']",1,2023.2.3,harveyvisual,2.1,[],8,0.75,
0,pause,0.4,None,None,None,0,195,195,195,,,,,,,,,,,,,N009,visual,1,[],"['1', '2', '3', '4']",1,2023.2.3,harveyvisual,2.1,[],8,0.75,
6,dot,0.3,['dot'],['density'],black,0,196,196,196,,,71.00022602081299,70.72188401222229,71.02096199989319,dot,"[0.06, 0.08, 0.08, 0.06, 0.1, 0.06]","[[0.404576257273406, 0.0700140295133255], [0.16236872381874318, -0.0021128728600973284], [0.5529541989122894, -0.15659614737169442], [0.13702497511457395, -0.2589057080071786], [0.36740063964394665, -0.3636528069500345], [0.3132750905084481, -0.159771579268986]]",density,black,,,N009,visual,1,[],"['1', '2', '3', '4']",1,2023.2.3,harveyvisual,2.1,[],8,0.75,
0,pause,0.4,None,None,None,0,197,197,197,,,,,,,,,,,,,N009,visual,1,[],"['1', '2', '3', '4']",1,2023.2.3,harveyvisual,2.1,[],8,0.75,
6,dot,0.3,['dot'],['density'],black,0,198,198,198,,,71.70024991035461,71.42094302177429,71.72089695930481,dot,"[0.08, 0.08, 0.08, 0.08, 0.08, 0.08]","[[0.2333794889108542, 0.5108688068097712], [0.17720399199515413, 0.06488002481085814], [0.3526024925964592, 0.16961020277143707], [0.1596713132306006, 0.321837067503818], [0.0007438407140586783, 0.18344495120876914], [0.42757463853404776, 0.37786691715169374]]",density,black,,,N009,visual,1,[],"['1', '2', '3', '4']",1,2023.2.3,harveyvisual,2.1,[],8,0.75,
0,pause,0.4,None,None,None,0,199,199,199,,,,,,,,,,,,,N009,visual,1,[],"['1', '2', '3', '4']",1,2023.2.3,harveyvisual,2.1,[],8,0.75,
6,dot,0.3,['dot'],['density'],black,0,200,200,200,,,72.40022587776184,72.12086987495422,72.42088294029236,dot,"[0.06, 0.06, 0.06, 0.08, 0.1, 0.06]","[[-0.5042184434856596, 0.24959378884587158], [-0.14877643798118484, -0.059020126001740114], [-0.46546181494132466, -0.1471818588402077], [-0.26957518187208745, -0.22263810459524838], [-0.2342448443914648, 0.21754944417529726], [-0.37109182385784195, 0.03297203532481631]]",density,black,,,N009,visual,1,[],"['1', '2', '3', '4']",1,2023.2.3,harveyvisual,2.1,[],8,0.75,
0,pause,0.4,None,None,None,0,201,201,201,,,,,,,,,,,,,N009,visual,1,[],"['1', '2', '3', '4']",1,2023.2.3,harveyvisual,2.1,[],8,0.75,
6,dot,0.3,['dot'],['density'],black,0,202,202,202,,,73.10022902488708,72.8208749294281,73.12086391448975,dot,"[0.06, 0.06, 0.06, 0.06, 0.06, 0.08]","[[-0.11553075830627273, 0.47698778124428043], [-0.1112787518129194, 0.10456141670764223], [-0.48855705683845824, 0.21494657582805063], [-0.2538299919008863, 0.2532006538804931], [-0.3271837865365474, 0.4662148945367939], [0.006792750312598743, 0.27345996435494924]]",density,black,,,N009,visual,1,[],"['1', '2', '3', '4']",1,2023.2.3,harveyvisual,2.1,[],8,0.75,
0,pause,0.4,None,None,None,0,203,203,203,,,,,,,,,,,,,N009,visual,1,[],"['1', '2', '3', '4']",1,2023.2.3,harveyvisual,2.1,[],8,0.75,
5,dot,0.3,['dot'],['density'],black,0,204,204,204,,,73.80025887489319,73.52085185050964,73.82083201408386,dot,"[0.06, 0.06, 0.1, 0.06, 0.08]","[[0.14370466841446422, -0.4636309982806098], [0.2961807471193908, -0.30487684838795487], [-0.08083516471444438, -0.49823911181902014], [0.057429843216129074, -0.22123310288296744], [-0.1653320673045236, -0.3160671692815837]]",density,black,,,N009,visual,1,[],"['1', '2', '3', '4']",1,2023.2.3,harveyvisual,2.1,[],8,0.75,
0,pause,0.4,None,None,None,0,205,205,205,,,,,,,,,,,,,N009,visual,1,[],"['1', '2', '3', '4']",1,2023.2.3,harveyvisual,2.1,[],8,0.75,
5,dot,0.3,['dot'],['density'],white,0,206,206,206,,,74.50024390220642,74.22082495689392,74.5208489894867,dot,"[0.1, 0.1, 0.1, 0.06, 0.08]","[[-0.082153098152829, -0.06894165798345762], [0.016766770742065788, -0.42680196676869325], [0.2961099764235258, -0.14925166127785872], [-0.1456021726000032, -0.26669195071034546], [0.10213220283607832, -0.23321095001989858]]",density,white,,,N009,visual,1,[],"['1', '2', '3', '4']",1,2023.2.3,harveyvisual,2.1,[],8,0.75,
0,pause,0.4,None,None,None,0,207,207,207,,,,,,,,,,,1,74.09677505493164,N009,visual,1,[],"['1', '2', '3', '4']",1,2023.2.3,harveyvisual,2.1,[],8,0.75,
5,dot,0.3,['dot'],['density'],black,0,208,208,208,,,75.20023584365845,74.92082381248474,75.22078490257263,dot,"[0.1, 0.1, 0.06, 0.08, 0.08]","[[-0.0036269740154891753, 0.5431219823242713], [-0.2646325594942043, 0.5073179604697073], [-0.41902475937036154, 0.37311436690984484], [-0.007163214206743488, 0.2887893175302695], [-0.2156098228659233, 0.2684642371109035]]",density,black,,,N009,visual,1,[],"['1', '2', '3', '4']",1,2023.2.3,harveyvisual,2.1,[],8,0.75,
0,pause,0.4,None,None,None,0,209,209,209,,,,,,,,,,,,,N009,visual,1,[],"['1', '2', '3', '4']",1,2023.2.3,harveyvisual,2.1,[],8,0.75,
5,dot,0.3,['dot'],['density'],black,0,210,210,210,,,75.900230884552,75.62078285217285,75.92077398300171,dot,"[0.1, 0.08, 0.1, 0.06, 0.08]","[[-0.09836533996777486, -0.13487298234664027], [-0.39372579989196477, -0.3970332615714695], [-0.08519030630468749, -0.3439803803737387], [-0.28676510783747755, -0.22768547842943598], [-0.4191710438677135, -0.018830474544977712]]",density,black,,,N009,visual,1,[],"['1', '2', '3', '4']",1,2023.2.3,harveyvisual,2.1,[],8,0.75,
0,pause,0.4,None,None,None,0,211,211,211,,,,,,,,,,,,,N009,visual,1,[],"['1', '2', '3', '4']",1,2023.2.3,harveyvisual,2.1,[],8,0.75,
5,dot,0.3,['dot'],['density'],black,0,212,212,212,,,76.60023903846741,76.32080793380737,76.62079191207886,dot,"[0.08, 0.1, 0.08, 0.1, 0.08]","[[-0.053215572458232586, 0.27221330895143253], [0.10089702531331296, 0.1334794413224796], [0.12897289155288158, 0.4002796015157326], [0.3022660506716914, 0.02685289149411272], [0.2804295634962893, 0.24950018434757285]]",density,black,,,N009,visual,1,[],"['1', '2', '3', '4']",1,2023.2.3,harveyvisual,2.1,[],8,0.75,
0,pause,0.4,None,None,None,0,213,213,213,,,,,,,,,,,,,N009,visual,1,[],"['1', '2', '3', '4']",1,2023.2.3,harveyvisual,2.1,[],8,0.75,
5,dot,0.3,['dot'],['density'],black,0,214,214,214,,,77.30022597312927,77.02076601982117,77.32078194618225,dot,"[0.06, 0.1, 0.06, 0.08, 0.08]","[[-0.17224806752104949, 0.21128771658676965], [-0.35983128753182364, -0.1328600505582573], [-0.33716814897054914, 0.09708697582185674], [-0.044562237693599294, -0.03778919281981133], [-0.17109626387405982, -0.21732524013947077]]",density,black,,,N009,visual,1,[],"['1', '2', '3', '4']",1,2023.2.3,harveyvisual,2.1,[],8,0.75,
0,pause,0.4,None,None,None,0,215,215,215,,,,,,,,,,,,,N009,visual,1,[],"['1', '2', '3', '4']",1,2023.2.3,harveyvisual,2.1,[],8,0.75,
4,dot,0.3,['dot'],['density'],white,0,216,216,216,,,78.00023102760315,77.7216899394989,78.02076387405396,dot,"[0.06, 0.06, 0.1, 0.08]","[[0.3225849294362846, -0.13157286681700714], [0.2615083713376798, -0.38790318245483907], [0.48399895238698887, -0.2981397300552969], [0.514252162939949, -0.043630752066028525]]",density,white,,,N009,visual,1,[],"['1', '2', '3', '4']",1,2023.2.3,harveyvisual,2.1,[],8,0.75,
0,pause,0.4,None,None,None,0,217,217,217,,,,,,,,,,,1,77.5220239162445,N009,visual,1,[],"['1', '2', '3', '4']",1,2023.2.3,harveyvisual,2.1,[],8,0.75,
4,dot,0.3,['dot'],['density'],black,0,218,218,218,,,78.7002420425415,78.42074489593506,78.7207579612732,dot,"[0.1, 0.06, 0.1, 0.1]","[[-0.34940937311115045, -0.11648702989399858], [-0.2695829051223266, -0.4589438614516443], [-0.4698604504367728, -0.3018413850444449], [-0.18849712946501163, -0.26902343222239633]]",density,black,,,N009,visual,1,[],"['1', '2', '3', '4']",1,2023.2.3,harveyvisual,2.1,[],8,0.75,
0,pause,0.4,None,None,None,0,219,219,219,,,,,,,,,,,,,N009,visual,1,[],"['1', '2', '3', '4']",1,2023.2.3,harveyvisual,2.1,[],8,0.75,
4,dot,0.3,['dot'],['density'],black,0,220,220,220,,,79.400221824646,79.12076091766357,79.42074203491211,dot,"[0.06, 0.08, 0.06, 0.1]","[[-0.2516773625496151, -0.30151264897341506], [-0.16747001932966935, -0.11477707456203952], [0.007305472957725734, -0.4586877449884055], [0.017540980065453668, -0.20354321808263612]]",density,black,,,N009,visual,1,[],"['1', '2', '3', '4']",1,2023.2.3,harveyvisual,2.1,[],8,0.75,
0,pause,0.4,None,None,None,0,221,221,221,,,,,,,,,,,,,N009,visual,1,[],"['1', '2', '3', '4']",1,2023.2.3,harveyvisual,2.1,[],8,0.75,
4,dot,0.3,['dot'],['density'],black,0,222,222,222,,,80.10024285316467,79.82069802284241,80.12066984176636,dot,"[0.06, 0.08, 0.06, 0.08]","[[-0.045256114861740894, 0.2798656300268403], [-0.02131053084637037, 0.4849425601475732], [0.17666180860848907, 0.34430389164600056], [0.0747630441556118, 0.10387908342824508]]",density,black,,,N009,visual,1,[],"['1', '2', '3', '4']",1,2023.2.3,harveyvisual,2.1,[],8,0.75,
0,pause,0.4,None,None,None,0,223,223,223,,,,,,,,,,,,,N009,visual,1,[],"['1', '2', '3', '4']",1,2023.2.3,harveyvisual,2.1,[],8,0.75,
4,dot,0.3,['dot'],['density'],black,0,224,224,224,,,80.80024290084839,80.52066397666931,80.82065296173096,dot,"[0.06, 0.08, 0.08, 0.1]","[[-0.035956560563939345, -0.32709283091503677], [-0.2190429995428959, -0.2035699502326352], [-0.06992348234594314, -0.5664776463754845], [-0.220471277594294, -0.41208836036752056]]",density,black,,,N009,visual,1,[],"['1', '2', '3', '4']",1,2023.2.3,harveyvisual,2.1,[],8,0.75,
0,pause,0.4,None,None,None,0,225,225,225,,,,,,,,,,,,,N009,visual,1,[],"['1', '2', '3', '4']",1,2023.2.3,harveyvisual,2.1,[],8,0.75,
4,dot,0.3,['dot'],['density'],black,0,226,226,226,,,81.50022387504578,81.22067904472351,81.52062797546387,dot,"[0.08, 0.1, 0.06, 0.1]","[[-0.5372831058023291, 0.07679305146548565], [-0.47746952625478134, -0.11455356156484316], [-0.2888199447118168, 0.02804534169422597], [-0.3317661241759115, -0.2533775510137967]]",density,black,,,N009,visual,1,[],"['1', '2', '3', '4']",1,2023.2.3,harveyvisual,2.1,[],8,0.75,
0,pause,0.4,None,None,None,0,227,227,227,,,,,,,,,,,,,N009,visual,1,[],"['1', '2', '3', '4']",1,2023.2.3,harveyvisual,2.1,[],8,0.75,
3,dot,0.3,['dot'],['density'],white,0,228,228,228,,,82.2002420425415,81.92069101333618,82.22064685821533,dot,"[0.08, 0.08, 0.06]","[[0.16698284004709638, 0.14340522813657522], [0.014382160343152013, -0.0120418799203457], [0.17626274868444566, -0.13037823744598942]]",density,white,,,N009,visual,1,[],"['1', '2', '3', '4']",1,2023.2.3,harveyvisual,2.1,[],8,0.75,
0,pause,0.4,None,None,None,0,229,229,229,,,,,,,,,,,1,81.75352311134338,N009,visual,1,[],"['1', '2', '3', '4']",1,2023.2.3,harveyvisual,2.1,[],8,0.75,
3,dot,0.3,['dot'],['density'],black,0,230,230,230,,,82.90023899078369,82.62062287330627,82.9206190109253,dot,"[0.1, 0.08, 0.1]","[[-0.09236249555143743, 0.14437879021360575], [0.06053771141254397, 0.008702735453236923], [-0.17336599953316903, -0.04113967592870183]]",density,black,,,N009,visual,1,[],"['1', '2', '3', '4']",1,2023.2.3,harveyvisual,2.1,[],8,0.75,
0,pause,0.4,None,None,None,0,231,231,231,,,,,,,,,,,,,N009,visual,1,[],"['1', '2', '3', '4']",1,2023.2.3,harveyvisual,2.1,[],8,0.75,
3,dot,0.3,['dot'],['density'],white,0,232,232,232,,,83.60025191307068,83.32065296173096,83.62067294120789,dot,"[0.1, 0.08, 0.1]","[[0.2656832518280197, 0.0014864193765316018], [0.3503107158811183, -0.1826455867164705], [0.5188928509039705, -0.04177453376365527]]",density,white,,,N009,visual,1,[],"['1', '2', '3', '4']",1,2023.2.3,harveyvisual,2.1,[],8,0.75,
0,pause,0.4,None,None,None,0,233,233,233,,,,,,,,,,,1,83.23377799987793,N009,visual,1,[],"['1', '2', '3', '4']",1,2023.2.3,harveyvisual,2.1,[],8,0.75,
3,dot,0.3,['dot'],['density'],black,0,234,234,234,,,84.30024981498718,84.02059984207153,84.32058691978455,dot,"[0.08, 0.06, 0.08]","[[-0.32624451712468355, -0.43854848545497693], [-0.39409142490376414, -0.22516425170789148], [-0.152352104904091, -0.33204091051628687]]",density,black,,,N009,visual,1,[],"['1', '2', '3', '4']",1,2023.2.3,harveyvisual,2.1,[],8,0.75,
0,pause,0.4,None,None,None,0,235,235,235,,,,,,,,,,,,,N009,visual,1,[],"['1', '2', '3', '4']",1,2023.2.3,harveyvisual,2.1,[],8,0.75,
3,dot,0.3,['dot'],['density'],black,0,236,236,236,,,85.00022888183594,84.72057104110718,85.02381992340088,dot,"[0.06, 0.1, 0.08]","[[-0.5649268285189266, -0.02945458741690218], [-0.36332336008090005, 0.05160617148840915], [-0.5004673786076542, 0.20230308468415367]]",density,black,,,N009,visual,1,[],"['1', '2', '3', '4']",1,2023.2.3,harveyvisual,2.1,[],8,0.75,
0,pause,0.4,None,None,None,0,237,237,237,,,,,,,,,,,,,N009,visual,1,[],"['1', '2', '3', '4']",1,2023.2.3,harveyvisual,2.1,[],8,0.75,
3,dot,0.3,['dot'],['density'],black,0,238,238,238,,,85.70024394989014,85.4205539226532,85.72055888175964,dot,"[0.06, 0.06, 0.1]","[[-0.5649268285189266, -0.02945458741690218], [-0.36332336008090005, 0.05160617148840915], [-0.5004673786076542, 0.20230308468415367]]",density,black,,,N009,visual,1,[],"['1', '2', '3', '4']",1,2023.2.3,harveyvisual,2.1,[],8,0.75,
0,pause,0.4,None,None,None,0,239,239,239,,,,,,,,,,,,,N009,visual,1,[],"['1', '2', '3', '4']",1,2023.2.3,harveyvisual,2.1,[],8,0.75,
2,dot,0.3,['dot'],['density'],black,0,240,240,240,,,86.40024089813232,86.12160086631775,86.42051982879639,dot,"[0.06, 0.1]","[[0.07059805578258149, -0.2458188734665979], [0.058763118304238846, -0.4455693812784497]]",density,black,,,N009,visual,1,[],"['1', '2', '3', '4']",1,2023.2.3,harveyvisual,2.1,[],8,0.75,
0,pause,0.4,None,None,None,0,241,241,241,,,,,,,,,,,,,N009,visual,1,[],"['1', '2', '3', '4']",1,2023.2.3,harveyvisual,2.1,[],8,0.75,
2,dot,0.3,['dot'],['density'],black,0,242,242,242,,,87.100252866745,86.82053899765015,87.12049984931946,dot,"[0.08, 0.08]","[[0.5159928458027473, 0.13749655768121952], [0.38343727829172375, 0.28833164788761484]]",density,black,,,N009,visual,1,[],"['1', '2', '3', '4']",1,2023.2.3,harveyvisual,2.1,[],8,0.75,
0,pause,0.4,None,None,None,0,243,243,243,,,,,,,,,,,,,N009,visual,1,[],"['1', '2', '3', '4']",1,2023.2.3,harveyvisual,2.1,[],8,0.75,
2,dot,0.3,['dot'],['density'],white,0,244,244,244,,,87.80024600028992,87.50513100624084,87.82154583930969,dot,"[0.08, 0.08]","[[0.4298854344354601, 0.24556028782034023], [0.23727674624932948, 0.18886586315459258]]",density,white,,,N009,visual,1,[],"['1', '2', '3', '4']",1,2023.2.3,harveyvisual,2.1,[],8,0.75,
0,pause,0.4,None,None,None,0,245,245,245,,,,,,,,,,,1,87.3362729549408,N009,visual,1,[],"['1', '2', '3', '4']",1,2023.2.3,harveyvisual,2.1,[],8,0.75,
2,dot,0.3,['dot'],['density'],black,0,246,246,246,,,88.50022792816162,88.2205138206482,88.52052903175354,dot,"[0.08, 0.1]","[[-0.19266755722762574, -0.036106715323925336], [-0.096675332858716, 0.13967695308521302]]",density,black,,,N009,visual,1,[],"['1', '2', '3', '4']",1,2023.2.3,harveyvisual,2.1,[],8,0.75,
0,pause,0.4,None,None,None,0,247,247,247,,,,,,,,,,,,,N009,visual,1,[],"['1', '2', '3', '4']",1,2023.2.3,harveyvisual,2.1,[],8,0.75,
2,dot,0.3,['dot'],['density'],black,0,248,248,248,,,89.20024299621582,88.92300391197205,89.22045087814331,dot,"[0.08, 0.08]","[[-0.20887660672828282, 0.3399455197969581], [-0.34272369919491674, 0.19089688818271272]]",density,black,,,N009,visual,1,[],"['1', '2', '3', '4']",1,2023.2.3,harveyvisual,2.1,[],8,0.75,
0,pause,0.4,None,None,None,0,249,249,249,,,,,,,,,,,,,N009,visual,1,[],"['1', '2', '3', '4']",1,2023.2.3,harveyvisual,2.1,[],8,0.75,
2,dot,0.3,['dot'],['density'],black,0,250,250,250,,,89.90023684501648,89.62048697471619,89.92048597335815,dot,"[0.1, 0.1]","[[0.11437717294043931, -0.408092871188616], [0.012734947149558614, -0.23578585574018435]]",density,black,,,N009,visual,1,[],"['1', '2', '3', '4']",1,2023.2.3,harveyvisual,2.1,[],8,0.75,
0,pause,0.4,None,None,None,0,251,251,251,,,,,,,,,,,,,N009,visual,1,[],"['1', '2', '3', '4']",1,2023.2.3,harveyvisual,2.1,[],8,0.75,
1,dot,0.3,['dot'],['density'],black,0,252,252,252,,,90.60024690628052,90.3036789894104,90.62040090560913,dot,[0.06],"[-0.2532192430475575, -0.5275431624831907]",density,black,,,N009,visual,1,[],"['1', '2', '3', '4']",1,2023.2.3,harveyvisual,2.1,[],8,0.75,
0,pause,0.4,None,None,None,0,253,253,253,,,,,,,,,,,,,N009,visual,1,[],"['1', '2', '3', '4']",1,2023.2.3,harveyvisual,2.1,[],8,0.75,
1,dot,0.3,['dot'],['density'],black,0,254,254,254,,,91.30023002624512,91.00481104850769,91.32043600082397,dot,[0.06],"[0.14557363600905707, -0.03994760510263185]",density,black,,,N009,visual,1,[],"['1', '2', '3', '4']",1,2023.2.3,harveyvisual,2.1,[],8,0.75,
0,pause,0.4,None,None,None,0,255,255,255,,,,,,,,,,,,,N009,visual,1,[],"['1', '2', '3', '4']",1,2023.2.3,harveyvisual,2.1,[],8,0.75,
1,dot,0.3,['dot'],['density'],black,0,256,256,256,,,92.00025391578674,91.70378994941711,92.02036595344543,dot,[0.06],"[-0.40242150741388927, 0.27329756427278695]",density,black,,,N009,visual,1,[],"['1', '2', '3', '4']",1,2023.2.3,harveyvisual,2.1,[],8,0.75,
0,pause,0.4,None,None,None,0,257,257,257,,,,,,,,,,,,,N009,visual,1,[],"['1', '2', '3', '4']",1,2023.2.3,harveyvisual,2.1,[],8,0.75,
1,dot,0.3,['dot'],['density'],black,0,258,258,258,,,92.70025086402893,92.42035603523254,92.72148299217224,dot,[0.1],"[-0.13294789447644317, -0.0050084293737640015]",density,black,,,N009,visual,1,[],"['1', '2', '3', '4']",1,2023.2.3,harveyvisual,2.1,[],8,0.75,
0,pause,0.4,None,None,None,0,259,259,259,,,,,,,,,,,,,N009,visual,1,[],"['1', '2', '3', '4']",1,2023.2.3,harveyvisual,2.1,[],8,0.75,
1,dot,0.3,['dot'],['density'],black,0,260,260,260,,,93.40022802352905,93.103600025177,93.42033791542053,dot,[0.08],"[0.0956549371127339, 0.09579573331985794]",density,black,,,N009,visual,1,[],"['1', '2', '3', '4']",1,2023.2.3,harveyvisual,2.1,[],8,0.75,
0,pause,0.4,None,None,None,0,261,261,261,,,,,,,,,,,,,N009,visual,1,[],"['1', '2', '3', '4']",1,2023.2.3,harveyvisual,2.1,[],8,0.75,
1,dot,0.3,['dot'],['density'],black,0,262,262,262,,,94.1002368927002,93.8036208152771,94.12033891677856,dot,[0.06],"[-0.43105706563061386, -0.18359692062194616]",density,black,,,N009,visual,1,[],"['1', '2', '3', '4']",1,2023.2.3,harveyvisual,2.1,[],8,0.75,
0,pause,0.4,None,None,None,0,263,263,263,,,,,,,,,,,,,N009,visual,1,[],"['1', '2', '3', '4']",1,2023.2.3,harveyvisual,2.1,[],8,0.75,
20,dot,0.3,['dot'],['density'],white,0,264,264,264,,,94.80024695396423,94.52145290374756,94.82032084465027,dot,"[0.08, 0.06, 0.1, 0.1, 0.06, 0.08, 0.06, 0.1, 0.08, 0.06, 0.08, 0.06, 0.08, 0.06, 0.08, 0.1, 0.08, 0.08, 0.1, 0.08]","[[0.2194435761842496, -0.05279032111315829], [-0.5600000566300963, -0.0223370952703921], [0.40691607141929065, -0.4272867769956788], [0.09127300517164683, -0.5248865396507391], [0.5883127772009674, -0.05988816810465532], [0.47071664695855653, 0.16121238677659538], [-0.2405857792793572, 0.0818920440778097], [-0.26377915938310875, -0.31237085727338], [-0.48259198466804676, 0.2604880726788691], [0.3415638636321713, -0.21274871754743513], [0.06209685611096638, 0.10165209921432972], [-0.5395378876402234, -0.2724065945555749], [-0.03755702738073696, 0.3440225432186349], [-0.27420726667718054, 0.2971580061756328], [-0.06125151184919786, -0.052505850351893035], [0.04917935143700081, -0.2432573227956401], [0.5413208793097734, -0.26592491327720374], [0.11865692392273408, 0.5496785860478551], [-0.2664366387893757, -0.5314873145457988], [0.3567185517380528, 0.4585614933277905]]",density,white,,,N009,visual,1,[],"['1', '2', '3', '4']",1,2023.2.3,harveyvisual,2.1,[],8,0.75,
0,pause,0.4,None,None,None,0,265,265,265,,,,,,,,,,,1,94.34006810188293,N009,visual,1,[],"['1', '2', '3', '4']",1,2023.2.3,harveyvisual,2.1,[],8,0.75,
20,dot,0.3,['dot'],['density'],black,0,266,266,266,,,95.50025081634521,95.22029900550842,95.52027988433838,dot,"[0.1, 0.1, 0.08, 0.1, 0.08, 0.06, 0.1, 0.1, 0.08, 0.1, 0.06, 0.08, 0.06, 0.06, 0.1, 0.06, 0.06, 0.08, 0.1, 0.1]","[[0.5984726106327211, 0.08420323802235363], [-0.07456907550085012, -0.26168295561284444], [0.497142161135148, -0.09072041001656522], [-0.45404361593953846, -0.058762268662973405], [0.028189070423611184, 0.4956771015548628], [0.3005410462659788, 0.4593142060815377], [-0.3903488152058615, 0.14316715848038014], [-0.36307364476590653, -0.2737079028291043], [0.1301942389532491, -0.20544915291884747], [0.3731099992951046, -0.30836027748339623], [-0.24953988727346732, -0.11336063711081923], [0.1623883497291969, -0.5671730459423003], [0.404344498684193, 0.24447805335138711], [0.07849085857517812, 0.1905553118392801], [-0.08357320429170845, 0.0695614629507807], [-0.1913374664223284, 0.23724731821942513], [-0.2664322859710635, -0.4749326620220603], [-0.06940296629907838, -0.548078156954447], [0.31227026768510235, 0.044474138104450556], [-0.47211832898263695, 0.3154139894880588]]",density,black,,,N009,visual,1,[],"['1', '2', '3', '4']",1,2023.2.3,harveyvisual,2.1,[],8,0.75,
0,pause,0.4,None,None,None,0,267,267,267,,,,,,,,,,,,,N009,visual,1,[],"['1', '2', '3', '4']",1,2023.2.3,harveyvisual,2.1,[],8,0.75,
