num,mod,duration,shape,ll_cond,colors,.thisRepN,.thisTrialN,.thisN,.thisIndex,thisRow.t,notes,raw_global_time,t_start,t_stop,shapes,size,pos,cond,color,button,RT,participant,session,starting_run,left button (match/odd),right button (non-match/even),samples_per_block,psychopy version,expName,offset,audio,number_runs,radius,
1,dot,0.3,['dot'],['density'],black,0,0,0,0,,,2.400212049484253,2.1147620677948,2.41469407081604,dot,[0.1],"[-0.4309303250570785, -0.37878052449928096]",density,black,,,N009,visual,1,[],"['1', '2', '3', '4']",1,2023.2.3,harveyvisual,2.1,[],8,0.75,
0,pause,0.4,None,None,None,0,1,1,1,,,,,,,,,,,,,N009,visual,1,[],"['1', '2', '3', '4']",1,2023.2.3,harveyvisual,2.1,[],8,0.75,
1,dot,0.3,['dot'],['density'],black,0,2,2,2,,,3.1002120971679688,2.8146800994873047,3.1151680946350098,dot,[0.08],"[-0.00037526000000685745, -0.027921386894572527]",density,black,,,N009,visual,1,[],"['1', '2', '3', '4']",1,2023.2.3,harveyvisual,2.1,[],8,0.75,
0,pause,0.4,None,None,None,0,3,3,3,,,,,,,,,,,,,N009,visual,1,[],"['1', '2', '3', '4']",1,2023.2.3,harveyvisual,2.1,[],8,0.75,
1,dot,0.3,['dot'],['density'],black,0,4,4,4,,,3.800215005874634,3.5151619911193848,3.815150022506714,dot,[0.06],"[0.0038807231877187303, -0.2777732366953785]",density,black,,,N009,visual,1,[],"['1', '2', '3', '4']",1,2023.2.3,harveyvisual,2.1,[],8,0.75,
0,pause,0.4,None,None,None,0,5,5,5,,,,,,,,,,,,,N009,visual,1,[],"['1', '2', '3', '4']",1,2023.2.3,harveyvisual,2.1,[],8,0.75,
1,dot,0.3,['dot'],['density'],white,0,6,6,6,,,4.500201940536499,4.215140104293823,4.515130996704102,dot,[0.1],"[-0.48958603946102763, 0.32731293615049173]",density,white,,,N009,visual,1,[],"['1', '2', '3', '4']",1,2023.2.3,harveyvisual,2.1,[],8,0.75,
0,pause,0.4,None,None,None,0,7,7,7,,,,,,,,,,,1,4.535780906677246,N009,visual,1,[],"['1', '2', '3', '4']",1,2023.2.3,harveyvisual,2.1,[],8,0.75,
1,dot,0.3,['dot'],['density'],black,0,8,8,8,,,5.200203895568848,4.915119886398315,5.215138912200928,dot,[0.06],"[-0.00037526000000685745, -0.027921386894572527]",density,black,,,N009,visual,1,[],"['1', '2', '3', '4']",1,2023.2.3,harveyvisual,2.1,[],8,0.75,
0,pause,0.4,None,None,None,0,9,9,9,,,,,,,,,,,,,N009,visual,1,[],"['1', '2', '3', '4']",1,2023.2.3,harveyvisual,2.1,[],8,0.75,
1,dot,0.3,['dot'],['density'],black,0,10,10,10,,,5.900224924087524,5.615235090255737,5.9174299240112305,dot,[0.1],"[0.31457923939875737, -0.4122609730770665]",density,black,,,N009,visual,1,[],"['1', '2', '3', '4']",1,2023.2.3,harveyvisual,2.1,[],8,0.75,
0,pause,0.4,None,None,None,0,11,11,11,,,,,,,,,,,,,N009,visual,1,[],"['1', '2', '3', '4']",1,2023.2.3,harveyvisual,2.1,[],8,0.75,
2,dot,0.3,['dot'],['density'],black,0,12,12,12,,,6.600197076797485,6.3174169063568115,6.61742091178894,dot,"[0.06, 0.06]","[[-0.16440981108753766, 0.5378091218652469], [-0.08422838651173449, 0.35445914222875186]]",density,black,,,N009,visual,1,[],"['1', '2', '3', '4']",1,2023.2.3,harveyvisual,2.1,[],8,0.75,
0,pause,0.4,None,None,None,0,13,13,13,,,,,,,,,,,,,N009,visual,1,[],"['1', '2', '3', '4']",1,2023.2.3,harveyvisual,2.1,[],8,0.75,
2,dot,0.3,['dot'],['density'],black,0,14,14,14,,,7.300215005874634,7.01740288734436,7.3173909187316895,dot,"[0.08, 0.08]","[[-0.4579128382498026, -0.013317831223324628], [-0.28624676016543393, -0.11681778735554697]]",density,black,,,N009,visual,1,[],"['1', '2', '3', '4']",1,2023.2.3,harveyvisual,2.1,[],8,0.75,
0,pause,0.4,None,None,None,0,15,15,15,,,,,,,,,,,,,N009,visual,1,[],"['1', '2', '3', '4']",1,2023.2.3,harveyvisual,2.1,[],8,0.75,
2,dot,0.3,['dot'],['density'],black,0,16,16,16,,,8.000216007232666,7.717387914657593,8.01739501953125,dot,"[0.06, 0.08]","[[0.09481659993656301, 0.43631713998557026], [0.0662189159667295, 0.23745101446818795]]",density,black,,,N009,visual,1,[],"['1', '2', '3', '4']",1,2023.2.3,harveyvisual,2.1,[],8,0.75,
0,pause,0.4,None,None,None,0,17,17,17,,,,,,,,,,,,,N009,visual,1,[],"['1', '2', '3', '4']",1,2023.2.3,harveyvisual,2.1,[],8,0.75,
2,dot,0.3,['dot'],['density'],black,0,18,18,18,,,8.700221061706543,8.417367935180664,8.717353105545044,dot,"[0.1, 0.1]","[[0.07059805578258149, -0.2458188734665979], [0.058763118304238846, -0.4455693812784497]]",density,black,,,N009,visual,1,[],"['1', '2', '3', '4']",1,2023.2.3,harveyvisual,2.1,[],8,0.75,
0,pause,0.4,None,None,None,0,19,19,19,,,,,,,,,,,,,N009,visual,1,[],"['1', '2', '3', '4']",1,2023.2.3,harveyvisual,2.1,[],8,0.75,
2,dot,0.3,['dot'],['density'],black,0,20,20,20,,,9.400214910507202,9.117352962493896,9.41734504699707,dot,"[0.08, 0.1]","[[0.4162662019019998, 0.09129510669171749], [0.33420900269466314, 0.27427456354974017]]",density,black,,,N009,visual,1,[],"['1', '2', '3', '4']",1,2023.2.3,harveyvisual,2.1,[],8,0.75,
0,pause,0.4,None,None,None,0,21,21,21,,,,,,,,,,,,,N009,visual,1,[],"['1', '2', '3', '4']",1,2023.2.3,harveyvisual,2.1,[],8,0.75,
2,dot,0.3,['dot'],['density'],black,0,22,22,22,,,10.100203037261963,9.817333936691284,10.117326021194458,dot,"[0.06, 0.08]","[[-0.21141336561075566, 0.4273762957479495], [-0.1407142259739198, 0.23984948612333498]]",density,black,,,N009,visual,1,[],"['1', '2', '3', '4']",1,2023.2.3,harveyvisual,2.1,[],8,0.75,
0,pause,0.4,None,None,None,0,23,23,23,,,,,,,,,,,,,N009,visual,1,[],"['1', '2', '3', '4']",1,2023.2.3,harveyvisual,2.1,[],8,0.75,
3,dot,0.3,['dot'],['density'],black,0,24,24,24,,,10.800218105316162,10.5190908908844,10.817308902740479,dot,"[0.08, 0.06, 0.1]","[[-0.05604225559701161, -0.5082314702914299], [0.10137377066920354, -0.3837858820064252], [-0.12802807887251882, -0.3142638921214105]]",density,black,,,N009,visual,1,[],"['1', '2', '3', '4']",1,2023.2.3,harveyvisual,2.1,[],8,0.75,
0,pause,0.4,None,None,None,0,25,25,25,,,,,,,,,,,,,N009,visual,1,[],"['1', '2', '3', '4']",1,2023.2.3,harveyvisual,2.1,[],8,0.75,
3,dot,0.3,['dot'],['density'],black,0,26,26,26,,,11.500211954116821,11.217302083969116,11.517282009124756,dot,"[0.1, 0.08, 0.1]","[[-0.3391924794566746, 0.43027756448319565], [-0.33080415183405026, 0.2112686575961512], [-0.14277619127331137, 0.29962579604826906]]",density,black,,,N009,visual,1,[],"['1', '2', '3', '4']",1,2023.2.3,harveyvisual,2.1,[],8,0.75,
0,pause,0.4,None,None,None,0,27,27,27,,,,,,,,,,,,,N009,visual,1,[],"['1', '2', '3', '4']",1,2023.2.3,harveyvisual,2.1,[],8,0.75,
3,dot,0.3,['dot'],['density'],black,0,28,28,28,,,12.200201988220215,11.917279958724976,12.217264890670776,dot,"[0.1, 0.1, 0.06]","[[0.315495050057846, 0.10724904305018564], [0.5180852452909619, 0.013799590611742229], [0.3819545826159732, -0.1334380777916547]]",density,black,,,N009,visual,1,[],"['1', '2', '3', '4']",1,2023.2.3,harveyvisual,2.1,[],8,0.75,
0,pause,0.4,None,None,None,0,29,29,29,,,,,,,,,,,,,N009,visual,1,[],"['1', '2', '3', '4']",1,2023.2.3,harveyvisual,2.1,[],8,0.75,
3,dot,0.3,['dot'],['density'],black,0,30,30,30,,,12.900198936462402,12.617264032363892,12.917260885238647,dot,"[0.06, 0.1, 0.08]","[[0.4995185571857965, 0.14229679706320136], [0.2944600495073675, 0.23335097983198633], [0.330752226915583, 0.0299241169750933]]",density,black,,,N009,visual,1,[],"['1', '2', '3', '4']",1,2023.2.3,harveyvisual,2.1,[],8,0.75,
0,pause,0.4,None,None,None,0,31,31,31,,,,,,,,,,,,,N009,visual,1,[],"['1', '2', '3', '4']",1,2023.2.3,harveyvisual,2.1,[],8,0.75,
3,dot,0.3,['dot'],['density'],black,0,32,32,32,,,13.600208044052124,13.317256927490234,13.617244958877563,dot,"[0.08, 0.06, 0.06]","[[-0.04083818552357515, -0.522177599776496], [0.2241586230204485, -0.5188142294055383], [0.09506152973916207, -0.364648334381489]]",density,black,,,N009,visual,1,[],"['1', '2', '3', '4']",1,2023.2.3,harveyvisual,2.1,[],8,0.75,
0,pause,0.4,None,None,None,0,33,33,33,,,,,,,,,,,,,N009,visual,1,[],"['1', '2', '3', '4']",1,2023.2.3,harveyvisual,2.1,[],8,0.75,
3,dot,0.3,['dot'],['density'],black,0,34,34,34,,,14.300223112106323,14.017230987548828,14.317207098007202,dot,"[0.1, 0.1, 0.1]","[[-0.05604225559701161, -0.5082314702914299], [0.10137377066920354, -0.3837858820064252], [-0.12802807887251882, -0.3142638921214105]]",density,black,,,N009,visual,1,[],"['1', '2', '3', '4']",1,2023.2.3,harveyvisual,2.1,[],8,0.75,
0,pause,0.4,None,None,None,0,35,35,35,,,,,,,,,,,,,N009,visual,1,[],"['1', '2', '3', '4']",1,2023.2.3,harveyvisual,2.1,[],8,0.75,
4,dot,0.3,['dot'],['density'],black,0,36,36,36,,,15.000201940536499,14.717211961746216,15.017201900482178,dot,"[0.06, 0.06, 0.1, 0.08]","[[0.28769160010247724, 0.4706884012140322], [0.03735362687931127, 0.4645781312677133], [0.33102019499247487, 0.1847810932959147], [0.1685132699603264, 0.30497059043407926]]",density,black,,,N009,visual,1,[],"['1', '2', '3', '4']",1,2023.2.3,harveyvisual,2.1,[],8,0.75,
0,pause,0.4,None,None,None,0,37,37,37,,,,,,,,,,,,,N009,visual,1,[],"['1', '2', '3', '4']",1,2023.2.3,harveyvisual,2.1,[],8,0.75,
4,dot,0.3,['dot'],['density'],black,0,38,38,38,,,15.700198888778687,15.41718602180481,15.717180967330933,dot,"[0.06, 0.1, 0.1, 0.06]","[[0.13421512820946938, -0.5336194340609706], [0.2622623892029083, -0.3575253733063478], [0.024533045116508903, -0.3376850530006363], [0.166924465117498, -0.0963569090623874]]",density,black,,,N009,visual,1,[],"['1', '2', '3', '4']",1,2023.2.3,harveyvisual,2.1,[],8,0.75,
0,pause,0.4,None,None,None,0,39,39,39,,,,,,,,,,,,,N009,visual,1,[],"['1', '2', '3', '4']",1,2023.2.3,harveyvisual,2.1,[],8,0.75,
4,dot,0.3,['dot'],['density'],white,0,40,40,40,,,16.40020990371704,16.117175102233887,16.417160987854004,dot,"[0.08, 0.08, 0.1, 0.1]","[[0.3428963381299033, -0.004396565162037705], [0.42558881424794154, 0.18301493672810298], [0.5687630200397232, 0.01721079717795714], [0.4301208405972816, -0.23499851958356296]]",density,white,,,N009,visual,1,[],"['1', '2', '3', '4']",1,2023.2.3,harveyvisual,2.1,[],8,0.75,
0,pause,0.4,None,None,None,0,41,41,41,,,,,,,,,,,1,16.45327091217041,N009,visual,1,[],"['1', '2', '3', '4']",1,2023.2.3,harveyvisual,2.1,[],8,0.75,
4,dot,0.3,['dot'],['density'],black,0,42,42,42,,,17.100215911865234,16.81715202331543,17.117132902145386,dot,"[0.06, 0.08, 0.1, 0.1]","[[-0.43942495523079517, -0.22401056498097033], [-0.009260832099230759, -0.1633376679159051], [-0.21598309108097546, -0.10172603009605206], [-0.2278206133413005, -0.33154874685782076]]",density,black,,,N009,visual,1,[],"['1', '2', '3', '4']",1,2023.2.3,harveyvisual,2.1,[],8,0.75,
0,pause,0.4,None,None,None,0,43,43,43,,,,,,,,,,,,,N009,visual,1,[],"['1', '2', '3', '4']",1,2023.2.3,harveyvisual,2.1,[],8,0.75,
4,dot,0.3,['dot'],['density'],black,0,44,44,44,,,17.80020499229431,17.51713991165161,17.817126035690308,dot,"[0.08, 0.1, 0.1, 0.08]","[[-0.3884818304242726, 0.11421243679268873], [-0.11472928134965246, -0.13141119473891247], [-0.1657593024508462, 0.13368900033666462], [-0.36655717599886073, -0.10387254737714131]]",density,black,,,N009,visual,1,[],"['1', '2', '3', '4']",1,2023.2.3,harveyvisual,2.1,[],8,0.75,
0,pause,0.4,None,None,None,0,45,45,45,,,,,,,,,,,,,N009,visual,1,[],"['1', '2', '3', '4']",1,2023.2.3,harveyvisual,2.1,[],8,0.75,
4,dot,0.3,['dot'],['density'],black,0,46,46,46,,,18.50019907951355,18.217119932174683,18.5171160697937,dot,"[0.08, 0.08, 0.06, 0.06]","[[-0.22375678750486633, 0.16938766720995918], [-0.03438308412182927, 0.2632029670309489], [0.15312837370161694, 0.1265605786946886], [-0.035433382102469414, 0.014828983441921377]]",density,black,,,N009,visual,1,[],"['1', '2', '3', '4']",1,2023.2.3,harveyvisual,2.1,[],8,0.75,
0,pause,0.4,None,None,None,0,47,47,47,,,,,,,,,,,,,N009,visual,1,[],"['1', '2', '3', '4']",1,2023.2.3,harveyvisual,2.1,[],8,0.75,
5,dot,0.3,['dot'],['density'],black,0,48,48,48,,,19.2002010345459,18.917115926742554,19.217103004455566,dot,"[0.06, 0.08, 0.1, 0.1, 0.06]","[[-0.006164932418690097, -0.4528126201229341], [-0.1681524682570009, -0.11721653268637569], [-0.1959903964051736, -0.3710708837277218], [0.03544926667602863, -0.1302589477940128], [0.16830580561999814, -0.32298356607012285]]",density,black,,,N009,visual,1,[],"['1', '2', '3', '4']",1,2023.2.3,harveyvisual,2.1,[],8,0.75,
0,pause,0.4,None,None,None,0,49,49,49,,,,,,,,,,,,,N009,visual,1,[],"['1', '2', '3', '4']",1,2023.2.3,harveyvisual,2.1,[],8,0.75,
5,dot,0.3,['dot'],['density'],black,0,50,50,50,,,19.900222063064575,19.617101907730103,19.91708493232727,dot,"[0.06, 0.08, 0.1, 0.1, 0.08]","[[-0.19096480170835262, 0.2202776521134577], [0.009488999043989208, 0.5721548226574139], [0.16477125949827795, 0.3732973518003487], [0.07476286221063107, 0.1476230553836633], [-0.051949696108355745, 0.36609537475325354]]",density,black,,,N009,visual,1,[],"['1', '2', '3', '4']",1,2023.2.3,harveyvisual,2.1,[],8,0.75,
0,pause,0.4,None,None,None,0,51,51,51,,,,,,,,,,,,,N009,visual,1,[],"['1', '2', '3', '4']",1,2023.2.3,harveyvisual,2.1,[],8,0.75,
5,dot,0.3,['dot'],['density'],black,0,52,52,52,,,20.600223064422607,20.317089080810547,20.61708402633667,dot,"[0.06, 0.1, 0.06, 0.1, 0.06]","[[0.14370466841446422, -0.4636309982806098], [0.2961807471193908, -0.30487684838795487], [-0.08083516471444438, -0.49823911181902014], [0.057429843216129074, -0.22123310288296744], [-0.1653320673045236, -0.3160671692815837]]",density,black,,,N009,visual,1,[],"['1', '2', '3', '4']",1,2023.2.3,harveyvisual,2.1,[],8,0.75,
0,pause,0.4,None,None,None,0,53,53,53,,,,,,,,,,,,,N009,visual,1,[],"['1', '2', '3', '4']",1,2023.2.3,harveyvisual,2.1,[],8,0.75,
5,dot,0.3,['dot'],['density'],black,0,54,54,54,,,21.30021095275879,21.01705002784729,21.317039012908936,dot,"[0.08, 0.06, 0.08, 0.06, 0.08]","[[-0.0036269740154891753, 0.5431219823242713], [-0.2646325594942043, 0.5073179604697073], [-0.41902475937036154, 0.37311436690984484], [-0.007163214206743488, 0.2887893175302695], [-0.2156098228659233, 0.2684642371109035]]",density,black,,,N009,visual,1,[],"['1', '2', '3', '4']",1,2023.2.3,harveyvisual,2.1,[],8,0.75,
0,pause,0.4,None,None,None,0,55,55,55,,,,,,,,,,,,,N009,visual,1,[],"['1', '2', '3', '4']",1,2023.2.3,harveyvisual,2.1,[],8,0.75,
5,dot,0.3,['dot'],['density'],black,0,56,56,56,,,22.000225067138672,21.71704411506653,22.017019987106323,dot,"[0.08, 0.08, 0.06, 0.08, 0.06]","[[-0.2338402938730933, 0.15846616122991625], [-0.3229678957369872, -0.0901175890533356], [-0.5034912146055804, 0.021834460539281654], [-0.23914892391179104, -0.28496604153387733], [-0.10132718886958789, -0.1172648190903725]]",density,black,,,N009,visual,1,[],"['1', '2', '3', '4']",1,2023.2.3,harveyvisual,2.1,[],8,0.75,
0,pause,0.4,None,None,None,0,57,57,57,,,,,,,,,,,,,N009,visual,1,[],"['1', '2', '3', '4']",1,2023.2.3,harveyvisual,2.1,[],8,0.75,
5,dot,0.3,['dot'],['density'],black,0,58,58,58,,,22.700212001800537,22.4170138835907,22.717005014419556,dot,"[0.06, 0.1, 0.1, 0.08, 0.08]","[[-0.07969108163070573, 0.258241044050758], [-0.3301768112222262, 0.22562982972330062], [-0.16453040906828167, -0.1622271318141552], [-0.21753854086321037, 0.04365873274764029], [0.030347216865940038, 0.07834852794011457]]",density,black,,,N009,visual,1,[],"['1', '2', '3', '4']",1,2023.2.3,harveyvisual,2.1,[],8,0.75,
0,pause,0.4,None,None,None,0,59,59,59,,,,,,,,,,,,,N009,visual,1,[],"['1', '2', '3', '4']",1,2023.2.3,harveyvisual,2.1,[],8,0.75,
6,dot,0.3,['dot'],['density'],black,0,60,60,60,,,23.40019989013672,23.11699604988098,23.4169819355011,dot,"[0.06, 0.08, 0.06, 0.06, 0.1, 0.08]","[[0.1382403832049451, 0.0462086450304607], [-0.07534018949214154, -0.3274433807795599], [0.3332171610134826, -0.14895102818546319], [0.22614943412716124, -0.3322834867125916], [-0.0756450994425101, -0.005640117700353421], [0.0938048843888254, -0.16909843217532775]]",density,black,,,N009,visual,1,[],"['1', '2', '3', '4']",1,2023.2.3,harveyvisual,2.1,[],8,0.75,
0,pause,0.4,None,None,None,0,61,61,61,,,,,,,,,,,,,N009,visual,1,[],"['1', '2', '3', '4']",1,2023.2.3,harveyvisual,2.1,[],8,0.75,
6,dot,0.3,['dot'],['density'],white,0,62,62,62,,,24.10020399093628,23.816967964172363,24.11696195602417,dot,"[0.08, 0.1, 0.1, 0.08, 0.08, 0.1]","[[-0.2715212558254698, 0.2586056842756752], [-0.41011716394998093, -0.23288273174477314], [-0.4259032553852052, 0.02963770343160952], [-0.037696467485790364, -0.07921729390734374], [-0.19058944014171011, 0.07565381115733183], [-0.22931220879523878, -0.14417898787482208]]",density,white,,,N009,visual,1,[],"['1', '2', '3', '4']",1,2023.2.3,harveyvisual,2.1,[],8,0.75,
0,pause,0.4,None,None,None,0,63,63,63,,,,,,,,,,,1,24.15721297264099,N009,visual,1,[],"['1', '2', '3', '4']",1,2023.2.3,harveyvisual,2.1,[],8,0.75,
6,dot,0.3,['dot'],['density'],black,0,64,64,64,,,24.800195932388306,24.516958951950073,24.816943883895874,dot,"[0.08, 0.1, 0.06, 0.06, 0.1, 0.08]","[[-0.36954580940820725, 0.05815165478813925], [-0.28534481837461456, -0.12375618373579561], [-0.26428406214372846, 0.28010711109252995], [-0.5657182147315603, -0.11096589427743007], [-0.1492704575467133, 0.06899119969773035], [-0.5584105255039638, 0.13196562846102936]]",density,black,,,N009,visual,1,[],"['1', '2', '3', '4']",1,2023.2.3,harveyvisual,2.1,[],8,0.75,
0,pause,0.4,None,None,None,0,65,65,65,,,,,,,,,,,,,N009,visual,1,[],"['1', '2', '3', '4']",1,2023.2.3,harveyvisual,2.1,[],8,0.75,
6,dot,0.3,['dot'],['density'],black,0,66,66,66,,,25.500209093093872,25.216965913772583,25.516933917999268,dot,"[0.06, 0.1, 0.06, 0.06, 0.1, 0.1]","[[0.01776890784276672, 0.3448500499300058], [-0.18238616215991446, 0.4840889924469993], [-0.2129582374372363, 0.07157874559070018], [-0.41549008775918617, 0.14353268657608398], [0.019487844458329944, 0.1389587799501653], [-0.21004805074000235, 0.2837936954907191]]",density,black,,,N009,visual,1,[],"['1', '2', '3', '4']",1,2023.2.3,harveyvisual,2.1,[],8,0.75,
0,pause,0.4,None,None,None,0,67,67,67,,,,,,,,,,,,,N009,visual,1,[],"['1', '2', '3', '4']",1,2023.2.3,harveyvisual,2.1,[],8,0.75,
6,dot,0.3,['dot'],['density'],black,0,68,68,68,,,26.200223922729492,25.916933059692383,26.216917037963867,dot,"[0.08, 0.06, 0.06, 0.08, 0.08, 0.08]","[[0.21259181929123794, -0.28356491423097735], [0.48303195854319764, 0.06048455888335473], [0.22913681079270962, 0.07473613686017411], [0.4939377514137012, -0.2837040300549214], [0.055643620130747785, -0.14290468481535015], [0.3711413815128542, -0.10952979375652658]]",density,black,,,N009,visual,1,[],"['1', '2', '3', '4']",1,2023.2.3,harveyvisual,2.1,[],8,0.75,
0,pause,0.4,None,None,None,0,69,69,69,,,,,,,,,,,,,N009,visual,1,[],"['1', '2', '3', '4']",1,2023.2.3,harveyvisual,2.1,[],8,0.75,
6,dot,0.3,['dot'],['density'],black,0,70,70,70,,,26.90019989013672,26.616928100585938,26.916903972625732,dot,"[0.1, 0.06, 0.06, 0.08, 0.1, 0.1]","[[-0.3078382271761739, 0.4361778186671046], [-0.059169983783578364, 0.44796520308269433], [-0.3209935464877752, 0.22545519901795916], [-0.10826469778565927, 0.24929594343002343], [-0.016554185736113114, 0.06783813438016018], [-0.29360476626160575, 0.00756342739423081]]",density,black,,,N009,visual,1,[],"['1', '2', '3', '4']",1,2023.2.3,harveyvisual,2.1,[],8,0.75,
0,pause,0.4,None,None,None,0,71,71,71,,,,,,,,,,,,,N009,visual,1,[],"['1', '2', '3', '4']",1,2023.2.3,harveyvisual,2.1,[],8,0.75,
7,dot,0.3,['dot'],['density'],black,0,72,72,72,,,27.600239992141724,27.316904067993164,27.616883039474487,dot,"[0.1, 0.08, 0.1, 0.1, 0.06, 0.1, 0.1]","[[0.21536278937261513, -0.01733091677764761], [-0.08931035591216824, -0.05246349631749078], [0.21870610454298933, 0.21067491250041093], [-0.1587576617113587, 0.26068369883413384], [0.04623079518225047, 0.4568527369480977], [0.022942391481424712, 0.13939122930077608], [-0.27674911739568203, 0.09730719745121558]]",density,black,,,N009,visual,1,[],"['1', '2', '3', '4']",1,2023.2.3,harveyvisual,2.1,[],8,0.75,
0,pause,0.4,None,None,None,0,73,73,73,,,,,,,,,,,,,N009,visual,1,[],"['1', '2', '3', '4']",1,2023.2.3,harveyvisual,2.1,[],8,0.75,
7,dot,0.3,['dot'],['density'],black,0,74,74,74,,,28.300209045410156,28.01688289642334,28.316871881484985,dot,"[0.06, 0.08, 0.1, 0.08, 0.06, 0.06, 0.1]","[[-0.2877807563129739, -0.2392998172879968], [-0.4930284393840153, 0.02918626900802282], [-0.13307942101536208, -0.4135874564509098], [-0.1727922191076213, -0.04289663127052677], [-0.3943840059764042, -0.4351600913800347], [-0.03321109949484203, -0.21096883087625085], [-0.5418728138863746, -0.1990057631286019]]",density,black,,,N009,visual,1,[],"['1', '2', '3', '4']",1,2023.2.3,harveyvisual,2.1,[],8,0.75,
0,pause,0.4,None,None,None,0,75,75,75,,,,,,,,,,,,,N009,visual,1,[],"['1', '2', '3', '4']",1,2023.2.3,harveyvisual,2.1,[],8,0.75,
7,dot,0.3,['dot'],['density'],black,0,76,76,76,,,29.00020694732666,28.716866970062256,29.016860961914062,dot,"[0.06, 0.06, 0.06, 0.06, 0.06, 0.08, 0.08]","[[0.12430361198122393, -0.484697593056103], [0.0493599320108737, -0.036540600477799993], [0.2536650008125765, -0.05314613827093128], [-0.10908149692518246, -0.38401305955505927], [0.3510411480849886, -0.3949608705840701], [0.16732256025271752, -0.2817377092689904], [0.4277002215428168, -0.1937739732965619]]",density,black,,,N009,visual,1,[],"['1', '2', '3', '4']",1,2023.2.3,harveyvisual,2.1,[],8,0.75,
0,pause,0.4,None,None,None,0,77,77,77,,,,,,,,,,,,,N009,visual,1,[],"['1', '2', '3', '4']",1,2023.2.3,harveyvisual,2.1,[],8,0.75,
7,dot,0.3,['dot'],['density'],black,0,78,78,78,,,29.700222969055176,29.416847944259644,29.71684193611145,dot,"[0.1, 0.1, 0.08, 0.08, 0.1, 0.1, 0.06]","[[0.020512593940644967, 0.06058225053891463], [-0.12457192929091994, 0.22210134043855223], [0.2267676360835929, 0.07227077176864677], [-0.19381219694833235, -0.14277017550647156], [0.096077147208419, -0.13886261858003718], [0.087393672000005, 0.26445259248386815], [-0.018663113410245565, 0.4344684582511623]]",density,black,,,N009,visual,1,[],"['1', '2', '3', '4']",1,2023.2.3,harveyvisual,2.1,[],8,0.75,
0,pause,0.4,None,None,None,0,79,79,79,,,,,,,,,,,,,N009,visual,1,[],"['1', '2', '3', '4']",1,2023.2.3,harveyvisual,2.1,[],8,0.75,
7,dot,0.3,['dot'],['density'],white,0,80,80,80,,,30.400214910507202,30.11683702468872,30.416826009750366,dot,"[0.06, 0.08, 0.06, 0.1, 0.08, 0.06, 0.1]","[[0.06935229908748385, 0.4911641494940837], [-0.19266199922505295, 0.07836852906048222], [0.055274369019684175, 0.020452523162812593], [0.26239471350362015, 0.1001529216481179], [-0.06036973858781391, 0.3360513952533211], [-0.2638544135394649, 0.29089327984911306], [0.14813816713374972, 0.28344041791591096]]",density,white,,,N009,visual,1,[],"['1', '2', '3', '4']",1,2023.2.3,harveyvisual,2.1,[],8,0.75,
0,pause,0.4,None,None,None,0,81,81,81,,,,,,,,,,,1,30.44102692604065,N009,visual,1,[],"['1', '2', '3', '4']",1,2023.2.3,harveyvisual,2.1,[],8,0.75,
7,dot,0.3,['dot'],['density'],black,0,82,82,82,,,31.100230932235718,30.816806077957153,31.116801023483276,dot,"[0.1, 0.06, 0.08, 0.08, 0.06, 0.06, 0.1]","[[0.2966712274604575, -0.2131825579980761], [-0.1186836204372937, -0.4965034514665913], [-0.01440301872015537, -0.0403072600505146], [0.1950017499803942, -0.04023412759326238], [0.279011892689379, -0.46996203863525404], [-0.05628257964606558, -0.24364929332980273], [0.11956786588335709, -0.3438640467385331]]",density,black,,,N009,visual,1,[],"['1', '2', '3', '4']",1,2023.2.3,harveyvisual,2.1,[],8,0.75,
0,pause,0.4,None,None,None,0,83,83,83,,,,,,,,,,,,,N009,visual,1,[],"['1', '2', '3', '4']",1,2023.2.3,harveyvisual,2.1,[],8,0.75,
8,dot,0.3,['dot'],['density'],black,0,84,84,84,,,31.800214052200317,31.516797065734863,31.81678795814514,dot,"[0.1, 0.06, 0.08, 0.08, 0.08, 0.08, 0.1, 0.08]","[[-0.19427332908310624, 0.44975086906229733], [-0.40583056883657587, 0.41268852933836647], [-0.1064323235824443, 0.09134240931295125], [0.037438273390647224, 0.2873761216870531], [-0.27580465694358225, 0.2567900319995576], [0.047234249799456944, 0.4983172858691376], [0.15563182967593078, 0.1192504703698398], [-0.32834908909536226, -0.014402300111889832]]",density,black,,,N009,visual,1,[],"['1', '2', '3', '4']",1,2023.2.3,harveyvisual,2.1,[],8,0.75,
0,pause,0.4,None,None,None,0,85,85,85,,,,,,,,,,,,,N009,visual,1,[],"['1', '2', '3', '4']",1,2023.2.3,harveyvisual,2.1,[],8,0.75,
8,dot,0.3,['dot'],['density'],black,0,86,86,86,,,32.500221967697144,32.21677494049072,32.51676392555237,dot,"[0.06, 0.1, 0.1, 0.1, 0.1, 0.06, 0.06, 0.1]","[[-0.43120034012996816, -0.3965796075128045], [0.1478983624034229, -0.46770986256388064], [-0.23058307999139557, -0.3238539366063682], [-0.07988642296593639, -0.13993938361429092], [-0.08664795903044427, -0.5418074813242995], [0.11879255589163208, -0.1637425359681226], [-0.09873641234556067, 0.08705286872936738], [-0.025120016651009644, -0.34045580780112095]]",density,black,,,N009,visual,1,[],"['1', '2', '3', '4']",1,2023.2.3,harveyvisual,2.1,[],8,0.75,
0,pause,0.4,None,None,None,0,87,87,87,,,,,,,,,,,,,N009,visual,1,[],"['1', '2', '3', '4']",1,2023.2.3,harveyvisual,2.1,[],8,0.75,
8,dot,0.3,['dot'],['density'],black,0,88,88,88,,,33.20021104812622,32.91675591468811,33.21674394607544,dot,"[0.08, 0.06, 0.1, 0.1, 0.06, 0.06, 0.06, 0.1]","[[-0.08486713456805763, -0.4233549652310786], [-0.34121661687321897, 0.009931669871959016], [0.06179899905610707, -0.01287726204627424], [-0.01080387642187049, -0.20774715314808884], [-0.2259787915635077, -0.2257096572683263], [-0.31087639520469923, -0.4457762681120083], [-0.07938707884489006, 0.17996906985975966], [-0.13919465900414296, -0.03133413505419433]]",density,black,,,N009,visual,1,[],"['1', '2', '3', '4']",1,2023.2.3,harveyvisual,2.1,[],8,0.75,
0,pause,0.4,None,None,None,0,89,89,89,,,,,,,,,,,,,N009,visual,1,[],"['1', '2', '3', '4']",1,2023.2.3,harveyvisual,2.1,[],8,0.75,
8,dot,0.3,['dot'],['density'],black,0,90,90,90,,,33.90020799636841,33.61672902107239,33.91672706604004,dot,"[0.06, 0.1, 0.1, 0.08, 0.06, 0.1, 0.06, 0.1]","[[-0.0012777187897950197, 0.3966007492927722], [-0.28447363834021117, 0.3159852715582059], [0.19942587273623266, 0.5530929527666414], [0.21318140018031628, 0.35154814550636243], [0.2022184519229619, 0.1402347591191321], [-0.03399167273692697, 0.18426518172063944], [0.09045107803968953, -0.0428478536761596], [-0.13826990130262626, -0.021750669296841257]]",density,black,,,N009,visual,1,[],"['1', '2', '3', '4']",1,2023.2.3,harveyvisual,2.1,[],8,0.75,
0,pause,0.4,None,None,None,0,91,91,91,,,,,,,,,,,,,N009,visual,1,[],"['1', '2', '3', '4']",1,2023.2.3,harveyvisual,2.1,[],8,0.75,
8,dot,0.3,['dot'],['density'],white,0,92,92,92,,,34.60022592544556,34.31672692298889,34.61671495437622,dot,"[0.08, 0.1, 0.08, 0.1, 0.1, 0.06, 0.1, 0.06]","[[0.17295790489511154, -0.46037743866749825], [0.1416591427765588, 0.05421051799673566], [0.21994266958916148, -0.13656690113679631], [0.3639906379971415, 0.0627265571221228], [0.015481321741344221, -0.13916897583717935], [0.440802488837635, -0.2883976186876931], [0.5157567705321767, -0.08800602901884749], [0.24768837887357187, 0.24424825162618136]]",density,white,,,N009,visual,1,[],"['1', '2', '3', '4']",1,2023.2.3,harveyvisual,2.1,[],8,0.75,
0,pause,0.4,None,None,None,0,93,93,93,,,,,,,,,,,1,34.58239197731018,N009,visual,1,[],"['1', '2', '3', '4']",1,2023.2.3,harveyvisual,2.1,[],8,0.75,
8,dot,0.3,['dot'],['density'],white,0,94,94,94,,,35.30022406578064,35.01672887802124,35.31668710708618,dot,"[0.08, 0.06, 0.06, 0.08, 0.08, 0.1, 0.08, 0.06]","[[-0.3306282708070712, -0.09459634407206743], [0.17708038186302957, -0.36794437316098305], [-0.34368294577136044, -0.39688855169369486], [-0.16397220561896333, 0.03033928826277653], [-0.08476975953586025, -0.41834960305423746], [-0.16765121495786453, -0.2265743681515788], [0.0449590487082352, -0.10546915507075137], [-0.5574709661459258, -0.15664368712912546]]",density,white,,,N009,visual,1,[],"['1', '2', '3', '4']",1,2023.2.3,harveyvisual,2.1,[],8,0.75,
0,pause,0.4,None,None,None,0,95,95,95,,,,,,,,,,,1,35.46451711654663,N009,visual,1,[],"['1', '2', '3', '4']",1,2023.2.3,harveyvisual,2.1,[],8,0.75,
9,dot,0.3,['dot'],['density'],black,0,96,96,96,,,36.00021696090698,35.71666097640991,36.01666307449341,dot,"[0.08, 0.1, 0.1, 0.06, 0.06, 0.08, 0.1, 0.1, 0.06]","[[0.38655548767220327, 0.3303110468779764], [-0.15062718332117264, 0.3263612679497012], [0.12850016508903517, 0.5435449351404695], [0.04975739233973968, 0.11256198773833849], [0.05418506391445401, 0.3174451450657875], [0.282644584802279, 0.13382110200906677], [0.4968372747528943, 0.11977440893831985], [-0.17748280977865974, 0.12733825933579754], [-0.16508880216336755, 0.5437291489982663]]",density,black,,,N009,visual,1,[],"['1', '2', '3', '4']",1,2023.2.3,harveyvisual,2.1,[],8,0.75,
0,pause,0.4,None,None,None,0,97,97,97,,,,,,,,,,,,,N009,visual,1,[],"['1', '2', '3', '4']",1,2023.2.3,harveyvisual,2.1,[],8,0.75,
9,dot,0.3,['dot'],['density'],black,0,98,98,98,,,36.700210094451904,36.41666793823242,36.71665692329407,dot,"[0.1, 0.08, 0.1, 0.06, 0.1, 0.06, 0.06, 0.08, 0.08]","[[0.5633060189111645, -0.020447411670609934], [0.24486306384976717, 0.44476630120442473], [0.18428866344346043, -0.051083701103786204], [0.30165572131442664, 0.2239114093385097], [-0.0017431279865323516, 0.11759053127645673], [0.36864926730470376, 0.029118730319846676], [0.08307425003498874, 0.31712463906399285], [0.26393370779995823, -0.24286541122091637], [0.5109425385251136, 0.2557989077594731]]",density,black,,,N009,visual,1,[],"['1', '2', '3', '4']",1,2023.2.3,harveyvisual,2.1,[],8,0.75,
0,pause,0.4,None,None,None,0,99,99,99,,,,,,,,,,,,,N009,visual,1,[],"['1', '2', '3', '4']",1,2023.2.3,harveyvisual,2.1,[],8,0.75,
9,dot,0.3,['dot'],['density'],black,0,100,100,100,,,37.400222063064575,37.11667799949646,37.41663599014282,dot,"[0.06, 0.06, 0.06, 0.08, 0.08, 0.08, 0.08, 0.1, 0.06]","[[0.43694394638140777, -0.3313910020207278], [-0.12671083892604185, -0.2904925475365486], [0.20104083284362928, 0.10806727359081147], [0.1376754545064979, -0.09924520624161907], [0.19021248837847174, -0.31516489548878085], [0.3653456942078643, -0.09076399745187974], [0.1403131072824284, -0.5562242851951704], [-0.005445667935095978, 0.0898710966384087], [-0.11923067905189093, -0.07827803450029165]]",density,black,,,N009,visual,1,[],"['1', '2', '3', '4']",1,2023.2.3,harveyvisual,2.1,[],8,0.75,
0,pause,0.4,None,None,None,0,101,101,101,,,,,,,,,,,,,N009,visual,1,[],"['1', '2', '3', '4']",1,2023.2.3,harveyvisual,2.1,[],8,0.75,
9,dot,0.3,['dot'],['density'],black,0,102,102,102,,,38.10021495819092,37.81664204597473,38.1166090965271,dot,"[0.08, 0.06, 0.06, 0.1, 0.08, 0.06, 0.1, 0.06, 0.08]","[[0.08964926938552661, 0.05394775442474662], [0.013667798857315082, 0.3651287039276397], [-0.3518235196438996, 0.4482863301015001], [0.0843039828244993, 0.5528122926054443], [-0.16049547673848438, 0.0730005648255046], [-0.2144141911430125, 0.27623828598157274], [0.3465547907671387, 0.0307758660088046], [-0.13596480001028877, 0.5242376261272882], [0.2304522598158348, 0.3521277948761275]]",density,black,,,N009,visual,1,[],"['1', '2', '3', '4']",1,2023.2.3,harveyvisual,2.1,[],8,0.75,
0,pause,0.4,None,None,None,0,103,103,103,,,,,,,,,,,,,N009,visual,1,[],"['1', '2', '3', '4']",1,2023.2.3,harveyvisual,2.1,[],8,0.75,
9,dot,0.3,['dot'],['density'],black,0,104,104,104,,,38.800225019454956,38.51661205291748,38.81660008430481,dot,"[0.08, 0.08, 0.06, 0.08, 0.06, 0.08, 0.1, 0.1, 0.1]","[[0.23250081832313607, -0.03448075506690146], [0.3034476098774822, 0.1830296703973891], [-0.18904104685434053, 0.18833284185042862], [0.2553794676357457, 0.5314352583170906], [0.16363099535363254, 0.3461022642192175], [-0.0841935017478271, 0.3664174397160571], [-0.26748786402911323, -0.05736109653727262], [0.043842773669028334, 0.577246673499167], [0.02102957219118283, 0.0979254794926055]]",density,black,,,N009,visual,1,[],"['1', '2', '3', '4']",1,2023.2.3,harveyvisual,2.1,[],8,0.75,
0,pause,0.4,None,None,None,0,105,105,105,,,,,,,,,,,,,N009,visual,1,[],"['1', '2', '3', '4']",1,2023.2.3,harveyvisual,2.1,[],8,0.75,
9,dot,0.3,['dot'],['density'],black,0,106,106,106,,,39.500216007232666,39.21660590171814,39.516611099243164,dot,"[0.06, 0.08, 0.06, 0.1, 0.08, 0.1, 0.1, 0.08, 0.08]","[[-0.08858128315591524, -0.3480052213079807], [0.37291707470974605, -0.0809562497479422], [-0.04311872097798103, 0.23152249840731254], [0.1734412630875083, -0.16491363602164627], [-0.024044713080900382, -0.04824256513196188], [0.126438571592319, 0.09122014985587756], [-0.2168202887682383, 0.11190421567656858], [-0.23215605484234547, -0.20356583507002532], [0.291417597339289, 0.24351333182926893]]",density,black,,,N009,visual,1,[],"['1', '2', '3', '4']",1,2023.2.3,harveyvisual,2.1,[],8,0.75,
0,pause,0.4,None,None,None,0,107,107,107,,,,,,,,,,,,,N009,visual,1,[],"['1', '2', '3', '4']",1,2023.2.3,harveyvisual,2.1,[],8,0.75,
20,dot,0.3,['dot'],['density'],black,0,108,108,108,,,40.20022392272949,39.91658091545105,40.216586112976074,dot,"[0.08, 0.1, 0.1, 0.06, 0.08, 0.08, 0.08, 0.08, 0.08, 0.06, 0.06, 0.06, 0.08, 0.08, 0.08, 0.1, 0.1, 0.08, 0.06, 0.06]","[[-0.12024988220475114, -0.09616674843160355], [-0.13122310408973503, 0.3780992142191355], [-0.23030231384602873, 0.5426839341774465], [-0.035966018023110724, -0.3687098346010416], [0.09808912282862803, 0.3831112832167328], [0.23827707043046253, 0.011691866633583015], [-0.35835364774142875, 0.04685081200340374], [0.14075943659284207, -0.28161628786692644], [-0.18335020818769382, 0.1842068882962461], [0.490225114482009, -0.08086328868627335], [0.015348945524446655, -0.5627596091340046], [-0.23160968840236723, -0.4077997863490012], [-0.5796685141590393, -0.09692985642791867], [0.42153893991868296, 0.31473985537024973], [0.2387827982933477, -0.47523430862172733], [-0.5389949738788804, 0.20498614882919874], [-0.41193673963460686, -0.21146543954128375], [0.244399314083105, 0.5067924806125833], [0.5870901439269326, 0.10305653421461425], [-0.3460493620758396, 0.32790076124471357]]",density,black,,,N009,visual,1,[],"['1', '2', '3', '4']",1,2023.2.3,harveyvisual,2.1,[],8,0.75,
0,pause,0.4,None,None,None,0,109,109,109,,,,,,,,,,,,,N009,visual,1,[],"['1', '2', '3', '4']",1,2023.2.3,harveyvisual,2.1,[],8,0.75,
20,dot,0.3,['dot'],['density'],black,0,110,110,110,,,40.900222063064575,40.61659789085388,40.9165780544281,dot,"[0.06, 0.08, 0.08, 0.06, 0.1, 0.1, 0.08, 0.06, 0.06, 0.08, 0.08, 0.08, 0.06, 0.08, 0.08, 0.06, 0.06, 0.1, 0.06, 0.06]","[[0.4975658116769196, 0.16241999969038357], [-0.14909502247628353, -0.5397880115144582], [0.18637536142526534, 0.2179101224232215], [-0.3896401503178626, -0.10592442999936147], [-0.09901010098034957, 0.2926486505151604], [-0.2465973694919275, 0.42450296186303893], [-0.2917904660422462, 0.10933112946748424], [-0.07213652700060569, -0.04825986893302203], [0.39371046543606114, 0.43270629094695096], [0.2715688062663506, -0.5144752011628589], [0.4968490487996299, -0.3154160293623953], [-0.31143018792440214, -0.27889481527214244], [0.04885973565899138, -0.19610187601698487], [0.22462368226105978, -0.10618946477021729], [0.09155179223666099, 0.433806884070585], [-0.4719640121460588, 0.21726275646152393], [-0.5329744875206108, 0.02239762752655844], [0.5127276862471085, -0.047469930228136725], [-0.3474989654448297, -0.4656838263883601], [-0.5558601889252018, -0.2382575867879879]]",density,black,,,N009,visual,1,[],"['1', '2', '3', '4']",1,2023.2.3,harveyvisual,2.1,[],8,0.75,
0,pause,0.4,None,None,None,0,111,111,111,,,,,,,,,,,,,N009,visual,1,[],"['1', '2', '3', '4']",1,2023.2.3,harveyvisual,2.1,[],8,0.75,
20,dot,0.3,['dot'],['density'],black,0,112,112,112,,,41.60022211074829,41.31659698486328,41.616600036621094,dot,"[0.06, 0.08, 0.08, 0.06, 0.06, 0.1, 0.1, 0.1, 0.06, 0.1, 0.1, 0.06, 0.06, 0.1, 0.1, 0.08, 0.1, 0.08, 0.08, 0.08]","[[-0.13225886434690304, 0.19135327247581824], [-0.40939269612453943, 0.03889922474730623], [0.3764005047932467, -0.19302850153762235], [-0.09972120056928413, -0.17509910400115636], [-0.49262923685297, 0.34418440391660815], [-0.14698728222316532, 0.4823964746421202], [0.11859035275147811, 0.30432750105333783], [0.46668639168486103, 0.07272403574334463], [0.03497598602404706, 0.562872625510816], [-0.5797626102093356, 0.1516349392161951], [-0.038681935611659335, -0.5890922725105362], [0.23956902536636793, -0.5497151955495189], [0.12347915891267114, 0.02773908847900053], [0.4140788915626753, 0.3609838048520988], [-0.5394306235300794, -0.2266934051053874], [0.11300622360699797, -0.2630191058606815], [0.23693047991889005, 0.5158778206718783], [-0.3017014143987054, -0.3301065284841207], [-0.06249547890480511, -0.39269850617975177], [0.5944362857735966, -0.09787157002868328]]",density,black,,,N009,visual,1,[],"['1', '2', '3', '4']",1,2023.2.3,harveyvisual,2.1,[],8,0.75,
0,pause,0.4,None,None,None,0,113,113,113,,,,,,,,,,,,,N009,visual,1,[],"['1', '2', '3', '4']",1,2023.2.3,harveyvisual,2.1,[],8,0.75,
20,dot,0.3,['dot'],['density'],black,0,114,114,114,,,42.30020594596863,42.01652693748474,42.31651210784912,dot,"[0.1, 0.06, 0.06, 0.1, 0.08, 0.1, 0.06, 0.08, 0.1, 0.06, 0.06, 0.06, 0.08, 0.06, 0.06, 0.1, 0.1, 0.1, 0.1, 0.06]","[[-0.07856065670416612, 0.12556067967459128], [-0.5164491871207494, 0.2661296912768148], [-0.08955052058933166, 0.33633150468891926], [-0.5490002254472808, -0.2025225806274169], [-0.5823285133531328, -0.010033018077104688], [0.09496636223399257, -0.3982060371518311], [-0.10991426539240728, -0.3680361385348975], [0.32470278405524633, -0.35340832512256265], [-0.12822114073468394, -0.14029315838642492], [0.20040213253105832, 0.32834581036205934], [-0.31794559011198825, -0.2118192543350046], [0.4898925540490545, -0.12190659883234192], [0.11533283096716196, -0.19693622259413418], [0.1890693641955299, 0.54792288411455], [-0.2299714698410555, -0.5422108107463185], [0.12487575232626102, 0.0650275498360472], [0.3143105067822445, -0.013586107748756016], [0.5202818394428176, 0.06774192762519726], [-0.2108558783860029, 0.54423183768398], [0.38186756243216025, 0.38324732373583237]]",density,black,,,N009,visual,1,[],"['1', '2', '3', '4']",1,2023.2.3,harveyvisual,2.1,[],8,0.75,
0,pause,0.4,None,None,None,0,115,115,115,,,,,,,,,,,,,N009,visual,1,[],"['1', '2', '3', '4']",1,2023.2.3,harveyvisual,2.1,[],8,0.75,
20,dot,0.3,['dot'],['density'],black,0,116,116,116,,,43.000202894210815,42.71651101112366,43.01649188995361,dot,"[0.06, 0.1, 0.1, 0.08, 0.06, 0.08, 0.06, 0.1, 0.08, 0.08, 0.06, 0.1, 0.08, 0.06, 0.1, 0.06, 0.06, 0.1, 0.06, 0.06]","[[0.2683146893697538, -0.3370787686351498], [0.1443065250797515, 0.22530410941753232], [0.02923679086700448, 0.5285585220758406], [0.3206046310976004, -0.1334234944238485], [-0.18001545673097347, 0.5561896453325285], [-0.5736264581703844, -0.04511831134777464], [0.020778950361579396, -0.32928890091144625], [-0.10017714473872563, -0.11980423628920289], [0.10528999424186325, -0.06474567565932332], [-0.23767067549137222, 0.12360550874104315], [-0.17188207909167197, 0.32670046957409504], [-0.2782728182307222, -0.42835052023204623], [0.45122081182504614, 0.0413096243642484], [0.26530727823878497, 0.5258360756702821], [0.5522237104076669, -0.24057780731040806], [-0.522685666034842, -0.28719716338816365], [-0.1422520054286232, -0.5641814023055342], [-0.5077056689458489, 0.23299240730467424], [0.3951342825415093, 0.24656175382019596], [0.06746630735474324, -0.5349306296901966]]",density,black,,,N009,visual,1,[],"['1', '2', '3', '4']",1,2023.2.3,harveyvisual,2.1,[],8,0.75,
0,pause,0.4,None,None,None,0,117,117,117,,,,,,,,,,,,,N009,visual,1,[],"['1', '2', '3', '4']",1,2023.2.3,harveyvisual,2.1,[],8,0.75,
20,dot,0.3,['dot'],['density'],black,0,118,118,118,,,43.70022010803223,43.41648197174072,43.71647095680237,dot,"[0.1, 0.08, 0.1, 0.08, 0.06, 0.08, 0.06, 0.06, 0.1, 0.08, 0.08, 0.1, 0.08, 0.1, 0.08, 0.06, 0.06, 0.08, 0.08, 0.08]","[[0.4841710627873691, -0.10484408462915945], [-0.5324245834521858, 0.1097510682214749], [0.2982346576112487, 0.14836051588927057], [-0.14166969274995472, 0.04939495528188986], [0.2866582197038854, 0.4884934201212425], [-0.5216559519513184, -0.2850055863810087], [0.08154880307374701, 0.08490888242474415], [-0.339508912852021, 0.19388363622665272], [0.22200915490452078, -0.06026446182680112], [0.23609297813262786, -0.4987757743107867], [-0.26129690763688995, 0.4717047900128817], [0.4922060501440221, 0.32182679402460396], [0.36686771309881494, -0.2944812307294128], [-0.20016116729531735, -0.5711280717221384], [0.1188959702551744, -0.3288334331674227], [-0.07097779620008837, 0.41440406338474745], [-0.40404614716886444, -0.10215012150793684], [0.023198862704149836, -0.519677610523601], [0.5996119045251783, 0.047801821576536035], [-0.01935982282984372, -0.16949728155004645]]",density,black,,,N009,visual,1,[],"['1', '2', '3', '4']",1,2023.2.3,harveyvisual,2.1,[],8,0.75,
0,pause,0.4,None,None,None,0,119,119,119,,,,,,,,,,,,,N009,visual,1,[],"['1', '2', '3', '4']",1,2023.2.3,harveyvisual,2.1,[],8,0.75,
20,dot,0.3,['dot'],['density'],black,0,120,120,120,,,44.4002161026001,44.11649489402771,44.4164559841156,dot,"[0.08, 0.1, 0.1, 0.1, 0.06, 0.1, 0.1, 0.08, 0.06, 0.1, 0.06, 0.08, 0.1, 0.1, 0.08, 0.1, 0.1, 0.08, 0.1, 0.08]","[[0.3398141337949241, 0.010441774399766457], [-0.3367059744574044, 0.3855464637996313], [0.49708932369928294, 0.34227660560942896], [-0.1914458341649271, -0.4682608787005637], [-0.4516462465719022, -0.038021901437927], [0.43815392427423594, -0.28413172034636913], [0.05036390156964077, 0.24277606190391232], [-0.3156006076751341, 0.17169772669611594], [-0.21659042409269652, -0.1871543748592251], [0.2588413143193856, 0.5417507813937308], [-0.11313721601351845, 0.39358974841654737], [0.5743599466436872, -0.0925288793981371], [-0.019614425627741183, -0.21159267036298735], [-0.05592699883533936, 0.5817943703569558], [0.2604577684010614, -0.5051827115141538], [-0.5639802229499165, 0.17082989183570355], [0.2541525505137877, -0.233774434384949], [-0.017340391814939293, -0.5777232905890186], [0.11391544291321842, -0.06112009150717579], [-0.5315923756119262, -0.2467456099989815]]",density,black,,,N009,visual,1,[],"['1', '2', '3', '4']",1,2023.2.3,harveyvisual,2.1,[],8,0.75,
0,pause,0.4,None,None,None,0,121,121,121,,,,,,,,,,,,,N009,visual,1,[],"['1', '2', '3', '4']",1,2023.2.3,harveyvisual,2.1,[],8,0.75,
20,dot,0.3,['dot'],['density'],white,0,122,122,122,,,45.10020589828491,44.81646800041199,45.11650490760803,dot,"[0.08, 0.1, 0.1, 0.1, 0.08, 0.1, 0.1, 0.08, 0.06, 0.06, 0.06, 0.06, 0.08, 0.06, 0.1, 0.06, 0.08, 0.06, 0.08, 0.08]","[[-0.5276942664377634, 0.0909291827242103], [0.3759264075380604, -0.04410928150224025], [0.21513589942664624, -0.44917212438143594], [0.5523118547249294, -0.14821677069486697], [0.2395781649222578, 0.26119194228585785], [-0.20581298592306146, -0.3163055812512178], [-0.4246312937187967, -0.3378869193347771], [-0.30600826918920715, 0.29711582965862116], [-0.13434050796361996, 0.17841895083889758], [-0.0595056183485575, 0.518757942315074], [-0.5559671161350647, -0.1596982930235315], [-0.147094220970446, -0.5789604696141183], [0.5349573028316287, 0.11572251210419121], [-0.08476364890406995, -0.03412302412006174], [0.05801129849581488, -0.26216738999528655], [0.015547395917372975, 0.3241134078453487], [0.365339179613403, -0.2992738552782025], [0.18212703182580525, -0.10835759220952812], [0.283305137611924, 0.5330688317203317], [-0.29808563342910643, 0.5098636118223613]]",density,white,,,N009,visual,1,[],"['1', '2', '3', '4']",1,2023.2.3,harveyvisual,2.1,[],8,0.75,
0,pause,0.4,None,None,None,0,123,123,123,,,,,,,,,,,1,45.15771293640137,N009,visual,1,[],"['1', '2', '3', '4']",1,2023.2.3,harveyvisual,2.1,[],8,0.75,
20,dot,0.3,['dot'],['density'],black,0,124,124,124,,,45.80020189285278,45.51645803451538,45.81643891334534,dot,"[0.08, 0.08, 0.08, 0.1, 0.08, 0.06, 0.1, 0.08, 0.1, 0.06, 0.08, 0.1, 0.08, 0.08, 0.08, 0.08, 0.06, 0.06, 0.06, 0.06]","[[-0.505032647040281, -0.26553598212554713], [0.1246271168530072, 0.08390912319696686], [0.4387795741148307, 0.07485754230648545], [0.12043520827811782, -0.10831768582133589], [-0.22457342157946503, -0.010638640017198053], [-0.37347486686102255, 0.16049709806061513], [-0.17595182375082774, -0.25010998404605533], [0.3505056027339529, -0.4868955531997192], [-0.023124843509066073, 0.4670770127885623], [0.11427569108806757, -0.5632249788705938], [-0.6007989161303147, -0.0536191065903024], [0.46177478375609915, -0.1583269073982447], [-0.5566045072959863, 0.21934405545170982], [-0.05417843870468686, -0.4399807060959759], [-0.3373363898075986, -0.3633016581750972], [0.1894267731178103, -0.3598872232449307], [-0.37004208822379864, 0.4251373892090599], [0.3900848556419211, 0.27274457767898086], [0.15221643959409947, 0.3392675841236368], [0.3206651156761655, 0.45857800337025767]]",density,black,,,N009,visual,1,[],"['1', '2', '3', '4']",1,2023.2.3,harveyvisual,2.1,[],8,0.75,
0,pause,0.4,None,None,None,0,125,125,125,,,,,,,,,,,,,N009,visual,1,[],"['1', '2', '3', '4']",1,2023.2.3,harveyvisual,2.1,[],8,0.75,
20,dot,0.3,['dot'],['density'],black,0,126,126,126,,,46.500205993652344,46.21641492843628,46.516464948654175,dot,"[0.08, 0.06, 0.06, 0.08, 0.08, 0.06, 0.1, 0.08, 0.06, 0.08, 0.08, 0.06, 0.08, 0.08, 0.06, 0.06, 0.06, 0.08, 0.08, 0.08]","[[0.11361560075760657, 0.41933070561767605], [0.4413206562275259, 0.009754845034056658], [0.27337149968248264, -0.44559079242828387], [0.028072940070598684, 0.004474346343825708], [-0.22353731108406244, -0.1476295969634877], [-0.11090044820197809, 0.5245773111220899], [-0.38090470268978616, 0.37143884514352765], [-0.2374456915856668, 0.19936982042533735], [0.38452010958423744, 0.24104955733091626], [0.3431970814661307, -0.24016169275932692], [-0.07105115012999397, -0.3959480628195903], [-0.5014853899156156, -0.21124915997591076], [0.566871980486981, -0.1323407387103115], [-0.5946402462647172, 0.09756698727842524], [0.39904999088481896, 0.4300408267476009], [-0.35735718745717415, -0.007076961085342115], [0.11793230629038398, -0.16549889020107977], [0.08002883576296471, 0.18968017962972294], [-0.3242349135786131, -0.37956593209035683], [0.2304017110373131, 0.004711014945922742]]",density,black,,,N009,visual,1,[],"['1', '2', '3', '4']",1,2023.2.3,harveyvisual,2.1,[],8,0.75,
0,pause,0.4,None,None,None,0,127,127,127,,,,,,,,,,,,,N009,visual,1,[],"['1', '2', '3', '4']",1,2023.2.3,harveyvisual,2.1,[],8,0.75,
20,dot,0.3,['dot'],['density'],black,0,128,128,128,,,47.200222969055176,46.91644597053528,47.216394901275635,dot,"[0.06, 0.08, 0.06, 0.08, 0.08, 0.08, 0.1, 0.08, 0.06, 0.06, 0.1, 0.1, 0.06, 0.06, 0.06, 0.1, 0.06, 0.08, 0.1, 0.06]","[[0.2538760048363279, 0.006629070100142798], [-0.35991654060908534, 0.31286238564076085], [-0.1328423354340334, -0.2969533374051475], [0.046446848615832814, 0.08044624762331942], [-0.47462220138353484, -0.16222682362535865], [-0.5802760818304498, 0.006987844321986042], [0.215943997397137, 0.4013779361313261], [0.29109098933921085, -0.3675661652225255], [0.15120913917126289, -0.49566362714058665], [-0.23611490692874998, 0.16441471546121766], [0.49258831759800337, 0.08139470355931616], [-0.0009629014656938883, 0.3336245854733103], [0.4045527591303689, -0.19141440296003692], [-0.34391750071543825, -0.34246681531577416], [0.45259270690993836, 0.36206132205102654], [-0.05200454954017053, -0.5554597020277878], [-0.024730921300498143, 0.5559737136224158], [-0.21801713358896557, -0.03514266585442649], [0.12667021744341134, -0.2472378845947124], [0.5833172235370084, -0.0886474371203582]]",density,black,,,N009,visual,1,[],"['1', '2', '3', '4']",1,2023.2.3,harveyvisual,2.1,[],8,0.75,
0,pause,0.4,None,None,None,0,129,129,129,,,,,,,,,,,,,N009,visual,1,[],"['1', '2', '3', '4']",1,2023.2.3,harveyvisual,2.1,[],8,0.75,
20,dot,0.3,['dot'],['density'],black,0,130,130,130,,,47.9002161026001,47.61637210845947,47.91636800765991,dot,"[0.1, 0.1, 0.06, 0.06, 0.08, 0.1, 0.08, 0.1, 0.06, 0.1, 0.1, 0.1, 0.06, 0.06, 0.1, 0.1, 0.08, 0.08, 0.06, 0.08]","[[-0.3177397306457182, -0.04224764033691808], [-0.03689074287487637, 0.2754787587170039], [0.5324549908558752, 0.2481530227077458], [0.5811641959682018, -0.015822194686216484], [-0.019711331843175306, -0.4281351323317354], [-0.5250926364108842, -0.11344762697463776], [-0.25784676962919484, -0.4420043524957975], [0.14180639243987359, -0.08445620926082187], [0.4973503713638078, -0.2422388776709557], [0.31337161200271324, -0.3709361121240925], [0.1915792408407373, -0.5628867217837211], [-0.09963202800850601, -0.11949069107825694], [0.18352478524171667, 0.20636319032404016], [0.3102120976811942, 0.43289807734930497], [0.029344627598204776, 0.5672094643221368], [-0.25702480978264225, 0.2278960990530643], [0.2979373213852663, 0.05461000429871765], [-0.4562779558186121, -0.35210075708250566], [-0.4089543967349697, 0.38785789637736434], [0.12760662601907768, -0.2763938485736807]]",density,black,,,N009,visual,1,[],"['1', '2', '3', '4']",1,2023.2.3,harveyvisual,2.1,[],8,0.75,
0,pause,0.4,None,None,None,0,131,131,131,,,,,,,,,,,,,N009,visual,1,[],"['1', '2', '3', '4']",1,2023.2.3,harveyvisual,2.1,[],8,0.75,
20,dot,0.3,['dot'],['density'],black,0,132,132,132,,,48.60020995140076,48.316356897354126,48.61634802818298,dot,"[0.1, 0.06, 0.1, 0.1, 0.08, 0.08, 0.06, 0.08, 0.06, 0.06, 0.06, 0.1, 0.06, 0.1, 0.06, 0.06, 0.08, 0.06, 0.1, 0.08]","[[0.4324421775390247, -0.17650590431747593], [-0.5834059618472051, -0.07727806059841194], [-0.27728846061509854, 0.3064761953794698], [0.04980786250667302, -0.43085462512933326], [-0.06232879382437295, 0.5562610473324565], [0.005960289339215996, 0.06267032669790573], [-0.5213828605763435, 0.22631165492868366], [0.22732235402092027, 0.20178159676408502], [-0.0028044531893783864, -0.23398268005780098], [0.6031007501580049, -0.014663356293604324], [0.2386566306405018, -0.39419257905115535], [0.5324364468618213, 0.22918632702256475], [0.24034365205919406, 0.4274965572540175], [0.012312190219715524, 0.3170640789644107], [-0.22059675218224506, -0.16729544672058627], [-0.41782070330047577, 0.04106383722162976], [0.3010173821910217, -0.015511058649227638], [0.4341626380009257, -0.39565676093630625], [-0.195211343920566, -0.5644378764691101], [0.18866377756128327, -0.17448769020011934]]",density,black,,,N009,visual,1,[],"['1', '2', '3', '4']",1,2023.2.3,harveyvisual,2.1,[],8,0.75,
0,pause,0.4,None,None,None,0,133,133,133,,,,,,,,,,,,,N009,visual,1,[],"['1', '2', '3', '4']",1,2023.2.3,harveyvisual,2.1,[],8,0.75,
20,dot,0.3,['dot'],['density'],black,0,134,134,134,,,49.30022096633911,49.016398906707764,49.31636595726013,dot,"[0.06, 0.08, 0.1, 0.06, 0.08, 0.08, 0.06, 0.08, 0.08, 0.08, 0.1, 0.08, 0.1, 0.06, 0.06, 0.1, 0.1, 0.08, 0.06, 0.06]","[[-0.054274836120194014, -0.33934843858691804], [0.3692101005628753, 0.3328020693899199], [0.2896221066618603, -0.49331931188314276], [-0.07561875476468949, 0.5247515971750966], [-0.13621705379041982, 0.21505043376726296], [-0.35027004472680895, 0.3744045869972214], [-0.6032082194547488, 0.02577643738347346], [-0.4562289805072953, -0.3381437699877429], [0.07314760402549747, -0.5862581706187494], [0.5119504521461863, 0.039348744254556145], [0.4512045878406262, -0.38070308264531194], [-0.09369894901646247, -0.11994978390953259], [0.10620344139327897, 0.0006247404290522507], [0.1667248441431579, 0.5649543514777737], [0.25004574125381396, 0.15238371562523734], [-0.2256616961787899, 0.04538075344010206], [0.33447546361235236, -0.050442506981513646], [-0.26452114436953633, -0.3159690681072871], [0.21798571837723357, -0.3113421326474537], [-0.43968647829534696, -0.14548243307723335]]",density,black,,,N009,visual,1,[],"['1', '2', '3', '4']",1,2023.2.3,harveyvisual,2.1,[],8,0.75,
0,pause,0.4,None,None,None,0,135,135,135,,,,,,,,,,,,,N009,visual,1,[],"['1', '2', '3', '4']",1,2023.2.3,harveyvisual,2.1,[],8,0.75,
20,dot,0.3,['dot'],['density'],black,0,136,136,136,,,50.00021505355835,49.716362953186035,50.01634097099304,dot,"[0.1, 0.06, 0.06, 0.08, 0.06, 0.06, 0.08, 0.08, 0.1, 0.1, 0.08, 0.06, 0.1, 0.08, 0.1, 0.08, 0.08, 0.1, 0.1, 0.1]","[[-0.027939656617225195, 0.27796422877770965], [0.5111321404756343, 0.19700721160562912], [0.3061043124080176, -0.13070380894445127], [-0.11649947431076652, 0.10030974285196437], [0.08768091113522136, 0.4955550093390959], [-0.4302572721881883, -0.40167987673085165], [-0.05887858539783941, -0.566679989891205], [-0.48184627667988666, 0.06214121063801631], [0.02543765581830182, -0.35867191461508174], [0.33469649874022256, 0.41123782417372345], [-0.31692973283641357, -0.041388333704842906], [-0.2952173956884489, 0.51310945911512], [-0.10373377665964001, 0.48700732355274534], [-0.5890055164476606, -0.1067221087589467], [-0.2214441206910171, -0.22085677379552066], [0.41749799817085387, -0.37071478492007054], [-0.2891279920607741, 0.29944127495882844], [0.34342374939578746, 0.09104500257807857], [0.59314842451856, -0.017291360416825524], [0.01208440709516967, -0.15890083118060683]]",density,black,,,N009,visual,1,[],"['1', '2', '3', '4']",1,2023.2.3,harveyvisual,2.1,[],8,0.75,
0,pause,0.4,None,None,None,0,137,137,137,,,,,,,,,,,,,N009,visual,1,[],"['1', '2', '3', '4']",1,2023.2.3,harveyvisual,2.1,[],8,0.75,
20,dot,0.3,['dot'],['density'],black,0,138,138,138,,,50.70021295547485,50.41634488105774,50.716325998306274,dot,"[0.06, 0.06, 0.1, 0.06, 0.08, 0.06, 0.08, 0.06, 0.1, 0.06, 0.08, 0.08, 0.08, 0.1, 0.1, 0.1, 0.08, 0.1, 0.06, 0.1]","[[-0.4402164011570052, -0.07138464214952173], [-0.253738977695871, 0.21918814390015984], [0.18447442892301336, -0.07515978901456899], [0.46459774219591654, -0.017004757973204776], [0.13333098023413337, 0.1717230663007112], [-0.3168316537395969, 0.5093278543274578], [-0.5619014272249586, 0.22216049306340155], [0.5464302038974126, -0.22628149880889215], [0.06304117387699082, 0.5426518381179569], [0.34837613406469137, -0.4032300421683025], [0.5089202510077736, 0.2963012974144621], [-0.18143382360578775, -0.15755373191565597], [0.33297741474124776, 0.4667491403866041], [-0.04082143783689107, -0.32076186406466534], [0.18601920265977234, -0.30502958177809836], [-0.1034332918254075, 0.4457058582075035], [0.18123082392925738, -0.5433915913450995], [0.16122922276361218, 0.37163357312378853], [-0.40170636195976583, -0.34739100634081865], [-0.17369110486198264, -0.5697362343991189]]",density,black,,,N009,visual,1,[],"['1', '2', '3', '4']",1,2023.2.3,harveyvisual,2.1,[],8,0.75,
0,pause,0.4,None,None,None,0,139,139,139,,,,,,,,,,,,,N009,visual,1,[],"['1', '2', '3', '4']",1,2023.2.3,harveyvisual,2.1,[],8,0.75,
20,dot,0.3,['dot'],['density'],black,0,140,140,140,,,51.40022587776184,51.11631798744202,51.416441917419434,dot,"[0.06, 0.1, 0.1, 0.08, 0.1, 0.08, 0.1, 0.1, 0.08, 0.1, 0.08, 0.06, 0.08, 0.06, 0.1, 0.08, 0.06, 0.06, 0.1, 0.06]","[[-0.19335053153297194, 0.020218103941643695], [0.023923595083035876, 0.32443399105382276], [0.1375815147274847, 0.14279185890949897], [0.45920797997701, 0.30323368209253154], [0.4934302284884725, -0.30398453120064406], [-0.37419138984388034, 0.11349471831212615], [-0.17029013082490724, 0.25712906400775537], [0.28872774923147393, -0.10177091053104792], [-0.12708976152747176, -0.20846284970704526], [0.09086053196626886, -0.17757135210002284], [-0.3073341526221786, 0.42544388571379477], [-0.5765363575577478, 0.1024241404483216], [0.2024760675100662, -0.36622358080109063], [0.24274033977230425, 0.49954646528083724], [-0.20068393446412003, -0.557334218144758], [-0.4939913670925476, -0.18239171225484374], [0.4415462142578913, 0.018126085845000195], [0.5834435252049345, -0.11808757467161832], [-0.31171898476894816, -0.3063619565574973], [0.13546753988211535, -0.5741072025513647]]",density,black,,,N009,visual,1,[],"['1', '2', '3', '4']",1,2023.2.3,harveyvisual,2.1,[],8,0.75,
0,pause,0.4,None,None,None,0,141,141,141,,,,,,,,,,,,,N009,visual,1,[],"['1', '2', '3', '4']",1,2023.2.3,harveyvisual,2.1,[],8,0.75,
20,dot,0.3,['dot'],['density'],black,0,142,142,142,,,52.10022807121277,51.81643295288086,52.11631488800049,dot,"[0.1, 0.06, 0.08, 0.08, 0.08, 0.08, 0.1, 0.06, 0.06, 0.08, 0.06, 0.1, 0.06, 0.08, 0.1, 0.06, 0.08, 0.06, 0.08, 0.08]","[[0.15474449006284785, -0.2604329362289344], [0.5139837644355824, -0.25213594375582926], [0.6048947815548699, -0.019111018486489894], [-0.4111332948866321, -0.018395818711197665], [-0.2475110369317331, -0.49647500483130874], [0.16169484732154782, -0.4963507804120284], [-0.3603364080854037, 0.2977577667402348], [0.3700614478980152, -0.07259626097111266], [0.03425623178416248, 0.39486593393028924], [0.31789084305090387, 0.4016801723559946], [0.484577193946235, 0.17373462619814367], [-0.0962189246458709, 0.5617428700650245], [0.06512071289498844, 0.08223101470224559], [-0.49101770308540316, -0.26872611964722914], [-0.22515778096266748, -0.2352674315961829], [-0.030823009315773198, -0.31100632041259374], [-0.5998317696023064, -0.07258263015067072], [0.3576749387413528, -0.38153601009774696], [-0.1439564697988281, 0.08861488974168341], [-0.13926316763277308, 0.3127515775267745]]",density,black,,,N009,visual,1,[],"['1', '2', '3', '4']",1,2023.2.3,harveyvisual,2.1,[],8,0.75,
0,pause,0.4,None,None,None,0,143,143,143,,,,,,,,,,,,,N009,visual,1,[],"['1', '2', '3', '4']",1,2023.2.3,harveyvisual,2.1,[],8,0.75,
20,dot,0.3,['dot'],['density'],black,0,144,144,144,,,52.800215005874634,52.51626896858215,52.81627702713013,dot,"[0.06, 0.1, 0.08, 0.08, 0.1, 0.1, 0.1, 0.08, 0.08, 0.1, 0.06, 0.08, 0.08, 0.1, 0.06, 0.1, 0.1, 0.1, 0.08, 0.06]","[[0.17638683690877444, -0.3182577149044592], [0.4989794120874992, -0.16345049891020044], [-0.20943706742066143, -0.40191260495877945], [0.4805865947890592, 0.14078517417333852], [0.28287259093476413, -0.08522464199958957], [-0.1424737500036256, 0.5737945433626547], [0.11598334081508754, 0.26118450787335334], [-0.13296184684914447, 0.19918203556810998], [-0.37807253434964994, 0.4323462116195694], [-0.504308302032486, 0.05906395684347748], [-0.05288791049531516, -0.5907997726651527], [-0.5180547748457275, -0.15246937759619208], [0.36779268172849944, -0.39511529553885527], [-0.002160982441812065, -0.016013523855190503], [-0.41838418406733013, -0.3922496623783847], [-0.5222355987603454, 0.2830733950114622], [0.19741873658472875, -0.5494971800205143], [0.16295191391816466, 0.4875843851204834], [-0.3043714475331172, -0.2350246687489143], [-0.2882503285859719, 0.023669405785865738]]",density,black,,,N009,visual,1,[],"['1', '2', '3', '4']",1,2023.2.3,harveyvisual,2.1,[],8,0.75,
0,pause,0.4,None,None,None,0,145,145,145,,,,,,,,,,,,,N009,visual,1,[],"['1', '2', '3', '4']",1,2023.2.3,harveyvisual,2.1,[],8,0.75,
20,dot,0.3,['dot'],['density'],black,0,146,146,146,,,53.50020909309387,53.21625304222107,53.51624608039856,dot,"[0.08, 0.06, 0.1, 0.08, 0.1, 0.1, 0.08, 0.1, 0.06, 0.06, 0.1, 0.08, 0.06, 0.06, 0.1, 0.08, 0.1, 0.06, 0.06, 0.1]","[[-0.5557295579901622, 0.13020112173529214], [-0.2946571131277305, 0.11672908637441692], [0.5802170608963105, 0.1682587081736193], [0.13282447406546216, 0.14187705858266264], [0.13035023824415126, -0.2323788447133388], [0.3446241772619424, 0.48193655284094883], [-0.43581845479116027, -0.2669938079807097], [0.25357269038582986, -0.4657759980403306], [-0.25162278324284193, 0.500268256879961], [-0.4324866463231356, 0.395475612653358], [0.273080663241008, -0.06847320386355493], [-0.16266463485412463, -0.5767110207893545], [0.4079960067370224, -0.25971592812995736], [-0.006507193981765913, 0.5104582542312734], [-0.23888162428859366, -0.23833442149953304], [-0.5714239993792528, -0.0810830794830225], [-0.10115715247962864, 0.08309214811352006], [0.5533950901677255, -0.085254219985437], [-0.34160458479225364, -0.4717467604222335], [0.3256461857547146, 0.16860505905680512]]",density,black,,,N009,visual,1,[],"['1', '2', '3', '4']",1,2023.2.3,harveyvisual,2.1,[],8,0.75,
0,pause,0.4,None,None,None,0,147,147,147,,,,,,,,,,,,,N009,visual,1,[],"['1', '2', '3', '4']",1,2023.2.3,harveyvisual,2.1,[],8,0.75,
20,dot,0.3,['dot'],['density'],black,0,148,148,148,,,54.20020294189453,53.916244983673096,54.21623992919922,dot,"[0.06, 0.06, 0.1, 0.06, 0.06, 0.06, 0.06, 0.1, 0.1, 0.06, 0.1, 0.1, 0.08, 0.06, 0.08, 0.08, 0.06, 0.1, 0.06, 0.08]","[[0.5520186867122886, 0.19013002693456443], [0.06206516355501801, 0.069167785913401], [-0.2987880543073351, -0.2307335753041196], [-0.5920425898195154, 0.10585948628671668], [0.055550191910169855, -0.5109206385583365], [-0.10638808273064215, 0.5183602226061303], [0.09936461422063947, -0.1766758634255633], [0.21393599896673876, -0.3336929665830335], [-0.2011207925870871, 0.3529894202005388], [0.15856764283709468, 0.2903230590095751], [-0.5322147441988541, -0.15990581315060426], [-0.5043515226613744, 0.2866872303205638], [0.5669292200875894, -0.052350943396134886], [-0.26609432811194156, 0.10529257421769156], [-0.16101266252234048, -0.39859354328640306], [-0.3560995960635767, -0.43728634030017993], [0.5019930175514696, -0.23575050538291648], [0.3762308357593279, 0.09907087437663975], [-0.11729499090017381, -0.06966603548167094], [0.370671187165858, 0.4465551841879898]]",density,black,,,N009,visual,1,[],"['1', '2', '3', '4']",1,2023.2.3,harveyvisual,2.1,[],8,0.75,
0,pause,0.4,None,None,None,0,149,149,149,,,,,,,,,,,,,N009,visual,1,[],"['1', '2', '3', '4']",1,2023.2.3,harveyvisual,2.1,[],8,0.75,
20,dot,0.3,['dot'],['density'],black,0,150,150,150,,,54.900217056274414,54.61624002456665,54.91622304916382,dot,"[0.06, 0.1, 0.1, 0.08, 0.08, 0.1, 0.08, 0.1, 0.1, 0.06, 0.08, 0.1, 0.08, 0.08, 0.06, 0.08, 0.08, 0.1, 0.06, 0.06]","[[-0.44108622295563243, 0.22952608592636348], [0.0981384831114801, 0.42634447506707795], [-0.11210039668884947, -0.05890457914327818], [-0.47504666804052986, -0.1944573268621893], [-0.1452374047697611, -0.3469722488596274], [0.48708486998823275, 0.2084496254132669], [0.5980769704930545, -0.0013641789345874428], [-0.24891375335566562, 0.43597692178767466], [0.28787366187508834, 0.2878169728062857], [0.4196346802032106, -0.25927149403714167], [-0.5802545605711656, -0.029406039034371584], [-0.1447981691378995, 0.23714499958520485], [0.07303324035050585, 0.1994599771652258], [0.25022154496007576, 0.008589640230272422], [-0.44515636103237743, -0.3865776938777049], [0.32712222031132554, 0.47398437673264815], [-0.2014214274721317, -0.5647616491750296], [0.21978884819170885, -0.49028535923196076], [-0.30793186019358115, 0.09033322062984162], [0.0010608726455035855, -0.5453982840672439]]",density,black,,,N009,visual,1,[],"['1', '2', '3', '4']",1,2023.2.3,harveyvisual,2.1,[],8,0.75,
0,pause,0.4,None,None,None,0,151,151,151,,,,,,,,,,,,,N009,visual,1,[],"['1', '2', '3', '4']",1,2023.2.3,harveyvisual,2.1,[],8,0.75,
20,dot,0.3,['dot'],['density'],black,0,152,152,152,,,55.60020399093628,55.31619691848755,55.616251945495605,dot,"[0.06, 0.08, 0.08, 0.06, 0.08, 0.06, 0.08, 0.1, 0.1, 0.1, 0.1, 0.08, 0.1, 0.06, 0.1, 0.06, 0.08, 0.06, 0.1, 0.06]","[[0.28328160083288323, -0.4727691758034461], [0.5735767506920487, 0.1825423302457868], [0.2877923061593681, 0.3724695486741375], [-0.07421723649255951, 0.11708340212751389], [-0.2414704924822335, -0.20434778844233809], [-0.45135310468280965, -0.27827456131979], [-0.3476763613269559, 0.03812260884516028], [0.3141886869676792, -0.20694893626745242], [-0.3946199364703652, 0.32420992023528017], [0.2246041849488728, 0.11335924161775712], [0.007649111684412069, -0.42862150259105514], [0.5235122281992147, -0.12002054710084958], [0.0797135875299354, -0.115999794912651], [0.0034112302651799764, 0.5118977239695108], [-0.09670187550035969, 0.3168186276505591], [-0.3614297378011164, -0.47568443546015243], [-0.5587150790619246, -0.016732553287545526], [0.49182826115703715, -0.3479431072539849], [-0.2346222259751003, 0.532271067738849], [-0.16898143085192902, -0.4987574397915766]]",density,black,,,N009,visual,1,[],"['1', '2', '3', '4']",1,2023.2.3,harveyvisual,2.1,[],8,0.75,
0,pause,0.4,None,None,None,0,153,153,153,,,,,,,,,,,,,N009,visual,1,[],"['1', '2', '3', '4']",1,2023.2.3,harveyvisual,2.1,[],8,0.75,
20,dot,0.3,['dot'],['density'],white,0,154,154,154,,,56.300206899642944,56.01621890068054,56.31620001792908,dot,"[0.1, 0.1, 0.1, 0.08, 0.06, 0.1, 0.08, 0.06, 0.1, 0.1, 0.1, 0.06, 0.1, 0.06, 0.1, 0.1, 0.08, 0.06, 0.1, 0.06]","[[0.06301574122949538, 0.3428260196705478], [0.5122669603178672, -0.12130893826663691], [-0.32350074400015827, -0.46830907567372043], [-0.44254919480679533, 0.07325005692164344], [-0.24830362502321807, 0.5267630341015043], [0.40246573110597594, 0.23963113766159988], [-0.05158724198001419, 0.5576407399663127], [0.11991981704216381, -0.07113332330115951], [-0.08066753509753821, 0.007552777860539983], [0.3307665823295812, -0.051746818936912686], [-0.5747896420107992, -0.12382243068543494], [0.19852852465610038, -0.5368570829306273], [-0.32827540063226957, -0.09545720394151669], [0.024587251046387926, -0.2873630304395102], [-0.2707688441706876, 0.19340906554791837], [-0.48394194139888647, 0.3141368629827937], [0.2331017817605905, 0.4921172402845473], [-0.155200761705368, -0.37078363927271746], [0.5691289695577558, 0.08535656273210665], [0.3846481429222981, -0.35287067460289095]]",density,white,,,N009,visual,1,[],"['1', '2', '3', '4']",1,2023.2.3,harveyvisual,2.1,[],8,0.75,
0,pause,0.4,None,None,None,0,155,155,155,,,,,,,,,,,1,56.32515811920166,N009,visual,1,[],"['1', '2', '3', '4']",1,2023.2.3,harveyvisual,2.1,[],8,0.75,
9,dot,0.3,['dot'],['density'],white,0,156,156,156,,,57.0002338886261,56.716176986694336,57.01615309715271,dot,"[0.1, 0.1, 0.08, 0.06, 0.08, 0.1, 0.1, 0.06, 0.1]","[[-0.25982930089867384, 0.41046177320377714], [0.2391912210628672, 0.4152301159030731], [-0.011899047454085643, 0.5103750441914148], [0.15826907621474634, 0.20577518054892585], [-0.29033424199965224, 0.2058356795488901], [-0.056026696670660174, 0.08152775180209879], [-0.32571421803823364, -0.002973879155612714], [0.39820859476685, 0.29236875228581105], [-0.06367065787951752, 0.28966088639372295]]",density,white,,,N009,visual,1,[],"['1', '2', '3', '4']",1,2023.2.3,harveyvisual,2.1,[],8,0.75,
0,pause,0.4,None,None,None,0,157,157,157,,,,,,,,,,,1,57.027201890945435,N009,visual,1,[],"['1', '2', '3', '4']",1,2023.2.3,harveyvisual,2.1,[],8,0.75,
9,dot,0.3,['dot'],['density'],black,0,158,158,158,,,57.700226068496704,57.41613793373108,57.7161500453949,dot,"[0.1, 0.08, 0.06, 0.08, 0.08, 0.08, 0.06, 0.08, 0.08]","[[-0.1410632352740557, -0.317905811010377], [-0.01624442214728049, 0.1794094022286925], [0.09468404279643694, -0.24727132108451297], [-0.2758455249254349, -0.14491344886434532], [-0.07397021974914944, -0.09933967896750957], [-0.3580751224104431, 0.12641846535160695], [0.3672464474339042, -0.09947208873420914], [0.14679994141956812, -0.049441009882571184], [0.20049431506903384, 0.1443691092520585]]",density,black,,,N009,visual,1,[],"['1', '2', '3', '4']",1,2023.2.3,harveyvisual,2.1,[],8,0.75,
0,pause,0.4,None,None,None,0,159,159,159,,,,,,,,,,,,,N009,visual,1,[],"['1', '2', '3', '4']",1,2023.2.3,harveyvisual,2.1,[],8,0.75,
9,dot,0.3,['dot'],['density'],black,0,160,160,160,,,58.400233030319214,58.11611795425415,58.416179895401,dot,"[0.06, 0.06, 0.08, 0.1, 0.06, 0.06, 0.08, 0.06, 0.1]","[[0.02295687172906439, -0.4555612238154966], [0.343534432465795, -0.2595759245515751], [-0.16187815285083418, -0.09052449078383604], [0.11251247888811697, -0.27313237114007116], [0.30947849701411384, 0.04064216277921932], [0.06991680920562879, 0.010838090335221196], [-0.17538857600721916, -0.30040513178321704], [-0.11470383471809205, 0.10558329706542706], [-0.35883798189287325, -0.15372405551062507]]",density,black,,,N009,visual,1,[],"['1', '2', '3', '4']",1,2023.2.3,harveyvisual,2.1,[],8,0.75,
0,pause,0.4,None,None,None,0,161,161,161,,,,,,,,,,,,,N009,visual,1,[],"['1', '2', '3', '4']",1,2023.2.3,harveyvisual,2.1,[],8,0.75,
9,dot,0.3,['dot'],['density'],black,0,162,162,162,,,59.100204944610596,58.81612205505371,59.11609697341919,dot,"[0.08, 0.06, 0.08, 0.06, 0.08, 0.06, 0.08, 0.08, 0.06]","[[-0.2844843713072754, 0.22325415166673976], [-0.1819235275981482, -0.2724209396165719], [-0.4663757242286994, 0.0951888680112534], [-0.002662519752874684, 0.12526046944360225], [-0.2804516333182533, -0.07461618094684651], [-0.06266188203573825, -0.10246171469469513], [0.05562179911838863, -0.3774952117829348], [-0.29777175193284133, -0.43797360937606633], [-0.44596842075831894, -0.24145786298940805]]",density,black,,,N009,visual,1,[],"['1', '2', '3', '4']",1,2023.2.3,harveyvisual,2.1,[],8,0.75,
0,pause,0.4,None,None,None,0,163,163,163,,,,,,,,,,,,,N009,visual,1,[],"['1', '2', '3', '4']",1,2023.2.3,harveyvisual,2.1,[],8,0.75,
9,dot,0.3,['dot'],['density'],black,0,164,164,164,,,59.80020809173584,59.51614809036255,59.81608605384827,dot,"[0.08, 0.06, 0.1, 0.06, 0.08, 0.06, 0.06, 0.08, 0.06]","[[0.17250841666444466, -0.5173949811024123], [-0.03744062107829021, -0.3895067986023326], [0.30010350549611725, -0.35742528465303014], [0.33064876224298684, -0.08057424749072183], [-0.16743636965090838, -0.09291053242622109], [0.1226827020066543, -0.24711763375004436], [0.047527772487498496, -0.037432207059122605], [0.20928928941955194, 0.09999474740890861], [-0.30040876562534896, -0.42726910911839744]]",density,black,,,N009,visual,1,[],"['1', '2', '3', '4']",1,2023.2.3,harveyvisual,2.1,[],8,0.75,
0,pause,0.4,None,None,None,0,165,165,165,,,,,,,,,,,,,N009,visual,1,[],"['1', '2', '3', '4']",1,2023.2.3,harveyvisual,2.1,[],8,0.75,
9,dot,0.3,['dot'],['density'],black,0,166,166,166,,,60.50022101402283,60.216070890426636,60.51606607437134,dot,"[0.06, 0.1, 0.06, 0.1, 0.06, 0.08, 0.06, 0.06, 0.1]","[[0.1897356465634014, 0.5279682873488559], [0.32378874068874214, 0.21764355715549547], [-0.02258392144612686, 0.1538672511300514], [0.18768343673053406, 0.06258281167321837], [0.4001161654736714, 0.031858124591620046], [0.03700916369328307, 0.37047593331345124], [0.18810723797826276, -0.14148750743097815], [-0.1502435433980558, -0.03059561201510329], [-0.21808568641731116, 0.28352793851031305]]",density,black,,,N009,visual,1,[],"['1', '2', '3', '4']",1,2023.2.3,harveyvisual,2.1,[],8,0.75,
0,pause,0.4,None,None,None,0,167,167,167,,,,,,,,,,,,,N009,visual,1,[],"['1', '2', '3', '4']",1,2023.2.3,harveyvisual,2.1,[],8,0.75,
8,dot,0.3,['dot'],['density'],black,0,168,168,168,,,61.20021295547485,60.91605591773987,61.2160370349884,dot,"[0.1, 0.1, 0.06, 0.1, 0.1, 0.08, 0.1, 0.06]","[[-0.20800618360187478, -0.297823595680997], [0.0208603014005115, -0.46570844314230314], [-0.33947416747489917, -0.46414587466331364], [-0.2657502487478435, -0.0024929956194721667], [-0.07971030345085922, -0.1368829558420488], [0.12327021606192319, -0.12614842517591618], [-0.10944837079043952, 0.12795643756026515], [-0.4050023469846894, -0.16101207847090707]]",density,black,,,N009,visual,1,[],"['1', '2', '3', '4']",1,2023.2.3,harveyvisual,2.1,[],8,0.75,
0,pause,0.4,None,None,None,0,169,169,169,,,,,,,,,,,,,N009,visual,1,[],"['1', '2', '3', '4']",1,2023.2.3,harveyvisual,2.1,[],8,0.75,
8,dot,0.3,['dot'],['density'],black,0,170,170,170,,,61.9002320766449,61.61602592468262,61.91601204872131,dot,"[0.08, 0.06, 0.08, 0.06, 0.1, 0.1, 0.08, 0.08]","[[-0.17382250058115215, 0.008030820220576582], [-0.5561520679887834, 0.09064024109159684], [-0.2322770524578434, -0.18818443710846813], [-0.41357291590276396, -0.2905316508268561], [-0.37423053416790164, -0.04064357687765813], [-0.014699175284411378, 0.15059198662288528], [-0.015485985535575739, -0.1348843831724925], [-0.36639977644872057, 0.228205681233079]]",density,black,,,N009,visual,1,[],"['1', '2', '3', '4']",1,2023.2.3,harveyvisual,2.1,[],8,0.75,
0,pause,0.4,None,None,None,0,171,171,171,,,,,,,,,,,,,N009,visual,1,[],"['1', '2', '3', '4']",1,2023.2.3,harveyvisual,2.1,[],8,0.75,
8,dot,0.3,['dot'],['density'],black,0,172,172,172,,,62.60021090507507,62.316030979156494,62.616015911102295,dot,"[0.06, 0.1, 0.08, 0.06, 0.08, 0.08, 0.08, 0.06]","[[-0.19427332908310624, 0.44975086906229733], [-0.40583056883657587, 0.41268852933836647], [-0.1064323235824443, 0.09134240931295125], [0.037438273390647224, 0.2873761216870531], [-0.27580465694358225, 0.2567900319995576], [0.047234249799456944, 0.4983172858691376], [0.15563182967593078, 0.1192504703698398], [-0.32834908909536226, -0.014402300111889832]]",density,black,,,N009,visual,1,[],"['1', '2', '3', '4']",1,2023.2.3,harveyvisual,2.1,[],8,0.75,
0,pause,0.4,None,None,None,0,173,173,173,,,,,,,,,,,,,N009,visual,1,[],"['1', '2', '3', '4']",1,2023.2.3,harveyvisual,2.1,[],8,0.75,
8,dot,0.3,['dot'],['density'],black,0,174,174,174,,,63.30020999908447,63.01600003242493,63.31599307060242,dot,"[0.06, 0.06, 0.06, 0.08, 0.1, 0.1, 0.1, 0.06]","[[-0.258715538922871, 0.3828151050353194], [-0.4384035523576633, -0.18689856672911037], [-0.5586779833045601, 0.15056420889708766], [-0.1699372658897842, -0.04883432605429875], [-0.36053016753151684, 0.02858569738219561], [-0.199221799186684, 0.1876786431210615], [0.004458053620249285, 0.1240038339062716], [0.019420137312414813, -0.16023679021787893]]",density,black,,,N009,visual,1,[],"['1', '2', '3', '4']",1,2023.2.3,harveyvisual,2.1,[],8,0.75,
0,pause,0.4,None,None,None,0,175,175,175,,,,,,,,,,,,,N009,visual,1,[],"['1', '2', '3', '4']",1,2023.2.3,harveyvisual,2.1,[],8,0.75,
8,dot,0.3,['dot'],['density'],black,0,176,176,176,,,64.00022101402283,63.71599507331848,64.01598000526428,dot,"[0.08, 0.08, 0.08, 0.06, 0.06, 0.08, 0.08, 0.06]","[[0.43039348711459674, -0.2176132953198537], [0.11499515674856413, 0.2899266495440316], [0.12808102003139596, -0.009244067984354065], [-0.030386771168905473, -0.2551920291624523], [0.3118809155168881, 0.2081403981228026], [-0.06282563634610334, 0.11114412413027695], [0.22944900542930163, -0.23921835558115082], [0.33219925311336224, 0.0035410395788749187]]",density,black,,,N009,visual,1,[],"['1', '2', '3', '4']",1,2023.2.3,harveyvisual,2.1,[],8,0.75,
0,pause,0.4,None,None,None,0,177,177,177,,,,,,,,,,,,,N009,visual,1,[],"['1', '2', '3', '4']",1,2023.2.3,harveyvisual,2.1,[],8,0.75,
8,dot,0.3,['dot'],['density'],white,0,178,178,178,,,64.70021104812622,64.41596388816833,64.71593809127808,dot,"[0.1, 0.06, 0.06, 0.1, 0.08, 0.08, 0.06, 0.08]","[[0.32983457944800887, -0.09988122376634187], [0.002544499336209532, 0.05447162498302279], [0.49322357980250997, 0.04173156098678792], [0.3398992085464782, -0.3241559212022164], [0.12656458423521935, -0.36323236959635974], [0.5072737450674915, -0.19500703868861743], [0.06482113683766944, -0.1422911224505784], [0.25865538318477954, 0.20042726536108785]]",density,white,,,N009,visual,1,[],"['1', '2', '3', '4']",1,2023.2.3,harveyvisual,2.1,[],8,0.75,
0,pause,0.4,None,None,None,0,179,179,179,,,,,,,,,,,1,64.81016111373901,N009,visual,1,[],"['1', '2', '3', '4']",1,2023.2.3,harveyvisual,2.1,[],8,0.75,
7,dot,0.3,['dot'],['density'],black,0,180,180,180,,,65.40021300315857,65.11593008041382,65.41593098640442,dot,"[0.1, 0.06, 0.08, 0.08, 0.06, 0.08, 0.1]","[[-0.1635229753841098, 0.12186382262109141], [0.03437657187081179, 0.5178389267683822], [0.324184412335695, 0.17931743601205324], [0.08929018524031027, 0.11005745596178185], [-0.1318259817332877, 0.4026967659136047], [-0.053046683696667, -0.06058584598870606], [0.042745683665752716, 0.304616966822181]]",density,black,,,N009,visual,1,[],"['1', '2', '3', '4']",1,2023.2.3,harveyvisual,2.1,[],8,0.75,
0,pause,0.4,None,None,None,0,181,181,181,,,,,,,,,,,,,N009,visual,1,[],"['1', '2', '3', '4']",1,2023.2.3,harveyvisual,2.1,[],8,0.75,
7,dot,0.3,['dot'],['density'],black,0,182,182,182,,,66.10022211074829,65.8159248828888,66.11591005325317,dot,"[0.06, 0.06, 0.06, 0.08, 0.06, 0.06, 0.06]","[[-0.3616029487054454, 0.4456424486886853], [-0.1496406170718537, 0.08450683720449656], [-0.4229793897960434, 0.19545916586121675], [-0.050735401720141765, 0.4582308035931027], [-0.23416009772798219, 0.28880413379285297], [0.00916417092529717, 0.20866532064640267], [0.0895043828575618, 0.020292244516940467]]",density,black,,,N009,visual,1,[],"['1', '2', '3', '4']",1,2023.2.3,harveyvisual,2.1,[],8,0.75,
0,pause,0.4,None,None,None,0,183,183,183,,,,,,,,,,,,,N009,visual,1,[],"['1', '2', '3', '4']",1,2023.2.3,harveyvisual,2.1,[],8,0.75,
7,dot,0.3,['dot'],['density'],black,0,184,184,184,,,66.80020809173584,66.5158998966217,66.8158929347992,dot,"[0.1, 0.08, 0.06, 0.1, 0.06, 0.1, 0.08]","[[-0.27819289690075527, 0.2483046813246476], [-0.5592260237138849, -0.07980801324287977], [-0.026637344717372308, -0.10521889364121585], [-0.16909952645659185, 0.05101222878256789], [-0.21868546305501066, -0.16482274839932262], [-0.3689572500107929, 0.03738969849335829], [-0.49227831811218986, 0.2063327632277477]]",density,black,,,N009,visual,1,[],"['1', '2', '3', '4']",1,2023.2.3,harveyvisual,2.1,[],8,0.75,
0,pause,0.4,None,None,None,0,185,185,185,,,,,,,,,,,,,N009,visual,1,[],"['1', '2', '3', '4']",1,2023.2.3,harveyvisual,2.1,[],8,0.75,
7,dot,0.3,['dot'],['density'],white,0,186,186,186,,,67.50021696090698,67.21588802337646,67.5158851146698,dot,"[0.08, 0.08, 0.1, 0.06, 0.08, 0.1, 0.1]","[[-0.4123410031792677, -0.32555807737620884], [-0.11281232420725038, -0.2658066965482441], [-0.16970574590124413, 0.10972852905085191], [-0.380148642061964, 0.19816541478521793], [-0.49975943015608576, -0.10400723965324657], [-0.30003386022098844, -0.09340949099572564], [-0.0679185705411078, -0.06780919729272472]]",density,white,,,N009,visual,1,[],"['1', '2', '3', '4']",1,2023.2.3,harveyvisual,2.1,[],8,0.75,
0,pause,0.4,None,None,None,0,187,187,187,,,,,,,,,,,1,67.51946806907654,N009,visual,1,[],"['1', '2', '3', '4']",1,2023.2.3,harveyvisual,2.1,[],8,0.75,
7,dot,0.3,['dot'],['density'],black,0,188,188,188,,,68.20021796226501,67.91587710380554,68.21585202217102,dot,"[0.1, 0.08, 0.08, 0.08, 0.08, 0.1, 0.08]","[[0.3302081014073935, 0.19448071361351732], [-0.22286629369238187, 0.3450023392305547], [-0.11533339293480348, 0.13926201039730488], [0.12023407780451623, 0.21240672508650668], [0.2659789407074307, 0.3894086603790018], [0.026604934602130894, 0.39133200849180605], [0.212400253920387, 0.027377351413115796]]",density,black,,,N009,visual,1,[],"['1', '2', '3', '4']",1,2023.2.3,harveyvisual,2.1,[],8,0.75,
0,pause,0.4,None,None,None,0,189,189,189,,,,,,,,,,,,,N009,visual,1,[],"['1', '2', '3', '4']",1,2023.2.3,harveyvisual,2.1,[],8,0.75,
7,dot,0.3,['dot'],['density'],white,0,190,190,190,,,68.90021896362305,68.61585307121277,68.91582703590393,dot,"[0.08, 0.06, 0.06, 0.06, 0.08, 0.08, 0.08]","[[-0.0009033409944170771, 0.42006327366100915], [0.07504475251916, -0.022201311189229547], [-0.3616170585675141, 0.16750883091546095], [0.025412283732210435, 0.18669523424894663], [-0.17132175432412022, 0.2677160973152203], [-0.13541388111710323, 0.00927786556165188], [-0.3032959001003911, -0.13806764794565113]]",density,white,,,N009,visual,1,[],"['1', '2', '3', '4']",1,2023.2.3,harveyvisual,2.1,[],8,0.75,
0,pause,0.4,None,None,None,0,191,191,191,,,,,,,,,,,1,69.05467796325684,N009,visual,1,[],"['1', '2', '3', '4']",1,2023.2.3,harveyvisual,2.1,[],8,0.75,
6,dot,0.3,['dot'],['density'],black,0,192,192,192,,,69.60021209716797,69.31584191322327,69.61582899093628,dot,"[0.08, 0.08, 0.1, 0.1, 0.1, 0.06]","[[-0.521575560759306, -0.09896409503936293], [-0.11005055439098525, 0.007412765662050641], [-0.2691644509192311, -0.32034241736757013], [-0.33082776037640693, 0.11579187391948328], [-0.031037041641207554, -0.21820435357846482], [-0.2943013415457968, -0.09543215727460275]]",density,black,,,N009,visual,1,[],"['1', '2', '3', '4']",1,2023.2.3,harveyvisual,2.1,[],8,0.75,
0,pause,0.4,None,None,None,0,193,193,193,,,,,,,,,,,,,N009,visual,1,[],"['1', '2', '3', '4']",1,2023.2.3,harveyvisual,2.1,[],8,0.75,
6,dot,0.3,['dot'],['density'],black,0,194,194,194,,,70.30023288726807,70.01581406593323,70.31579899787903,dot,"[0.06, 0.1, 0.06, 0.1, 0.08, 0.1]","[[0.1982846419110591, -0.5292804859653952], [-0.09533153174900855, -0.5647367288422243], [-0.1659446600366624, -0.36958438178462333], [0.23572970018209544, -0.2476946313124468], [-0.023160452264027947, -0.17140847685647978], [0.035419311136148636, -0.3737635646361638]]",density,black,,,N009,visual,1,[],"['1', '2', '3', '4']",1,2023.2.3,harveyvisual,2.1,[],8,0.75,
0,pause,0.4,None,None,None,0,195,195,195,,,,,,,,,,,,,N009,visual,1,[],"['1', '2', '3', '4']",1,2023.2.3,harveyvisual,2.1,[],8,0.75,
6,dot,0.3,['dot'],['density'],black,0,196,196,196,,,71.00020694732666,70.71578693389893,71.01577401161194,dot,"[0.08, 0.06, 0.06, 0.1, 0.1, 0.08]","[[-0.060066269329224556, -0.3459973645598818], [-0.2267112282887438, -0.46433083725857055], [-0.03368736353914721, -0.0592740518520544], [0.1129416353875032, -0.20466059509733167], [0.13908697530976044, -0.42386339769443276], [-0.2931789080149146, -0.2669036372638095]]",density,black,,,N009,visual,1,[],"['1', '2', '3', '4']",1,2023.2.3,harveyvisual,2.1,[],8,0.75,
0,pause,0.4,None,None,None,0,197,197,197,,,,,,,,,,,,,N009,visual,1,[],"['1', '2', '3', '4']",1,2023.2.3,harveyvisual,2.1,[],8,0.75,
6,dot,0.3,['dot'],['density'],black,0,198,198,198,,,71.7002260684967,71.41578006744385,71.7157609462738,dot,"[0.08, 0.1, 0.08, 0.06, 0.08, 0.1]","[[-0.3078382271761739, 0.4361778186671046], [-0.059169983783578364, 0.44796520308269433], [-0.3209935464877752, 0.22545519901795916], [-0.10826469778565927, 0.24929594343002343], [-0.016554185736113114, 0.06783813438016018], [-0.29360476626160575, 0.00756342739423081]]",density,black,,,N009,visual,1,[],"['1', '2', '3', '4']",1,2023.2.3,harveyvisual,2.1,[],8,0.75,
0,pause,0.4,None,None,None,0,199,199,199,,,,,,,,,,,,,N009,visual,1,[],"['1', '2', '3', '4']",1,2023.2.3,harveyvisual,2.1,[],8,0.75,
6,dot,0.3,['dot'],['density'],black,0,200,200,200,,,72.4002161026001,72.11580610275269,72.41578602790833,dot,"[0.1, 0.08, 0.08, 0.08, 0.1, 0.08]","[[0.01776890784276672, 0.3448500499300058], [-0.18238616215991446, 0.4840889924469993], [-0.2129582374372363, 0.07157874559070018], [-0.41549008775918617, 0.14353268657608398], [0.019487844458329944, 0.1389587799501653], [-0.21004805074000235, 0.2837936954907191]]",density,black,,,N009,visual,1,[],"['1', '2', '3', '4']",1,2023.2.3,harveyvisual,2.1,[],8,0.75,
0,pause,0.4,None,None,None,0,201,201,201,,,,,,,,,,,,,N009,visual,1,[],"['1', '2', '3', '4']",1,2023.2.3,harveyvisual,2.1,[],8,0.75,
6,dot,0.3,['dot'],['density'],black,0,202,202,202,,,73.10021090507507,72.81583094596863,73.11575293540955,dot,"[0.06, 0.06, 0.1, 0.08, 0.06, 0.08]","[[0.21259181929123794, -0.28356491423097735], [0.48303195854319764, 0.06048455888335473], [0.22913681079270962, 0.07473613686017411], [0.4939377514137012, -0.2837040300549214], [0.055643620130747785, -0.14290468481535015], [0.3711413815128542, -0.10952979375652658]]",density,black,,,N009,visual,1,[],"['1', '2', '3', '4']",1,2023.2.3,harveyvisual,2.1,[],8,0.75,
0,pause,0.4,None,None,None,0,203,203,203,,,,,,,,,,,,,N009,visual,1,[],"['1', '2', '3', '4']",1,2023.2.3,harveyvisual,2.1,[],8,0.75,
5,dot,0.3,['dot'],['density'],black,0,204,204,204,,,73.80023097991943,73.5158200263977,73.81573295593262,dot,"[0.1, 0.1, 0.1, 0.08, 0.1]","[[-0.16893136043895146, -0.20127892763881453], [-0.5727216740452047, -0.07682091551650742], [-0.343702592036276, -0.060533526953518955], [-0.5038383983260774, 0.15268268748871192], [-0.379488354443274, -0.2704310218069364]]",density,black,,,N009,visual,1,[],"['1', '2', '3', '4']",1,2023.2.3,harveyvisual,2.1,[],8,0.75,
0,pause,0.4,None,None,None,0,205,205,205,,,,,,,,,,,,,N009,visual,1,[],"['1', '2', '3', '4']",1,2023.2.3,harveyvisual,2.1,[],8,0.75,
5,dot,0.3,['dot'],['density'],black,0,206,206,206,,,74.5002269744873,74.21598291397095,74.5157470703125,dot,"[0.1, 0.08, 0.08, 0.06, 0.08]","[[-0.006164932418690097, -0.4528126201229341], [-0.1681524682570009, -0.11721653268637569], [-0.1959903964051736, -0.3710708837277218], [0.03544926667602863, -0.1302589477940128], [0.16830580561999814, -0.32298356607012285]]",density,black,,,N009,visual,1,[],"['1', '2', '3', '4']",1,2023.2.3,harveyvisual,2.1,[],8,0.75,
0,pause,0.4,None,None,None,0,207,207,207,,,,,,,,,,,,,N009,visual,1,[],"['1', '2', '3', '4']",1,2023.2.3,harveyvisual,2.1,[],8,0.75,
5,dot,0.3,['dot'],['density'],black,0,208,208,208,,,75.20023202896118,74.9157030582428,75.21569299697876,dot,"[0.08, 0.08, 0.08, 0.06, 0.06]","[[-0.16255238243643175, 0.17860987090823105], [-0.3708934258622909, -0.17994308192218272], [-0.3873401471382859, 0.23755408526324856], [-0.3082462149465763, 0.01808515368093923], [-0.09381294098683406, -0.04001219282613638]]",density,black,,,N009,visual,1,[],"['1', '2', '3', '4']",1,2023.2.3,harveyvisual,2.1,[],8,0.75,
0,pause,0.4,None,None,None,0,209,209,209,,,,,,,,,,,,,N009,visual,1,[],"['1', '2', '3', '4']",1,2023.2.3,harveyvisual,2.1,[],8,0.75,
5,dot,0.3,['dot'],['density'],black,0,210,210,210,,,75.90021109580994,75.61567497253418,75.91567587852478,dot,"[0.06, 0.06, 0.1, 0.08, 0.1]","[[-0.24811222937808852, -0.0926462173418487], [-0.0684102839715827, 0.053707960252323945], [-0.4199359189551936, 0.028595247832400618], [-0.4311232183625476, -0.17348815390478414], [-0.08153496032007611, -0.23043043025001772]]",density,black,,,N009,visual,1,[],"['1', '2', '3', '4']",1,2023.2.3,harveyvisual,2.1,[],8,0.75,
0,pause,0.4,None,None,None,0,211,211,211,,,,,,,,,,,,,N009,visual,1,[],"['1', '2', '3', '4']",1,2023.2.3,harveyvisual,2.1,[],8,0.75,
5,dot,0.3,['dot'],['density'],black,0,212,212,212,,,76.60020804405212,76.31574511528015,76.61564803123474,dot,"[0.08, 0.1, 0.06, 0.06, 0.06]","[[-0.28680504698685855, -0.37141287089520275], [-0.07941991320777259, -0.3100284666993168], [0.1333965094747872, -0.32231728701695306], [-0.16725551142864267, -0.07802884766317453], [0.04399369704041987, -0.09756099317031844]]",density,black,,,N009,visual,1,[],"['1', '2', '3', '4']",1,2023.2.3,harveyvisual,2.1,[],8,0.75,
0,pause,0.4,None,None,None,0,213,213,213,,,,,,,,,,,,,N009,visual,1,[],"['1', '2', '3', '4']",1,2023.2.3,harveyvisual,2.1,[],8,0.75,
5,dot,0.3,['dot'],['density'],black,0,214,214,214,,,77.3002119064331,77.0156409740448,77.31570506095886,dot,"[0.06, 0.06, 0.1, 0.1, 0.1]","[[-0.4702494158317004, 0.19352793081356498], [-0.36864189631283095, -0.2113573127283173], [-0.3573601989406874, -0.007363185939446715], [-0.15559938224235453, -0.02548680069503583], [-0.25069196230576396, 0.1747846118010945]]",density,black,,,N009,visual,1,[],"['1', '2', '3', '4']",1,2023.2.3,harveyvisual,2.1,[],8,0.75,
0,pause,0.4,None,None,None,0,215,215,215,,,,,,,,,,,,,N009,visual,1,[],"['1', '2', '3', '4']",1,2023.2.3,harveyvisual,2.1,[],8,0.75,
4,dot,0.3,['dot'],['density'],black,0,216,216,216,,,78.000235080719,77.71562194824219,78.01560688018799,dot,"[0.06, 0.1, 0.06, 0.06]","[[0.13421512820946938, -0.5336194340609706], [0.2622623892029083, -0.3575253733063478], [0.024533045116508903, -0.3376850530006363], [0.166924465117498, -0.0963569090623874]]",density,black,,,N009,visual,1,[],"['1', '2', '3', '4']",1,2023.2.3,harveyvisual,2.1,[],8,0.75,
0,pause,0.4,None,None,None,0,217,217,217,,,,,,,,,,,,,N009,visual,1,[],"['1', '2', '3', '4']",1,2023.2.3,harveyvisual,2.1,[],8,0.75,
4,dot,0.3,['dot'],['density'],black,0,218,218,218,,,78.70023107528687,78.41560101509094,78.71562194824219,dot,"[0.08, 0.08, 0.06, 0.08]","[[0.3510671072586959, 0.39105757673094776], [0.13754249634966464, 0.24690230999823115], [0.2791454519284172, 0.028997379515453933], [0.42442503262497266, 0.18132357243737673]]",density,black,,,N009,visual,1,[],"['1', '2', '3', '4']",1,2023.2.3,harveyvisual,2.1,[],8,0.75,
0,pause,0.4,None,None,None,0,219,219,219,,,,,,,,,,,,,N009,visual,1,[],"['1', '2', '3', '4']",1,2023.2.3,harveyvisual,2.1,[],8,0.75,
4,dot,0.3,['dot'],['density'],black,0,220,220,220,,,79.40022110939026,79.11563301086426,79.4156060218811,dot,"[0.06, 0.08, 0.1, 0.1]","[[-0.03907102058372138, -0.1723346686752248], [0.13255167928633116, -0.03782047714335622], [0.2720101467217329, -0.23443565690461937], [0.07080951743106016, -0.35239766365090747]]",density,black,,,N009,visual,1,[],"['1', '2', '3', '4']",1,2023.2.3,harveyvisual,2.1,[],8,0.75,
0,pause,0.4,None,None,None,0,221,221,221,,,,,,,,,,,,,N009,visual,1,[],"['1', '2', '3', '4']",1,2023.2.3,harveyvisual,2.1,[],8,0.75,
4,dot,0.3,['dot'],['density'],white,0,222,222,222,,,80.1002299785614,79.81559205055237,80.11560797691345,dot,"[0.1, 0.08, 0.06, 0.1]","[[0.15462156444594843, 0.0379601134824338], [-0.046642739949193296, 0.06510400621286498], [0.12320708371464141, 0.2499967514902957], [-0.13279798436850673, 0.2624558601457805]]",density,white,,,N009,visual,1,[],"['1', '2', '3', '4']",1,2023.2.3,harveyvisual,2.1,[],8,0.75,
0,pause,0.4,None,None,None,0,223,223,223,,,,,,,,,,,1,80.13604211807251,N009,visual,1,[],"['1', '2', '3', '4']",1,2023.2.3,harveyvisual,2.1,[],8,0.75,
4,dot,0.3,['dot'],['density'],black,0,224,224,224,,,80.8002200126648,80.51561307907104,80.81559300422668,dot,"[0.1, 0.1, 0.1, 0.1]","[[-0.4771446773377139, 0.25157103962592786], [-0.4259846000875058, -0.15982147080050188], [-0.5514119563937664, 0.017569371675289724], [-0.3400083930451492, 0.09263869595453958]]",density,black,,,N009,visual,1,[],"['1', '2', '3', '4']",1,2023.2.3,harveyvisual,2.1,[],8,0.75,
0,pause,0.4,None,None,None,0,225,225,225,,,,,,,,,,,,,N009,visual,1,[],"['1', '2', '3', '4']",1,2023.2.3,harveyvisual,2.1,[],8,0.75,
4,dot,0.3,['dot'],['density'],black,0,226,226,226,,,81.500235080719,81.21556210517883,81.51555395126343,dot,"[0.06, 0.08, 0.08, 0.1]","[[-0.4771446773377139, 0.25157103962592786], [-0.4259846000875058, -0.15982147080050188], [-0.5514119563937664, 0.017569371675289724], [-0.3400083930451492, 0.09263869595453958]]",density,black,,,N009,visual,1,[],"['1', '2', '3', '4']",1,2023.2.3,harveyvisual,2.1,[],8,0.75,
0,pause,0.4,None,None,None,0,227,227,227,,,,,,,,,,,,,N009,visual,1,[],"['1', '2', '3', '4']",1,2023.2.3,harveyvisual,2.1,[],8,0.75,
3,dot,0.3,['dot'],['density'],black,0,228,228,228,,,82.20023488998413,81.91567707061768,82.21557307243347,dot,"[0.06, 0.08, 0.08]","[[0.5383732683216915, 0.24050044654635605], [0.337973319445641, 0.36292363064724675], [0.3422154310588786, 0.14570949010333048]]",density,black,,,N009,visual,1,[],"['1', '2', '3', '4']",1,2023.2.3,harveyvisual,2.1,[],8,0.75,
0,pause,0.4,None,None,None,0,229,229,229,,,,,,,,,,,,,N009,visual,1,[],"['1', '2', '3', '4']",1,2023.2.3,harveyvisual,2.1,[],8,0.75,
3,dot,0.3,['dot'],['density'],black,0,230,230,230,,,82.90021204948425,82.61552000045776,82.91548299789429,dot,"[0.1, 0.06, 0.06]","[[0.5267872668145167, -0.16137547842759675], [0.3420119191573968, -0.036920749927643534], [0.3185462880061428, -0.2399114968218526]]",density,black,,,N009,visual,1,[],"['1', '2', '3', '4']",1,2023.2.3,harveyvisual,2.1,[],8,0.75,
0,pause,0.4,None,None,None,0,231,231,231,,,,,,,,,,,,,N009,visual,1,[],"['1', '2', '3', '4']",1,2023.2.3,harveyvisual,2.1,[],8,0.75,
3,dot,0.3,['dot'],['density'],black,0,232,232,232,,,83.60023498535156,83.3154730796814,83.61548709869385,dot,"[0.08, 0.06, 0.08]","[[0.3835821938049364, -0.20766469641190155], [0.321707527308891, -0.4175939354614905], [0.1897943789354585, -0.2642367600490923]]",density,black,,,N009,visual,1,[],"['1', '2', '3', '4']",1,2023.2.3,harveyvisual,2.1,[],8,0.75,
0,pause,0.4,None,None,None,0,233,233,233,,,,,,,,,,,,,N009,visual,1,[],"['1', '2', '3', '4']",1,2023.2.3,harveyvisual,2.1,[],8,0.75,
3,dot,0.3,['dot'],['density'],black,0,234,234,234,,,84.30023097991943,84.01547598838806,84.31546807289124,dot,"[0.06, 0.08, 0.1]","[[0.29938275938101017, 0.44415474715472736], [0.13070782598704628, 0.5557174004537693], [0.11832456902218637, 0.3273615767427578]]",density,black,,,N009,visual,1,[],"['1', '2', '3', '4']",1,2023.2.3,harveyvisual,2.1,[],8,0.75,
0,pause,0.4,None,None,None,0,235,235,235,,,,,,,,,,,,,N009,visual,1,[],"['1', '2', '3', '4']",1,2023.2.3,harveyvisual,2.1,[],8,0.75,
3,dot,0.3,['dot'],['density'],black,0,236,236,236,,,85.00022101402283,84.7154610157013,85.01551699638367,dot,"[0.1, 0.1, 0.06]","[[0.2656832518280197, 0.0014864193765316018], [0.3503107158811183, -0.1826455867164705], [0.5188928509039705, -0.04177453376365527]]",density,black,,,N009,visual,1,[],"['1', '2', '3', '4']",1,2023.2.3,harveyvisual,2.1,[],8,0.75,
0,pause,0.4,None,None,None,0,237,237,237,,,,,,,,,,,,,N009,visual,1,[],"['1', '2', '3', '4']",1,2023.2.3,harveyvisual,2.1,[],8,0.75,
3,dot,0.3,['dot'],['density'],black,0,238,238,238,,,85.70022511482239,85.41696190834045,85.7154049873352,dot,"[0.08, 0.08, 0.1]","[[0.026071599024748527, -0.32860913997604846], [-0.11834724389398482, -0.18584523127985947], [0.10068982493997472, -0.12518245043845455]]",density,black,,,N009,visual,1,[],"['1', '2', '3', '4']",1,2023.2.3,harveyvisual,2.1,[],8,0.75,
0,pause,0.4,None,None,None,0,239,239,239,,,,,,,,,,,,,N009,visual,1,[],"['1', '2', '3', '4']",1,2023.2.3,harveyvisual,2.1,[],8,0.75,
2,dot,0.3,['dot'],['density'],black,0,240,240,240,,,86.40023589134216,86.11540102958679,86.41540288925171,dot,"[0.06, 0.08]","[[0.4298854344354601, 0.24556028782034023], [0.23727674624932948, 0.18886586315459258]]",density,black,,,N009,visual,1,[],"['1', '2', '3', '4']",1,2023.2.3,harveyvisual,2.1,[],8,0.75,
0,pause,0.4,None,None,None,0,241,241,241,,,,,,,,,,,,,N009,visual,1,[],"['1', '2', '3', '4']",1,2023.2.3,harveyvisual,2.1,[],8,0.75,
2,dot,0.3,['dot'],['density'],black,0,242,242,242,,,87.10023498535156,86.81539988517761,87.11538004875183,dot,"[0.06, 0.06]","[[-0.4579128382498026, -0.013317831223324628], [-0.28624676016543393, -0.11681778735554697]]",density,black,,,N009,visual,1,[],"['1', '2', '3', '4']",1,2023.2.3,harveyvisual,2.1,[],8,0.75,
0,pause,0.4,None,None,None,0,243,243,243,,,,,,,,,,,,,N009,visual,1,[],"['1', '2', '3', '4']",1,2023.2.3,harveyvisual,2.1,[],8,0.75,
2,dot,0.3,['dot'],['density'],black,0,244,244,244,,,87.80023407936096,87.51535606384277,87.81535196304321,dot,"[0.1, 0.08]","[[-0.2277318593301165, -0.35289300204507235], [-0.09400723608355734, -0.20388512549033708]]",density,black,,,N009,visual,1,[],"['1', '2', '3', '4']",1,2023.2.3,harveyvisual,2.1,[],8,0.75,
0,pause,0.4,None,None,None,0,245,245,245,,,,,,,,,,,,,N009,visual,1,[],"['1', '2', '3', '4']",1,2023.2.3,harveyvisual,2.1,[],8,0.75,
2,dot,0.3,['dot'],['density'],black,0,246,246,246,,,88.50022602081299,88.2153480052948,88.51534390449524,dot,"[0.1, 0.08]","[[-0.03288134563171543, -0.4238564918242606], [-0.10611641736664675, -0.2370354775439666]]",density,black,,,N009,visual,1,[],"['1', '2', '3', '4']",1,2023.2.3,harveyvisual,2.1,[],8,0.75,
0,pause,0.4,None,None,None,0,247,247,247,,,,,,,,,,,,,N009,visual,1,[],"['1', '2', '3', '4']",1,2023.2.3,harveyvisual,2.1,[],8,0.75,
2,dot,0.3,['dot'],['density'],black,0,248,248,248,,,89.20023202896118,88.91533708572388,89.21536207199097,dot,"[0.08, 0.06]","[[0.45098141687762733, -0.20237638590572143], [0.5433504117931098, -0.02475258047346216]]",density,black,,,N009,visual,1,[],"['1', '2', '3', '4']",1,2023.2.3,harveyvisual,2.1,[],8,0.75,
0,pause,0.4,None,None,None,0,249,249,249,,,,,,,,,,,,,N009,visual,1,[],"['1', '2', '3', '4']",1,2023.2.3,harveyvisual,2.1,[],8,0.75,
2,dot,0.3,['dot'],['density'],black,0,250,250,250,,,89.90023994445801,89.61548709869385,89.91546487808228,dot,"[0.08, 0.08]","[[-0.22226122312079244, -0.00806926593831646], [-0.023245446524914906, -0.037240983575548024]]",density,black,,,N009,visual,1,[],"['1', '2', '3', '4']",1,2023.2.3,harveyvisual,2.1,[],8,0.75,
0,pause,0.4,None,None,None,0,251,251,251,,,,,,,,,,,,,N009,visual,1,[],"['1', '2', '3', '4']",1,2023.2.3,harveyvisual,2.1,[],8,0.75,
1,dot,0.3,['dot'],['density'],black,0,252,252,252,,,90.6002779006958,90.31545996665955,90.61534404754639,dot,[0.1],"[-0.4519365434524677, 0.22287683068434597]",density,black,,,N009,visual,1,[],"['1', '2', '3', '4']",1,2023.2.3,harveyvisual,2.1,[],8,0.75,
0,pause,0.4,None,None,None,0,253,253,253,,,,,,,,,,,,,N009,visual,1,[],"['1', '2', '3', '4']",1,2023.2.3,harveyvisual,2.1,[],8,0.75,
1,dot,0.3,['dot'],['density'],black,0,254,254,254,,,91.30022096633911,91.01535105705261,91.31532907485962,dot,[0.06],"[0.0956549371127339, 0.09579573331985794]",density,black,,,N009,visual,1,[],"['1', '2', '3', '4']",1,2023.2.3,harveyvisual,2.1,[],8,0.75,
0,pause,0.4,None,None,None,0,255,255,255,,,,,,,,,,,,,N009,visual,1,[],"['1', '2', '3', '4']",1,2023.2.3,harveyvisual,2.1,[],8,0.75,
1,dot,0.3,['dot'],['density'],black,0,256,256,256,,,92.00022792816162,91.71533298492432,92.01531505584717,dot,[0.08],"[0.075024325262877, 0.28946834799837856]",density,black,,,N009,visual,1,[],"['1', '2', '3', '4']",1,2023.2.3,harveyvisual,2.1,[],8,0.75,
0,pause,0.4,None,None,None,0,257,257,257,,,,,,,,,,,,,N009,visual,1,[],"['1', '2', '3', '4']",1,2023.2.3,harveyvisual,2.1,[],8,0.75,
1,dot,0.3,['dot'],['density'],black,0,258,258,258,,,92.70023488998413,92.4152889251709,92.71527290344238,dot,[0.06],"[0.1049869166116724, 0.1335000464341748]",density,black,,,N009,visual,1,[],"['1', '2', '3', '4']",1,2023.2.3,harveyvisual,2.1,[],8,0.75,
0,pause,0.4,None,None,None,0,259,259,259,,,,,,,,,,,,,N009,visual,1,[],"['1', '2', '3', '4']",1,2023.2.3,harveyvisual,2.1,[],8,0.75,
1,dot,0.3,['dot'],['density'],black,0,260,260,260,,,93.40022897720337,93.11532306671143,93.41530990600586,dot,[0.1],"[0.4123293050259286, 0.03564095151647579]",density,black,,,N009,visual,1,[],"['1', '2', '3', '4']",1,2023.2.3,harveyvisual,2.1,[],8,0.75,
0,pause,0.4,None,None,None,0,261,261,261,,,,,,,,,,,,,N009,visual,1,[],"['1', '2', '3', '4']",1,2023.2.3,harveyvisual,2.1,[],8,0.75,
1,dot,0.3,['dot'],['density'],black,0,262,262,262,,,94.10022687911987,93.815269947052,94.1153678894043,dot,[0.08],"[0.4230572171255965, 0.15564154118015242]",density,black,,,N009,visual,1,[],"['1', '2', '3', '4']",1,2023.2.3,harveyvisual,2.1,[],8,0.75,
0,pause,0.4,None,None,None,0,263,263,263,,,,,,,,,,,,,N009,visual,1,[],"['1', '2', '3', '4']",1,2023.2.3,harveyvisual,2.1,[],8,0.75,
20,dot,0.3,['dot'],['density'],black,0,264,264,264,,,94.80023288726807,94.51536798477173,94.8152449131012,dot,"[0.08, 0.08, 0.06, 0.08, 0.08, 0.08, 0.08, 0.1, 0.1, 0.1, 0.08, 0.06, 0.06, 0.06, 0.08, 0.06, 0.1, 0.08, 0.1, 0.08]","[[-0.018621194967045285, 0.5222353548536711], [-0.29057873145672186, -0.4156633230403525], [-0.4791394645980407, -0.19353182008367542], [0.5649017867275762, 0.1660999525397327], [0.3747236125162767, -0.20824906527922948], [-0.4980326540281396, 0.22339198194094484], [0.27618121278143426, -0.4711080326409263], [0.22041643691439827, 0.30200171632077943], [-0.18275592569396876, 0.012479620747612219], [-0.603241678200748, 0.03185975702592626], [-0.07619396682861523, -0.4925169756613579], [-0.3823356749052377, 0.44160787297622145], [0.22370725303805228, 0.5216588229761657], [0.02209485279390322, 0.18643143189046396], [0.04846889082007233, -0.24932501103144417], [0.5438371830628778, -0.02266856578902271], [-0.27054721595737496, -0.2096101795959393], [-0.20695687509333344, 0.20489512658293918], [0.29397047933512455, 0.1079873394360843], [0.10909717203905023, 0.01737759252725135]]",density,black,,,N009,visual,1,[],"['1', '2', '3', '4']",1,2023.2.3,harveyvisual,2.1,[],8,0.75,
0,pause,0.4,None,None,None,0,265,265,265,,,,,,,,,,,,,N009,visual,1,[],"['1', '2', '3', '4']",1,2023.2.3,harveyvisual,2.1,[],8,0.75,
20,dot,0.3,['dot'],['density'],black,0,266,266,266,,,95.50021195411682,95.21524500846863,95.5151720046997,dot,"[0.06, 0.1, 0.06, 0.08, 0.08, 0.08, 0.06, 0.06, 0.06, 0.08, 0.06, 0.06, 0.06, 0.1, 0.1, 0.06, 0.06, 0.08, 0.08, 0.08]","[[0.2708783333591901, -0.3876679847158673], [0.5716863439725589, -0.17633839513461919], [0.0921693108682694, 0.11884169527384603], [0.3620326275018738, 0.47194374940423667], [0.0011846265121110422, 0.4708755331903143], [-0.5960692949009038, -0.04393864915392198], [-0.45069397773189124, 0.13868112734480903], [-0.2194955372351171, -0.3114500040312847], [0.33127874125214407, 0.07951926969467504], [0.5764358968053537, 0.03210938522209236], [-0.4462204282954677, -0.23640108344285415], [-0.32836307779784063, 0.3980883239736863], [-0.02329813746633924, -0.32428880761809453], [0.2413636182688227, 0.28817076224645], [-0.29207005495071336, -0.0210631211674005], [0.27112612273337944, -0.13190824747228325], [-0.018085642116054457, -0.5681319561082999], [-0.09815976163674567, -0.10422666574244721], [-0.1528462791346521, 0.21350108453575112], [-0.21782438477736743, 0.560400440462416]]",density,black,,,N009,visual,1,[],"['1', '2', '3', '4']",1,2023.2.3,harveyvisual,2.1,[],8,0.75,
0,pause,0.4,None,None,None,0,267,267,267,,,,,,,,,,,,,N009,visual,1,[],"['1', '2', '3', '4']",1,2023.2.3,harveyvisual,2.1,[],8,0.75,
