num,mod,duration,shape,ll_cond,colors,.thisRepN,.thisTrialN,.thisN,.thisIndex,thisRow.t,notes,raw_global_time,t_start,t_stop,shapes,size,pos,cond,color,button,RT,participant,session,starting_run,left button (match/odd),right button (non-match/even),samples_per_block,psychopy version,expName,offset,audio,number_runs,radius,
1,dot,0.3,['dot'],['density'],white,0,0,0,0,,,2.4002151489257812,2.108859062194824,2.4089720249176025,dot,[0.1],"[0.01430498756481247, 0.36429701967127975]",density,white,,,N009,visual,1,[],"['1', '2', '3', '4']",1,2023.2.3,harveyvisual,2.1,[],8,0.75,
0,pause,0.4,None,None,None,0,1,1,1,,,,,,,,,,,1,2.6392159461975098,N009,visual,1,[],"['1', '2', '3', '4']",1,2023.2.3,harveyvisual,2.1,[],8,0.75,
1,dot,0.3,['dot'],['density'],black,0,2,2,2,,,3.1002001762390137,2.808988094329834,3.109816074371338,dot,[0.1],"[-0.4913090862596544, 0.31587628757091063]",density,black,,,N009,visual,1,[],"['1', '2', '3', '4']",1,2023.2.3,harveyvisual,2.1,[],8,0.75,
0,pause,0.4,None,None,None,0,3,3,3,,,,,,,,,,,,,N009,visual,1,[],"['1', '2', '3', '4']",1,2023.2.3,harveyvisual,2.1,[],8,0.75,
1,dot,0.3,['dot'],['density'],black,0,4,4,4,,,3.800206184387207,3.509322166442871,3.809235095977783,dot,[0.1],"[-0.13294789447644317, -0.0050084293737640015]",density,black,,,N009,visual,1,[],"['1', '2', '3', '4']",1,2023.2.3,harveyvisual,2.1,[],8,0.75,
0,pause,0.4,None,None,None,0,5,5,5,,,,,,,,,,,,,N009,visual,1,[],"['1', '2', '3', '4']",1,2023.2.3,harveyvisual,2.1,[],8,0.75,
1,dot,0.3,['dot'],['density'],black,0,6,6,6,,,4.500196218490601,4.209223031997681,4.509266138076782,dot,[0.1],"[0.0038807231877187303, -0.2777732366953785]",density,black,,,N009,visual,1,[],"['1', '2', '3', '4']",1,2023.2.3,harveyvisual,2.1,[],8,0.75,
0,pause,0.4,None,None,None,0,7,7,7,,,,,,,,,,,,,N009,visual,1,[],"['1', '2', '3', '4']",1,2023.2.3,harveyvisual,2.1,[],8,0.75,
1,dot,0.3,['dot'],['density'],black,0,8,8,8,,,5.200201034545898,4.909305095672607,5.209330081939697,dot,[0.1],"[0.31457923939875737, -0.4122609730770665]",density,black,,,N009,visual,1,[],"['1', '2', '3', '4']",1,2023.2.3,harveyvisual,2.1,[],8,0.75,
0,pause,0.4,None,None,None,0,9,9,9,,,,,,,,,,,,,N009,visual,1,[],"['1', '2', '3', '4']",1,2023.2.3,harveyvisual,2.1,[],8,0.75,
1,dot,0.3,['dot'],['density'],black,0,10,10,10,,,5.900204181671143,5.609314203262329,5.911569118499756,dot,[0.1],"[0.1049869166116724, 0.1335000464341748]",density,black,,,N009,visual,1,[],"['1', '2', '3', '4']",1,2023.2.3,harveyvisual,2.1,[],8,0.75,
0,pause,0.4,None,None,None,0,11,11,11,,,,,,,,,,,,,N009,visual,1,[],"['1', '2', '3', '4']",1,2023.2.3,harveyvisual,2.1,[],8,0.75,
2,dot,0.3,['dot'],['density'],white,0,12,12,12,,,6.600198984146118,6.311542987823486,6.611560106277466,dot,"[0.1, 0.1]","[[0.17083311991776792, -0.05558111512160733], [0.1461049568064877, -0.25438559320493304]]",density,white,,,N009,visual,1,[],"['1', '2', '3', '4']",1,2023.2.3,harveyvisual,2.1,[],8,0.75,
0,pause,0.4,None,None,None,0,13,13,13,,,,,,,,,,,1,6.62246298789978,N009,visual,1,[],"['1', '2', '3', '4']",1,2023.2.3,harveyvisual,2.1,[],8,0.75,
2,dot,0.3,['dot'],['density'],black,0,14,14,14,,,7.300204038619995,7.011540174484253,7.311475038528442,dot,"[0.06, 0.1]","[[-0.3970652553054307, 0.36151140161898554], [-0.22306532646831484, 0.26288994227005946]]",density,black,,,N009,visual,1,[],"['1', '2', '3', '4']",1,2023.2.3,harveyvisual,2.1,[],8,0.75,
0,pause,0.4,None,None,None,0,15,15,15,,,,,,,,,,,,,N009,visual,1,[],"['1', '2', '3', '4']",1,2023.2.3,harveyvisual,2.1,[],8,0.75,
2,dot,0.3,['dot'],['density'],black,0,16,16,16,,,8.000205039978027,7.711477994918823,8.01146411895752,dot,"[0.1, 0.08]","[[-0.19266755722762574, -0.036106715323925336], [-0.096675332858716, 0.13967695308521302]]",density,black,,,N009,visual,1,[],"['1', '2', '3', '4']",1,2023.2.3,harveyvisual,2.1,[],8,0.75,
0,pause,0.4,None,None,None,0,17,17,17,,,,,,,,,,,,,N009,visual,1,[],"['1', '2', '3', '4']",1,2023.2.3,harveyvisual,2.1,[],8,0.75,
2,dot,0.3,['dot'],['density'],black,0,18,18,18,,,8.700205087661743,8.411445140838623,8.71144700050354,dot,"[0.08, 0.06]","[[-0.40295961353468523, -0.33947470962363085], [-0.23663605411983973, -0.22749761394439932]]",density,black,,,N009,visual,1,[],"['1', '2', '3', '4']",1,2023.2.3,harveyvisual,2.1,[],8,0.75,
0,pause,0.4,None,None,None,0,19,19,19,,,,,,,,,,,,,N009,visual,1,[],"['1', '2', '3', '4']",1,2023.2.3,harveyvisual,2.1,[],8,0.75,
2,dot,0.3,['dot'],['density'],black,0,20,20,20,,,9.400220155715942,9.111435174942017,9.411425113677979,dot,"[0.08, 0.1]","[[-0.4149324818804315, 0.28007444048998836], [-0.5260390884397633, 0.11347960973083408]]",density,black,,,N009,visual,1,[],"['1', '2', '3', '4']",1,2023.2.3,harveyvisual,2.1,[],8,0.75,
0,pause,0.4,None,None,None,0,21,21,21,,,,,,,,,,,,,N009,visual,1,[],"['1', '2', '3', '4']",1,2023.2.3,harveyvisual,2.1,[],8,0.75,
2,dot,0.3,['dot'],['density'],black,0,22,22,22,,,10.100214004516602,9.811415195465088,10.111399173736572,dot,"[0.1, 0.1]","[[0.09481659993656301, 0.43631713998557026], [0.0662189159667295, 0.23745101446818795]]",density,black,,,N009,visual,1,[],"['1', '2', '3', '4']",1,2023.2.3,harveyvisual,2.1,[],8,0.75,
0,pause,0.4,None,None,None,0,23,23,23,,,,,,,,,,,,,N009,visual,1,[],"['1', '2', '3', '4']",1,2023.2.3,harveyvisual,2.1,[],8,0.75,
3,dot,0.3,['dot'],['density'],black,0,24,24,24,,,10.800223112106323,10.511394023895264,10.811395168304443,dot,"[0.08, 0.08, 0.06]","[[-0.1599523582230929, -0.020289166781496174], [-0.3458010015304564, -0.14250622038001895], [-0.3538668896253721, 0.08903610231223419]]",density,black,,,N009,visual,1,[],"['1', '2', '3', '4']",1,2023.2.3,harveyvisual,2.1,[],8,0.75,
0,pause,0.4,None,None,None,0,25,25,25,,,,,,,,,,,,,N009,visual,1,[],"['1', '2', '3', '4']",1,2023.2.3,harveyvisual,2.1,[],8,0.75,
3,dot,0.3,['dot'],['density'],white,0,26,26,26,,,11.500224113464355,11.211397171020508,11.511380195617676,dot,"[0.08, 0.1, 0.06]","[[0.041215869578383385, -0.00689674906403758], [0.17500875751152645, 0.21459232562634095], [-0.03632281132631849, 0.2012994076415249]]",density,white,,,N009,visual,1,[],"['1', '2', '3', '4']",1,2023.2.3,harveyvisual,2.1,[],8,0.75,
0,pause,0.4,None,None,None,0,27,27,27,,,,,,,,,,,1,11.521027088165283,N009,visual,1,[],"['1', '2', '3', '4']",1,2023.2.3,harveyvisual,2.1,[],8,0.75,
3,dot,0.3,['dot'],['density'],black,0,28,28,28,,,12.20020318031311,11.911363124847412,12.21136212348938,dot,"[0.1, 0.08, 0.08]","[[0.16698284004709638, 0.14340522813657522], [0.014382160343152013, -0.0120418799203457], [0.17626274868444566, -0.13037823744598942]]",density,black,,,N009,visual,1,[],"['1', '2', '3', '4']",1,2023.2.3,harveyvisual,2.1,[],8,0.75,
0,pause,0.4,None,None,None,0,29,29,29,,,,,,,,,,,,,N009,visual,1,[],"['1', '2', '3', '4']",1,2023.2.3,harveyvisual,2.1,[],8,0.75,
3,dot,0.3,['dot'],['density'],black,0,30,30,30,,,12.90022611618042,12.611358165740967,12.911360025405884,dot,"[0.1, 0.1, 0.08]","[[0.2768253388883432, 0.03346297355107007], [0.11287187477499526, -0.09417797505773098], [0.09003622344097514, 0.12370024427926096]]",density,black,,,N009,visual,1,[],"['1', '2', '3', '4']",1,2023.2.3,harveyvisual,2.1,[],8,0.75,
0,pause,0.4,None,None,None,0,31,31,31,,,,,,,,,,,,,N009,visual,1,[],"['1', '2', '3', '4']",1,2023.2.3,harveyvisual,2.1,[],8,0.75,
3,dot,0.3,['dot'],['density'],white,0,32,32,32,,,13.600213050842285,13.311331987380981,13.611329078674316,dot,"[0.1, 0.06, 0.06]","[[-0.36641147837046456, 0.28339849123565264], [-0.19108570342652328, 0.4628134959899303], [-0.16564092668537764, 0.24926372681875647]]",density,white,,,N009,visual,1,[],"['1', '2', '3', '4']",1,2023.2.3,harveyvisual,2.1,[],8,0.75,
0,pause,0.4,None,None,None,0,33,33,33,,,,,,,,,,,1,13.625309944152832,N009,visual,1,[],"['1', '2', '3', '4']",1,2023.2.3,harveyvisual,2.1,[],8,0.75,
3,dot,0.3,['dot'],['density'],black,0,34,34,34,,,14.300209999084473,14.011324167251587,14.311302185058594,dot,"[0.08, 0.08, 0.08]","[[-0.32624451712468355, -0.43854848545497693], [-0.39409142490376414, -0.22516425170789148], [-0.152352104904091, -0.33204091051628687]]",density,black,,,N009,visual,1,[],"['1', '2', '3', '4']",1,2023.2.3,harveyvisual,2.1,[],8,0.75,
0,pause,0.4,None,None,None,0,35,35,35,,,,,,,,,,,,,N009,visual,1,[],"['1', '2', '3', '4']",1,2023.2.3,harveyvisual,2.1,[],8,0.75,
4,dot,0.3,['dot'],['density'],black,0,36,36,36,,,15.00019907951355,14.711297988891602,15.011299133300781,dot,"[0.1, 0.08, 0.1, 0.1]","[[0.2472118047986834, -0.10298318101898082], [0.5832669122255578, -0.0503561045998346], [0.411076479450662, -0.2641061246578253], [0.42907679660555237, 0.09101913809416001]]",density,black,,,N009,visual,1,[],"['1', '2', '3', '4']",1,2023.2.3,harveyvisual,2.1,[],8,0.75,
0,pause,0.4,None,None,None,0,37,37,37,,,,,,,,,,,,,N009,visual,1,[],"['1', '2', '3', '4']",1,2023.2.3,harveyvisual,2.1,[],8,0.75,
4,dot,0.3,['dot'],['density'],black,0,38,38,38,,,15.700220108032227,15.411441087722778,15.71142315864563,dot,"[0.1, 0.06, 0.08, 0.06]","[[-0.5372831058023291, 0.07679305146548565], [-0.47746952625478134, -0.11455356156484316], [-0.2888199447118168, 0.02804534169422597], [-0.3317661241759115, -0.2533775510137967]]",density,black,,,N009,visual,1,[],"['1', '2', '3', '4']",1,2023.2.3,harveyvisual,2.1,[],8,0.75,
0,pause,0.4,None,None,None,0,39,39,39,,,,,,,,,,,,,N009,visual,1,[],"['1', '2', '3', '4']",1,2023.2.3,harveyvisual,2.1,[],8,0.75,
4,dot,0.3,['dot'],['density'],black,0,40,40,40,,,16.400201082229614,16.11143708229065,16.4114191532135,dot,"[0.1, 0.08, 0.1, 0.1]","[[0.5195678262777355, 0.06634869171649047], [0.11508779247300271, 0.04459464887784077], [0.27862218446352316, 0.18290230777407274], [0.28701832247091064, -0.08209332131291468]]",density,black,,,N009,visual,1,[],"['1', '2', '3', '4']",1,2023.2.3,harveyvisual,2.1,[],8,0.75,
0,pause,0.4,None,None,None,0,41,41,41,,,,,,,,,,,,,N009,visual,1,[],"['1', '2', '3', '4']",1,2023.2.3,harveyvisual,2.1,[],8,0.75,
4,dot,0.3,['dot'],['density'],black,0,42,42,42,,,17.100200176239014,16.811414003372192,17.111401081085205,dot,"[0.1, 0.1, 0.06, 0.08]","[[0.06019618102804278, 0.17823994931545822], [-0.1876584465411705, -0.07971170835358893], [0.026807447441335588, -0.04038633305360204], [-0.17818728785032123, 0.12753763641901858]]",density,black,,,N009,visual,1,[],"['1', '2', '3', '4']",1,2023.2.3,harveyvisual,2.1,[],8,0.75,
0,pause,0.4,None,None,None,0,43,43,43,,,,,,,,,,,,,N009,visual,1,[],"['1', '2', '3', '4']",1,2023.2.3,harveyvisual,2.1,[],8,0.75,
4,dot,0.3,['dot'],['density'],black,0,44,44,44,,,17.80020499229431,17.511402130126953,17.811378002166748,dot,"[0.08, 0.1, 0.1, 0.08]","[[0.2472118047986834, -0.10298318101898082], [0.5832669122255578, -0.0503561045998346], [0.411076479450662, -0.2641061246578253], [0.42907679660555237, 0.09101913809416001]]",density,black,,,N009,visual,1,[],"['1', '2', '3', '4']",1,2023.2.3,harveyvisual,2.1,[],8,0.75,
0,pause,0.4,None,None,None,0,45,45,45,,,,,,,,,,,,,N009,visual,1,[],"['1', '2', '3', '4']",1,2023.2.3,harveyvisual,2.1,[],8,0.75,
4,dot,0.3,['dot'],['density'],black,0,46,46,46,,,18.500211000442505,18.211225032806396,18.51137614250183,dot,"[0.08, 0.06, 0.06, 0.1]","[[-0.3130108772186628, 0.4658633188731559], [0.06875292536802097, 0.3619778545149697], [-0.12928423743784842, 0.28835211797578114], [-0.08764786508193922, 0.5151731075523892]]",density,black,,,N009,visual,1,[],"['1', '2', '3', '4']",1,2023.2.3,harveyvisual,2.1,[],8,0.75,
0,pause,0.4,None,None,None,0,47,47,47,,,,,,,,,,,,,N009,visual,1,[],"['1', '2', '3', '4']",1,2023.2.3,harveyvisual,2.1,[],8,0.75,
5,dot,0.3,['dot'],['density'],black,0,48,48,48,,,19.20020818710327,18.911354064941406,19.21134305000305,dot,"[0.1, 0.1, 0.08, 0.08, 0.1]","[[-0.5348211864270219, -0.08335004612931018], [-0.428892633085643, 0.14758700623805307], [-0.3277098387322906, -0.27887202276080253], [-0.29687101947458117, -0.03792463078145938], [-0.23363771935579355, 0.21194794904782605]]",density,black,,,N009,visual,1,[],"['1', '2', '3', '4']",1,2023.2.3,harveyvisual,2.1,[],8,0.75,
0,pause,0.4,None,None,None,0,49,49,49,,,,,,,,,,,,,N009,visual,1,[],"['1', '2', '3', '4']",1,2023.2.3,harveyvisual,2.1,[],8,0.75,
5,dot,0.3,['dot'],['density'],black,0,50,50,50,,,19.900224208831787,19.611299991607666,19.91131901741028,dot,"[0.06, 0.08, 0.1, 0.08, 0.08]","[[-0.15120343604734773, 0.13880483605515373], [-0.27543704003083597, 0.3074941448909677], [-0.47853302670601033, 0.30949922786165307], [-0.3682774975032249, -0.13900280599659498], [-0.34692227301900613, 0.0889564565184539]]",density,black,,,N009,visual,1,[],"['1', '2', '3', '4']",1,2023.2.3,harveyvisual,2.1,[],8,0.75,
0,pause,0.4,None,None,None,0,51,51,51,,,,,,,,,,,,,N009,visual,1,[],"['1', '2', '3', '4']",1,2023.2.3,harveyvisual,2.1,[],8,0.75,
5,dot,0.3,['dot'],['density'],black,0,52,52,52,,,20.60021209716797,20.311312198638916,20.61129903793335,dot,"[0.06, 0.06, 0.08, 0.08, 0.1]","[[-0.47409275164437775, -0.17842554437930905], [-0.28800513042966097, -0.4059597382025641], [-0.20075697267214665, 0.008887320625593834], [-0.2708677629513771, -0.1868162154653106], [-0.0886924353013077, -0.2820475711339636]]",density,black,,,N009,visual,1,[],"['1', '2', '3', '4']",1,2023.2.3,harveyvisual,2.1,[],8,0.75,
0,pause,0.4,None,None,None,0,53,53,53,,,,,,,,,,,,,N009,visual,1,[],"['1', '2', '3', '4']",1,2023.2.3,harveyvisual,2.1,[],8,0.75,
5,dot,0.3,['dot'],['density'],black,0,54,54,54,,,21.300218105316162,21.011285066604614,21.31129503250122,dot,"[0.06, 0.08, 0.06, 0.06, 0.1]","[[-0.13667773294397823, -0.4810836359727921], [0.22435054442879343, -0.38211739689247126], [0.18745946747878278, -0.17039478388844306], [0.024239655080151325, -0.29759851870815907], [0.08919077751561523, -0.5300131723353856]]",density,black,,,N009,visual,1,[],"['1', '2', '3', '4']",1,2023.2.3,harveyvisual,2.1,[],8,0.75,
0,pause,0.4,None,None,None,0,55,55,55,,,,,,,,,,,,,N009,visual,1,[],"['1', '2', '3', '4']",1,2023.2.3,harveyvisual,2.1,[],8,0.75,
5,dot,0.3,['dot'],['density'],black,0,56,56,56,,,22.000209093093872,21.71114206314087,22.01126718521118,dot,"[0.06, 0.08, 0.06, 0.08, 0.06]","[[-0.08538919239777085, -0.3767281323802813], [0.14382612128503536, -0.4947333592336123], [0.2503732289573559, -0.06783159190520484], [0.07777572498152553, -0.21879460077906046], [0.26544561712664855, -0.2975172507008621]]",density,black,,,N009,visual,1,[],"['1', '2', '3', '4']",1,2023.2.3,harveyvisual,2.1,[],8,0.75,
0,pause,0.4,None,None,None,0,57,57,57,,,,,,,,,,,,,N009,visual,1,[],"['1', '2', '3', '4']",1,2023.2.3,harveyvisual,2.1,[],8,0.75,
5,dot,0.3,['dot'],['density'],black,0,58,58,58,,,22.700205087661743,22.41112518310547,22.711249113082886,dot,"[0.06, 0.06, 0.06, 0.06, 0.1]","[[-0.08906257038347729, 0.3326351968500321], [0.2173987091792188, 0.026220721131276364], [0.07996259445097068, 0.4821024141609844], [0.14345365083950706, 0.2501481494916038], [-0.03323208063638199, 0.08804517681276208]]",density,black,,,N009,visual,1,[],"['1', '2', '3', '4']",1,2023.2.3,harveyvisual,2.1,[],8,0.75,
0,pause,0.4,None,None,None,0,59,59,59,,,,,,,,,,,,,N009,visual,1,[],"['1', '2', '3', '4']",1,2023.2.3,harveyvisual,2.1,[],8,0.75,
6,dot,0.3,['dot'],['density'],black,0,60,60,60,,,23.400222063064575,23.111115217208862,23.411116123199463,dot,"[0.06, 0.08, 0.06, 0.06, 0.08, 0.08]","[[-0.5416753121247185, 0.020803147184574915], [-0.3232269173664433, -0.07161231053200118], [-0.3008479376061402, -0.286480119217458], [-0.22299540496279888, 0.12470258063391813], [-0.10776740766186912, -0.19554033341247495], [-0.5165544979209102, -0.21376225914528924]]",density,black,,,N009,visual,1,[],"['1', '2', '3', '4']",1,2023.2.3,harveyvisual,2.1,[],8,0.75,
0,pause,0.4,None,None,None,0,61,61,61,,,,,,,,,,,,,N009,visual,1,[],"['1', '2', '3', '4']",1,2023.2.3,harveyvisual,2.1,[],8,0.75,
6,dot,0.3,['dot'],['density'],black,0,62,62,62,,,24.100218057632446,23.81125521659851,24.111093997955322,dot,"[0.08, 0.08, 0.1, 0.06, 0.1, 0.06]","[[0.23041567882598732, 0.45619944218456715], [0.5278859611842325, 0.18245830030246968], [0.08738225171760033, 0.1578384040678088], [0.20561463112105705, -0.03996865664556224], [0.3021721310554224, 0.21718230064421146], [0.4273755636869532, 0.38341374408431883]]",density,black,,,N009,visual,1,[],"['1', '2', '3', '4']",1,2023.2.3,harveyvisual,2.1,[],8,0.75,
0,pause,0.4,None,None,None,0,63,63,63,,,,,,,,,,,,,N009,visual,1,[],"['1', '2', '3', '4']",1,2023.2.3,harveyvisual,2.1,[],8,0.75,
6,dot,0.3,['dot'],['density'],black,0,64,64,64,,,24.800209045410156,24.5110821723938,24.81118416786194,dot,"[0.1, 0.08, 0.06, 0.08, 0.1, 0.08]","[[-0.4130096743352808, -0.09152271377164663], [-0.19778223104980006, -0.03862987845790588], [-0.5782793278508197, 0.04067119283421001], [-0.2942915267906656, -0.3673297053134895], [-0.33560074172492643, 0.119885218799542], [-0.5263932498355091, -0.25924495598585295]]",density,black,,,N009,visual,1,[],"['1', '2', '3', '4']",1,2023.2.3,harveyvisual,2.1,[],8,0.75,
0,pause,0.4,None,None,None,0,65,65,65,,,,,,,,,,,,,N009,visual,1,[],"['1', '2', '3', '4']",1,2023.2.3,harveyvisual,2.1,[],8,0.75,
6,dot,0.3,['dot'],['density'],black,0,66,66,66,,,25.500202178955078,25.211194038391113,25.511193990707397,dot,"[0.08, 0.1, 0.1, 0.1, 0.06, 0.1]","[[-0.31609589870198396, -0.31007670116123803], [-0.4478311917512715, 0.10082722748193511], [-0.2864981571692688, -0.05140390439239721], [-0.09675803094031296, -0.12021517342888931], [-0.4941273593136662, -0.13098935533792763], [-0.1300426850498692, 0.1160403058404222]]",density,black,,,N009,visual,1,[],"['1', '2', '3', '4']",1,2023.2.3,harveyvisual,2.1,[],8,0.75,
0,pause,0.4,None,None,None,0,67,67,67,,,,,,,,,,,,,N009,visual,1,[],"['1', '2', '3', '4']",1,2023.2.3,harveyvisual,2.1,[],8,0.75,
6,dot,0.3,['dot'],['density'],black,0,68,68,68,,,26.200220108032227,25.911221027374268,26.211182117462158,dot,"[0.1, 0.06, 0.06, 0.1, 0.06, 0.1]","[[-0.36904347190091025, 0.2789229011504548], [-0.01038079434194998, 0.053649704929766846], [-0.08735338951653393, 0.578282782753283], [5.153534382930422e-05, 0.38446941554394387], [-0.22753401468201206, 0.43210907521897474], [-0.14647282530567177, 0.24517240432070728]]",density,black,,,N009,visual,1,[],"['1', '2', '3', '4']",1,2023.2.3,harveyvisual,2.1,[],8,0.75,
0,pause,0.4,None,None,None,0,69,69,69,,,,,,,,,,,,,N009,visual,1,[],"['1', '2', '3', '4']",1,2023.2.3,harveyvisual,2.1,[],8,0.75,
6,dot,0.3,['dot'],['density'],black,0,70,70,70,,,26.900214195251465,26.611189126968384,26.91118621826172,dot,"[0.1, 0.1, 0.1, 0.08, 0.1, 0.1]","[[0.4838288853419304, 0.012393783640839304], [0.3357737587390128, 0.3939464288632381], [0.48781910936274964, 0.21484656822060386], [0.038497076365425514, 0.2266532147795764], [0.13074852606734502, 0.009493629341700475], [0.2855531954453259, 0.1811044151544938]]",density,black,,,N009,visual,1,[],"['1', '2', '3', '4']",1,2023.2.3,harveyvisual,2.1,[],8,0.75,
0,pause,0.4,None,None,None,0,71,71,71,,,,,,,,,,,,,N009,visual,1,[],"['1', '2', '3', '4']",1,2023.2.3,harveyvisual,2.1,[],8,0.75,
7,dot,0.3,['dot'],['density'],black,0,72,72,72,,,27.600218057632446,27.311206102371216,27.61121416091919,dot,"[0.08, 0.1, 0.08, 0.06, 0.08, 0.08, 0.06]","[[0.21536278937261513, -0.01733091677764761], [-0.08931035591216824, -0.05246349631749078], [0.21870610454298933, 0.21067491250041093], [-0.1587576617113587, 0.26068369883413384], [0.04623079518225047, 0.4568527369480977], [0.022942391481424712, 0.13939122930077608], [-0.27674911739568203, 0.09730719745121558]]",density,black,,,N009,visual,1,[],"['1', '2', '3', '4']",1,2023.2.3,harveyvisual,2.1,[],8,0.75,
0,pause,0.4,None,None,None,0,73,73,73,,,,,,,,,,,,,N009,visual,1,[],"['1', '2', '3', '4']",1,2023.2.3,harveyvisual,2.1,[],8,0.75,
7,dot,0.3,['dot'],['density'],white,0,74,74,74,,,28.300212144851685,28.01128911972046,28.310978174209595,dot,"[0.08, 0.1, 0.1, 0.08, 0.08, 0.06, 0.1]","[[-0.27882252076513336, 0.33055409005240166], [-0.4957633793454142, -0.06140876275196145], [-0.0066404743852866415, -0.09326226909207957], [-0.0437417051997281, 0.24568157295930956], [-0.4653499650939929, 0.1386387143322748], [-0.23664853702636232, 0.07695828400639043], [-0.2650254833014284, -0.12289079349875774]]",density,white,,,N009,visual,1,[],"['1', '2', '3', '4']",1,2023.2.3,harveyvisual,2.1,[],8,0.75,
0,pause,0.4,None,None,None,0,75,75,75,,,,,,,,,,,1,28.324084043502808,N009,visual,1,[],"['1', '2', '3', '4']",1,2023.2.3,harveyvisual,2.1,[],8,0.75,
7,dot,0.3,['dot'],['density'],black,0,76,76,76,,,29.00021719932556,28.710975170135498,29.010950088500977,dot,"[0.1, 0.1, 0.08, 0.06, 0.1, 0.06, 0.1]","[[0.12430361198122393, -0.484697593056103], [0.0493599320108737, -0.036540600477799993], [0.2536650008125765, -0.05314613827093128], [-0.10908149692518246, -0.38401305955505927], [0.3510411480849886, -0.3949608705840701], [0.16732256025271752, -0.2817377092689904], [0.4277002215428168, -0.1937739732965619]]",density,black,,,N009,visual,1,[],"['1', '2', '3', '4']",1,2023.2.3,harveyvisual,2.1,[],8,0.75,
0,pause,0.4,None,None,None,0,77,77,77,,,,,,,,,,,,,N009,visual,1,[],"['1', '2', '3', '4']",1,2023.2.3,harveyvisual,2.1,[],8,0.75,
7,dot,0.3,['dot'],['density'],black,0,78,78,78,,,29.700221061706543,29.410917043685913,29.710962057113647,dot,"[0.1, 0.06, 0.06, 0.08, 0.1, 0.08, 0.1]","[[-0.23895008888738212, 0.05027357720500052], [0.04847041368780161, 0.3376116924566045], [0.007425979130163878, -0.07582657330311053], [-0.16109724709992976, 0.33554312732420544], [-0.17199436159673825, -0.1887904434853683], [0.1858169564317131, 0.14031933770952934], [-0.038655615351801086, 0.15226176997737048]]",density,black,,,N009,visual,1,[],"['1', '2', '3', '4']",1,2023.2.3,harveyvisual,2.1,[],8,0.75,
0,pause,0.4,None,None,None,0,79,79,79,,,,,,,,,,,,,N009,visual,1,[],"['1', '2', '3', '4']",1,2023.2.3,harveyvisual,2.1,[],8,0.75,
7,dot,0.3,['dot'],['density'],white,0,80,80,80,,,30.400202989578247,30.110908031463623,30.410879135131836,dot,"[0.06, 0.08, 0.06, 0.08, 0.08, 0.08, 0.1]","[[0.36124702795982905, 0.02861074637729004], [0.035495459613383976, -0.03736980990239832], [0.4545067059830119, -0.22475560039862832], [0.21831658066582188, 0.20471036725638603], [0.23621436127430617, -0.13960795011418334], [0.5606656921354746, -0.047865395727918474], [0.5468561378002438, 0.2161657569851178]]",density,white,,,N009,visual,1,[],"['1', '2', '3', '4']",1,2023.2.3,harveyvisual,2.1,[],8,0.75,
0,pause,0.4,None,None,None,0,81,81,81,,,,,,,,,,,1,30.427348136901855,N009,visual,1,[],"['1', '2', '3', '4']",1,2023.2.3,harveyvisual,2.1,[],8,0.75,
7,dot,0.3,['dot'],['density'],black,0,82,82,82,,,31.100203037261963,30.8108971118927,31.110876083374023,dot,"[0.08, 0.1, 0.06, 0.06, 0.1, 0.08, 0.06]","[[-0.3616029487054454, 0.4456424486886853], [-0.1496406170718537, 0.08450683720449656], [-0.4229793897960434, 0.19545916586121675], [-0.050735401720141765, 0.4582308035931027], [-0.23416009772798219, 0.28880413379285297], [0.00916417092529717, 0.20866532064640267], [0.0895043828575618, 0.020292244516940467]]",density,black,,,N009,visual,1,[],"['1', '2', '3', '4']",1,2023.2.3,harveyvisual,2.1,[],8,0.75,
0,pause,0.4,None,None,None,0,83,83,83,,,,,,,,,,,,,N009,visual,1,[],"['1', '2', '3', '4']",1,2023.2.3,harveyvisual,2.1,[],8,0.75,
8,dot,0.3,['dot'],['density'],black,0,84,84,84,,,31.80021905899048,31.510919094085693,31.81088399887085,dot,"[0.1, 0.06, 0.1, 0.1, 0.1, 0.06, 0.06, 0.06]","[[-0.43120034012996816, -0.3965796075128045], [0.1478983624034229, -0.46770986256388064], [-0.23058307999139557, -0.3238539366063682], [-0.07988642296593639, -0.13993938361429092], [-0.08664795903044427, -0.5418074813242995], [0.11879255589163208, -0.1637425359681226], [-0.09873641234556067, 0.08705286872936738], [-0.025120016651009644, -0.34045580780112095]]",density,black,,,N009,visual,1,[],"['1', '2', '3', '4']",1,2023.2.3,harveyvisual,2.1,[],8,0.75,
0,pause,0.4,None,None,None,0,85,85,85,,,,,,,,,,,,,N009,visual,1,[],"['1', '2', '3', '4']",1,2023.2.3,harveyvisual,2.1,[],8,0.75,
8,dot,0.3,['dot'],['density'],white,0,86,86,86,,,32.50021314620972,32.21084403991699,32.510836124420166,dot,"[0.08, 0.1, 0.1, 0.08, 0.06, 0.08, 0.06, 0.08]","[[0.12411109391386341, -0.5343823995123961], [-0.21238427398525783, -0.3197389486612228], [-0.06551876445787266, 0.032183079599910736], [0.22034046694826517, 0.05676208929132721], [0.31747551588691986, -0.13046885784073625], [0.01834943727978222, -0.34316474661021057], [0.10776215616131694, -0.12386070969881222], [-0.2386971922539417, -0.09256206635527232]]",density,white,,,N009,visual,1,[],"['1', '2', '3', '4']",1,2023.2.3,harveyvisual,2.1,[],8,0.75,
0,pause,0.4,None,None,None,0,87,87,87,,,,,,,,,,,1,32.58354997634888,N009,visual,1,[],"['1', '2', '3', '4']",1,2023.2.3,harveyvisual,2.1,[],8,0.75,
8,dot,0.3,['dot'],['density'],black,0,88,88,88,,,33.200206995010376,32.910879135131836,33.21081304550171,dot,"[0.06, 0.06, 0.06, 0.08, 0.06, 0.06, 0.06, 0.06]","[[-0.3265204970111284, 0.22652760434067618], [0.11129643684023392, 0.07926950251467085], [0.07893474341784651, 0.4315681374945237], [-0.2000017914838315, -0.08445279674287073], [-0.29956068591909263, 0.4664910923320479], [-0.09828291121522204, 0.1483319570086381], [0.07400994184747142, -0.11883630301138211], [-0.12650192453358844, 0.35264367728062257]]",density,black,,,N009,visual,1,[],"['1', '2', '3', '4']",1,2023.2.3,harveyvisual,2.1,[],8,0.75,
0,pause,0.4,None,None,None,0,89,89,89,,,,,,,,,,,,,N009,visual,1,[],"['1', '2', '3', '4']",1,2023.2.3,harveyvisual,2.1,[],8,0.75,
8,dot,0.3,['dot'],['density'],black,0,90,90,90,,,33.90022301673889,33.61081004142761,33.910847187042236,dot,"[0.1, 0.1, 0.06, 0.1, 0.06, 0.08, 0.06, 0.1]","[[0.4107983822504989, -0.04783789354839145], [-0.06954892783911702, 0.20421019801840873], [0.19287329246680035, -0.23674413065931216], [-0.04658255687897442, -0.27568538913083557], [0.19478566210173015, -0.00965484605936359], [-0.04069516991009335, -0.04900998707948758], [0.17921022995035232, 0.2044367826380957], [-0.22871454517575843, 0.05025111546696341]]",density,black,,,N009,visual,1,[],"['1', '2', '3', '4']",1,2023.2.3,harveyvisual,2.1,[],8,0.75,
0,pause,0.4,None,None,None,0,91,91,91,,,,,,,,,,,,,N009,visual,1,[],"['1', '2', '3', '4']",1,2023.2.3,harveyvisual,2.1,[],8,0.75,
8,dot,0.3,['dot'],['density'],black,0,92,92,92,,,34.60021114349365,34.310808181762695,34.610800981521606,dot,"[0.1, 0.1, 0.06, 0.1, 0.08, 0.1, 0.08, 0.08]","[[0.43039348711459674, -0.2176132953198537], [0.11499515674856413, 0.2899266495440316], [0.12808102003139596, -0.009244067984354065], [-0.030386771168905473, -0.2551920291624523], [0.3118809155168881, 0.2081403981228026], [-0.06282563634610334, 0.11114412413027695], [0.22944900542930163, -0.23921835558115082], [0.33219925311336224, 0.0035410395788749187]]",density,black,,,N009,visual,1,[],"['1', '2', '3', '4']",1,2023.2.3,harveyvisual,2.1,[],8,0.75,
0,pause,0.4,None,None,None,0,93,93,93,,,,,,,,,,,,,N009,visual,1,[],"['1', '2', '3', '4']",1,2023.2.3,harveyvisual,2.1,[],8,0.75,
8,dot,0.3,['dot'],['density'],black,0,94,94,94,,,35.30020499229431,35.01077318191528,35.31093907356262,dot,"[0.1, 0.08, 0.08, 0.06, 0.1, 0.1, 0.08, 0.06]","[[-0.13470540342303577, 0.06408260861786476], [-0.32633744656496655, 0.15045505181492372], [-0.2908673593763413, -0.0762007135190446], [-0.5368971138264618, 0.18470905249118252], [0.055331558945424124, 0.1732254888039505], [-0.30909967543404826, 0.3845911877556102], [-0.0777863596696305, 0.41921053595603236], [0.03181857584637903, -0.08967320215721851]]",density,black,,,N009,visual,1,[],"['1', '2', '3', '4']",1,2023.2.3,harveyvisual,2.1,[],8,0.75,
0,pause,0.4,None,None,None,0,95,95,95,,,,,,,,,,,,,N009,visual,1,[],"['1', '2', '3', '4']",1,2023.2.3,harveyvisual,2.1,[],8,0.75,
9,dot,0.3,['dot'],['density'],black,0,96,96,96,,,36.00021719932556,35.710795164108276,36.010759115219116,dot,"[0.06, 0.08, 0.06, 0.1, 0.06, 0.06, 0.1, 0.06, 0.1]","[[0.27429149071172837, 0.34251676390746333], [0.46797507249945486, 0.005491811463162166], [0.21235580877939833, 0.08757146436558581], [0.046223583492975936, 0.2932249054251131], [0.07051592556679111, -0.0704922843318231], [0.30438918969270623, -0.13028831600800136], [0.11534598117609637, 0.5236829685630697], [-0.06673610159464062, 0.12515255452502297], [-0.14439101605953233, -0.1332028051536465]]",density,black,,,N009,visual,1,[],"['1', '2', '3', '4']",1,2023.2.3,harveyvisual,2.1,[],8,0.75,
0,pause,0.4,None,None,None,0,97,97,97,,,,,,,,,,,,,N009,visual,1,[],"['1', '2', '3', '4']",1,2023.2.3,harveyvisual,2.1,[],8,0.75,
9,dot,0.3,['dot'],['density'],black,0,98,98,98,,,36.70020914077759,36.41074204444885,36.71072721481323,dot,"[0.1, 0.08, 0.06, 0.1, 0.1, 0.06, 0.06, 0.1, 0.06]","[[0.21556792455118703, 0.37642033042102185], [0.14366510572844648, -0.18651452926789283], [0.49642287684820396, -0.0794158383055628], [-0.04770628609247857, -0.12519201939426747], [0.20310136493979325, 0.154094551714378], [-0.004065485174475974, 0.09100382633055243], [-0.018053901421587658, 0.34918523294118026], [0.29624623666919286, -0.053344657000752645], [-0.2018857737562037, 0.01971770186205045]]",density,black,,,N009,visual,1,[],"['1', '2', '3', '4']",1,2023.2.3,harveyvisual,2.1,[],8,0.75,
0,pause,0.4,None,None,None,0,99,99,99,,,,,,,,,,,,,N009,visual,1,[],"['1', '2', '3', '4']",1,2023.2.3,harveyvisual,2.1,[],8,0.75,
9,dot,0.3,['dot'],['density'],black,0,100,100,100,,,37.40021800994873,37.11072111129761,37.41070604324341,dot,"[0.08, 0.1, 0.06, 0.08, 0.06, 0.1, 0.1, 0.1, 0.08]","[[-0.08351644510687262, 0.021707353155035948], [0.11173555070370329, 0.3931220271068859], [-0.15396522232717408, 0.3423719725559184], [0.23829169989725132, 0.186218803300476], [-0.29008049122260166, 0.17395274189193027], [0.2491440638781109, -0.04662568063892593], [-0.2854023508218629, -0.06307984259985559], [0.003596708871689959, 0.21717875760955796], [-0.47489413548496523, 0.030788186259843496]]",density,black,,,N009,visual,1,[],"['1', '2', '3', '4']",1,2023.2.3,harveyvisual,2.1,[],8,0.75,
0,pause,0.4,None,None,None,0,101,101,101,,,,,,,,,,,,,N009,visual,1,[],"['1', '2', '3', '4']",1,2023.2.3,harveyvisual,2.1,[],8,0.75,
9,dot,0.3,['dot'],['density'],white,0,102,102,102,,,38.100224018096924,37.81072807312012,38.11071705818176,dot,"[0.06, 0.08, 0.1, 0.06, 0.1, 0.08, 0.06, 0.08, 0.08]","[[0.4433726728065019, 0.22320554513198193], [0.1026133663954636, -0.050786049565613584], [0.20022034484770485, 0.4412403735117007], [0.45250313802570796, 0.010227273383000257], [0.037500571895399265, 0.24935285809920393], [0.23874579090912346, 0.11348512554989887], [0.25013734113836505, -0.23502010549412247], [0.4599692436892986, -0.2536974682823114], [0.04694731086691962, -0.2548367103293993]]",density,white,,,N009,visual,1,[],"['1', '2', '3', '4']",1,2023.2.3,harveyvisual,2.1,[],8,0.75,
0,pause,0.4,None,None,None,0,103,103,103,,,,,,,,,,,1,38.151586055755615,N009,visual,1,[],"['1', '2', '3', '4']",1,2023.2.3,harveyvisual,2.1,[],8,0.75,
9,dot,0.3,['dot'],['density'],black,0,104,104,104,,,38.80023121833801,38.510725021362305,38.81070613861084,dot,"[0.06, 0.08, 0.06, 0.06, 0.06, 0.08, 0.08, 0.1, 0.1]","[[0.5610971552988853, -0.17060184332349634], [0.41375718760989944, -0.015869013459887487], [0.10524493337967332, -0.4151143617417518], [0.33762937987512565, -0.21166948995529247], [0.31978246251342735, -0.42403070142702926], [0.14918584865882126, 0.054317793641313596], [-0.13687229080136074, -0.3544767643123256], [-0.14284940328496695, -0.15361328447573858], [0.09035025664413378, -0.16809195260635462]]",density,black,,,N009,visual,1,[],"['1', '2', '3', '4']",1,2023.2.3,harveyvisual,2.1,[],8,0.75,
0,pause,0.4,None,None,None,0,105,105,105,,,,,,,,,,,,,N009,visual,1,[],"['1', '2', '3', '4']",1,2023.2.3,harveyvisual,2.1,[],8,0.75,
9,dot,0.3,['dot'],['density'],black,0,106,106,106,,,39.50021314620972,39.2107150554657,39.51081919670105,dot,"[0.06, 0.1, 0.1, 0.06, 0.06, 0.1, 0.06, 0.08, 0.08]","[[-0.08858128315591524, -0.3480052213079807], [0.37291707470974605, -0.0809562497479422], [-0.04311872097798103, 0.23152249840731254], [0.1734412630875083, -0.16491363602164627], [-0.024044713080900382, -0.04824256513196188], [0.126438571592319, 0.09122014985587756], [-0.2168202887682383, 0.11190421567656858], [-0.23215605484234547, -0.20356583507002532], [0.291417597339289, 0.24351333182926893]]",density,black,,,N009,visual,1,[],"['1', '2', '3', '4']",1,2023.2.3,harveyvisual,2.1,[],8,0.75,
0,pause,0.4,None,None,None,0,107,107,107,,,,,,,,,,,,,N009,visual,1,[],"['1', '2', '3', '4']",1,2023.2.3,harveyvisual,2.1,[],8,0.75,
20,dot,0.3,['dot'],['density'],black,0,108,108,108,,,40.200228214263916,39.91058421134949,40.210655212402344,dot,"[0.1, 0.06, 0.06, 0.08, 0.06, 0.1, 0.06, 0.08, 0.1, 0.06, 0.06, 0.1, 0.08, 0.08, 0.1, 0.08, 0.1, 0.06, 0.08, 0.08]","[[-0.25825403724995155, 0.041759081887745575], [0.3595942936184485, -0.06883899990243919], [-0.5439618115573576, 0.17571723300395525], [0.4421810767281181, -0.36160575047591625], [0.10891700687532058, 0.31362872171731626], [-0.3874734393021504, 0.41742859619055583], [-0.21107589467277743, -0.4226360783143517], [-0.19922985587509118, 0.5258818930981853], [0.5423400996571014, 0.09629436371722344], [0.15315550968165792, -0.3129682082891372], [0.5626351825462385, -0.1932556875451505], [0.3471735931277654, 0.2663658072053484], [0.34356618197913824, 0.4847565641438805], [0.062332629207646595, -0.5020775764412629], [-0.008738993128266426, -0.03521496560880111], [0.21263308904032607, 0.09377990627397581], [-0.26426159243514136, 0.2541646555244743], [-0.3683027557797952, -0.25473154742222304], [-0.48956358584925924, -0.031789960557833674], [-0.018308192082437058, 0.5824511389501974]]",density,black,,,N009,visual,1,[],"['1', '2', '3', '4']",1,2023.2.3,harveyvisual,2.1,[],8,0.75,
0,pause,0.4,None,None,None,0,109,109,109,,,,,,,,,,,,,N009,visual,1,[],"['1', '2', '3', '4']",1,2023.2.3,harveyvisual,2.1,[],8,0.75,
20,dot,0.3,['dot'],['density'],black,0,110,110,110,,,40.9002320766449,40.61065220832825,40.91063117980957,dot,"[0.1, 0.06, 0.06, 0.08, 0.06, 0.06, 0.06, 0.1, 0.1, 0.06, 0.08, 0.1, 0.1, 0.1, 0.1, 0.08, 0.06, 0.06, 0.08, 0.08]","[[0.22202414647783852, 0.15638265053244094], [-0.25262403700902414, 0.41086405495479594], [-0.45219095142599086, 0.3114867477172782], [0.48052503038197847, -0.29199362746503327], [-0.06562929265841222, 0.11876398190183601], [0.36372256409646875, -0.11981814687216369], [0.5840833651503746, -0.0856556557862291], [-0.29656527435948665, -0.3116158441876937], [-0.2470875991866449, 0.015885424928096192], [-0.07782200256663563, -0.1413558210783914], [0.49546882513863066, 0.15533068939548073], [-0.5519330594538117, -0.17602424387377905], [0.027312193758728176, 0.43656942600703774], [0.4079331107090044, 0.32687947363012027], [0.014484074284389692, -0.41198230796751567], [-0.4835264271945599, 0.018804574537264085], [0.21835725759217361, 0.46408825677229293], [0.1783543461126762, -0.23500516893796958], [-0.20886030212643747, -0.5586993141967181], [0.09742726773171806, -0.0009611917151498561]]",density,black,,,N009,visual,1,[],"['1', '2', '3', '4']",1,2023.2.3,harveyvisual,2.1,[],8,0.75,
0,pause,0.4,None,None,None,0,111,111,111,,,,,,,,,,,,,N009,visual,1,[],"['1', '2', '3', '4']",1,2023.2.3,harveyvisual,2.1,[],8,0.75,
20,dot,0.3,['dot'],['density'],black,0,112,112,112,,,41.60023021697998,41.31061410903931,41.610679149627686,dot,"[0.06, 0.08, 0.06, 0.06, 0.08, 0.1, 0.1, 0.06, 0.1, 0.06, 0.08, 0.08, 0.1, 0.06, 0.06, 0.06, 0.08, 0.06, 0.1, 0.06]","[[-0.2941456443637235, -0.15789433447028312], [-0.36457361360108553, -0.3533464089457542], [0.3513702655170975, 0.21443465066848488], [0.6052453141407433, 0.003061393790011414], [-0.1057810351404454, 0.06610878952184318], [0.4392414447731988, -0.165367902985882], [-0.26201715191388536, 0.22553081743778502], [0.5458172458075458, 0.24133462461953797], [-0.02293848280836619, -0.5185283035672128], [0.05644029992083899, -0.14320109431782185], [0.24737740643742845, -0.1603509295154914], [-0.44566477748832023, -0.015595924395822525], [0.20600505216471476, 0.4061737938224975], [-0.5944032520227734, 0.1056691639645655], [-0.06316095955611956, 0.4007661577903864], [0.203051941542441, -0.4902608551582323], [-0.5510150434678773, -0.2135596309467214], [0.059246743501457644, 0.5794727680219609], [-0.1712542359204512, -0.3120032717876179], [-0.40136265959827855, 0.427940778938128]]",density,black,,,N009,visual,1,[],"['1', '2', '3', '4']",1,2023.2.3,harveyvisual,2.1,[],8,0.75,
0,pause,0.4,None,None,None,0,113,113,113,,,,,,,,,,,,,N009,visual,1,[],"['1', '2', '3', '4']",1,2023.2.3,harveyvisual,2.1,[],8,0.75,
20,dot,0.3,['dot'],['density'],white,0,114,114,114,,,42.30023002624512,42.0106999874115,42.31069302558899,dot,"[0.08, 0.1, 0.08, 0.08, 0.1, 0.08, 0.08, 0.08, 0.06, 0.08, 0.1, 0.08, 0.08, 0.06, 0.1, 0.08, 0.08, 0.08, 0.08, 0.08]","[[-0.02999387655969621, -0.09619044131379606], [0.1128530023937313, 0.2877338218863825], [-0.5047026705642055, 0.19923952113239207], [-0.19816033206342215, -0.3862568854748847], [0.42387673594066844, -0.11110160958342852], [0.39779364302098064, 0.10144678077298341], [-0.2489589298019224, 0.02811949848881823], [0.3919988931718369, -0.38610907126149363], [0.1322849711858577, -0.27868942729121116], [-0.11031475113680356, 0.45437683981346777], [0.3072758208243881, 0.42552236868333493], [0.22372853942521598, -0.08492470314693301], [0.04475833166907184, 0.5882245070782199], [0.5054888207653313, 0.32240402510857963], [0.1267131000726197, -0.5799927202398447], [-0.46979137169333146, -0.18735245348536697], [0.5863977366224394, 0.14686263491643384], [-0.3070764790878859, 0.2897002936422657], [-0.6038914830774165, -0.00010205522515598087], [-0.23179778957703184, -0.1921855938832483]]",density,white,1,42.24175190925598,N009,visual,1,[],"['1', '2', '3', '4']",1,2023.2.3,harveyvisual,2.1,[],8,0.75,
0,pause,0.4,None,None,None,0,115,115,115,,,,,,,,,,,,,N009,visual,1,[],"['1', '2', '3', '4']",1,2023.2.3,harveyvisual,2.1,[],8,0.75,
20,dot,0.3,['dot'],['density'],white,0,116,116,116,,,43.000224113464355,42.71070098876953,43.01071000099182,dot,"[0.1, 0.06, 0.1, 0.08, 0.1, 0.06, 0.08, 0.06, 0.06, 0.1, 0.08, 0.1, 0.06, 0.06, 0.1, 0.06, 0.06, 0.1, 0.1, 0.06]","[[0.06593654897726453, 0.012786759008863835], [-0.19702242178816237, -0.45687552614570387], [-0.3124772261124205, -0.231739511923569], [-0.5230457104639956, 0.2710421885422978], [-0.5135230067980059, -0.0917493686730648], [0.508265210278351, 0.17111576073887846], [0.5873929992919219, -0.056514358895054045], [-0.2580907189051612, -0.048219534185247104], [-0.13876289070279002, 0.26304232848025466], [0.28986528074870777, 0.05508812982132116], [0.275236629267295, -0.18669966187403686], [-0.09024271374386406, 0.45992181224737316], [0.04449926186467146, -0.5151887457055764], [-0.2914440683339453, 0.1478605931014937], [0.47162022833758355, -0.24136190961512125], [0.10319128197206928, -0.2661313884947458], [-0.3213639518125039, 0.46054499722912334], [0.39795988480963473, -0.44262259098338086], [-0.5256762026336738, -0.2999995350119068], [0.35049479912062464, 0.3428065582226903]]",density,white,,,N009,visual,1,[],"['1', '2', '3', '4']",1,2023.2.3,harveyvisual,2.1,[],8,0.75,
0,pause,0.4,None,None,None,0,117,117,117,,,,,,,,,,,1,43.00603413581848,N009,visual,1,[],"['1', '2', '3', '4']",1,2023.2.3,harveyvisual,2.1,[],8,0.75,
20,dot,0.3,['dot'],['density'],black,0,118,118,118,,,43.70021915435791,43.41049909591675,43.710618019104004,dot,"[0.1, 0.1, 0.06, 0.06, 0.08, 0.08, 0.1, 0.1, 0.1, 0.06, 0.1, 0.1, 0.1, 0.06, 0.1, 0.1, 0.06, 0.06, 0.08, 0.06]","[[-0.0972358351786119, -0.26801131719027405], [-0.40871684255520574, 0.07399553160216976], [0.42212612373558167, -0.21387205478409432], [-0.40970534220407884, -0.26753929282366884], [0.21912235468223396, 0.24585404343401607], [-0.21185717320036573, 0.4174290542326329], [0.4237879404346029, 0.24021502563866198], [-0.04229126015883722, 0.32912714146915767], [0.5984124677925416, -0.0071088149128678], [-0.26833694050466045, -0.433725876148383], [-0.09257615415177711, -0.5444904625124133], [-0.1501550003730867, 0.04007046854597551], [0.04214764202499943, 0.13865662421494263], [-0.5431660100508786, -0.07106117794084862], [-0.46464343439944494, 0.2691541540765207], [0.11479995886239547, -0.10244414078524355], [0.14282378401459417, -0.4643263211403782], [0.19125939610236897, 0.4788623769540924], [0.3547088283384492, -0.3998256723639835], [0.3527529916547919, -0.0012345964535885323]]",density,black,,,N009,visual,1,[],"['1', '2', '3', '4']",1,2023.2.3,harveyvisual,2.1,[],8,0.75,
0,pause,0.4,None,None,None,0,119,119,119,,,,,,,,,,,,,N009,visual,1,[],"['1', '2', '3', '4']",1,2023.2.3,harveyvisual,2.1,[],8,0.75,
20,dot,0.3,['dot'],['density'],black,0,120,120,120,,,44.40022015571594,44.12725210189819,44.410566091537476,dot,"[0.1, 0.1, 0.06, 0.06, 0.08, 0.1, 0.08, 0.08, 0.1, 0.06, 0.06, 0.06, 0.08, 0.1, 0.1, 0.06, 0.06, 0.1, 0.08, 0.1]","[[-0.11891374221127926, -0.24862005437043555], [-0.30080617932494375, 0.16703568683103354], [0.40147058923389134, -0.27188067597003945], [0.28998183680362566, -0.47802854767400005], [0.5670489143911549, 0.11596126923369057], [0.03393335742076342, -0.5076561641015217], [0.1581632738849822, 0.24319531721186594], [0.1493161074435354, -0.07113219946681193], [-0.11918552133175275, 0.04190905703383796], [-0.13785023680752767, 0.36904781699089917], [-0.5231889543676771, -0.022934046071342973], [0.36305557533038313, -0.06498934462358674], [-0.40328374743357187, 0.44745127053062284], [0.1318057473825135, 0.5149049406568023], [-0.3926442073023455, -0.37324734624924727], [-0.2593586743746563, -0.09086168928748573], [0.35318990607095857, 0.14718702767736952], [-0.516267373456393, 0.23800652526516053], [-0.20100314910461797, -0.5622340745068863], [0.4448146391842548, 0.38218187479965726]]",density,black,,,N009,visual,1,[],"['1', '2', '3', '4']",1,2023.2.3,harveyvisual,2.1,[],8,0.75,
0,pause,0.4,None,None,None,0,121,121,121,,,,,,,,,,,,,N009,visual,1,[],"['1', '2', '3', '4']",1,2023.2.3,harveyvisual,2.1,[],8,0.75,
20,dot,0.3,['dot'],['density'],white,0,122,122,122,,,45.10022521018982,44.810482025146484,45.11052703857422,dot,"[0.1, 0.06, 0.08, 0.1, 0.08, 0.1, 0.08, 0.1, 0.08, 0.1, 0.08, 0.08, 0.1, 0.06, 0.06, 0.08, 0.08, 0.08, 0.1, 0.06]","[[0.4253069176090526, -0.18712074742217927], [0.020568264915674983, -0.5882564602045944], [0.4629276480774648, 0.09555731491896596], [0.11436451937253, 0.4659204849880767], [-0.2943505910485517, 0.2901887452087383], [-0.036996017779197254, 0.16692776928844233], [-0.389539358650387, -0.17663996075332672], [-0.6051755941058713, -0.010533337173106599], [0.04994551885325549, -0.1379346846333913], [-0.14179670649064646, -0.35199852556795924], [-0.33935328829424877, 0.041193094371726136], [-0.10938495740825088, -0.019792862991443116], [0.267555471312234, -0.3716825305418059], [0.2307340663673646, -0.040458937618524704], [0.289234635945281, 0.2538745833706477], [-0.5033396929226586, 0.174132568511575], [0.6000001367759412, -0.06403519138184673], [-0.4222436729219351, -0.43193562670817454], [-0.26273010668217256, 0.5338818140239137], [-0.027333722589591547, 0.5962472057657203]]",density,white,,,N009,visual,1,[],"['1', '2', '3', '4']",1,2023.2.3,harveyvisual,2.1,[],8,0.75,
0,pause,0.4,None,None,None,0,123,123,123,,,,,,,,,,,1,45.079106092453,N009,visual,1,[],"['1', '2', '3', '4']",1,2023.2.3,harveyvisual,2.1,[],8,0.75,
20,dot,0.3,['dot'],['density'],black,0,124,124,124,,,45.80020999908447,45.51059913635254,45.810500144958496,dot,"[0.08, 0.1, 0.08, 0.1, 0.06, 0.08, 0.08, 0.08, 0.1, 0.08, 0.06, 0.1, 0.08, 0.1, 0.08, 0.08, 0.1, 0.1, 0.06, 0.1]","[[0.10586924912443518, -0.15673786305825943], [0.16250299331810236, 0.5015265191305263], [0.4432981976949687, 0.2878543893130737], [-0.08579791665973757, -0.21077494759928928], [-0.5176115954960085, -0.01681869205347425], [0.07743130435112178, -0.5462871583146488], [0.44348281536740874, -0.00681396151413749], [-0.21287981202634138, 0.2586577415744403], [0.45387270519494194, -0.24136218380161328], [-0.20172337211451924, 0.06909329729482916], [-0.16508178183105926, -0.3899498777428315], [0.21934727015667654, 0.03395820103684977], [-0.3683211789135875, -0.30598030830116985], [-0.01368833304107131, 0.2345626611746744], [-0.1191541148760425, 0.5917438994895259], [-0.43025946753175204, 0.15297139822574113], [0.1813682240021931, 0.2915773829877578], [0.27904507093211917, -0.5321124309712628], [-0.3053777852007758, 0.460419764002615], [0.25346953781423887, -0.31454813187483055]]",density,black,,,N009,visual,1,[],"['1', '2', '3', '4']",1,2023.2.3,harveyvisual,2.1,[],8,0.75,
0,pause,0.4,None,None,None,0,125,125,125,,,,,,,,,,,,,N009,visual,1,[],"['1', '2', '3', '4']",1,2023.2.3,harveyvisual,2.1,[],8,0.75,
20,dot,0.3,['dot'],['density'],black,0,126,126,126,,,46.500227212905884,46.227195024490356,46.510499000549316,dot,"[0.08, 0.08, 0.1, 0.1, 0.06, 0.06, 0.1, 0.06, 0.08, 0.08, 0.06, 0.08, 0.06, 0.1, 0.1, 0.06, 0.06, 0.1, 0.08, 0.06]","[[0.5675681443430983, 0.109190920727954], [-0.5571425585264914, 0.08584274517170618], [0.5630178507476243, -0.17372865103565854], [0.20074734501300362, -0.3463426727166605], [-0.24069493138964254, -0.37012888671164773], [-0.33477982371497345, 0.06286738052456331], [-0.46539315305590323, -0.37990493829517574], [0.08786525641170484, 0.032773241442565326], [0.015589928227558891, -0.4169441481517152], [-0.3779148997283248, 0.26175992988445385], [-0.23109313020282324, 0.5565664192097057], [0.3264442867473014, -0.1590056875993972], [-0.4124634605176909, -0.1932723754591784], [0.36722593227196865, 0.1957087214584911], [0.16718255183422437, 0.3636344113940331], [-0.14438037835195044, -0.13862384837836167], [-0.11690884275535429, 0.3943252391917019], [0.26155980469476947, 0.5408488582097188], [0.4415804733884733, -0.3285569648967489], [0.05973330388695686, -0.19324271137647836]]",density,black,,,N009,visual,1,[],"['1', '2', '3', '4']",1,2023.2.3,harveyvisual,2.1,[],8,0.75,
0,pause,0.4,None,None,None,0,127,127,127,,,,,,,,,,,,,N009,visual,1,[],"['1', '2', '3', '4']",1,2023.2.3,harveyvisual,2.1,[],8,0.75,
20,dot,0.3,['dot'],['density'],black,0,128,128,128,,,47.20020914077759,46.91041302680969,47.21046805381775,dot,"[0.08, 0.08, 0.08, 0.08, 0.1, 0.1, 0.1, 0.1, 0.1, 0.1, 0.1, 0.08, 0.06, 0.08, 0.08, 0.08, 0.06, 0.08, 0.06, 0.1]","[[-0.04672352870967322, 0.558147144697431], [-0.5780119099867561, 0.06989558806325316], [-0.21709377934174307, -0.026348245714953533], [-0.36003608092526684, 0.40646075741851717], [0.07138012450403453, 0.06797839093248803], [-0.47911580959639466, -0.14949382451778798], [0.5754630097304775, -0.14659407472877922], [-0.2352951414053131, -0.4122657543198137], [0.056477797426879306, -0.26361808580705404], [-0.4214884274637863, 0.20886194245102863], [-0.010399674571275663, -0.4795994733964424], [0.3933815220842338, -0.0029987755620470846], [0.18324997665954657, 0.2750665984415437], [0.5804519963684486, 0.0518813178722832], [0.448556828813616, 0.3990317103968495], [0.4771092105496927, -0.31419891003775235], [0.19082596066156654, -0.08692227530929636], [0.22288763158720037, -0.40414757981420807], [-0.1025119676622307, 0.371074061365097], [-0.09745345364130564, 0.1564171466286972]]",density,black,,,N009,visual,1,[],"['1', '2', '3', '4']",1,2023.2.3,harveyvisual,2.1,[],8,0.75,
0,pause,0.4,None,None,None,0,129,129,129,,,,,,,,,,,,,N009,visual,1,[],"['1', '2', '3', '4']",1,2023.2.3,harveyvisual,2.1,[],8,0.75,
20,dot,0.3,['dot'],['density'],black,0,130,130,130,,,47.9002320766449,47.610395193099976,47.91044616699219,dot,"[0.06, 0.06, 0.06, 0.1, 0.06, 0.08, 0.08, 0.06, 0.1, 0.08, 0.1, 0.08, 0.06, 0.06, 0.1, 0.1, 0.08, 0.08, 0.08, 0.1]","[[-0.48347960754033414, -0.2960035084239694], [0.23356571674781967, 0.24150059599568074], [-0.3335530151892891, -0.007492704379644999], [-0.16097433457783705, 0.2727628076898321], [0.41426150768275305, 0.1364368683112464], [-0.06802670615527451, 0.4458255356975781], [0.5176080415970258, -0.21520033986991216], [0.1303559114168681, -0.33867379625290533], [0.5815371664221426, 0.009832704512325291], [0.29903150368616127, -0.48570720141492363], [-0.3098922175818424, 0.44418632984000583], [-0.1301674372140884, -0.03979893037276183], [-0.3444114201836999, 0.20535019486969674], [-0.567635065015092, -0.11840082977476207], [-0.29772003132407693, -0.35627854174349893], [0.32087915712645343, -0.03019177680833246], [0.2061285394353768, 0.4383397436530223], [-0.5105544299763303, 0.07942215236996059], [0.12357514763140276, 0.0413162419346762], [0.06399900227770206, -0.15546405716192707]]",density,black,,,N009,visual,1,[],"['1', '2', '3', '4']",1,2023.2.3,harveyvisual,2.1,[],8,0.75,
0,pause,0.4,None,None,None,0,131,131,131,,,,,,,,,,,,,N009,visual,1,[],"['1', '2', '3', '4']",1,2023.2.3,harveyvisual,2.1,[],8,0.75,
20,dot,0.3,['dot'],['density'],black,0,132,132,132,,,48.60022711753845,48.3271222114563,48.61043405532837,dot,"[0.06, 0.1, 0.08, 0.1, 0.06, 0.06, 0.06, 0.1, 0.06, 0.06, 0.1, 0.08, 0.06, 0.06, 0.06, 0.06, 0.06, 0.06, 0.08, 0.1]","[[0.07929944403133404, 0.22732420153942134], [0.3704997666618295, 0.1736031987106993], [-0.22053515971424242, -0.41684530905777223], [-0.3734984087666754, 0.08810788373171263], [0.2614097026948746, -0.4386393559638396], [0.48982011095432043, 0.3208522975018034], [-0.2124302913908137, 0.3041695052663147], [0.4964288485722682, -0.3241905022970135], [-0.3749902034157998, -0.23505127249126306], [0.5988606002118745, 0.008476792049921411], [-0.0016145220739044452, -0.057649292243607264], [0.21303589068471385, -0.039946041268769106], [-0.1274005768955438, 0.5414379152938956], [-0.02576300336852355, -0.37888231521878085], [0.1168561827907022, 0.48272206896344294], [-0.4124255558638512, 0.3140529284578974], [0.40199500726088944, -0.12136068588825827], [-0.582517808796476, -0.05899244469991462], [-0.10115157334160108, -0.5895676675986321], [-0.3090927995512605, 0.48500096145562377]]",density,black,,,N009,visual,1,[],"['1', '2', '3', '4']",1,2023.2.3,harveyvisual,2.1,[],8,0.75,
0,pause,0.4,None,None,None,0,133,133,133,,,,,,,,,,,,,N009,visual,1,[],"['1', '2', '3', '4']",1,2023.2.3,harveyvisual,2.1,[],8,0.75,
20,dot,0.3,['dot'],['density'],black,0,134,134,134,,,49.300220012664795,49.02712917327881,49.31043100357056,dot,"[0.06, 0.08, 0.08, 0.08, 0.08, 0.08, 0.06, 0.08, 0.08, 0.06, 0.1, 0.1, 0.06, 0.08, 0.1, 0.1, 0.1, 0.1, 0.1, 0.06]","[[0.3636668907682512, -0.12317310543078791], [-0.5762124848160298, -0.06643009271982227], [-0.3169460491855907, 0.30832525036010994], [-0.042279182814982, 0.2069048845300583], [-0.233185227281068, -0.3335014108010611], [0.39722969886532444, -0.36975041711578543], [0.03193736815913517, 0.5219196986153395], [-0.34665526497940613, -0.11961375246754935], [0.05300058983263167, -0.19780057080011787], [0.08404137225040709, -0.5533191287252416], [0.5862225596114664, 0.015053894262000767], [-0.1466500452025178, -0.05094014905272559], [0.37616222780816067, 0.24042878169151527], [0.17356711673801728, -0.37281199359378536], [-0.5234360908645909, 0.17130652758568876], [-0.2198344227083367, 0.49050605532520175], [0.1741741120325151, 0.0005601700732825732], [0.18220307644378209, 0.350356597923115], [0.5517675690787168, -0.23058974379139452], [-0.38675226172226806, -0.4450097751778567]]",density,black,,,N009,visual,1,[],"['1', '2', '3', '4']",1,2023.2.3,harveyvisual,2.1,[],8,0.75,
0,pause,0.4,None,None,None,0,135,135,135,,,,,,,,,,,,,N009,visual,1,[],"['1', '2', '3', '4']",1,2023.2.3,harveyvisual,2.1,[],8,0.75,
20,dot,0.3,['dot'],['density'],black,0,136,136,136,,,50.00021004676819,49.7270941734314,50.01041603088379,dot,"[0.1, 0.08, 0.1, 0.06, 0.08, 0.06, 0.06, 0.06, 0.1, 0.06, 0.08, 0.1, 0.06, 0.1, 0.1, 0.1, 0.08, 0.08, 0.08, 0.06]","[[0.11798347846991797, -0.2704930417240361], [0.328077893853409, -0.18249006014654146], [0.5514069062292103, -0.050304408523500654], [0.3456078525220194, -0.38920569890929957], [0.33941827440173045, 0.1378229506755526], [-0.46411673846378243, 0.2159691022383562], [0.16929433326879584, 0.5598486618854588], [0.3576238527475619, 0.38476972515405394], [-0.11663252536783336, 0.5667351959528636], [-0.5939715268553448, -0.010222408318562734], [-0.07667465604807877, 0.22764776314747792], [-0.1000138098044876, 0.03224106334181276], [0.061017414490024624, -0.4805978496088968], [-0.21776795905783514, 0.3790881574142484], [-0.19800778154984128, -0.30148883430401613], [-0.42878046826718486, -0.25114279581658605], [0.5333715573703811, 0.25489097647360826], [0.14164728819321803, -0.021597130020720168], [-0.13506917194364237, -0.5204183096682795], [0.18297108525577777, 0.26351408640544816]]",density,black,,,N009,visual,1,[],"['1', '2', '3', '4']",1,2023.2.3,harveyvisual,2.1,[],8,0.75,
0,pause,0.4,None,None,None,0,137,137,137,,,,,,,,,,,,,N009,visual,1,[],"['1', '2', '3', '4']",1,2023.2.3,harveyvisual,2.1,[],8,0.75,
20,dot,0.3,['dot'],['density'],black,0,138,138,138,,,50.70023512840271,50.427075147628784,50.710405111312866,dot,"[0.1, 0.1, 0.08, 0.06, 0.08, 0.06, 0.06, 0.06, 0.08, 0.08, 0.06, 0.1, 0.1, 0.06, 0.1, 0.08, 0.1, 0.1, 0.1, 0.1]","[[-0.016757746725405975, 0.45954706125480815], [0.4188596546529221, -0.13449173519861518], [0.2513299151426297, 0.15392664984081605], [0.554216000365119, 0.11686729259455239], [-0.45547223502185996, -0.2552125344639594], [-0.19341972188392642, 0.33535775802093093], [-0.08455242880548786, -0.3199115441887074], [-0.05731891008713108, -0.0011933387023700393], [0.22300492296158403, -0.4198494530829715], [0.06670736581217418, -0.19998548845924896], [-0.41513662532948886, -0.02282845274236739], [-0.5570338616987347, 0.16836511795148498], [-0.09100829710344249, -0.5727328739742871], [0.2836842033042152, 0.35970901098294794], [-0.19967510250751058, 0.5345540019402346], [-0.24667727456565547, 0.12162052146568536], [0.04487429967377954, 0.26774932889813985], [0.21205003097211295, -0.07648191859107228], [-0.27954618962024763, -0.1843606034428079], [-0.3870405680450668, 0.43829398650529433]]",density,black,,,N009,visual,1,[],"['1', '2', '3', '4']",1,2023.2.3,harveyvisual,2.1,[],8,0.75,
0,pause,0.4,None,None,None,0,139,139,139,,,,,,,,,,,,,N009,visual,1,[],"['1', '2', '3', '4']",1,2023.2.3,harveyvisual,2.1,[],8,0.75,
20,dot,0.3,['dot'],['density'],black,0,140,140,140,,,51.40023112297058,51.12704300880432,51.41035008430481,dot,"[0.08, 0.08, 0.06, 0.06, 0.08, 0.1, 0.1, 0.1, 0.06, 0.06, 0.06, 0.06, 0.06, 0.1, 0.06, 0.1, 0.06, 0.08, 0.08, 0.1]","[[0.025342793660542262, 0.4817020598249384], [-0.3032301717522055, 0.1273435799014606], [0.055670406201034695, -0.5255284448636761], [-0.3817581859310408, -0.3425454534300809], [-0.016461773186624562, 0.026802048521191946], [0.4243431520606281, 0.07851471073359556], [-0.21713878353231053, -0.043571414691220944], [-0.5662395789411777, 0.11134697556772827], [-0.24598257567395532, -0.4883830084432447], [0.5122959552682428, -0.10389505404653349], [0.24731675270221265, 0.43599662852037857], [-0.4700084230248446, 0.34171346634789845], [0.17772301378908995, -0.2482660140373108], [0.29344085301781875, -0.5168746509195833], [-0.235549615089098, 0.42482054765458543], [0.4291793807598957, 0.30958745530930804], [-0.10135978650324151, -0.20166460239343081], [-0.5309198271048028, -0.08751839464405997], [0.06760526464897798, 0.2893604357403051], [0.2090043597891289, 0.08960228037558038]]",density,black,,,N009,visual,1,[],"['1', '2', '3', '4']",1,2023.2.3,harveyvisual,2.1,[],8,0.75,
0,pause,0.4,None,None,None,0,141,141,141,,,,,,,,,,,,,N009,visual,1,[],"['1', '2', '3', '4']",1,2023.2.3,harveyvisual,2.1,[],8,0.75,
20,dot,0.3,['dot'],['density'],black,0,142,142,142,,,52.100224018096924,51.82702112197876,52.110337018966675,dot,"[0.06, 0.08, 0.06, 0.08, 0.06, 0.06, 0.06, 0.08, 0.1, 0.1, 0.1, 0.08, 0.06, 0.1, 0.1, 0.06, 0.08, 0.1, 0.06, 0.08]","[[0.10010361263670109, -0.49684915287934533], [0.5267685085209143, 0.08968947169870378], [-0.16097748237176573, 0.572457728804058], [0.3419877534333511, -0.30398932319412325], [-0.423667734319654, -0.04693613792746992], [0.32642846950289195, 0.40753281071560354], [-0.5632734773066301, 0.12460034483506605], [-0.35252041997702954, 0.44216570298491126], [-0.20563486843530454, 0.04452481602355518], [-0.35358995956786676, -0.27838350980131904], [-0.10251183828351329, 0.3560612352119378], [-0.13501728867761814, -0.18221743097368182], [-0.0748892600720712, -0.42330792823153496], [0.2571840088467271, -0.015734708926564922], [0.022974308982210312, 0.5233330001419423], [0.2374293973817495, 0.23563281885599363], [0.054775516023639725, -0.18565053052390346], [0.5069140106463285, 0.3057269331399957], [-0.316937342590882, -0.4806067634203113], [0.4599871986469849, -0.1479522166895594]]",density,black,,,N009,visual,1,[],"['1', '2', '3', '4']",1,2023.2.3,harveyvisual,2.1,[],8,0.75,
0,pause,0.4,None,None,None,0,143,143,143,,,,,,,,,,,,,N009,visual,1,[],"['1', '2', '3', '4']",1,2023.2.3,harveyvisual,2.1,[],8,0.75,
20,dot,0.3,['dot'],['density'],white,0,144,144,144,,,52.80022406578064,52.52698802947998,52.81031107902527,dot,"[0.06, 0.08, 0.08, 0.06, 0.08, 0.08, 0.06, 0.06, 0.06, 0.08, 0.08, 0.08, 0.1, 0.06, 0.06, 0.08, 0.1, 0.06, 0.08, 0.06]","[[0.26732290616933607, 0.37647116699406524], [-0.2796244461716427, -0.05203558033611699], [-0.36691248188814746, -0.4670217632861755], [0.5411679241686721, -0.130888901497409], [0.1406176730627794, -0.4696313173346135], [-0.11731474139248937, 0.0768350551308189], [-0.2239013831123821, -0.33401833953274535], [-0.27513073408450256, 0.4733699110600247], [0.21934212361929695, -0.1515395741114809], [0.08736550464966064, 0.08369825936754871], [0.3873475047215854, 0.16838989545526273], [-0.5821828278528378, -0.12919847503350684], [0.00528020582070432, -0.20620938200285804], [-0.4041541083390172, 0.15390537480946437], [0.04261179242675217, 0.5599296904363341], [-0.014670388725968153, 0.2601344114999532], [-0.028797853011536145, -0.5611341335904559], [0.32205392922867915, -0.401799145900847], [0.59075763855293, 0.06102346511729115], [-0.39848014670024906, -0.2209745425284068]]",density,white,,,N009,visual,1,[],"['1', '2', '3', '4']",1,2023.2.3,harveyvisual,2.1,[],8,0.75,
0,pause,0.4,None,None,None,0,145,145,145,,,,,,,,,,,1,52.8762640953064,N009,visual,1,[],"['1', '2', '3', '4']",1,2023.2.3,harveyvisual,2.1,[],8,0.75,
20,dot,0.3,['dot'],['density'],black,0,146,146,146,,,53.50023412704468,53.2269651889801,53.510313987731934,dot,"[0.1, 0.08, 0.1, 0.08, 0.08, 0.06, 0.1, 0.06, 0.1, 0.1, 0.1, 0.1, 0.06, 0.1, 0.08, 0.08, 0.08, 0.06, 0.06, 0.08]","[[0.16891129919327608, 0.3110425605706987], [0.49735712143143573, -0.22198845812199777], [-0.0994727598140096, 0.045778242256433566], [-0.15030440310579873, 0.569864555216], [0.09032131143195665, -0.588933823792704], [-0.5337758096988404, 0.21835591405882832], [0.20959263534726313, -0.25179083866168606], [0.45436806466486146, 0.37834172973989405], [-0.3495960578752065, 0.4607196617721317], [-0.3234555034742467, 0.2032481000979327], [-0.21919706360134217, -0.535290852149956], [-0.491203212109814, -0.1432029216337624], [0.2511068368240327, 0.5272488555748238], [-0.10040847779345874, 0.3406971652004255], [0.4204205025227291, 0.1035722196716009], [-0.26258140799643864, -0.11021445431384014], [-0.06099184986319206, -0.34284106782449264], [0.36877326133762856, -0.4548208609096741], [0.1647172224571215, 0.10579203730926212], [0.05125206635177293, -0.1413438318591172]]",density,black,,,N009,visual,1,[],"['1', '2', '3', '4']",1,2023.2.3,harveyvisual,2.1,[],8,0.75,
0,pause,0.4,None,None,None,0,147,147,147,,,,,,,,,,,,,N009,visual,1,[],"['1', '2', '3', '4']",1,2023.2.3,harveyvisual,2.1,[],8,0.75,
20,dot,0.3,['dot'],['density'],black,0,148,148,148,,,54.200218200683594,53.927000999450684,54.210453033447266,dot,"[0.1, 0.06, 0.1, 0.06, 0.06, 0.1, 0.08, 0.1, 0.08, 0.08, 0.06, 0.1, 0.08, 0.1, 0.1, 0.06, 0.1, 0.1, 0.06, 0.1]","[[-0.2817186042387208, -0.48690910209809435], [0.43304847102450805, 0.20293844267195504], [0.061261987612226565, 0.16590027824936537], [0.40366714834463735, -0.429172849769084], [-0.06492482960333201, -0.3657984795092109], [0.5429363747857449, -0.17120497171487775], [-0.44147738967004885, -0.12571166705399794], [0.36465679046547617, 0.38038884290510205], [-0.04702152450363406, 0.4733991429100468], [-0.4777571423389301, 0.24939916498312248], [0.29023988156623914, 0.004323471672772916], [-0.25656519422816887, 0.04157971018654805], [0.2783810146504817, -0.219436811860435], [-0.16621870553243356, 0.3211400158051281], [0.1092371833673148, 0.5951530098299537], [0.13179873642441342, -0.34408177184663125], [-0.10268468086181382, -0.1313262409254447], [0.17601357538212825, -0.5462663941077645], [0.13438341353942618, 0.38089189548683655], [-0.5044197602857624, -0.3290574526103438]]",density,black,,,N009,visual,1,[],"['1', '2', '3', '4']",1,2023.2.3,harveyvisual,2.1,[],8,0.75,
0,pause,0.4,None,None,None,0,149,149,149,,,,,,,,,,,,,N009,visual,1,[],"['1', '2', '3', '4']",1,2023.2.3,harveyvisual,2.1,[],8,0.75,
20,dot,0.3,['dot'],['density'],black,0,150,150,150,,,54.90022015571594,54.62712121009827,54.91047406196594,dot,"[0.06, 0.06, 0.08, 0.1, 0.1, 0.08, 0.08, 0.06, 0.08, 0.08, 0.08, 0.08, 0.06, 0.08, 0.06, 0.06, 0.06, 0.1, 0.1, 0.08]","[[0.4112673654041542, -0.33790319540561664], [-0.003591447757853916, -0.40362954066376366], [0.4730679609486229, -0.015768654612024924], [0.20991233628156747, 0.5142839981095807], [-0.5517313499305033, -0.1262124759753081], [-0.46649748751463255, 0.3225322801544868], [-0.25787547012234163, -0.180948361892882], [-0.29113802690522794, 0.5112342082006466], [0.2595308444896006, 0.16143114341097353], [-0.04193399993329294, 0.17529785809648468], [-0.25081800362208334, -0.38157435908182324], [-0.1895348604386991, 0.0398874235141804], [-0.026047063891999844, -0.21321241432913512], [-0.09223473275973137, 0.4782766029293568], [-0.23902076646029052, 0.30554534510948417], [0.2171809931669062, -0.47481414490314333], [0.19882638573346256, -0.17789847038687046], [-0.1356671926908085, -0.5626538565184582], [0.5424781641215307, 0.22005013467716716], [0.10776651519333869, 0.3352276353732382]]",density,black,,,N009,visual,1,[],"['1', '2', '3', '4']",1,2023.2.3,harveyvisual,2.1,[],8,0.75,
0,pause,0.4,None,None,None,0,151,151,151,,,,,,,,,,,,,N009,visual,1,[],"['1', '2', '3', '4']",1,2023.2.3,harveyvisual,2.1,[],8,0.75,
20,dot,0.3,['dot'],['density'],black,0,152,152,152,,,55.60022020339966,55.31040120124817,55.61046600341797,dot,"[0.08, 0.08, 0.1, 0.08, 0.1, 0.08, 0.08, 0.1, 0.1, 0.08, 0.06, 0.1, 0.06, 0.1, 0.06, 0.08, 0.06, 0.1, 0.08, 0.06]","[[-0.08388731488234835, -0.21330962298260847], [0.23217865473062838, -0.28670655722400085], [-0.32019679471800966, 0.14567470107220992], [0.5671138977121063, -0.1602312920467625], [-0.5157948968199606, 0.25996088413084495], [-0.5443442120359732, -0.10650467314419007], [-0.33006871329959714, -0.4995177637874041], [0.43373369817594043, 0.04112449522848233], [0.1421452031076157, 0.034370178617615044], [0.3450364625290083, 0.43424957605670167], [0.19303234770272704, -0.5626944932422752], [0.4120866935090065, -0.35327316918791685], [-0.062264821062467446, 0.06524068441196762], [0.038977460359062466, 0.2980496280030803], [-0.39180011493834915, -0.23566500144649752], [-0.13795709436758946, 0.5182192517865084], [0.1348171918956811, 0.4714541062511619], [-0.32257084550029447, 0.3503737158906448], [-0.25226686991825004, -0.04027063624972771], [0.5003884309055103, 0.302734274299442]]",density,black,,,N009,visual,1,[],"['1', '2', '3', '4']",1,2023.2.3,harveyvisual,2.1,[],8,0.75,
0,pause,0.4,None,None,None,0,153,153,153,,,,,,,,,,,,,N009,visual,1,[],"['1', '2', '3', '4']",1,2023.2.3,harveyvisual,2.1,[],8,0.75,
20,dot,0.3,['dot'],['density'],black,0,154,154,154,,,56.300212144851685,56.0104022026062,56.31026220321655,dot,"[0.08, 0.06, 0.06, 0.08, 0.06, 0.08, 0.08, 0.1, 0.08, 0.08, 0.08, 0.06, 0.1, 0.1, 0.06, 0.08, 0.06, 0.06, 0.06, 0.08]","[[-0.04162144009588953, -0.1344307659967076], [-0.45999655901251885, 0.02094085895363379], [-0.19420041560635787, 0.314866471137472], [-0.06949297447025227, 0.5202056457117267], [-0.3323326195555567, -0.23671362518741418], [0.45612206552377554, -0.1000826054665111], [0.43260194618306536, -0.3969829650595351], [0.061467689969032846, -0.4342173287353639], [-0.31310287839430045, 0.4755781644534467], [0.18944196134034963, -0.00022791094706808845], [0.5641276070017079, 0.08757411752064032], [0.2833457578402805, 0.28275457616716604], [-0.003254154001455012, 0.2876659751922962], [-0.25580605250589095, 0.08875671504800586], [0.4913838596093757, 0.27411862112727264], [0.12931703224454472, -0.22237546811164666], [-0.5756994240850261, -0.15320348494964306], [-0.2282799822675428, -0.5282147140479395], [0.24064764014510975, 0.5033859561091166], [-0.4926501888593705, 0.28918252101356023]]",density,black,,,N009,visual,1,[],"['1', '2', '3', '4']",1,2023.2.3,harveyvisual,2.1,[],8,0.75,
0,pause,0.4,None,None,None,0,155,155,155,,,,,,,,,,,,,N009,visual,1,[],"['1', '2', '3', '4']",1,2023.2.3,harveyvisual,2.1,[],8,0.75,
9,dot,0.3,['dot'],['density'],black,0,156,156,156,,,57.000208139419556,56.71049213409424,57.010263204574585,dot,"[0.06, 0.08, 0.06, 0.08, 0.1, 0.06, 0.06, 0.06, 0.08]","[[-0.01550530976013749, -0.4685693709261764], [-0.18673980358629047, -0.03677939788938074], [-0.492500386343057, -0.31631588298646995], [-0.31211872613566405, -0.49615226168915794], [-0.29213402726227655, -0.2779210730957987], [-0.48141959868665407, -0.11483975315711048], [0.2805727548720413, -0.20550850813502752], [-0.0662162642732561, -0.2200496541038322], [0.06776853683421198, -0.046300179137656175]]",density,black,,,N009,visual,1,[],"['1', '2', '3', '4']",1,2023.2.3,harveyvisual,2.1,[],8,0.75,
0,pause,0.4,None,None,None,0,157,157,157,,,,,,,,,,,,,N009,visual,1,[],"['1', '2', '3', '4']",1,2023.2.3,harveyvisual,2.1,[],8,0.75,
9,dot,0.3,['dot'],['density'],black,0,158,158,158,,,57.700218200683594,57.41021919250488,57.71027612686157,dot,"[0.06, 0.1, 0.1, 0.1, 0.06, 0.1, 0.08, 0.06, 0.08]","[[0.08305850914464513, -0.5442468290176591], [0.035628337695759515, -0.10623885656661826], [-0.40455734034313895, -0.4103448572564978], [-0.27695520492017833, -0.22921059622728732], [-0.0679181879583315, -0.31282249044743377], [0.15394835823740735, -0.27999833282003045], [0.36545074601266236, -0.2024769979494575], [-0.18616414474285772, -0.004612976462616847], [-0.15152437179077458, -0.5570863580044498]]",density,black,,,N009,visual,1,[],"['1', '2', '3', '4']",1,2023.2.3,harveyvisual,2.1,[],8,0.75,
0,pause,0.4,None,None,None,0,159,159,159,,,,,,,,,,,,,N009,visual,1,[],"['1', '2', '3', '4']",1,2023.2.3,harveyvisual,2.1,[],8,0.75,
9,dot,0.3,['dot'],['density'],black,0,160,160,160,,,58.4002320766449,58.11022400856018,58.41019105911255,dot,"[0.1, 0.08, 0.1, 0.08, 0.06, 0.06, 0.1, 0.08, 0.08]","[[0.16751238249231654, 0.5577961240465925], [-0.27296145406993233, 0.4862198967380745], [-0.029185467938656964, 0.15062746822878756], [-0.0646201772689005, 0.5687739076077192], [0.1739328392933146, 0.3418730943321047], [-0.141244529573345, 0.32572795328380527], [-0.5161698704605421, 0.1834233825743511], [0.21727962056556488, 0.12903401361548372], [-0.23724269532595021, 0.10991409904419316]]",density,black,,,N009,visual,1,[],"['1', '2', '3', '4']",1,2023.2.3,harveyvisual,2.1,[],8,0.75,
0,pause,0.4,None,None,None,0,161,161,161,,,,,,,,,,,,,N009,visual,1,[],"['1', '2', '3', '4']",1,2023.2.3,harveyvisual,2.1,[],8,0.75,
9,dot,0.3,['dot'],['density'],black,0,162,162,162,,,59.1002140045166,58.81016206741333,59.11010003089905,dot,"[0.1, 0.1, 0.06, 0.08, 0.06, 0.08, 0.06, 0.06, 0.08]","[[0.5571797577834091, 0.07732674165650813], [0.16332656704353227, -0.09331314560094064], [0.4138178119161903, 0.3925230053806507], [0.28711316854655766, 0.07147022394212545], [0.052100496024031176, 0.3810199549023822], [0.2172039135420496, 0.26337040755706287], [-0.2646845915772586, 0.12849707234668142], [0.21844181080216274, 0.4926952285236599], [0.0761275456309072, 0.11718001140956479]]",density,black,,,N009,visual,1,[],"['1', '2', '3', '4']",1,2023.2.3,harveyvisual,2.1,[],8,0.75,
0,pause,0.4,None,None,None,0,163,163,163,,,,,,,,,,,,,N009,visual,1,[],"['1', '2', '3', '4']",1,2023.2.3,harveyvisual,2.1,[],8,0.75,
9,dot,0.3,['dot'],['density'],black,0,164,164,164,,,59.80022621154785,59.51015901565552,59.810139179229736,dot,"[0.08, 0.1, 0.06, 0.1, 0.1, 0.1, 0.06, 0.1, 0.1]","[[-0.13146557112902973, 0.14116723461389186], [0.2951467361821443, -0.02824752732805288], [0.19428532799116477, -0.23589609671221848], [-0.28731157875063357, -0.1506919145754202], [-0.013954936164563217, -0.2914313940092583], [0.05437169614590384, 0.05057158482376688], [-0.11710547218270359, -0.5628603002908775], [-0.3181416531292253, -0.36750682532956547], [-0.10064922490671671, -0.07835054634105423]]",density,black,,,N009,visual,1,[],"['1', '2', '3', '4']",1,2023.2.3,harveyvisual,2.1,[],8,0.75,
0,pause,0.4,None,None,None,0,165,165,165,,,,,,,,,,,,,N009,visual,1,[],"['1', '2', '3', '4']",1,2023.2.3,harveyvisual,2.1,[],8,0.75,
9,dot,0.3,['dot'],['density'],black,0,166,166,166,,,60.500208139419556,60.210134983062744,60.51011300086975,dot,"[0.06, 0.08, 0.1, 0.06, 0.08, 0.1, 0.1, 0.1, 0.06]","[[-0.4219467838066047, -0.18114019941065054], [-0.2081543488995217, -0.4860059455967178], [-0.008274735502094755, -0.3457533902190916], [0.02376323820852766, -0.0891001390581758], [-0.4116277839025775, 0.058108040724694845], [-0.18144554169200455, -0.05292133149533743], [0.21944315682242976, -0.26450239569476724], [0.11466821484809545, 0.13327019789913197], [-0.2288148866166432, -0.2599929378926301]]",density,black,,,N009,visual,1,[],"['1', '2', '3', '4']",1,2023.2.3,harveyvisual,2.1,[],8,0.75,
0,pause,0.4,None,None,None,0,167,167,167,,,,,,,,,,,,,N009,visual,1,[],"['1', '2', '3', '4']",1,2023.2.3,harveyvisual,2.1,[],8,0.75,
8,dot,0.3,['dot'],['density'],black,0,168,168,168,,,61.20021319389343,60.91010308265686,61.210116147994995,dot,"[0.08, 0.08, 0.06, 0.08, 0.1, 0.08, 0.08, 0.06]","[[0.08034727882022866, 0.21485544138691295], [0.4485208087802622, -0.24912681836757106], [0.26129939989417056, 0.09257513963058502], [0.557413308755299, 0.1511846349250138], [0.2634990941728302, -0.1333032593777782], [0.3632073825345479, 0.269269938976799], [-0.13869722159995554, 0.017464377414806956], [0.4339652718412117, -0.009910074233595774]]",density,black,,,N009,visual,1,[],"['1', '2', '3', '4']",1,2023.2.3,harveyvisual,2.1,[],8,0.75,
0,pause,0.4,None,None,None,0,169,169,169,,,,,,,,,,,,,N009,visual,1,[],"['1', '2', '3', '4']",1,2023.2.3,harveyvisual,2.1,[],8,0.75,
8,dot,0.3,['dot'],['density'],black,0,170,170,170,,,61.90022110939026,61.610090017318726,61.91011714935303,dot,"[0.1, 0.08, 0.06, 0.08, 0.1, 0.08, 0.1, 0.08]","[[0.12411109391386341, -0.5343823995123961], [-0.21238427398525783, -0.3197389486612228], [-0.06551876445787266, 0.032183079599910736], [0.22034046694826517, 0.05676208929132721], [0.31747551588691986, -0.13046885784073625], [0.01834943727978222, -0.34316474661021057], [0.10776215616131694, -0.12386070969881222], [-0.2386971922539417, -0.09256206635527232]]",density,black,,,N009,visual,1,[],"['1', '2', '3', '4']",1,2023.2.3,harveyvisual,2.1,[],8,0.75,
0,pause,0.4,None,None,None,0,171,171,171,,,,,,,,,,,,,N009,visual,1,[],"['1', '2', '3', '4']",1,2023.2.3,harveyvisual,2.1,[],8,0.75,
8,dot,0.3,['dot'],['density'],black,0,172,172,172,,,62.60020899772644,62.31008219718933,62.610093116760254,dot,"[0.08, 0.1, 0.06, 0.1, 0.08, 0.06, 0.06, 0.08]","[[-0.17382250058115215, 0.008030820220576582], [-0.5561520679887834, 0.09064024109159684], [-0.2322770524578434, -0.18818443710846813], [-0.41357291590276396, -0.2905316508268561], [-0.37423053416790164, -0.04064357687765813], [-0.014699175284411378, 0.15059198662288528], [-0.015485985535575739, -0.1348843831724925], [-0.36639977644872057, 0.228205681233079]]",density,black,,,N009,visual,1,[],"['1', '2', '3', '4']",1,2023.2.3,harveyvisual,2.1,[],8,0.75,
0,pause,0.4,None,None,None,0,173,173,173,,,,,,,,,,,,,N009,visual,1,[],"['1', '2', '3', '4']",1,2023.2.3,harveyvisual,2.1,[],8,0.75,
8,dot,0.3,['dot'],['density'],black,0,174,174,174,,,63.3002290725708,63.01009202003479,63.31008219718933,dot,"[0.06, 0.1, 0.08, 0.1, 0.08, 0.06, 0.08, 0.1]","[[-0.012034279999911439, 0.06556808781241986], [-0.3446774290598954, 0.11122635080299646], [0.22428040003470762, 0.1796687910302273], [-0.037221971777983635, 0.5300244249381355], [-0.1456717336157172, 0.2672263832914442], [0.040508406505222534, 0.3412803201140432], [-0.26975617824218623, 0.48628578621654683], [0.24128509790231628, 0.4122343446782376]]",density,black,,,N009,visual,1,[],"['1', '2', '3', '4']",1,2023.2.3,harveyvisual,2.1,[],8,0.75,
0,pause,0.4,None,None,None,0,175,175,175,,,,,,,,,,,,,N009,visual,1,[],"['1', '2', '3', '4']",1,2023.2.3,harveyvisual,2.1,[],8,0.75,
8,dot,0.3,['dot'],['density'],black,0,176,176,176,,,64.00021314620972,63.71006417274475,64.0100622177124,dot,"[0.08, 0.08, 0.08, 0.06, 0.08, 0.06, 0.08, 0.1]","[[-0.3869743371455666, 0.15388434217336297], [0.11424038932868294, 0.18734519769139274], [-0.06602262913525138, -0.20199883598953133], [-0.13221522482970946, 0.16661696891490863], [-0.2408224703751142, -0.03724946932993881], [-0.01219752370661542, -0.004327099574405561], [-0.20345141844285677, 0.44978546357431476], [0.2450906497331586, -0.012808503174003826]]",density,black,,,N009,visual,1,[],"['1', '2', '3', '4']",1,2023.2.3,harveyvisual,2.1,[],8,0.75,
0,pause,0.4,None,None,None,0,177,177,177,,,,,,,,,,,,,N009,visual,1,[],"['1', '2', '3', '4']",1,2023.2.3,harveyvisual,2.1,[],8,0.75,
8,dot,0.3,['dot'],['density'],black,0,178,178,178,,,64.70022821426392,64.41002202033997,64.71000218391418,dot,"[0.06, 0.08, 0.1, 0.1, 0.08, 0.06, 0.06, 0.08]","[[0.3129921899656287, 0.2226642157048143], [0.41298599633021416, -0.001766323215076977], [0.013785601627645026, 0.39275307090924344], [-0.009407606244017683, 0.02333367620517349], [0.20163499737495916, -0.08731087547331118], [0.31235423233837933, 0.42762820752661124], [0.10705959187470679, 0.21318577255187057], [-0.13233007013452783, 0.20605257250075132]]",density,black,,,N009,visual,1,[],"['1', '2', '3', '4']",1,2023.2.3,harveyvisual,2.1,[],8,0.75,
0,pause,0.4,None,None,None,0,179,179,179,,,,,,,,,,,,,N009,visual,1,[],"['1', '2', '3', '4']",1,2023.2.3,harveyvisual,2.1,[],8,0.75,
7,dot,0.3,['dot'],['density'],black,0,180,180,180,,,65.40022706985474,65.11001110076904,65.41001415252686,dot,"[0.06, 0.08, 0.08, 0.1, 0.1, 0.06, 0.08]","[[0.21536278937261513, -0.01733091677764761], [-0.08931035591216824, -0.05246349631749078], [0.21870610454298933, 0.21067491250041093], [-0.1587576617113587, 0.26068369883413384], [0.04623079518225047, 0.4568527369480977], [0.022942391481424712, 0.13939122930077608], [-0.27674911739568203, 0.09730719745121558]]",density,black,,,N009,visual,1,[],"['1', '2', '3', '4']",1,2023.2.3,harveyvisual,2.1,[],8,0.75,
0,pause,0.4,None,None,None,0,181,181,181,,,,,,,,,,,,,N009,visual,1,[],"['1', '2', '3', '4']",1,2023.2.3,harveyvisual,2.1,[],8,0.75,
7,dot,0.3,['dot'],['density'],black,0,182,182,182,,,66.10023403167725,65.81001615524292,66.11000418663025,dot,"[0.1, 0.1, 0.08, 0.1, 0.08, 0.08, 0.1]","[[0.36124702795982905, 0.02861074637729004], [0.035495459613383976, -0.03736980990239832], [0.4545067059830119, -0.22475560039862832], [0.21831658066582188, 0.20471036725638603], [0.23621436127430617, -0.13960795011418334], [0.5606656921354746, -0.047865395727918474], [0.5468561378002438, 0.2161657569851178]]",density,black,,,N009,visual,1,[],"['1', '2', '3', '4']",1,2023.2.3,harveyvisual,2.1,[],8,0.75,
0,pause,0.4,None,None,None,0,183,183,183,,,,,,,,,,,,,N009,visual,1,[],"['1', '2', '3', '4']",1,2023.2.3,harveyvisual,2.1,[],8,0.75,
7,dot,0.3,['dot'],['density'],black,0,184,184,184,,,66.80022811889648,66.51001405715942,66.8100061416626,dot,"[0.08, 0.08, 0.1, 0.06, 0.06, 0.1, 0.08]","[[0.1318978468379982, 0.48780960721302624], [-0.15530952210580917, 0.2429536962773128], [0.21675324185561073, 0.09111206147250148], [0.13033099328542835, 0.28547066376201063], [0.3859901392997328, 0.20497483482614012], [0.014590257841440182, 0.0970646397970693], [0.1730960121663288, -0.1180805096677859]]",density,black,,,N009,visual,1,[],"['1', '2', '3', '4']",1,2023.2.3,harveyvisual,2.1,[],8,0.75,
0,pause,0.4,None,None,None,0,185,185,185,,,,,,,,,,,,,N009,visual,1,[],"['1', '2', '3', '4']",1,2023.2.3,harveyvisual,2.1,[],8,0.75,
7,dot,0.3,['dot'],['density'],black,0,186,186,186,,,67.50020718574524,67.21000719070435,67.50999999046326,dot,"[0.06, 0.1, 0.1, 0.08, 0.08, 0.1, 0.06]","[[0.2966712274604575, -0.2131825579980761], [-0.1186836204372937, -0.4965034514665913], [-0.01440301872015537, -0.0403072600505146], [0.1950017499803942, -0.04023412759326238], [0.279011892689379, -0.46996203863525404], [-0.05628257964606558, -0.24364929332980273], [0.11956786588335709, -0.3438640467385331]]",density,black,,,N009,visual,1,[],"['1', '2', '3', '4']",1,2023.2.3,harveyvisual,2.1,[],8,0.75,
0,pause,0.4,None,None,None,0,187,187,187,,,,,,,,,,,,,N009,visual,1,[],"['1', '2', '3', '4']",1,2023.2.3,harveyvisual,2.1,[],8,0.75,
7,dot,0.3,['dot'],['density'],black,0,188,188,188,,,68.2002170085907,67.91000318527222,68.21011900901794,dot,"[0.06, 0.06, 0.06, 0.1, 0.1, 0.08, 0.08]","[[-0.4069355390488937, 0.37207368581823036], [-0.24593577727054447, 0.19917396778247878], [-0.42360727833657225, -0.08003411738888748], [-0.22269992972584096, -0.007913174381400552], [-0.5458110461780458, 0.2006057762678532], [-0.12767295506375728, 0.3689678629588407], [-0.26313434255033313, 0.5223746060296944]]",density,black,,,N009,visual,1,[],"['1', '2', '3', '4']",1,2023.2.3,harveyvisual,2.1,[],8,0.75,
0,pause,0.4,None,None,None,0,189,189,189,,,,,,,,,,,,,N009,visual,1,[],"['1', '2', '3', '4']",1,2023.2.3,harveyvisual,2.1,[],8,0.75,
7,dot,0.3,['dot'],['density'],black,0,190,190,190,,,68.9002161026001,68.61000609397888,68.91010808944702,dot,"[0.1, 0.06, 0.08, 0.06, 0.06, 0.06, 0.1]","[[-0.27819289690075527, 0.2483046813246476], [-0.5592260237138849, -0.07980801324287977], [-0.026637344717372308, -0.10521889364121585], [-0.16909952645659185, 0.05101222878256789], [-0.21868546305501066, -0.16482274839932262], [-0.3689572500107929, 0.03738969849335829], [-0.49227831811218986, 0.2063327632277477]]",density,black,,,N009,visual,1,[],"['1', '2', '3', '4']",1,2023.2.3,harveyvisual,2.1,[],8,0.75,
0,pause,0.4,None,None,None,0,191,191,191,,,,,,,,,,,,,N009,visual,1,[],"['1', '2', '3', '4']",1,2023.2.3,harveyvisual,2.1,[],8,0.75,
6,dot,0.3,['dot'],['density'],black,0,192,192,192,,,69.60021209716797,69.31009602546692,69.60994219779968,dot,"[0.1, 0.1, 0.08, 0.1, 0.06, 0.06]","[[-0.3075905201299059, -0.4396409988488083], [-0.19740249700094745, -0.17714391351551703], [0.053731853964380204, -0.5240815929277938], [0.045148855841778586, -0.17580561296456876], [0.17596231810730836, -0.3386358025171148], [-0.08995737585576556, -0.36423659604885134]]",density,black,,,N009,visual,1,[],"['1', '2', '3', '4']",1,2023.2.3,harveyvisual,2.1,[],8,0.75,
0,pause,0.4,None,None,None,0,193,193,193,,,,,,,,,,,,,N009,visual,1,[],"['1', '2', '3', '4']",1,2023.2.3,harveyvisual,2.1,[],8,0.75,
6,dot,0.3,['dot'],['density'],black,0,194,194,194,,,70.30022406578064,70.00996017456055,70.30993914604187,dot,"[0.06, 0.1, 0.06, 0.06, 0.08, 0.06]","[[-0.060066269329224556, -0.3459973645598818], [-0.2267112282887438, -0.46433083725857055], [-0.03368736353914721, -0.0592740518520544], [0.1129416353875032, -0.20466059509733167], [0.13908697530976044, -0.42386339769443276], [-0.2931789080149146, -0.2669036372638095]]",density,black,,,N009,visual,1,[],"['1', '2', '3', '4']",1,2023.2.3,harveyvisual,2.1,[],8,0.75,
0,pause,0.4,None,None,None,0,195,195,195,,,,,,,,,,,,,N009,visual,1,[],"['1', '2', '3', '4']",1,2023.2.3,harveyvisual,2.1,[],8,0.75,
6,dot,0.3,['dot'],['density'],black,0,196,196,196,,,71.00021719932556,70.71009516716003,71.00993418693542,dot,"[0.08, 0.1, 0.08, 0.1, 0.1, 0.1]","[[0.285926512064941, -0.24481785515673876], [0.418595730147314, -0.41068201076939437], [0.08023911914447063, -0.2907744195836184], [0.5255309086764915, -0.21900298349449057], [0.21619509519697316, -0.004828458463526469], [0.21043770887025895, -0.4594541383061854]]",density,black,,,N009,visual,1,[],"['1', '2', '3', '4']",1,2023.2.3,harveyvisual,2.1,[],8,0.75,
0,pause,0.4,None,None,None,0,197,197,197,,,,,,,,,,,,,N009,visual,1,[],"['1', '2', '3', '4']",1,2023.2.3,harveyvisual,2.1,[],8,0.75,
6,dot,0.3,['dot'],['density'],black,0,198,198,198,,,71.70021510124207,71.4100091457367,71.70986604690552,dot,"[0.08, 0.1, 0.1, 0.08, 0.08, 0.06]","[[0.0015484977009578463, -0.37153509484940705], [-0.24631791352898516, -0.16063896847060222], [-0.21037316856202723, -0.37491302730087106], [-0.14520134419833938, 0.05228402714841561], [-0.41979900021501537, -0.27073368115662844], [-0.020720382871846178, -0.14076137757070492]]",density,black,,,N009,visual,1,[],"['1', '2', '3', '4']",1,2023.2.3,harveyvisual,2.1,[],8,0.75,
0,pause,0.4,None,None,None,0,199,199,199,,,,,,,,,,,,,N009,visual,1,[],"['1', '2', '3', '4']",1,2023.2.3,harveyvisual,2.1,[],8,0.75,
6,dot,0.3,['dot'],['density'],black,0,200,200,200,,,72.40023517608643,72.11002016067505,72.41001319885254,dot,"[0.06, 0.1, 0.08, 0.08, 0.06, 0.1]","[[-0.4718675517483807, -0.080313523620691], [-0.31247550484642445, -0.23218356379105512], [-0.2575593735283343, 0.24158811959194182], [-0.2948669609652105, 0.017652028830845004], [-0.0883702388727292, 0.027494606567874856], [-0.45154527444290743, 0.17691331155056722]]",density,black,,,N009,visual,1,[],"['1', '2', '3', '4']",1,2023.2.3,harveyvisual,2.1,[],8,0.75,
0,pause,0.4,None,None,None,0,201,201,201,,,,,,,,,,,,,N009,visual,1,[],"['1', '2', '3', '4']",1,2023.2.3,harveyvisual,2.1,[],8,0.75,
6,dot,0.3,['dot'],['density'],black,0,202,202,202,,,73.10022115707397,72.80984616279602,73.10981917381287,dot,"[0.1, 0.1, 0.06, 0.06, 0.06, 0.08]","[[-0.31609589870198396, -0.31007670116123803], [-0.4478311917512715, 0.10082722748193511], [-0.2864981571692688, -0.05140390439239721], [-0.09675803094031296, -0.12021517342888931], [-0.4941273593136662, -0.13098935533792763], [-0.1300426850498692, 0.1160403058404222]]",density,black,,,N009,visual,1,[],"['1', '2', '3', '4']",1,2023.2.3,harveyvisual,2.1,[],8,0.75,
0,pause,0.4,None,None,None,0,203,203,203,,,,,,,,,,,,,N009,visual,1,[],"['1', '2', '3', '4']",1,2023.2.3,harveyvisual,2.1,[],8,0.75,
5,dot,0.3,['dot'],['density'],black,0,204,204,204,,,73.80023503303528,73.50981211662292,73.80983018875122,dot,"[0.06, 0.1, 0.1, 0.08, 0.08]","[[-0.4709100701083565, 0.02189337908226187], [-0.29145525575644754, 0.3795081276742083], [-0.23690205020139254, 0.016868774910060797], [-0.4278442329265702, 0.22919645259494104], [-0.09991604659712162, 0.23043195716445664]]",density,black,,,N009,visual,1,[],"['1', '2', '3', '4']",1,2023.2.3,harveyvisual,2.1,[],8,0.75,
0,pause,0.4,None,None,None,0,205,205,205,,,,,,,,,,,,,N009,visual,1,[],"['1', '2', '3', '4']",1,2023.2.3,harveyvisual,2.1,[],8,0.75,
5,dot,0.3,['dot'],['density'],black,0,206,206,206,,,74.50023818016052,74.20992803573608,74.5099229812622,dot,"[0.1, 0.1, 0.06, 0.1, 0.06]","[[0.14370466841446422, -0.4636309982806098], [0.2961807471193908, -0.30487684838795487], [-0.08083516471444438, -0.49823911181902014], [0.057429843216129074, -0.22123310288296744], [-0.1653320673045236, -0.3160671692815837]]",density,black,,,N009,visual,1,[],"['1', '2', '3', '4']",1,2023.2.3,harveyvisual,2.1,[],8,0.75,
0,pause,0.4,None,None,None,0,207,207,207,,,,,,,,,,,,,N009,visual,1,[],"['1', '2', '3', '4']",1,2023.2.3,harveyvisual,2.1,[],8,0.75,
5,dot,0.3,['dot'],['density'],black,0,208,208,208,,,75.20022511482239,74.90983700752258,75.2098171710968,dot,"[0.1, 0.06, 0.06, 0.08, 0.08]","[[-0.28680504698685855, -0.37141287089520275], [-0.07941991320777259, -0.3100284666993168], [0.1333965094747872, -0.32231728701695306], [-0.16725551142864267, -0.07802884766317453], [0.04399369704041987, -0.09756099317031844]]",density,black,,,N009,visual,1,[],"['1', '2', '3', '4']",1,2023.2.3,harveyvisual,2.1,[],8,0.75,
0,pause,0.4,None,None,None,0,209,209,209,,,,,,,,,,,,,N009,visual,1,[],"['1', '2', '3', '4']",1,2023.2.3,harveyvisual,2.1,[],8,0.75,
5,dot,0.3,['dot'],['density'],black,0,210,210,210,,,75.90023708343506,75.60979008674622,75.9097990989685,dot,"[0.06, 0.1, 0.06, 0.06, 0.06]","[[0.21791283729510122, -0.3451859720731072], [0.5246150578842218, -0.1749209719782184], [0.23417080448362212, 0.06149420791510773], [0.21628546435715315, -0.14179681516434317], [0.46094971099473236, 0.03541120369123469]]",density,black,,,N009,visual,1,[],"['1', '2', '3', '4']",1,2023.2.3,harveyvisual,2.1,[],8,0.75,
0,pause,0.4,None,None,None,0,211,211,211,,,,,,,,,,,,,N009,visual,1,[],"['1', '2', '3', '4']",1,2023.2.3,harveyvisual,2.1,[],8,0.75,
5,dot,0.3,['dot'],['density'],black,0,212,212,212,,,76.60022711753845,76.30977606773376,76.60976505279541,dot,"[0.1, 0.06, 0.06, 0.1, 0.06]","[[-0.5348211864270219, -0.08335004612931018], [-0.428892633085643, 0.14758700623805307], [-0.3277098387322906, -0.27887202276080253], [-0.29687101947458117, -0.03792463078145938], [-0.23363771935579355, 0.21194794904782605]]",density,black,,,N009,visual,1,[],"['1', '2', '3', '4']",1,2023.2.3,harveyvisual,2.1,[],8,0.75,
0,pause,0.4,None,None,None,0,213,213,213,,,,,,,,,,,,,N009,visual,1,[],"['1', '2', '3', '4']",1,2023.2.3,harveyvisual,2.1,[],8,0.75,
5,dot,0.3,['dot'],['density'],black,0,214,214,214,,,77.30023717880249,77.009761095047,77.30974507331848,dot,"[0.1, 0.1, 0.08, 0.06, 0.06]","[[-0.5348211864270219, -0.08335004612931018], [-0.428892633085643, 0.14758700623805307], [-0.3277098387322906, -0.27887202276080253], [-0.29687101947458117, -0.03792463078145938], [-0.23363771935579355, 0.21194794904782605]]",density,black,,,N009,visual,1,[],"['1', '2', '3', '4']",1,2023.2.3,harveyvisual,2.1,[],8,0.75,
0,pause,0.4,None,None,None,0,215,215,215,,,,,,,,,,,,,N009,visual,1,[],"['1', '2', '3', '4']",1,2023.2.3,harveyvisual,2.1,[],8,0.75,
4,dot,0.3,['dot'],['density'],black,0,216,216,216,,,78.0002110004425,77.70972418785095,78.00967216491699,dot,"[0.08, 0.1, 0.06, 0.08]","[[-0.3884818304242726, 0.11421243679268873], [-0.11472928134965246, -0.13141119473891247], [-0.1657593024508462, 0.13368900033666462], [-0.36655717599886073, -0.10387254737714131]]",density,black,,,N009,visual,1,[],"['1', '2', '3', '4']",1,2023.2.3,harveyvisual,2.1,[],8,0.75,
0,pause,0.4,None,None,None,0,217,217,217,,,,,,,,,,,,,N009,visual,1,[],"['1', '2', '3', '4']",1,2023.2.3,harveyvisual,2.1,[],8,0.75,
4,dot,0.3,['dot'],['density'],black,0,218,218,218,,,78.70023512840271,78.4098219871521,78.70966506004333,dot,"[0.08, 0.1, 0.08, 0.08]","[[0.0015408600658227804, 0.35051751062746694], [-0.20674122870780898, 0.3211588031025307], [-0.08430622538187964, 0.13383917563087117], [0.1780252705082131, 0.19175915241248492]]",density,black,,,N009,visual,1,[],"['1', '2', '3', '4']",1,2023.2.3,harveyvisual,2.1,[],8,0.75,
0,pause,0.4,None,None,None,0,219,219,219,,,,,,,,,,,,,N009,visual,1,[],"['1', '2', '3', '4']",1,2023.2.3,harveyvisual,2.1,[],8,0.75,
4,dot,0.3,['dot'],['density'],black,0,220,220,220,,,79.40022706985474,79.1097981929779,79.40968108177185,dot,"[0.1, 0.1, 0.1, 0.06]","[[-0.24855901342904946, 0.4326179111294549], [-0.33066739519925503, 0.24314919490711104], [-0.015728317870896572, 0.5189617074191414], [-0.09686463175319387, 0.28200212383687606]]",density,black,,,N009,visual,1,[],"['1', '2', '3', '4']",1,2023.2.3,harveyvisual,2.1,[],8,0.75,
0,pause,0.4,None,None,None,0,221,221,221,,,,,,,,,,,,,N009,visual,1,[],"['1', '2', '3', '4']",1,2023.2.3,harveyvisual,2.1,[],8,0.75,
4,dot,0.3,['dot'],['density'],black,0,222,222,222,,,80.10022020339966,79.80965805053711,80.10965418815613,dot,"[0.08, 0.06, 0.08, 0.06]","[[0.3510671072586959, 0.39105757673094776], [0.13754249634966464, 0.24690230999823115], [0.2791454519284172, 0.028997379515453933], [0.42442503262497266, 0.18132357243737673]]",density,black,,,N009,visual,1,[],"['1', '2', '3', '4']",1,2023.2.3,harveyvisual,2.1,[],8,0.75,
0,pause,0.4,None,None,None,0,223,223,223,,,,,,,,,,,,,N009,visual,1,[],"['1', '2', '3', '4']",1,2023.2.3,harveyvisual,2.1,[],8,0.75,
4,dot,0.3,['dot'],['density'],black,0,224,224,224,,,80.80023503303528,80.509770154953,80.80966711044312,dot,"[0.08, 0.06, 0.08, 0.06]","[[-0.264878088602857, 0.22906395790450432], [0.07239228809704809, 0.2615492699427171], [0.10034738543262733, 0.4676118263175188], [-0.09637524959065707, 0.3769302803343899]]",density,black,,,N009,visual,1,[],"['1', '2', '3', '4']",1,2023.2.3,harveyvisual,2.1,[],8,0.75,
0,pause,0.4,None,None,None,0,225,225,225,,,,,,,,,,,,,N009,visual,1,[],"['1', '2', '3', '4']",1,2023.2.3,harveyvisual,2.1,[],8,0.75,
4,dot,0.3,['dot'],['density'],black,0,226,226,226,,,81.50022506713867,81.20978498458862,81.50966215133667,dot,"[0.08, 0.1, 0.1, 0.1]","[[0.06326389353998313, -0.3457479010937814], [-0.07512051392095552, -0.02196355495157639], [0.09410934090401228, -0.14113260442523076], [-0.13717358852421138, -0.29916566844175635]]",density,black,,,N009,visual,1,[],"['1', '2', '3', '4']",1,2023.2.3,harveyvisual,2.1,[],8,0.75,
0,pause,0.4,None,None,None,0,227,227,227,,,,,,,,,,,,,N009,visual,1,[],"['1', '2', '3', '4']",1,2023.2.3,harveyvisual,2.1,[],8,0.75,
3,dot,0.3,['dot'],['density'],black,0,228,228,228,,,82.20022511482239,81.9096450805664,82.20963501930237,dot,"[0.1, 0.1, 0.08]","[[0.5383732683216915, 0.24050044654635605], [0.337973319445641, 0.36292363064724675], [0.3422154310588786, 0.14570949010333048]]",density,black,,,N009,visual,1,[],"['1', '2', '3', '4']",1,2023.2.3,harveyvisual,2.1,[],8,0.75,
0,pause,0.4,None,None,None,0,229,229,229,,,,,,,,,,,,,N009,visual,1,[],"['1', '2', '3', '4']",1,2023.2.3,harveyvisual,2.1,[],8,0.75,
3,dot,0.3,['dot'],['density'],black,0,230,230,230,,,82.90022420883179,82.6096260547638,82.90960812568665,dot,"[0.08, 0.1, 0.08]","[[0.13574725429899362, -0.5423283227425341], [-0.036793286563257144, -0.3768814925557267], [0.16175487704753985, -0.3348017255345844]]",density,black,,,N009,visual,1,[],"['1', '2', '3', '4']",1,2023.2.3,harveyvisual,2.1,[],8,0.75,
0,pause,0.4,None,None,None,0,231,231,231,,,,,,,,,,,,,N009,visual,1,[],"['1', '2', '3', '4']",1,2023.2.3,harveyvisual,2.1,[],8,0.75,
3,dot,0.3,['dot'],['density'],black,0,232,232,232,,,83.60022401809692,83.3096170425415,83.60959720611572,dot,"[0.08, 0.1, 0.1]","[[-0.3082868261871679, -0.3137599619928766], [-0.14816041357862977, -0.19371393562593295], [-0.35304767783039576, -0.10610354059871957]]",density,black,,,N009,visual,1,[],"['1', '2', '3', '4']",1,2023.2.3,harveyvisual,2.1,[],8,0.75,
0,pause,0.4,None,None,None,0,233,233,233,,,,,,,,,,,,,N009,visual,1,[],"['1', '2', '3', '4']",1,2023.2.3,harveyvisual,2.1,[],8,0.75,
3,dot,0.3,['dot'],['density'],black,0,234,234,234,,,84.30023121833801,84.00957703590393,84.30958318710327,dot,"[0.06, 0.06, 0.06]","[[-0.5599668940784417, -0.1503624274944763], [-0.33715825845103314, -0.1742393560729378], [-0.447658281307079, 0.035586458508876644]]",density,black,,,N009,visual,1,[],"['1', '2', '3', '4']",1,2023.2.3,harveyvisual,2.1,[],8,0.75,
0,pause,0.4,None,None,None,0,235,235,235,,,,,,,,,,,,,N009,visual,1,[],"['1', '2', '3', '4']",1,2023.2.3,harveyvisual,2.1,[],8,0.75,
3,dot,0.3,['dot'],['density'],white,0,236,236,236,,,85.0002191066742,84.7096061706543,85.009770154953,dot,"[0.06, 0.1, 0.08]","[[0.4995185571857965, 0.14229679706320136], [0.2944600495073675, 0.23335097983198633], [0.330752226915583, 0.0299241169750933]]",density,white,,,N009,visual,1,[],"['1', '2', '3', '4']",1,2023.2.3,harveyvisual,2.1,[],8,0.75,
0,pause,0.4,None,None,None,0,237,237,237,,,,,,,,,,,1,85.06109499931335,N009,visual,1,[],"['1', '2', '3', '4']",1,2023.2.3,harveyvisual,2.1,[],8,0.75,
3,dot,0.3,['dot'],['density'],white,0,238,238,238,,,85.70021510124207,85.4097170829773,85.70972919464111,dot,"[0.06, 0.06, 0.06]","[[-0.5599668940784417, -0.1503624274944763], [-0.33715825845103314, -0.1742393560729378], [-0.447658281307079, 0.035586458508876644]]",density,white,,,N009,visual,1,[],"['1', '2', '3', '4']",1,2023.2.3,harveyvisual,2.1,[],8,0.75,
0,pause,0.4,None,None,None,0,239,239,239,,,,,,,,,,,1,85.74815511703491,N009,visual,1,[],"['1', '2', '3', '4']",1,2023.2.3,harveyvisual,2.1,[],8,0.75,
2,dot,0.3,['dot'],['density'],black,0,240,240,240,,,86.40023016929626,86.10949611663818,86.40971398353577,dot,"[0.1, 0.08]","[[0.07059805578258149, -0.2458188734665979], [0.058763118304238846, -0.4455693812784497]]",density,black,,,N009,visual,1,[],"['1', '2', '3', '4']",1,2023.2.3,harveyvisual,2.1,[],8,0.75,
0,pause,0.4,None,None,None,0,241,241,241,,,,,,,,,,,,,N009,visual,1,[],"['1', '2', '3', '4']",1,2023.2.3,harveyvisual,2.1,[],8,0.75,
2,dot,0.3,['dot'],['density'],black,0,242,242,242,,,87.10022711753845,86.80961513519287,87.1094560623169,dot,"[0.06, 0.08]","[[-0.19266755722762574, -0.036106715323925336], [-0.096675332858716, 0.13967695308521302]]",density,black,,,N009,visual,1,[],"['1', '2', '3', '4']",1,2023.2.3,harveyvisual,2.1,[],8,0.75,
0,pause,0.4,None,None,None,0,243,243,243,,,,,,,,,,,,,N009,visual,1,[],"['1', '2', '3', '4']",1,2023.2.3,harveyvisual,2.1,[],8,0.75,
2,dot,0.3,['dot'],['density'],black,0,244,244,244,,,87.80021619796753,87.50942516326904,87.80952215194702,dot,"[0.1, 0.1]","[[-0.20887660672828282, 0.3399455197969581], [-0.34272369919491674, 0.19089688818271272]]",density,black,,,N009,visual,1,[],"['1', '2', '3', '4']",1,2023.2.3,harveyvisual,2.1,[],8,0.75,
0,pause,0.4,None,None,None,0,245,245,245,,,,,,,,,,,,,N009,visual,1,[],"['1', '2', '3', '4']",1,2023.2.3,harveyvisual,2.1,[],8,0.75,
2,dot,0.3,['dot'],['density'],black,0,246,246,246,,,88.50021505355835,88.20940709114075,88.5094051361084,dot,"[0.08, 0.08]","[[0.1851205616289071, -0.3624876981064337], [0.3405923022038234, -0.23608025195482504]]",density,black,,,N009,visual,1,[],"['1', '2', '3', '4']",1,2023.2.3,harveyvisual,2.1,[],8,0.75,
0,pause,0.4,None,None,None,0,247,247,247,,,,,,,,,,,,,N009,visual,1,[],"['1', '2', '3', '4']",1,2023.2.3,harveyvisual,2.1,[],8,0.75,
2,dot,0.3,['dot'],['density'],black,0,248,248,248,,,89.20021915435791,88.90940618515015,89.20939517021179,dot,"[0.08, 0.1]","[[-0.19482721327365293, -0.5079820576301489], [-0.36119809377872014, -0.396546877814361]]",density,black,,,N009,visual,1,[],"['1', '2', '3', '4']",1,2023.2.3,harveyvisual,2.1,[],8,0.75,
0,pause,0.4,None,None,None,0,249,249,249,,,,,,,,,,,,,N009,visual,1,[],"['1', '2', '3', '4']",1,2023.2.3,harveyvisual,2.1,[],8,0.75,
2,dot,0.3,['dot'],['density'],black,0,250,250,250,,,89.90023112297058,89.60939121246338,89.9093770980835,dot,"[0.06, 0.08]","[[0.19540278997321237, -0.319457995891214], [0.34462774624387493, -0.4544903302695001]]",density,black,,,N009,visual,1,[],"['1', '2', '3', '4']",1,2023.2.3,harveyvisual,2.1,[],8,0.75,
0,pause,0.4,None,None,None,0,251,251,251,,,,,,,,,,,,,N009,visual,1,[],"['1', '2', '3', '4']",1,2023.2.3,harveyvisual,2.1,[],8,0.75,
1,dot,0.3,['dot'],['density'],black,0,252,252,252,,,90.60023403167725,90.30937600135803,90.60936212539673,dot,[0.1],"[0.30758596680771827, -0.21275106234766314]",density,black,,,N009,visual,1,[],"['1', '2', '3', '4']",1,2023.2.3,harveyvisual,2.1,[],8,0.75,
0,pause,0.4,None,None,None,0,253,253,253,,,,,,,,,,,,,N009,visual,1,[],"['1', '2', '3', '4']",1,2023.2.3,harveyvisual,2.1,[],8,0.75,
1,dot,0.3,['dot'],['density'],black,0,254,254,254,,,91.30021500587463,91.00935816764832,91.3093512058258,dot,[0.1],"[0.03111034986587176, -0.1137363894063533]",density,black,,,N009,visual,1,[],"['1', '2', '3', '4']",1,2023.2.3,harveyvisual,2.1,[],8,0.75,
0,pause,0.4,None,None,None,0,255,255,255,,,,,,,,,,,,,N009,visual,1,[],"['1', '2', '3', '4']",1,2023.2.3,harveyvisual,2.1,[],8,0.75,
1,dot,0.3,['dot'],['density'],black,0,256,256,256,,,92.00021719932556,91.70935201644897,92.00935912132263,dot,[0.08],"[-0.3678067964802796, -0.3513177213804687]",density,black,,,N009,visual,1,[],"['1', '2', '3', '4']",1,2023.2.3,harveyvisual,2.1,[],8,0.75,
0,pause,0.4,None,None,None,0,257,257,257,,,,,,,,,,,,,N009,visual,1,[],"['1', '2', '3', '4']",1,2023.2.3,harveyvisual,2.1,[],8,0.75,
1,dot,0.3,['dot'],['density'],black,0,258,258,258,,,92.7002329826355,92.40932321548462,92.70933508872986,dot,[0.1],"[0.19623115665255414, 0.1676894875529279]",density,black,,,N009,visual,1,[],"['1', '2', '3', '4']",1,2023.2.3,harveyvisual,2.1,[],8,0.75,
0,pause,0.4,None,None,None,0,259,259,259,,,,,,,,,,,,,N009,visual,1,[],"['1', '2', '3', '4']",1,2023.2.3,harveyvisual,2.1,[],8,0.75,
1,dot,0.3,['dot'],['density'],black,0,260,260,260,,,93.40023016929626,93.1093361377716,93.40931820869446,dot,[0.08],"[0.46628601751002285, 0.12197617226191985]",density,black,,,N009,visual,1,[],"['1', '2', '3', '4']",1,2023.2.3,harveyvisual,2.1,[],8,0.75,
0,pause,0.4,None,None,None,0,261,261,261,,,,,,,,,,,,,N009,visual,1,[],"['1', '2', '3', '4']",1,2023.2.3,harveyvisual,2.1,[],8,0.75,
1,dot,0.3,['dot'],['density'],black,0,262,262,262,,,94.1002311706543,93.80931520462036,94.10930109024048,dot,[0.1],"[-0.00037526000000685745, -0.027921386894572527]",density,black,,,N009,visual,1,[],"['1', '2', '3', '4']",1,2023.2.3,harveyvisual,2.1,[],8,0.75,
0,pause,0.4,None,None,None,0,263,263,263,,,,,,,,,,,,,N009,visual,1,[],"['1', '2', '3', '4']",1,2023.2.3,harveyvisual,2.1,[],8,0.75,
20,dot,0.3,['dot'],['density'],black,0,264,264,264,,,94.80022621154785,94.52594804763794,94.8092770576477,dot,"[0.1, 0.06, 0.08, 0.1, 0.08, 0.1, 0.08, 0.08, 0.08, 0.08, 0.06, 0.08, 0.1, 0.06, 0.1, 0.08, 0.06, 0.08, 0.06, 0.06]","[[-0.5322423898570219, -0.15708209831308104], [0.07606023038425269, -0.3807087250685197], [0.548546710467826, -0.18698122720332844], [-0.5907543448978255, 0.08003833625930828], [-0.14919227303105503, 0.4809270704404224], [0.31416704426120545, -0.5130902748554146], [-0.28464185659100943, -0.06796258684821249], [0.008046445568788418, 0.009905278840551923], [0.22471815333063372, 0.024919066094591158], [0.2672434964969429, 0.4175539299416826], [-0.40429222940604026, -0.31694747087226083], [-0.46784533587572197, 0.2640096607891663], [0.5443269885004071, 0.16985215975215756], [0.3910560291036752, -0.31911191854831134], [0.16170934514006774, -0.16801387714317872], [0.0703779083290409, 0.2146194708068162], [0.45214632831293244, -0.01703312355694353], [0.44742431809956285, 0.3423265946480045], [-0.10375166248740864, -0.5764139171557601], [-0.13336082983904785, 0.28046285778046376]]",density,black,,,N009,visual,1,[],"['1', '2', '3', '4']",1,2023.2.3,harveyvisual,2.1,[],8,0.75,
0,pause,0.4,None,None,None,0,265,265,265,,,,,,,,,,,,,N009,visual,1,[],"['1', '2', '3', '4']",1,2023.2.3,harveyvisual,2.1,[],8,0.75,
20,dot,0.3,['dot'],['density'],black,0,266,266,266,,,95.50023198127747,95.22594118118286,95.50924706459045,dot,"[0.06, 0.08, 0.06, 0.06, 0.08, 0.06, 0.1, 0.08, 0.06, 0.06, 0.08, 0.1, 0.08, 0.06, 0.06, 0.06, 0.06, 0.06, 0.08, 0.1]","[[0.21289811514035673, 0.5286271971789145], [0.03469667848793134, 0.14529280689853974], [0.1537960449767385, -0.34746159494651246], [-0.3189924165348714, 0.23346601840670167], [0.500593051908898, -0.3399343345488117], [0.4655549807318603, 0.2696473038230588], [0.3012312305540017, -0.144907371789396], [-0.4862670418129418, 0.030340764008983723], [-0.354159684426888, -0.40795734635595715], [-0.11469698507398035, -0.5672321931033039], [-0.02587781128759481, 0.5597649743193709], [-0.17525372836562014, 0.4154173875238548], [-0.13010988362177933, -0.32827764247164026], [-0.3656300225432544, 0.46024985783969863], [0.5623082625614905, -0.09576131004915192], [0.158615620620688, 0.305906944353339], [0.3680537338766334, 0.07803264341211252], [0.08524526292047852, -0.16389417173786275], [-0.5487973894035699, 0.23317495520992598], [-0.46932317699292014, -0.20552840233809122]]",density,black,,,N009,visual,1,[],"['1', '2', '3', '4']",1,2023.2.3,harveyvisual,2.1,[],8,0.75,
0,pause,0.4,None,None,None,0,267,267,267,,,,,,,,,,,,,N009,visual,1,[],"['1', '2', '3', '4']",1,2023.2.3,harveyvisual,2.1,[],8,0.75,
