num,mod,duration,shape,ll_cond,colors,.thisRepN,.thisTrialN,.thisN,.thisIndex,thisRow.t,notes,raw_global_time,t_start,t_stop,shapes,size,pos,cond,color,button,RT,participant,session,starting_run,left button (match/odd),right button (non-match/even),samples_per_block,psychopy version,expName,offset,audio,number_runs,radius,
1,dot,0.3,['dot'],['density'],black,0,0,0,0,,,2.4002130031585693,2.1120269298553467,2.4119529724121094,dot,[0.06],"[0.4123293050259286, 0.03564095151647579]",density,black,,,N009,visual,1,[],"['1', '2', '3', '4']",1,2023.2.3,harveyvisual,2.1,[],8,0.75,
0,pause,0.4,None,None,None,0,1,1,1,,,,,,,,,,,,,N009,visual,1,[],"['1', '2', '3', '4']",1,2023.2.3,harveyvisual,2.1,[],8,0.75,
1,dot,0.3,['dot'],['density'],black,0,2,2,2,,,3.1002049446105957,2.8120651245117188,3.1127851009368896,dot,[0.1],"[0.39967490259390637, -0.2576437183111264]",density,black,,,N009,visual,1,[],"['1', '2', '3', '4']",1,2023.2.3,harveyvisual,2.1,[],8,0.75,
0,pause,0.4,None,None,None,0,3,3,3,,,,,,,,,,,,,N009,visual,1,[],"['1', '2', '3', '4']",1,2023.2.3,harveyvisual,2.1,[],8,0.75,
1,dot,0.3,['dot'],['density'],black,0,4,4,4,,,3.8002099990844727,3.5127830505371094,3.812796115875244,dot,[0.06],"[0.39967490259390637, -0.2576437183111264]",density,black,,,N009,visual,1,[],"['1', '2', '3', '4']",1,2023.2.3,harveyvisual,2.1,[],8,0.75,
0,pause,0.4,None,None,None,0,5,5,5,,,,,,,,,,,,,N009,visual,1,[],"['1', '2', '3', '4']",1,2023.2.3,harveyvisual,2.1,[],8,0.75,
1,dot,0.3,['dot'],['density'],black,0,6,6,6,,,4.500219106674194,4.212799072265625,4.512948036193848,dot,[0.1],"[0.4230572171255965, 0.15564154118015242]",density,black,,,N009,visual,1,[],"['1', '2', '3', '4']",1,2023.2.3,harveyvisual,2.1,[],8,0.75,
0,pause,0.4,None,None,None,0,7,7,7,,,,,,,,,,,,,N009,visual,1,[],"['1', '2', '3', '4']",1,2023.2.3,harveyvisual,2.1,[],8,0.75,
1,dot,0.3,['dot'],['density'],black,0,8,8,8,,,5.200201988220215,4.9124109745025635,5.212707996368408,dot,[0.08],"[0.15956500649880873, 0.2640393008039057]",density,black,,,N009,visual,1,[],"['1', '2', '3', '4']",1,2023.2.3,harveyvisual,2.1,[],8,0.75,
0,pause,0.4,None,None,None,0,9,9,9,,,,,,,,,,,,,N009,visual,1,[],"['1', '2', '3', '4']",1,2023.2.3,harveyvisual,2.1,[],8,0.75,
1,dot,0.3,['dot'],['density'],black,0,10,10,10,,,5.9002039432525635,5.614820957183838,5.914679050445557,dot,[0.08],"[-0.48958603946102763, 0.32731293615049173]",density,black,,,N009,visual,1,[],"['1', '2', '3', '4']",1,2023.2.3,harveyvisual,2.1,[],8,0.75,
0,pause,0.4,None,None,None,0,11,11,11,,,,,,,,,,,,,N009,visual,1,[],"['1', '2', '3', '4']",1,2023.2.3,harveyvisual,2.1,[],8,0.75,
2,dot,0.3,['dot'],['density'],black,0,12,12,12,,,6.600222110748291,6.314819097518921,6.614798069000244,dot,"[0.06, 0.06]","[[-0.16440981108753766, 0.5378091218652469], [-0.08422838651173449, 0.35445914222875186]]",density,black,,,N009,visual,1,[],"['1', '2', '3', '4']",1,2023.2.3,harveyvisual,2.1,[],8,0.75,
0,pause,0.4,None,None,None,0,13,13,13,,,,,,,,,,,,,N009,visual,1,[],"['1', '2', '3', '4']",1,2023.2.3,harveyvisual,2.1,[],8,0.75,
2,dot,0.3,['dot'],['density'],black,0,14,14,14,,,7.30022406578064,7.0148091316223145,7.314788103103638,dot,"[0.1, 0.1]","[[0.4101371699595759, -0.046236245446824746], [0.42481245787877703, -0.24684889303111815]]",density,black,,,N009,visual,1,[],"['1', '2', '3', '4']",1,2023.2.3,harveyvisual,2.1,[],8,0.75,
0,pause,0.4,None,None,None,0,15,15,15,,,,,,,,,,,,,N009,visual,1,[],"['1', '2', '3', '4']",1,2023.2.3,harveyvisual,2.1,[],8,0.75,
2,dot,0.3,['dot'],['density'],black,0,16,16,16,,,8.000205993652344,7.714806079864502,8.014770984649658,dot,"[0.06, 0.1]","[[0.24265818653156754, -0.3775895252336694], [0.4224299169789366, -0.289759305909148]]",density,black,,,N009,visual,1,[],"['1', '2', '3', '4']",1,2023.2.3,harveyvisual,2.1,[],8,0.75,
0,pause,0.4,None,None,None,0,17,17,17,,,,,,,,,,,,,N009,visual,1,[],"['1', '2', '3', '4']",1,2023.2.3,harveyvisual,2.1,[],8,0.75,
2,dot,0.3,['dot'],['density'],black,0,18,18,18,,,8.70020604133606,8.431303977966309,8.71462607383728,dot,"[0.08, 0.08]","[[0.1652621768884792, -0.40183218801656556], [-0.03337249546828684, -0.4281924369736378]]",density,black,,,N009,visual,1,[],"['1', '2', '3', '4']",1,2023.2.3,harveyvisual,2.1,[],8,0.75,
0,pause,0.4,None,None,None,0,19,19,19,,,,,,,,,,,,,N009,visual,1,[],"['1', '2', '3', '4']",1,2023.2.3,harveyvisual,2.1,[],8,0.75,
2,dot,0.3,['dot'],['density'],black,0,20,20,20,,,9.400212049484253,9.114755153656006,9.41461706161499,dot,"[0.08, 0.08]","[[0.11437717294043931, -0.408092871188616], [0.012734947149558614, -0.23578585574018435]]",density,black,,,N009,visual,1,[],"['1', '2', '3', '4']",1,2023.2.3,harveyvisual,2.1,[],8,0.75,
0,pause,0.4,None,None,None,0,21,21,21,,,,,,,,,,,,,N009,visual,1,[],"['1', '2', '3', '4']",1,2023.2.3,harveyvisual,2.1,[],8,0.75,
2,dot,0.3,['dot'],['density'],black,0,22,22,22,,,10.100211143493652,9.814748048782349,10.114726066589355,dot,"[0.06, 0.08]","[[0.075840462383643, -0.21806900392302264], [0.2761252679018853, -0.22101292055433702]]",density,black,,,N009,visual,1,[],"['1', '2', '3', '4']",1,2023.2.3,harveyvisual,2.1,[],8,0.75,
0,pause,0.4,None,None,None,0,23,23,23,,,,,,,,,,,,,N009,visual,1,[],"['1', '2', '3', '4']",1,2023.2.3,harveyvisual,2.1,[],8,0.75,
3,dot,0.3,['dot'],['density'],black,0,24,24,24,,,10.800210952758789,10.514743089675903,10.814574003219604,dot,"[0.06, 0.1, 0.08]","[[-0.5599668940784417, -0.1503624274944763], [-0.33715825845103314, -0.1742393560729378], [-0.447658281307079, 0.035586458508876644]]",density,black,,,N009,visual,1,[],"['1', '2', '3', '4']",1,2023.2.3,harveyvisual,2.1,[],8,0.75,
0,pause,0.4,None,None,None,0,25,25,25,,,,,,,,,,,,,N009,visual,1,[],"['1', '2', '3', '4']",1,2023.2.3,harveyvisual,2.1,[],8,0.75,
3,dot,0.3,['dot'],['density'],black,0,26,26,26,,,11.500219106674194,11.214579105377197,11.514538049697876,dot,"[0.1, 0.08, 0.1]","[[-0.17592395544936776, 0.40510565415719324], [-0.30566154612550034, 0.21848422264492345], [-0.39822260978708685, 0.43144058222919995]]",density,black,,,N009,visual,1,[],"['1', '2', '3', '4']",1,2023.2.3,harveyvisual,2.1,[],8,0.75,
0,pause,0.4,None,None,None,0,27,27,27,,,,,,,,,,,,,N009,visual,1,[],"['1', '2', '3', '4']",1,2023.2.3,harveyvisual,2.1,[],8,0.75,
3,dot,0.3,['dot'],['density'],black,0,28,28,28,,,12.200212001800537,11.914521932601929,12.214514970779419,dot,"[0.08, 0.1, 0.1]","[[-0.5599668940784417, -0.1503624274944763], [-0.33715825845103314, -0.1742393560729378], [-0.447658281307079, 0.035586458508876644]]",density,black,,,N009,visual,1,[],"['1', '2', '3', '4']",1,2023.2.3,harveyvisual,2.1,[],8,0.75,
0,pause,0.4,None,None,None,0,29,29,29,,,,,,,,,,,,,N009,visual,1,[],"['1', '2', '3', '4']",1,2023.2.3,harveyvisual,2.1,[],8,0.75,
3,dot,0.3,['dot'],['density'],black,0,30,30,30,,,12.900201082229614,12.61449408531189,12.914489030838013,dot,"[0.06, 0.08, 0.1]","[[-0.5081709494874314, 0.1572673197774781], [-0.37009835501087307, 0.006965763417246156], [-0.5707172634768017, -0.07177594851347295]]",density,black,,,N009,visual,1,[],"['1', '2', '3', '4']",1,2023.2.3,harveyvisual,2.1,[],8,0.75,
0,pause,0.4,None,None,None,0,31,31,31,,,,,,,,,,,,,N009,visual,1,[],"['1', '2', '3', '4']",1,2023.2.3,harveyvisual,2.1,[],8,0.75,
3,dot,0.3,['dot'],['density'],black,0,32,32,32,,,13.600207090377808,13.31452202796936,13.61451005935669,dot,"[0.08, 0.1, 0.1]","[[-0.1599523582230929, -0.020289166781496174], [-0.3458010015304564, -0.14250622038001895], [-0.3538668896253721, 0.08903610231223419]]",density,black,,,N009,visual,1,[],"['1', '2', '3', '4']",1,2023.2.3,harveyvisual,2.1,[],8,0.75,
0,pause,0.4,None,None,None,0,33,33,33,,,,,,,,,,,,,N009,visual,1,[],"['1', '2', '3', '4']",1,2023.2.3,harveyvisual,2.1,[],8,0.75,
3,dot,0.3,['dot'],['density'],black,0,34,34,34,,,14.30022406578064,14.01452112197876,14.314502000808716,dot,"[0.08, 0.08, 0.1]","[[-0.021384933427115945, -0.26055744462645497], [0.16478637362895734, -0.404980755917603], [-0.025077849445719256, -0.48190209473619267]]",density,black,,,N009,visual,1,[],"['1', '2', '3', '4']",1,2023.2.3,harveyvisual,2.1,[],8,0.75,
0,pause,0.4,None,None,None,0,35,35,35,,,,,,,,,,,,,N009,visual,1,[],"['1', '2', '3', '4']",1,2023.2.3,harveyvisual,2.1,[],8,0.75,
4,dot,0.3,['dot'],['density'],black,0,36,36,36,,,15.000214099884033,14.714475154876709,15.014441013336182,dot,"[0.08, 0.06, 0.08, 0.1]","[[-0.03907102058372138, -0.1723346686752248], [0.13255167928633116, -0.03782047714335622], [0.2720101467217329, -0.23443565690461937], [0.07080951743106016, -0.35239766365090747]]",density,black,,,N009,visual,1,[],"['1', '2', '3', '4']",1,2023.2.3,harveyvisual,2.1,[],8,0.75,
0,pause,0.4,None,None,None,0,37,37,37,,,,,,,,,,,,,N009,visual,1,[],"['1', '2', '3', '4']",1,2023.2.3,harveyvisual,2.1,[],8,0.75,
4,dot,0.3,['dot'],['density'],black,0,38,38,38,,,15.700223922729492,15.41442608833313,15.714406967163086,dot,"[0.08, 0.06, 0.08, 0.1]","[[0.3225849294362846, -0.13157286681700714], [0.2615083713376798, -0.38790318245483907], [0.48399895238698887, -0.2981397300552969], [0.514252162939949, -0.043630752066028525]]",density,black,,,N009,visual,1,[],"['1', '2', '3', '4']",1,2023.2.3,harveyvisual,2.1,[],8,0.75,
0,pause,0.4,None,None,None,0,39,39,39,,,,,,,,,,,,,N009,visual,1,[],"['1', '2', '3', '4']",1,2023.2.3,harveyvisual,2.1,[],8,0.75,
4,dot,0.3,['dot'],['density'],black,0,40,40,40,,,16.40021014213562,16.11440896987915,16.414387941360474,dot,"[0.1, 0.08, 0.1, 0.06]","[[-0.42715721775789556, -0.3806885655784049], [-0.5104054706627589, -0.18016651458941194], [-0.409412055521987, 0.008153849732111747], [-0.2456709064377862, -0.21492281530681134]]",density,black,,,N009,visual,1,[],"['1', '2', '3', '4']",1,2023.2.3,harveyvisual,2.1,[],8,0.75,
0,pause,0.4,None,None,None,0,41,41,41,,,,,,,,,,,,,N009,visual,1,[],"['1', '2', '3', '4']",1,2023.2.3,harveyvisual,2.1,[],8,0.75,
4,dot,0.3,['dot'],['density'],black,0,42,42,42,,,17.100211143493652,16.814379930496216,17.114370107650757,dot,"[0.1, 0.06, 0.06, 0.06]","[[-0.47693618450386616, -0.1525114564248906], [-0.12413069550496705, 0.03327587270375396], [-0.32964510574757994, -0.012304557788591533], [-0.22851041427491325, -0.22018408257550984]]",density,black,,,N009,visual,1,[],"['1', '2', '3', '4']",1,2023.2.3,harveyvisual,2.1,[],8,0.75,
0,pause,0.4,None,None,None,0,43,43,43,,,,,,,,,,,,,N009,visual,1,[],"['1', '2', '3', '4']",1,2023.2.3,harveyvisual,2.1,[],8,0.75,
4,dot,0.3,['dot'],['density'],black,0,44,44,44,,,17.800215005874634,17.514361143112183,17.81435203552246,dot,"[0.08, 0.08, 0.06, 0.06]","[[0.3225849294362846, -0.13157286681700714], [0.2615083713376798, -0.38790318245483907], [0.48399895238698887, -0.2981397300552969], [0.514252162939949, -0.043630752066028525]]",density,black,,,N009,visual,1,[],"['1', '2', '3', '4']",1,2023.2.3,harveyvisual,2.1,[],8,0.75,
0,pause,0.4,None,None,None,0,45,45,45,,,,,,,,,,,,,N009,visual,1,[],"['1', '2', '3', '4']",1,2023.2.3,harveyvisual,2.1,[],8,0.75,
4,dot,0.3,['dot'],['density'],black,0,46,46,46,,,18.500218152999878,18.214355945587158,18.514332056045532,dot,"[0.08, 0.06, 0.1, 0.1]","[[-0.24855901342904946, 0.4326179111294549], [-0.33066739519925503, 0.24314919490711104], [-0.015728317870896572, 0.5189617074191414], [-0.09686463175319387, 0.28200212383687606]]",density,black,,,N009,visual,1,[],"['1', '2', '3', '4']",1,2023.2.3,harveyvisual,2.1,[],8,0.75,
0,pause,0.4,None,None,None,0,47,47,47,,,,,,,,,,,,,N009,visual,1,[],"['1', '2', '3', '4']",1,2023.2.3,harveyvisual,2.1,[],8,0.75,
5,dot,0.3,['dot'],['density'],black,0,48,48,48,,,19.200217962265015,18.914495944976807,19.21448802947998,dot,"[0.08, 0.1, 0.06, 0.06, 0.08]","[[0.2075830250205083, 0.5448960418430373], [0.010600229768786232, 0.45420498888786176], [-0.10187712889758427, 0.28364076042242115], [0.1691377395635631, 0.293820614486451], [-0.2596336492265815, 0.40815120909286945]]",density,black,,,N009,visual,1,[],"['1', '2', '3', '4']",1,2023.2.3,harveyvisual,2.1,[],8,0.75,
0,pause,0.4,None,None,None,0,49,49,49,,,,,,,,,,,,,N009,visual,1,[],"['1', '2', '3', '4']",1,2023.2.3,harveyvisual,2.1,[],8,0.75,
5,dot,0.3,['dot'],['density'],black,0,50,50,50,,,19.900220155715942,19.614480018615723,19.914390087127686,dot,"[0.08, 0.06, 0.08, 0.08, 0.06]","[[0.08548847697718086, 0.4135790235028826], [-0.012611048966726563, 0.22662400259503446], [0.27435170057987585, 0.4853016025774898], [-0.23063129862993442, 0.3109017384705433], [-0.11887524344887646, 0.49040580377695175]]",density,black,,,N009,visual,1,[],"['1', '2', '3', '4']",1,2023.2.3,harveyvisual,2.1,[],8,0.75,
0,pause,0.4,None,None,None,0,51,51,51,,,,,,,,,,,,,N009,visual,1,[],"['1', '2', '3', '4']",1,2023.2.3,harveyvisual,2.1,[],8,0.75,
5,dot,0.3,['dot'],['density'],black,0,52,52,52,,,20.600229024887085,20.314337968826294,20.614439964294434,dot,"[0.06, 0.06, 0.06, 0.1, 0.06]","[[-0.28680504698685855, -0.37141287089520275], [-0.07941991320777259, -0.3100284666993168], [0.1333965094747872, -0.32231728701695306], [-0.16725551142864267, -0.07802884766317453], [0.04399369704041987, -0.09756099317031844]]",density,black,,,N009,visual,1,[],"['1', '2', '3', '4']",1,2023.2.3,harveyvisual,2.1,[],8,0.75,
0,pause,0.4,None,None,None,0,53,53,53,,,,,,,,,,,,,N009,visual,1,[],"['1', '2', '3', '4']",1,2023.2.3,harveyvisual,2.1,[],8,0.75,
5,dot,0.3,['dot'],['density'],black,0,54,54,54,,,21.30020308494568,21.01445698738098,21.314438104629517,dot,"[0.06, 0.1, 0.08, 0.06, 0.1]","[[0.2947939438731228, -0.23060267152592065], [-0.16069394766121817, -0.3416383267983795], [0.17571447256805817, -0.04795497140357211], [-0.06398416024856234, -0.043165972544212804], [0.046845399773749824, -0.2436216536023896]]",density,black,,,N009,visual,1,[],"['1', '2', '3', '4']",1,2023.2.3,harveyvisual,2.1,[],8,0.75,
0,pause,0.4,None,None,None,0,55,55,55,,,,,,,,,,,,,N009,visual,1,[],"['1', '2', '3', '4']",1,2023.2.3,harveyvisual,2.1,[],8,0.75,
5,dot,0.3,['dot'],['density'],black,0,56,56,56,,,22.000214099884033,21.71444797515869,22.01444697380066,dot,"[0.1, 0.08, 0.1, 0.08, 0.08]","[[0.26736814946294957, 0.039639821311179], [0.3007085492035367, 0.3262250213434343], [0.4353907115448318, -0.11778011175670104], [0.4521497692138949, 0.1289853794543976], [0.1485908728023605, -0.12275462689891227]]",density,black,,,N009,visual,1,[],"['1', '2', '3', '4']",1,2023.2.3,harveyvisual,2.1,[],8,0.75,
0,pause,0.4,None,None,None,0,57,57,57,,,,,,,,,,,,,N009,visual,1,[],"['1', '2', '3', '4']",1,2023.2.3,harveyvisual,2.1,[],8,0.75,
5,dot,0.3,['dot'],['density'],black,0,58,58,58,,,22.700212001800537,22.414448022842407,22.714427947998047,dot,"[0.08, 0.08, 0.1, 0.08, 0.1]","[[0.36014554898799966, 0.387810422325294], [0.055757472799778995, 0.16941293674392635], [0.2210739480460382, 0.008175952352481365], [0.48495712857242873, 0.07425785546611247], [0.25975240449222103, 0.2092734881649904]]",density,black,,,N009,visual,1,[],"['1', '2', '3', '4']",1,2023.2.3,harveyvisual,2.1,[],8,0.75,
0,pause,0.4,None,None,None,0,59,59,59,,,,,,,,,,,,,N009,visual,1,[],"['1', '2', '3', '4']",1,2023.2.3,harveyvisual,2.1,[],8,0.75,
6,dot,0.3,['dot'],['density'],white,0,60,60,60,,,23.400227069854736,23.11444091796875,23.414446115493774,dot,"[0.1, 0.08, 0.06, 0.1, 0.1, 0.06]","[[-0.11553075830627273, 0.47698778124428043], [-0.1112787518129194, 0.10456141670764223], [-0.48855705683845824, 0.21494657582805063], [-0.2538299919008863, 0.2532006538804931], [-0.3271837865365474, 0.4662148945367939], [0.006792750312598743, 0.27345996435494924]]",density,white,,,N009,visual,1,[],"['1', '2', '3', '4']",1,2023.2.3,harveyvisual,2.1,[],8,0.75,
0,pause,0.4,None,None,None,0,61,61,61,,,,,,,,,,,1,23.503275156021118,N009,visual,1,[],"['1', '2', '3', '4']",1,2023.2.3,harveyvisual,2.1,[],8,0.75,
6,dot,0.3,['dot'],['density'],black,0,62,62,62,,,24.10022211074829,23.814455032348633,24.1144380569458,dot,"[0.06, 0.08, 0.1, 0.06, 0.1, 0.1]","[[-0.31609589870198396, -0.31007670116123803], [-0.4478311917512715, 0.10082722748193511], [-0.2864981571692688, -0.05140390439239721], [-0.09675803094031296, -0.12021517342888931], [-0.4941273593136662, -0.13098935533792763], [-0.1300426850498692, 0.1160403058404222]]",density,black,,,N009,visual,1,[],"['1', '2', '3', '4']",1,2023.2.3,harveyvisual,2.1,[],8,0.75,
0,pause,0.4,None,None,None,0,63,63,63,,,,,,,,,,,,,N009,visual,1,[],"['1', '2', '3', '4']",1,2023.2.3,harveyvisual,2.1,[],8,0.75,
6,dot,0.3,['dot'],['density'],black,0,64,64,64,,,24.800204038619995,24.51447606086731,24.814337015151978,dot,"[0.06, 0.06, 0.1, 0.06, 0.08, 0.1]","[[-0.3622751979984162, 0.41275935807220604], [-0.5464806003183257, 0.06358334875023645], [-0.15518785678585886, 0.34969079698534317], [-0.3231370338359737, -0.02193421190541931], [-0.3473470749510941, 0.19885557425221048], [-0.12382976466594668, 0.04156566071734393]]",density,black,,,N009,visual,1,[],"['1', '2', '3', '4']",1,2023.2.3,harveyvisual,2.1,[],8,0.75,
0,pause,0.4,None,None,None,0,65,65,65,,,,,,,,,,,,,N009,visual,1,[],"['1', '2', '3', '4']",1,2023.2.3,harveyvisual,2.1,[],8,0.75,
6,dot,0.3,['dot'],['density'],black,0,66,66,66,,,25.500211000442505,25.214339017868042,25.514322996139526,dot,"[0.06, 0.06, 0.08, 0.1, 0.08, 0.08]","[[-0.21871154593458392, 0.523205648483303], [-0.10311842393244862, 0.3355489225101837], [0.008055670172287269, 0.5366903261171385], [0.1303263863168633, 0.3782575370349718], [0.03185769749340688, 0.17145177849191712], [-0.2810167974491763, 0.15418865533644557]]",density,black,,,N009,visual,1,[],"['1', '2', '3', '4']",1,2023.2.3,harveyvisual,2.1,[],8,0.75,
0,pause,0.4,None,None,None,0,67,67,67,,,,,,,,,,,,,N009,visual,1,[],"['1', '2', '3', '4']",1,2023.2.3,harveyvisual,2.1,[],8,0.75,
6,dot,0.3,['dot'],['density'],black,0,68,68,68,,,26.2002010345459,25.914350986480713,26.214371919631958,dot,"[0.08, 0.1, 0.08, 0.08, 0.1, 0.08]","[[-0.5042184434856596, 0.24959378884587158], [-0.14877643798118484, -0.059020126001740114], [-0.46546181494132466, -0.1471818588402077], [-0.26957518187208745, -0.22263810459524838], [-0.2342448443914648, 0.21754944417529726], [-0.37109182385784195, 0.03297203532481631]]",density,black,,,N009,visual,1,[],"['1', '2', '3', '4']",1,2023.2.3,harveyvisual,2.1,[],8,0.75,
0,pause,0.4,None,None,None,0,69,69,69,,,,,,,,,,,,,N009,visual,1,[],"['1', '2', '3', '4']",1,2023.2.3,harveyvisual,2.1,[],8,0.75,
6,dot,0.3,['dot'],['density'],black,0,70,70,70,,,26.900207996368408,26.614344120025635,26.91432809829712,dot,"[0.1, 0.06, 0.1, 0.1, 0.1, 0.06]","[[-0.521575560759306, -0.09896409503936293], [-0.11005055439098525, 0.007412765662050641], [-0.2691644509192311, -0.32034241736757013], [-0.33082776037640693, 0.11579187391948328], [-0.031037041641207554, -0.21820435357846482], [-0.2943013415457968, -0.09543215727460275]]",density,black,,,N009,visual,1,[],"['1', '2', '3', '4']",1,2023.2.3,harveyvisual,2.1,[],8,0.75,
0,pause,0.4,None,None,None,0,71,71,71,,,,,,,,,,,,,N009,visual,1,[],"['1', '2', '3', '4']",1,2023.2.3,harveyvisual,2.1,[],8,0.75,
7,dot,0.3,['dot'],['density'],black,0,72,72,72,,,27.60020399093628,27.314341068267822,27.614354133605957,dot,"[0.06, 0.06, 0.1, 0.06, 0.06, 0.08, 0.06]","[[-0.3025445156539714, -0.42280529123536587], [0.12162933753582021, -0.2851722644810181], [-0.2753205641105948, -0.038672864930592576], [-0.4202189534315163, -0.18742991959605093], [-0.15636117447925973, -0.27217203193286355], [-0.09967880665522989, -0.47242523529006747], [-0.06261398545311019, -0.08879309989794046]]",density,black,,,N009,visual,1,[],"['1', '2', '3', '4']",1,2023.2.3,harveyvisual,2.1,[],8,0.75,
0,pause,0.4,None,None,None,0,73,73,73,,,,,,,,,,,,,N009,visual,1,[],"['1', '2', '3', '4']",1,2023.2.3,harveyvisual,2.1,[],8,0.75,
7,dot,0.3,['dot'],['density'],black,0,74,74,74,,,28.300214052200317,28.014361143112183,28.314159154891968,dot,"[0.1, 0.08, 0.06, 0.1, 0.06, 0.1, 0.06]","[[-0.2822174821233986, 0.002117056236134186], [-0.10673242512413421, 0.4781556216085482], [-0.18432519539246728, 0.19072201575640843], [-0.4524596318479574, 0.13966285650530724], [0.06907010423411483, 0.2912708813513049], [-0.07412436007020941, -0.021022205933558278], [-0.3208835015251209, 0.3986768431743725]]",density,black,,,N009,visual,1,[],"['1', '2', '3', '4']",1,2023.2.3,harveyvisual,2.1,[],8,0.75,
0,pause,0.4,None,None,None,0,75,75,75,,,,,,,,,,,,,N009,visual,1,[],"['1', '2', '3', '4']",1,2023.2.3,harveyvisual,2.1,[],8,0.75,
7,dot,0.3,['dot'],['density'],black,0,76,76,76,,,29.000213146209717,28.714268922805786,29.014163970947266,dot,"[0.08, 0.06, 0.08, 0.06, 0.06, 0.08, 0.1]","[[-0.3025445156539714, -0.42280529123536587], [0.12162933753582021, -0.2851722644810181], [-0.2753205641105948, -0.038672864930592576], [-0.4202189534315163, -0.18742991959605093], [-0.15636117447925973, -0.27217203193286355], [-0.09967880665522989, -0.47242523529006747], [-0.06261398545311019, -0.08879309989794046]]",density,black,,,N009,visual,1,[],"['1', '2', '3', '4']",1,2023.2.3,harveyvisual,2.1,[],8,0.75,
0,pause,0.4,None,None,None,0,77,77,77,,,,,,,,,,,,,N009,visual,1,[],"['1', '2', '3', '4']",1,2023.2.3,harveyvisual,2.1,[],8,0.75,
7,dot,0.3,['dot'],['density'],black,0,78,78,78,,,29.700225114822388,29.41406011581421,29.71405601501465,dot,"[0.06, 0.1, 0.08, 0.06, 0.08, 0.08, 0.06]","[[0.3899189512010899, -0.40728696153528776], [0.20392863561369634, -0.3305625840210526], [0.31626985815109576, 0.13567824844623666], [0.5017338684339655, -0.028549680114735937], [0.11648855723187378, -0.1078833072829627], [0.07041138378868489, 0.08730219371944997], [0.32910598476010167, -0.13660711058181768]]",density,black,,,N009,visual,1,[],"['1', '2', '3', '4']",1,2023.2.3,harveyvisual,2.1,[],8,0.75,
0,pause,0.4,None,None,None,0,79,79,79,,,,,,,,,,,,,N009,visual,1,[],"['1', '2', '3', '4']",1,2023.2.3,harveyvisual,2.1,[],8,0.75,
7,dot,0.3,['dot'],['density'],black,0,80,80,80,,,30.400211095809937,30.114098072052002,30.414031982421875,dot,"[0.1, 0.08, 0.08, 0.08, 0.1, 0.08, 0.1]","[[0.020512593940644967, 0.06058225053891463], [-0.12457192929091994, 0.22210134043855223], [0.2267676360835929, 0.07227077176864677], [-0.19381219694833235, -0.14277017550647156], [0.096077147208419, -0.13886261858003718], [0.087393672000005, 0.26445259248386815], [-0.018663113410245565, 0.4344684582511623]]",density,black,,,N009,visual,1,[],"['1', '2', '3', '4']",1,2023.2.3,harveyvisual,2.1,[],8,0.75,
0,pause,0.4,None,None,None,0,81,81,81,,,,,,,,,,,,,N009,visual,1,[],"['1', '2', '3', '4']",1,2023.2.3,harveyvisual,2.1,[],8,0.75,
7,dot,0.3,['dot'],['density'],black,0,82,82,82,,,31.10021209716797,30.81405806541443,31.114022970199585,dot,"[0.08, 0.06, 0.1, 0.06, 0.08, 0.08, 0.06]","[[-0.27819289690075527, 0.2483046813246476], [-0.5592260237138849, -0.07980801324287977], [-0.026637344717372308, -0.10521889364121585], [-0.16909952645659185, 0.05101222878256789], [-0.21868546305501066, -0.16482274839932262], [-0.3689572500107929, 0.03738969849335829], [-0.49227831811218986, 0.2063327632277477]]",density,black,,,N009,visual,1,[],"['1', '2', '3', '4']",1,2023.2.3,harveyvisual,2.1,[],8,0.75,
0,pause,0.4,None,None,None,0,83,83,83,,,,,,,,,,,,,N009,visual,1,[],"['1', '2', '3', '4']",1,2023.2.3,harveyvisual,2.1,[],8,0.75,
8,dot,0.3,['dot'],['density'],black,0,84,84,84,,,31.800217151641846,31.51404595375061,31.813997983932495,dot,"[0.08, 0.06, 0.06, 0.1, 0.08, 0.06, 0.1, 0.06]","[[-0.012034279999911439, 0.06556808781241986], [-0.3446774290598954, 0.11122635080299646], [0.22428040003470762, 0.1796687910302273], [-0.037221971777983635, 0.5300244249381355], [-0.1456717336157172, 0.2672263832914442], [0.040508406505222534, 0.3412803201140432], [-0.26975617824218623, 0.48628578621654683], [0.24128509790231628, 0.4122343446782376]]",density,black,,,N009,visual,1,[],"['1', '2', '3', '4']",1,2023.2.3,harveyvisual,2.1,[],8,0.75,
0,pause,0.4,None,None,None,0,85,85,85,,,,,,,,,,,,,N009,visual,1,[],"['1', '2', '3', '4']",1,2023.2.3,harveyvisual,2.1,[],8,0.75,
8,dot,0.3,['dot'],['density'],black,0,86,86,86,,,32.500205993652344,32.213988065719604,32.51397895812988,dot,"[0.08, 0.08, 0.06, 0.06, 0.08, 0.06, 0.1, 0.08]","[[0.43039348711459674, -0.2176132953198537], [0.11499515674856413, 0.2899266495440316], [0.12808102003139596, -0.009244067984354065], [-0.030386771168905473, -0.2551920291624523], [0.3118809155168881, 0.2081403981228026], [-0.06282563634610334, 0.11114412413027695], [0.22944900542930163, -0.23921835558115082], [0.33219925311336224, 0.0035410395788749187]]",density,black,,,N009,visual,1,[],"['1', '2', '3', '4']",1,2023.2.3,harveyvisual,2.1,[],8,0.75,
0,pause,0.4,None,None,None,0,87,87,87,,,,,,,,,,,,,N009,visual,1,[],"['1', '2', '3', '4']",1,2023.2.3,harveyvisual,2.1,[],8,0.75,
8,dot,0.3,['dot'],['density'],black,0,88,88,88,,,33.20020413398743,32.913975954055786,33.21396613121033,dot,"[0.1, 0.06, 0.08, 0.06, 0.1, 0.08, 0.1, 0.1]","[[0.2715518471235014, -0.4245138665073026], [0.03602391524707561, -0.40638782213015096], [0.4828297141312073, -0.09119901312376678], [0.02835794216237903, 0.028275321652194735], [-0.0895445032969687, -0.19822740391127236], [0.3178997883629752, 0.08245100984997318], [0.21920060966397442, -0.22342839817001514], [0.46807969757011175, -0.32427319705723295]]",density,black,,,N009,visual,1,[],"['1', '2', '3', '4']",1,2023.2.3,harveyvisual,2.1,[],8,0.75,
0,pause,0.4,None,None,None,0,89,89,89,,,,,,,,,,,,,N009,visual,1,[],"['1', '2', '3', '4']",1,2023.2.3,harveyvisual,2.1,[],8,0.75,
8,dot,0.3,['dot'],['density'],black,0,90,90,90,,,33.90021204948425,33.61394906044006,33.91394114494324,dot,"[0.08, 0.08, 0.06, 0.1, 0.08, 0.1, 0.06, 0.1]","[[-0.16499387414028463, -0.418455346753131], [0.031011941373623824, -0.006148034068666969], [-0.4150712424924157, -0.28668557629476243], [-0.199054958380199, -0.21375968732837633], [-0.4870789535587041, 0.00515905815181239], [-0.198479811208303, 0.006815000109153054], [-0.3273741662815474, 0.19008037141614484], [0.04340096687518584, -0.25044408321713213]]",density,black,,,N009,visual,1,[],"['1', '2', '3', '4']",1,2023.2.3,harveyvisual,2.1,[],8,0.75,
0,pause,0.4,None,None,None,0,91,91,91,,,,,,,,,,,,,N009,visual,1,[],"['1', '2', '3', '4']",1,2023.2.3,harveyvisual,2.1,[],8,0.75,
8,dot,0.3,['dot'],['density'],white,0,92,92,92,,,34.60020899772644,34.313945055007935,34.61392402648926,dot,"[0.08, 0.06, 0.08, 0.08, 0.1, 0.06, 0.06, 0.1]","[[-0.17382250058115215, 0.008030820220576582], [-0.5561520679887834, 0.09064024109159684], [-0.2322770524578434, -0.18818443710846813], [-0.41357291590276396, -0.2905316508268561], [-0.37423053416790164, -0.04064357687765813], [-0.014699175284411378, 0.15059198662288528], [-0.015485985535575739, -0.1348843831724925], [-0.36639977644872057, 0.228205681233079]]",density,white,,,N009,visual,1,[],"['1', '2', '3', '4']",1,2023.2.3,harveyvisual,2.1,[],8,0.75,
0,pause,0.4,None,None,None,0,93,93,93,,,,,,,,,,,1,34.65745520591736,N009,visual,1,[],"['1', '2', '3', '4']",1,2023.2.3,harveyvisual,2.1,[],8,0.75,
8,dot,0.3,['dot'],['density'],black,0,94,94,94,,,35.300209045410156,35.01390814781189,35.313905000686646,dot,"[0.06, 0.1, 0.1, 0.06, 0.08, 0.1, 0.1, 0.1]","[[0.4578461037593053, -0.0425280984807614], [0.3105081462658962, -0.253400778181943], [0.5107466611240274, 0.18303335057259504], [0.05013881804369301, 0.21472050036076742], [0.11913774150617627, -0.046477809882714556], [0.3069987493408211, 0.11186211070896974], [0.10261508471656716, -0.25482825738733483], [-0.08881417545548334, 0.035709595317019026]]",density,black,,,N009,visual,1,[],"['1', '2', '3', '4']",1,2023.2.3,harveyvisual,2.1,[],8,0.75,
0,pause,0.4,None,None,None,0,95,95,95,,,,,,,,,,,,,N009,visual,1,[],"['1', '2', '3', '4']",1,2023.2.3,harveyvisual,2.1,[],8,0.75,
9,dot,0.3,['dot'],['density'],white,0,96,96,96,,,36.000221967697144,35.713907957077026,36.013893127441406,dot,"[0.1, 0.1, 0.1, 0.08, 0.06, 0.1, 0.06, 0.08, 0.08]","[[-0.15654783233563613, 0.5456880468186037], [-0.24757731968740795, 0.34117179271889175], [0.237608115185398, 0.5379153628426676], [0.0469559873873498, 0.0609843963705915], [0.17872629641391088, 0.30721368784738284], [-0.014663874177430473, 0.385293302856951], [-0.1034840675008618, 0.1993866575147459], [0.37552485507684036, 0.26074226948317425], [-0.1631567374159006, -0.0021534685146951615]]",density,white,,,N009,visual,1,[],"['1', '2', '3', '4']",1,2023.2.3,harveyvisual,2.1,[],8,0.75,
0,pause,0.4,None,None,None,0,97,97,97,,,,,,,,,,,1,36.08563017845154,N009,visual,1,[],"['1', '2', '3', '4']",1,2023.2.3,harveyvisual,2.1,[],8,0.75,
9,dot,0.3,['dot'],['density'],white,0,98,98,98,,,36.70022797584534,36.41388511657715,36.71392107009888,dot,"[0.08, 0.08, 0.08, 0.1, 0.08, 0.06, 0.1, 0.08, 0.08]","[[0.11766436913102363, -0.04327704920019282], [0.17973489876850246, -0.2957558932143311], [0.4322853556796634, 0.1292829237047714], [-0.0348924626991882, -0.2091692004054023], [0.511593351462966, -0.2715393032181878], [0.39631341359825684, -0.10388811790353111], [0.1759041025424718, 0.35783279634564974], [-0.11077337801993212, 0.08002505665429639], [0.1915495233696259, 0.15329463501335125]]",density,white,,,N009,visual,1,[],"['1', '2', '3', '4']",1,2023.2.3,harveyvisual,2.1,[],8,0.75,
0,pause,0.4,None,None,None,0,99,99,99,,,,,,,,,,,1,36.81093716621399,N009,visual,1,[],"['1', '2', '3', '4']",1,2023.2.3,harveyvisual,2.1,[],8,0.75,
9,dot,0.3,['dot'],['density'],black,0,100,100,100,,,37.40022897720337,37.1138961315155,37.41388511657715,dot,"[0.1, 0.1, 0.08, 0.1, 0.06, 0.1, 0.1, 0.1, 0.1]","[[-0.5586095828397086, -0.08452232608263664], [-0.5120381862419278, 0.15370428824398014], [-0.08562135647518901, 0.024493186907675612], [-0.3204263364507457, 0.2397592637991136], [-0.21279117965626912, -0.18999926927512983], [-0.34615304282718484, -0.002506468551820401], [-0.32642794983948487, 0.4412976810435594], [-0.12278716272436474, 0.3390467791696382], [0.05505897535061007, 0.17426903254619158]]",density,black,,,N009,visual,1,[],"['1', '2', '3', '4']",1,2023.2.3,harveyvisual,2.1,[],8,0.75,
0,pause,0.4,None,None,None,0,101,101,101,,,,,,,,,,,,,N009,visual,1,[],"['1', '2', '3', '4']",1,2023.2.3,harveyvisual,2.1,[],8,0.75,
9,dot,0.3,['dot'],['density'],white,0,102,102,102,,,38.1002140045166,37.81391906738281,38.113924980163574,dot,"[0.08, 0.1, 0.06, 0.06, 0.1, 0.06, 0.08, 0.1, 0.08]","[[0.5633060189111645, -0.020447411670609934], [0.24486306384976717, 0.44476630120442473], [0.18428866344346043, -0.051083701103786204], [0.30165572131442664, 0.2239114093385097], [-0.0017431279865323516, 0.11759053127645673], [0.36864926730470376, 0.029118730319846676], [0.08307425003498874, 0.31712463906399285], [0.26393370779995823, -0.24286541122091637], [0.5109425385251136, 0.2557989077594731]]",density,white,,,N009,visual,1,[],"['1', '2', '3', '4']",1,2023.2.3,harveyvisual,2.1,[],8,0.75,
0,pause,0.4,None,None,None,0,103,103,103,,,,,,,,,,,1,38.22011208534241,N009,visual,1,[],"['1', '2', '3', '4']",1,2023.2.3,harveyvisual,2.1,[],8,0.75,
9,dot,0.3,['dot'],['density'],white,0,104,104,104,,,38.80022597312927,38.513877153396606,38.81383204460144,dot,"[0.06, 0.06, 0.1, 0.1, 0.08, 0.06, 0.06, 0.06, 0.1]","[[0.4433726728065019, 0.22320554513198193], [0.1026133663954636, -0.050786049565613584], [0.20022034484770485, 0.4412403735117007], [0.45250313802570796, 0.010227273383000257], [0.037500571895399265, 0.24935285809920393], [0.23874579090912346, 0.11348512554989887], [0.25013734113836505, -0.23502010549412247], [0.4599692436892986, -0.2536974682823114], [0.04694731086691962, -0.2548367103293993]]",density,white,,,N009,visual,1,[],"['1', '2', '3', '4']",1,2023.2.3,harveyvisual,2.1,[],8,0.75,
0,pause,0.4,None,None,None,0,105,105,105,,,,,,,,,,,1,38.88400316238403,N009,visual,1,[],"['1', '2', '3', '4']",1,2023.2.3,harveyvisual,2.1,[],8,0.75,
9,dot,0.3,['dot'],['density'],black,0,106,106,106,,,39.50023007392883,39.21381711959839,39.51380205154419,dot,"[0.06, 0.1, 0.1, 0.08, 0.08, 0.08, 0.06, 0.1, 0.1]","[[0.30047334598257713, -0.32583448447642216], [0.4997394081452916, 0.05175273655880906], [0.13646797290608587, 0.02221883094322858], [0.11448241016544139, -0.2117191838414046], [0.417500260412479, 0.2413963184479076], [0.19152536325099656, 0.23172406522327998], [0.5046802385722475, -0.28323005758562664], [-0.037891296982194685, 0.14714919272112825], [0.3292067348064443, -0.0657181274468392]]",density,black,,,N009,visual,1,[],"['1', '2', '3', '4']",1,2023.2.3,harveyvisual,2.1,[],8,0.75,
0,pause,0.4,None,None,None,0,107,107,107,,,,,,,,,,,,,N009,visual,1,[],"['1', '2', '3', '4']",1,2023.2.3,harveyvisual,2.1,[],8,0.75,
20,dot,0.3,['dot'],['density'],white,0,108,108,108,,,40.200226068496704,39.91387701034546,40.21387696266174,dot,"[0.1, 0.06, 0.08, 0.08, 0.1, 0.08, 0.1, 0.08, 0.08, 0.06, 0.06, 0.1, 0.06, 0.06, 0.08, 0.1, 0.1, 0.06, 0.06, 0.08]","[[0.387724872102829, 0.1593542413654902], [0.18416821567398667, -0.31299557952338775], [0.3977904649247316, -0.4108657822108822], [-0.44764533221815894, -0.3066290755278852], [0.1962982313758248, 0.4914122686102742], [0.5830469780917499, -0.1003679145619861], [0.21437596640691647, 0.009965452600117608], [-0.23513787526233249, 0.15934026955517477], [-0.3253263320068484, -0.13663435678952007], [0.07774861825972534, 0.2650573146895905], [-0.27717564022303637, 0.43352813795552325], [-0.4748224858704003, 0.24976206934043688], [-0.03842617931451786, -0.4240693331997294], [-0.6017663410036995, 0.010447912239018253], [0.42903833833055616, 0.41435483302155357], [-0.2385715498448681, -0.4197163452087932], [-0.08450458474916167, 0.4145057291072608], [0.01945497954137765, -0.14622132896057005], [0.20791919860014252, -0.5167675037227095], [-0.07112218787617741, 0.051015328562484696]]",density,white,,,N009,visual,1,[],"['1', '2', '3', '4']",1,2023.2.3,harveyvisual,2.1,[],8,0.75,
0,pause,0.4,None,None,None,0,109,109,109,,,,,,,,,,,1,40.245543003082275,N009,visual,1,[],"['1', '2', '3', '4']",1,2023.2.3,harveyvisual,2.1,[],8,0.75,
20,dot,0.3,['dot'],['density'],black,0,110,110,110,,,40.90023112297058,40.613879919052124,40.91377401351929,dot,"[0.1, 0.06, 0.06, 0.06, 0.1, 0.08, 0.1, 0.06, 0.08, 0.06, 0.08, 0.06, 0.08, 0.06, 0.1, 0.06, 0.06, 0.1, 0.08, 0.06]","[[0.49164512953907213, -0.14120235206597037], [0.4223697601982105, 0.39676356071581226], [0.02523434060794494, 0.37294444654601167], [0.26916017792099867, -0.5235290119874256], [-0.36211313581535615, -0.005338383357439969], [0.32744207180974394, 0.10969022819212004], [-0.5694482505223516, -0.12914446559834197], [0.27599034584018955, -0.0728439793694266], [-0.37033401186504056, -0.2521273068360893], [-0.355040063941826, 0.23042942714973247], [0.5780448045956029, 0.03256679324569803], [-0.06406626312514774, -0.1481383404472526], [0.42632222608228776, -0.3667116710986079], [0.11777801161661872, 0.09079157046041786], [-0.16998109307046094, 0.3763058390759486], [0.026909071208097712, -0.3215565446964631], [-0.5507262831223, 0.25096774255979454], [-0.14812489163679177, 0.035529262721159194], [0.03286301485466914, -0.5324351242995287], [-0.3673131258009378, -0.4809095967244086]]",density,black,,,N009,visual,1,[],"['1', '2', '3', '4']",1,2023.2.3,harveyvisual,2.1,[],8,0.75,
0,pause,0.4,None,None,None,0,111,111,111,,,,,,,,,,,,,N009,visual,1,[],"['1', '2', '3', '4']",1,2023.2.3,harveyvisual,2.1,[],8,0.75,
20,dot,0.3,['dot'],['density'],black,0,112,112,112,,,41.60021615028381,41.313899993896484,41.61387300491333,dot,"[0.08, 0.06, 0.08, 0.1, 0.06, 0.08, 0.08, 0.1, 0.1, 0.08, 0.06, 0.06, 0.1, 0.06, 0.08, 0.08, 0.08, 0.08, 0.06, 0.08]","[[0.18644474142397371, 0.22793640208775945], [0.5649447181426736, -0.08296138791404109], [0.0497074447023661, -0.5482976154138534], [-0.19288202383993047, -0.01680800444256192], [-0.12274428892913242, 0.3192900020437379], [-0.3523415679235551, 0.20302607599621103], [0.33728628433890573, -0.4024345026688973], [0.2378384497136018, -0.15997779503078158], [-0.029189709512488338, 0.4989498168712927], [-0.255310025349036, 0.469439411287904], [-0.2537571374883579, -0.37375142425378394], [0.3846720506510576, 0.19197742620495073], [0.12034934040497192, -0.33076896728077254], [-0.5471013699828713, -0.049853722165340175], [-0.39188339592768484, -0.1983450918888367], [0.39379814399538904, 0.45915307638671593], [-0.07925358943558869, -0.26660953262115855], [-0.20638797867724867, -0.5689972264897123], [0.4622788679616877, -0.2548941227774313], [0.09614957044443218, 0.007003281872526412]]",density,black,,,N009,visual,1,[],"['1', '2', '3', '4']",1,2023.2.3,harveyvisual,2.1,[],8,0.75,
0,pause,0.4,None,None,None,0,113,113,113,,,,,,,,,,,,,N009,visual,1,[],"['1', '2', '3', '4']",1,2023.2.3,harveyvisual,2.1,[],8,0.75,
20,dot,0.3,['dot'],['density'],black,0,114,114,114,,,42.30021595954895,42.01374006271362,42.313740968704224,dot,"[0.1, 0.1, 0.06, 0.08, 0.1, 0.06, 0.06, 0.08, 0.06, 0.08, 0.1, 0.08, 0.1, 0.06, 0.08, 0.1, 0.08, 0.06, 0.08, 0.08]","[[0.12704599614872203, 0.4326969276278181], [-0.5475518974320295, 0.23780309050592252], [-0.3872841049763568, 0.09979555677903185], [-0.5626833885613223, -0.13513752947579927], [-0.187857274879279, 0.43262411129118983], [0.23720889685183943, 0.27487879745188504], [0.4336153589634576, 0.3471048361234003], [0.48409401610122893, -0.2820900772279861], [-0.16128226850347988, -0.4363877241126467], [0.5730439775671458, 0.18812664733965964], [-0.17279039441765315, -0.21931782605133232], [-0.1631146725063301, 0.11732942814434133], [0.0827219413414757, -0.2311800206279777], [-0.3876992122904596, -0.23801125232086914], [0.5097379052920984, -0.02452942863043145], [0.10082690035120445, 0.11044758712569003], [0.1613222691774907, -0.5680942382486925], [0.32121443894536283, 0.04641049155025079], [0.2893435154991527, -0.28341211058392113], [-0.029932963411725577, 0.5844992434801949]]",density,black,,,N009,visual,1,[],"['1', '2', '3', '4']",1,2023.2.3,harveyvisual,2.1,[],8,0.75,
0,pause,0.4,None,None,None,0,115,115,115,,,,,,,,,,,,,N009,visual,1,[],"['1', '2', '3', '4']",1,2023.2.3,harveyvisual,2.1,[],8,0.75,
20,dot,0.3,['dot'],['density'],black,0,116,116,116,,,43.000219106674194,42.71371912956238,43.01370811462402,dot,"[0.1, 0.1, 0.1, 0.06, 0.08, 0.06, 0.06, 0.06, 0.06, 0.1, 0.06, 0.08, 0.1, 0.1, 0.06, 0.08, 0.06, 0.06, 0.08, 0.06]","[[-0.48861329084797867, 0.0091401443399175], [-0.1476198580800891, 0.14925564224230992], [-0.41815166641035967, -0.3262255936829761], [0.21175940622452483, -0.4186684715062664], [-0.2118214305579179, -0.38711904984509427], [0.5936727660248865, -0.05741110262612666], [0.14534233019966736, 0.4211379818437503], [0.15644611652014329, 0.007852156544944311], [0.29275138022877956, 0.2414488599576089], [-0.040258390159849555, 0.46287512193011493], [0.3843097694901575, 0.44068586033170876], [0.371194062005756, -0.0058834939483999316], [0.01931084013164197, -0.5074139068233005], [-0.49605242261561033, 0.2095560390553236], [-0.3262255726422747, -0.10835577632406052], [0.47675002629263064, -0.23840157524099723], [0.0844022135997321, 0.20227085315859206], [-0.1009852965399286, -0.1425871805693662], [-0.25872408729103424, 0.3288133266408563], [-0.3054521295793252, 0.5171795980313325]]",density,black,,,N009,visual,1,[],"['1', '2', '3', '4']",1,2023.2.3,harveyvisual,2.1,[],8,0.75,
0,pause,0.4,None,None,None,0,117,117,117,,,,,,,,,,,,,N009,visual,1,[],"['1', '2', '3', '4']",1,2023.2.3,harveyvisual,2.1,[],8,0.75,
20,dot,0.3,['dot'],['density'],black,0,118,118,118,,,43.70022010803223,43.41370511054993,43.713693141937256,dot,"[0.06, 0.08, 0.1, 0.08, 0.1, 0.08, 0.06, 0.08, 0.08, 0.06, 0.1, 0.06, 0.1, 0.08, 0.08, 0.06, 0.08, 0.08, 0.06, 0.08]","[[0.41087631510644596, 0.32073914572497797], [0.35257246580417534, -0.03282797840378032], [0.5715220020379846, -0.005190999928801454], [-0.041975056090197915, -0.44020896193641823], [0.3709349912075489, -0.4525158240837267], [-0.5832221002842095, -0.10067208054057222], [-0.30238577794000304, 0.5063160729360057], [-0.4081724155332773, 0.296854819096153], [-0.3332107277340544, -0.179844530595124], [0.050795239730876296, -0.1851665552705707], [0.0816001563415798, 0.22802344848287304], [0.17051301156045728, -0.4050412859762595], [-0.23243580193584523, -0.002656560331745328], [-0.03362104191688087, 0.4880104789981077], [-0.2295183818528609, 0.19647140590790024], [-0.4194365676723223, -0.41901060826411674], [0.501380325942567, -0.22969289013710648], [-0.5484483145155226, 0.11169031290524989], [0.18579813039679682, 0.500353385047231], [-0.0032233032770049297, 0.022248778903579014]]",density,black,,,N009,visual,1,[],"['1', '2', '3', '4']",1,2023.2.3,harveyvisual,2.1,[],8,0.75,
0,pause,0.4,None,None,None,0,119,119,119,,,,,,,,,,,,,N009,visual,1,[],"['1', '2', '3', '4']",1,2023.2.3,harveyvisual,2.1,[],8,0.75,
20,dot,0.3,['dot'],['density'],black,0,120,120,120,,,44.40022015571594,44.113688945770264,44.41368103027344,dot,"[0.06, 0.06, 0.1, 0.1, 0.08, 0.1, 0.08, 0.06, 0.1, 0.1, 0.1, 0.08, 0.08, 0.06, 0.06, 0.06, 0.06, 0.06, 0.1, 0.08]","[[-0.4602292472808632, -0.28545093735779453], [-0.10148279450150266, -0.020149060174892597], [0.28663097425914086, 0.31611662963841225], [-0.2592929887504356, -0.2528260213420887], [0.44477160919203007, -0.09895263547177924], [0.46109178572642084, -0.29464264335426155], [-0.4575121558070205, 0.0014543887632936792], [0.20297391177946333, 0.4900623747258658], [0.20932227306643858, -0.37452243523610407], [0.07737346075017826, -0.5314888164802903], [-0.2671158284401088, -0.49102826492993257], [0.5065916365204358, 0.2110965248675324], [-0.006525634899687716, -0.30383885867030314], [0.28327903086562267, 0.05187697614544173], [-0.35172384024574366, 0.3044889389608493], [0.10829673372951809, 0.12986466536377916], [0.604608420420888, 0.003966269610711174], [-0.16914478462695148, 0.17405007605075018], [-0.5685616576440805, 0.16760807637146893], [0.012210711970048416, 0.3414769082933333]]",density,black,,,N009,visual,1,[],"['1', '2', '3', '4']",1,2023.2.3,harveyvisual,2.1,[],8,0.75,
0,pause,0.4,None,None,None,0,121,121,121,,,,,,,,,,,,,N009,visual,1,[],"['1', '2', '3', '4']",1,2023.2.3,harveyvisual,2.1,[],8,0.75,
20,dot,0.3,['dot'],['density'],black,0,122,122,122,,,45.10021996498108,44.81368112564087,45.11368012428284,dot,"[0.1, 0.08, 0.08, 0.06, 0.1, 0.06, 0.1, 0.1, 0.06, 0.08, 0.06, 0.1, 0.06, 0.06, 0.1, 0.08, 0.1, 0.1, 0.1, 0.08]","[[-0.13438234630863294, -0.27000952257062855], [0.47507158834246466, 0.35527952359764603], [-0.5838056016383335, -0.04458586346699399], [-0.07231773024216215, -0.5673953231873669], [-0.33820394734069603, -0.05350647394003688], [0.07291067923408101, -0.35210685424605426], [0.013670435866791286, 0.27567216665717276], [0.33962498637477057, -0.15497792253939496], [0.5285452897271367, 0.0403567303982576], [-0.25325500545658164, 0.4236303346011051], [0.06347574928364386, -0.1531731331278584], [0.21037768007716295, -0.5578860505362407], [-0.497071279416385, 0.1495757261827948], [0.13730779187161835, 0.044522093838651466], [0.22059391719370913, 0.46853753012036736], [0.5342364146502748, -0.22007505258985843], [-0.13999773930858833, -0.07876947621756702], [0.29991695479871994, 0.14381097478437788], [-0.04103322910713325, 0.5719373023497444], [-0.2904405764236235, -0.4469554804823062]]",density,black,,,N009,visual,1,[],"['1', '2', '3', '4']",1,2023.2.3,harveyvisual,2.1,[],8,0.75,
0,pause,0.4,None,None,None,0,123,123,123,,,,,,,,,,,,,N009,visual,1,[],"['1', '2', '3', '4']",1,2023.2.3,harveyvisual,2.1,[],8,0.75,
20,dot,0.3,['dot'],['density'],black,0,124,124,124,,,45.80023002624512,45.513715982437134,45.813666105270386,dot,"[0.1, 0.06, 0.1, 0.06, 0.06, 0.06, 0.08, 0.06, 0.08, 0.1, 0.06, 0.06, 0.1, 0.1, 0.1, 0.06, 0.06, 0.1, 0.08, 0.1]","[[0.4936335979524563, -0.05973774199215698], [0.523190623288586, 0.14449933331857961], [-0.12984942958249612, -0.5679042138130681], [-0.018683975637571515, -0.2499089391958546], [0.06923094382136274, 0.1804702606711961], [0.29253513572005485, 0.020709228589491646], [-0.5446506002632093, -0.12020922862308156], [0.2577340973124982, -0.4590486368599498], [-0.24148054078157255, -0.027412896598355108], [0.21281978405354773, 0.338303664290839], [-0.373470698957155, 0.4713134497848871], [-0.17710464370552287, 0.20330725599629496], [-0.27118266643715355, -0.32595442106927797], [-0.4373839998611704, 0.2432232232759356], [0.08075495324703108, -0.050731236777388444], [-0.4701842821350185, -0.3430049925268002], [-0.5711449634897121, 0.08573257051611854], [-0.0458138315973714, 0.5639705369094667], [0.05458638640473801, -0.48041780417433894], [-0.04632293814738642, 0.34294083907080253]]",density,black,,,N009,visual,1,[],"['1', '2', '3', '4']",1,2023.2.3,harveyvisual,2.1,[],8,0.75,
0,pause,0.4,None,None,None,0,125,125,125,,,,,,,,,,,,,N009,visual,1,[],"['1', '2', '3', '4']",1,2023.2.3,harveyvisual,2.1,[],8,0.75,
20,dot,0.3,['dot'],['density'],black,0,126,126,126,,,46.500221967697144,46.21367311477661,46.51368498802185,dot,"[0.1, 0.08, 0.06, 0.06, 0.06, 0.06, 0.08, 0.1, 0.06, 0.08, 0.08, 0.1, 0.08, 0.1, 0.1, 0.06, 0.08, 0.08, 0.08, 0.08]","[[-0.2899529957219743, 0.3067450658332507], [-0.38631631318362836, -0.3126361582345903], [0.2883152872443129, -0.09084535163356672], [-0.5032119675823313, -0.07943254234818409], [0.5983450305110151, -0.006541918165630392], [0.20991464956774775, 0.3966247422218385], [-0.0008105274220567837, 0.1811713991113556], [-0.06483883671061452, 0.3632607497065702], [0.04729579749319446, -0.024055466071838172], [-0.5862532707928083, 0.13061732511746602], [0.5266256779491981, -0.29045336203840805], [0.41197758065214274, 0.40615834738651196], [-0.018792269533485118, 0.5791540250307847], [0.406539365094171, 0.0714394976243326], [-0.017157853016989688, -0.5625023356896486], [-0.18095129269909138, -0.3812313807616886], [-0.08882316463721662, -0.15599271315326008], [0.2540483915570606, -0.2794185366360607], [-0.2907066955020563, 0.5233093083736469], [-0.23854912172732284, 0.002932161934429023]]",density,black,,,N009,visual,1,[],"['1', '2', '3', '4']",1,2023.2.3,harveyvisual,2.1,[],8,0.75,
0,pause,0.4,None,None,None,0,127,127,127,,,,,,,,,,,,,N009,visual,1,[],"['1', '2', '3', '4']",1,2023.2.3,harveyvisual,2.1,[],8,0.75,
20,dot,0.3,['dot'],['density'],black,0,128,128,128,,,47.200231075286865,46.91368007659912,47.213781118392944,dot,"[0.08, 0.1, 0.1, 0.08, 0.1, 0.1, 0.08, 0.08, 0.1, 0.08, 0.1, 0.06, 0.08, 0.08, 0.08, 0.1, 0.08, 0.08, 0.06, 0.06]","[[0.15978684662208198, 0.09565386776042095], [-0.23408581605812828, -0.0964579284433626], [-0.4357019871673624, 0.23400380023872136], [-0.23855689641978778, -0.5141236464917498], [-0.17676875458293323, 0.42802102369991546], [-0.5271037966856875, 0.03953145716008727], [-0.436737819212358, -0.1475889114784612], [-0.4106898445874505, -0.37013078111184194], [0.2806418926230685, 0.46512396491432373], [-0.21250086918301903, -0.31349605422660576], [0.11281129816832991, -0.3167854273629547], [0.5618306786667974, 0.035837643123796364], [0.40937250444955253, 0.29638138227605415], [0.16494759536754444, -0.5458981234088606], [0.34595796718915983, -0.08675090878079972], [0.04675003574096781, 0.33855186283122074], [0.016516493322147552, -0.08538672796970581], [-0.20627044576723236, 0.17675095595022805], [0.45892270137414803, -0.31222019720480915], [0.005423893219917764, 0.5933554722752792]]",density,black,,,N009,visual,1,[],"['1', '2', '3', '4']",1,2023.2.3,harveyvisual,2.1,[],8,0.75,
0,pause,0.4,None,None,None,0,129,129,129,,,,,,,,,,,,,N009,visual,1,[],"['1', '2', '3', '4']",1,2023.2.3,harveyvisual,2.1,[],8,0.75,
20,dot,0.3,['dot'],['density'],black,0,130,130,130,,,47.90020799636841,47.61376214027405,47.91375207901001,dot,"[0.1, 0.06, 0.08, 0.1, 0.06, 0.08, 0.06, 0.06, 0.08, 0.1, 0.06, 0.08, 0.06, 0.08, 0.08, 0.1, 0.08, 0.08, 0.1, 0.06]","[[0.520597811625047, 0.09895801954728778], [-0.50607606842012, 0.16287568042412665], [0.07831568085200658, -0.16991229968331417], [0.20057440382577763, -0.47967794698889876], [0.2169817013154861, 0.10608965729697106], [-0.45845550325742934, -0.17775539887044284], [-0.1812785795163711, 0.3571774942023781], [-0.037052578355923016, 0.01573441517447438], [-0.36710600483925415, -0.3576780087863784], [-0.27813918211703514, -0.012124165089943184], [0.593169023688885, -0.07639946013362325], [-0.09426727811362434, -0.4642541882393685], [0.1045170732376759, 0.5591042135897467], [0.4963271851460055, -0.27502948328957044], [0.03806432426872852, 0.22667238561118164], [-0.44874461512027625, 0.3463692730951587], [0.2966298944530472, -0.07764283096047059], [0.41678692297967157, 0.32146994798655826], [-0.6002157964313636, -0.008648718813200923], [0.29810452187967085, -0.26980452279042916]]",density,black,,,N009,visual,1,[],"['1', '2', '3', '4']",1,2023.2.3,harveyvisual,2.1,[],8,0.75,
0,pause,0.4,None,None,None,0,131,131,131,,,,,,,,,,,,,N009,visual,1,[],"['1', '2', '3', '4']",1,2023.2.3,harveyvisual,2.1,[],8,0.75,
20,dot,0.3,['dot'],['density'],black,0,132,132,132,,,48.60023307800293,48.313645124435425,48.613630056381226,dot,"[0.06, 0.1, 0.08, 0.06, 0.06, 0.1, 0.06, 0.08, 0.06, 0.06, 0.06, 0.08, 0.1, 0.1, 0.08, 0.08, 0.06, 0.08, 0.08, 0.1]","[[0.4675516032006749, 0.11648963959675379], [-0.11359042337953745, -0.18944663344135693], [-0.3136680386000304, 0.08921742841852454], [0.5324771981458852, -0.1285799105295583], [-0.03592662338530206, 0.28431135440782884], [-0.48359012703052484, -0.1787246897685305], [0.08333982657124228, -0.04233900293084869], [-0.2976142201794737, -0.3688794896024715], [-0.4859454204201321, 0.21532458840082908], [-0.12956850758308436, 0.5523985412352906], [0.12017467649348823, -0.5782140973229785], [0.4541672740344983, 0.33663342450919304], [0.2650816758865525, -0.20792857476300625], [-0.13344688742983174, -0.49815510399075835], [-0.32949402664149013, 0.36843780101008816], [0.22505143519837234, 0.44462561943308165], [-0.0869724302834246, 0.10102827898003097], [0.13749777529394058, 0.1437815241829048], [0.03706317839589546, -0.407124563984972], [0.3194807479346443, -0.4838045641664239]]",density,black,,,N009,visual,1,[],"['1', '2', '3', '4']",1,2023.2.3,harveyvisual,2.1,[],8,0.75,
0,pause,0.4,None,None,None,0,133,133,133,,,,,,,,,,,,,N009,visual,1,[],"['1', '2', '3', '4']",1,2023.2.3,harveyvisual,2.1,[],8,0.75,
20,dot,0.3,['dot'],['density'],black,0,134,134,134,,,49.30021595954895,49.01376509666443,49.31371998786926,dot,"[0.06, 0.1, 0.1, 0.06, 0.06, 0.1, 0.06, 0.06, 0.1, 0.06, 0.1, 0.08, 0.06, 0.06, 0.1, 0.06, 0.1, 0.1, 0.06, 0.08]","[[-0.584266820922058, -0.0018648375583287524], [-0.28408103998428985, 0.16558138688811452], [-0.31774751447860905, -0.03564531169470142], [0.2925316723750987, 0.40821528833051757], [0.5847424991488398, -0.06418512571843184], [0.03178528601084385, 0.1504583865745278], [-0.31537975055991485, 0.4566791616493575], [-0.07933500451302733, -0.2592951386962971], [0.20604389994645356, -0.51571592710789], [0.2909924475005232, -0.06642490887033525], [-0.025150773863411913, 0.4859993562330255], [0.2321219692854679, 0.1494419012139675], [-0.06219570892917403, -0.5796950304765393], [0.4837878421677341, 0.11664099581332016], [-0.3105643350729045, -0.4814044216969418], [0.1332689357313226, -0.19016610594962308], [-0.5102607133282172, -0.2479377961448317], [0.4568954872829817, -0.2609884851865991], [-0.10219411812703982, -0.0004890819408447378], [-0.4709062780869544, 0.3054556451660644]]",density,black,,,N009,visual,1,[],"['1', '2', '3', '4']",1,2023.2.3,harveyvisual,2.1,[],8,0.75,
0,pause,0.4,None,None,None,0,135,135,135,,,,,,,,,,,,,N009,visual,1,[],"['1', '2', '3', '4']",1,2023.2.3,harveyvisual,2.1,[],8,0.75,
20,dot,0.3,['dot'],['density'],black,0,136,136,136,,,50.00021314620972,49.71370196342468,50.013715982437134,dot,"[0.06, 0.08, 0.1, 0.08, 0.08, 0.08, 0.08, 0.1, 0.08, 0.08, 0.1, 0.08, 0.06, 0.1, 0.1, 0.06, 0.1, 0.1, 0.1, 0.1]","[[0.2405557916217288, -0.09322176737810012], [-0.3523720983593398, 0.39613199065505705], [0.5040627934730034, -0.19773421170108002], [-0.24052524203462966, -0.44871773208422605], [-0.26194618199360087, 0.12044871955548608], [-0.4832599549805585, -0.02743492316065138], [0.4129817636453207, 0.14833694435359346], [0.4675517975213209, 0.33012481782788716], [-0.14763403710167705, -0.07792709639487672], [0.31176668141816777, -0.45756497701272725], [0.01859814482761446, 0.518262642263607], [0.09874801147257484, 0.08933097355209607], [-0.4335736546551189, -0.341618773065295], [0.07044643495135838, -0.3736669015809298], [0.30160081496119207, 0.4387451363498107], [-0.15599411669455449, 0.422831026534252], [-0.48903851373967094, 0.21819173110768653], [0.5866542472694992, 0.01994505623380649], [-0.24949156227149732, -0.23998898129116752], [-0.08377262433496158, 0.21286602610966676]]",density,black,,,N009,visual,1,[],"['1', '2', '3', '4']",1,2023.2.3,harveyvisual,2.1,[],8,0.75,
0,pause,0.4,None,None,None,0,137,137,137,,,,,,,,,,,,,N009,visual,1,[],"['1', '2', '3', '4']",1,2023.2.3,harveyvisual,2.1,[],8,0.75,
20,dot,0.3,['dot'],['density'],black,0,138,138,138,,,50.7002170085907,50.41371393203735,50.71372199058533,dot,"[0.08, 0.06, 0.1, 0.1, 0.1, 0.1, 0.06, 0.08, 0.06, 0.08, 0.1, 0.1, 0.08, 0.1, 0.08, 0.1, 0.08, 0.08, 0.06, 0.08]","[[0.5811469803986994, 0.07540388463684891], [-0.2271080472107253, -0.15615879206537137], [-0.6033650847506864, 0.009617588147083078], [0.4880630916751051, -0.262747537393471], [0.1102376426551982, 0.49456540082806333], [-0.5081429461015536, 0.18946980340885916], [-0.14748008272789181, -0.5281446432450365], [0.42659479936510614, 0.2461971659428248], [-0.2744785029598362, 0.5168522425344021], [-0.3685396149170058, -0.33428476872295065], [0.23293090038143005, 0.18234358368923687], [-0.008895754113733667, 0.026883140985862086], [-0.5639012801655953, -0.20552534014514293], [-0.172547389164464, 0.2404933681688367], [0.20266799596630036, -0.5168553560767858], [0.2550131828253568, -0.31647732680747087], [-0.3106187414706192, 0.024961851846066363], [0.3916521091000462, 0.0123554033145295], [0.172899781828189, -0.027650413440799437], [0.08797543919481543, -0.21456961375678363]]",density,black,,,N009,visual,1,[],"['1', '2', '3', '4']",1,2023.2.3,harveyvisual,2.1,[],8,0.75,
0,pause,0.4,None,None,None,0,139,139,139,,,,,,,,,,,,,N009,visual,1,[],"['1', '2', '3', '4']",1,2023.2.3,harveyvisual,2.1,[],8,0.75,
20,dot,0.3,['dot'],['density'],black,0,140,140,140,,,51.400208950042725,51.11356997489929,51.41354012489319,dot,"[0.06, 0.1, 0.08, 0.06, 0.08, 0.08, 0.06, 0.1, 0.1, 0.06, 0.06, 0.1, 0.08, 0.08, 0.1, 0.1, 0.08, 0.06, 0.1, 0.08]","[[-0.2676102031289541, -0.27726304515262956], [0.5726718501927631, -0.16742901399839558], [-0.5280927711649767, -0.008694716018810111], [-0.1338860437018256, -0.13328624978706738], [0.257474236447249, 0.18037994022573745], [0.031088586035609378, 0.30782023509623957], [0.4897983873362418, 0.1410818035770558], [0.18770142884905094, -0.15790570398894788], [0.2261220599874595, 0.46195316096294736], [0.32835555897569146, -0.4952739638492681], [-0.08861212950798547, -0.4543394625770928], [-0.553679038037906, 0.17994772211009596], [-0.42482530573007776, 0.3603915899801915], [0.11176935688497036, -0.4804253314466507], [-0.08790875429304801, 0.09247438804159291], [-0.032945607569044744, 0.590364600592276], [-0.3076313058427408, -0.5129767326152271], [0.48727083880607414, -0.3432617181576244], [-0.3317451176180722, 0.09758658566384004], [-0.19155633332569127, 0.38683943512327446]]",density,black,,,N009,visual,1,[],"['1', '2', '3', '4']",1,2023.2.3,harveyvisual,2.1,[],8,0.75,
0,pause,0.4,None,None,None,0,141,141,141,,,,,,,,,,,,,N009,visual,1,[],"['1', '2', '3', '4']",1,2023.2.3,harveyvisual,2.1,[],8,0.75,
20,dot,0.3,['dot'],['density'],black,0,142,142,142,,,52.100213050842285,51.81355404853821,52.1135311126709,dot,"[0.08, 0.06, 0.06, 0.06, 0.1, 0.1, 0.08, 0.1, 0.06, 0.08, 0.1, 0.08, 0.06, 0.06, 0.08, 0.08, 0.08, 0.06, 0.08, 0.06]","[[-0.2643396609136322, -0.38358740108631206], [-0.5313067351445642, 0.26154477569708], [0.5032328989598708, -0.22338218414951844], [0.10608605309504715, 0.3068948949821644], [0.3188982726858117, -0.32888633798936506], [0.49839752002045434, 0.1825192832538829], [0.04863383224468043, 0.49077122669990114], [-0.41010057174260595, -0.12577351471872378], [-0.28608835065160687, 0.07092893708087022], [0.1879794131054372, -0.15382620200652442], [0.2843115766780546, 0.05675853603462033], [-0.4885253417902028, -0.34330446447328655], [0.00405472474666646, 0.12574905506976863], [-0.5917943676855875, 0.03397702931025992], [0.13168598849292112, -0.4865817413235557], [-0.0761923692727019, -0.5229123734034724], [0.5950220222692427, -0.042383485484853184], [-0.3606063028054503, 0.3522483666461849], [-0.034823135753706325, -0.332411455294306], [0.31065827703536564, 0.31654393315535223]]",density,black,,,N009,visual,1,[],"['1', '2', '3', '4']",1,2023.2.3,harveyvisual,2.1,[],8,0.75,
0,pause,0.4,None,None,None,0,143,143,143,,,,,,,,,,,,,N009,visual,1,[],"['1', '2', '3', '4']",1,2023.2.3,harveyvisual,2.1,[],8,0.75,
20,dot,0.3,['dot'],['density'],black,0,144,144,144,,,52.80021405220032,52.51349496841431,52.8134880065918,dot,"[0.08, 0.08, 0.1, 0.08, 0.1, 0.1, 0.1, 0.08, 0.1, 0.08, 0.1, 0.06, 0.1, 0.1, 0.08, 0.06, 0.08, 0.06, 0.1, 0.06]","[[0.20905814841950254, 0.21758528192492166], [-0.011427811788882858, -0.38995876744770064], [0.46568586520444566, 0.19467530226055285], [0.26359300094807114, -0.026038376584227252], [-0.572791780488394, 0.17977630994075644], [0.5228599004689373, -0.2818038577182387], [-0.34732988106444446, 0.05685527623637082], [0.3612789519973958, -0.41525474729175865], [-0.4587927126561283, -0.3635480968771174], [-0.40209051699389015, 0.3038595449425449], [0.05759791768180034, -0.07788380775508552], [-0.5435970305610086, -0.042861047505308725], [-0.24530755877430216, -0.11628307144156985], [-0.12165444321980984, 0.30567860949348713], [0.27275448279939185, -0.2379796816725565], [0.03314614258160953, 0.43422740034853413], [0.17060045090709575, -0.5661139776569902], [0.3320278176167588, 0.4801110753473591], [-0.17142098110105286, 0.5096536530341382], [0.5140713557059556, 0.00047507001329827325]]",density,black,,,N009,visual,1,[],"['1', '2', '3', '4']",1,2023.2.3,harveyvisual,2.1,[],8,0.75,
0,pause,0.4,None,None,None,0,145,145,145,,,,,,,,,,,,,N009,visual,1,[],"['1', '2', '3', '4']",1,2023.2.3,harveyvisual,2.1,[],8,0.75,
20,dot,0.3,['dot'],['density'],black,0,146,146,146,,,53.500231981277466,53.21351599693298,53.51350402832031,dot,"[0.08, 0.06, 0.08, 0.08, 0.1, 0.06, 0.08, 0.08, 0.08, 0.08, 0.08, 0.1, 0.1, 0.06, 0.1, 0.06, 0.1, 0.08, 0.08, 0.06]","[[0.35165739609072344, -0.16489898185322704], [-0.3726674488820592, 0.442028733008491], [-0.5172977712050209, 0.2753263641527792], [-0.1053774929970519, -0.4969900300015423], [-0.28534251640590275, -0.10904870568403469], [0.22596922794558794, 0.1510277444153928], [0.47941145598599644, -0.3672442026754899], [-0.2594895500775726, 0.2563733443842112], [0.592329268931434, 0.03989054467806384], [-0.4403472827503455, 0.031708513383688686], [-0.3497040021665223, -0.3772511379025757], [0.1733613564576889, -0.05614318719140421], [0.0039733199388630736, 0.16567870762299075], [0.08880686397875137, -0.4984649440133476], [0.48281558394786883, 0.22403806565660522], [0.02535701897390541, -0.2877079562138001], [-0.03927929373178274, -0.060228595935851836], [-0.06664237174345411, 0.3707829194050727], [-0.5498893278738944, -0.12558144293714799], [0.22124221618948647, 0.4401342453690493]]",density,black,,,N009,visual,1,[],"['1', '2', '3', '4']",1,2023.2.3,harveyvisual,2.1,[],8,0.75,
0,pause,0.4,None,None,None,0,147,147,147,,,,,,,,,,,,,N009,visual,1,[],"['1', '2', '3', '4']",1,2023.2.3,harveyvisual,2.1,[],8,0.75,
20,dot,0.3,['dot'],['density'],black,0,148,148,148,,,54.20022392272949,53.913509130477905,54.213459968566895,dot,"[0.1, 0.06, 0.08, 0.08, 0.1, 0.1, 0.08, 0.06, 0.06, 0.1, 0.06, 0.06, 0.1, 0.06, 0.08, 0.08, 0.08, 0.1, 0.08, 0.1]","[[-0.2971560520773873, -0.36613706371813237], [0.3728953146795243, 0.2233655231848959], [0.013408917193845404, 0.20642191293809253], [-0.2739497229983509, 0.4179783666732899], [-0.476799611363012, 0.18551896605712143], [0.2955910414748312, 0.5000479031577527], [0.01576535263620016, -0.2860406169047904], [-0.08422887640372012, 0.5813510656578103], [-0.45529715091271195, -0.0671341501620184], [-0.29251869463603236, 0.07305539943190509], [0.05670330441415916, -0.5758201449913714], [0.23968590065938078, -0.3134332971845799], [0.5499435676931735, -0.05333137828063117], [0.1929859991184647, 0.12421441866798211], [0.21366154262125747, -0.06537021732909587], [-0.16050520878307334, -0.5295564232781711], [-0.27082563442222984, -0.14655275864435574], [0.4921079153423088, -0.3472760517251443], [-0.10618379173309273, -0.027765888120971027], [0.09236202266573046, 0.46876841927730806]]",density,black,,,N009,visual,1,[],"['1', '2', '3', '4']",1,2023.2.3,harveyvisual,2.1,[],8,0.75,
0,pause,0.4,None,None,None,0,149,149,149,,,,,,,,,,,,,N009,visual,1,[],"['1', '2', '3', '4']",1,2023.2.3,harveyvisual,2.1,[],8,0.75,
20,dot,0.3,['dot'],['density'],black,0,150,150,150,,,54.90023112297058,54.61344599723816,54.91344499588013,dot,"[0.06, 0.06, 0.08, 0.1, 0.1, 0.08, 0.06, 0.08, 0.06, 0.08, 0.1, 0.1, 0.08, 0.06, 0.1, 0.1, 0.1, 0.08, 0.1, 0.1]","[[-0.42098018497674083, -0.11990005456640757], [-0.2963695754145784, -0.4309138149127697], [-0.4336364186756356, 0.2593697948472302], [-0.025178995195665244, 0.4394414197734027], [0.3935906687396796, 0.10787607099938235], [0.5231850465689628, 0.258059651909611], [0.18622791420386609, 0.07238002211781736], [-0.2288786461635341, 0.26935175070126405], [0.07699057594508674, -0.32353235808706415], [-0.20381247676157743, 0.03501380907077589], [0.4386596495103764, -0.23568435602413812], [0.05728849230981781, 0.2240727419682529], [-0.5761015589736828, 0.06199449278796945], [0.24244762043086, -0.4701361733635098], [-0.3198894388976377, 0.5009013573830302], [-0.09154727580774158, -0.2163186684789441], [0.6041707178440406, 0.023224506845808505], [0.28925781434760356, 0.488052101652662], [0.22940581049586894, -0.12640469419444933], [-0.0855153709416051, -0.4333433412325739]]",density,black,,,N009,visual,1,[],"['1', '2', '3', '4']",1,2023.2.3,harveyvisual,2.1,[],8,0.75,
0,pause,0.4,None,None,None,0,151,151,151,,,,,,,,,,,,,N009,visual,1,[],"['1', '2', '3', '4']",1,2023.2.3,harveyvisual,2.1,[],8,0.75,
20,dot,0.3,['dot'],['density'],black,0,152,152,152,,,55.600208044052124,55.31343913078308,55.61343002319336,dot,"[0.1, 0.1, 0.06, 0.08, 0.06, 0.1, 0.08, 0.06, 0.08, 0.06, 0.06, 0.08, 0.1, 0.1, 0.06, 0.1, 0.06, 0.1, 0.08, 0.06]","[[0.4721846045264003, -0.36570040616204935], [-0.5518647839849399, 0.1947956520835648], [0.5990067668128428, -0.07537580189751007], [0.010981239425717826, -0.4163038287768816], [-0.03200711568930836, 0.23002594123209286], [-0.5822137484648752, -0.15236452471345263], [-0.36297498353427204, 0.15485686697664852], [0.2594176691382224, -0.04299990071325799], [0.21377894050698565, -0.5331664601630202], [0.2630735433906529, -0.2894447745182924], [-0.27415966870651837, -0.24765443305496682], [0.06556671357594057, -0.12864621014372773], [0.31755923678489006, 0.4076336060306013], [-0.224167413313844, -0.06004682162515107], [0.5501591372145286, 0.16110842959408733], [0.19011221673511125, 0.14651449048216436], [0.10124242099235492, 0.5059204710249732], [-0.27723004384883604, 0.4494963456878708], [-0.08489320421122426, 0.4377818363564634], [-0.17518297538866656, -0.5362860655392676]]",density,black,,,N009,visual,1,[],"['1', '2', '3', '4']",1,2023.2.3,harveyvisual,2.1,[],8,0.75,
0,pause,0.4,None,None,None,0,153,153,153,,,,,,,,,,,,,N009,visual,1,[],"['1', '2', '3', '4']",1,2023.2.3,harveyvisual,2.1,[],8,0.75,
20,dot,0.3,['dot'],['density'],black,0,154,154,154,,,56.30023002624512,56.013416051864624,56.313382148742676,dot,"[0.1, 0.08, 0.06, 0.08, 0.08, 0.1, 0.06, 0.06, 0.08, 0.1, 0.06, 0.1, 0.06, 0.08, 0.08, 0.08, 0.06, 0.08, 0.1, 0.1]","[[-0.5436246915456757, 0.0890743621005251], [0.08422072357442745, -0.47773451986542403], [0.23447672259299823, 0.10512090931990858], [-0.27503792838241986, -0.05781664735105424], [0.002191107710296736, -0.24085218761828936], [-0.5491191372748777, -0.10453795138749317], [0.3591187895724184, 0.48075937054625706], [-0.096912535699194, 0.10892898920576899], [0.26611937242200034, -0.15716100356725726], [-0.2728040933374527, 0.45868095973123313], [0.5632038404612275, 0.0689881374192241], [0.5905617522683547, -0.13127553181321383], [0.47703344069629605, 0.23897497914565363], [0.2953021320171132, -0.38412461668269693], [-0.3540169150447497, 0.14082564171679052], [-0.2561517719026415, -0.5207924694032665], [0.17900824032967289, 0.3350197697434142], [-0.4249286180059335, -0.3494189430030403], [-0.020479140923369887, 0.3697516275277972], [0.06123088031777901, -0.0319709743637735]]",density,black,,,N009,visual,1,[],"['1', '2', '3', '4']",1,2023.2.3,harveyvisual,2.1,[],8,0.75,
0,pause,0.4,None,None,None,0,155,155,155,,,,,,,,,,,,,N009,visual,1,[],"['1', '2', '3', '4']",1,2023.2.3,harveyvisual,2.1,[],8,0.75,
9,dot,0.3,['dot'],['density'],black,0,156,156,156,,,57.000211000442505,56.71337294578552,57.013381004333496,dot,"[0.1, 0.1, 0.08, 0.1, 0.1, 0.08, 0.1, 0.06, 0.08]","[[0.12352761201622256, -0.5468572532837559], [0.3269537579821693, -0.14821727133703638], [-0.17374906020363926, -0.07190913605219341], [-0.07646026346349713, -0.5341566642345157], [0.06446752128858728, 0.011530587655488696], [0.17734850627899523, -0.32847254707869106], [-0.01015131191695844, -0.24065236825376074], [-0.3732824370369478, -0.21519922319826376], [-0.23017550258214428, -0.35747389881463476]]",density,black,,,N009,visual,1,[],"['1', '2', '3', '4']",1,2023.2.3,harveyvisual,2.1,[],8,0.75,
0,pause,0.4,None,None,None,0,157,157,157,,,,,,,,,,,,,N009,visual,1,[],"['1', '2', '3', '4']",1,2023.2.3,harveyvisual,2.1,[],8,0.75,
9,dot,0.3,['dot'],['density'],black,0,158,158,158,,,57.700215101242065,57.41338896751404,57.71336507797241,dot,"[0.06, 0.06, 0.08, 0.08, 0.08, 0.08, 0.08, 0.1, 0.08]","[[0.12352761201622256, -0.5468572532837559], [0.3269537579821693, -0.14821727133703638], [-0.17374906020363926, -0.07190913605219341], [-0.07646026346349713, -0.5341566642345157], [0.06446752128858728, 0.011530587655488696], [0.17734850627899523, -0.32847254707869106], [-0.01015131191695844, -0.24065236825376074], [-0.3732824370369478, -0.21519922319826376], [-0.23017550258214428, -0.35747389881463476]]",density,black,,,N009,visual,1,[],"['1', '2', '3', '4']",1,2023.2.3,harveyvisual,2.1,[],8,0.75,
0,pause,0.4,None,None,None,0,159,159,159,,,,,,,,,,,,,N009,visual,1,[],"['1', '2', '3', '4']",1,2023.2.3,harveyvisual,2.1,[],8,0.75,
9,dot,0.3,['dot'],['density'],black,0,160,160,160,,,58.400217056274414,58.11336803436279,58.41335105895996,dot,"[0.1, 0.1, 0.1, 0.06, 0.1, 0.06, 0.06, 0.06, 0.06]","[[0.050129075631511706, -0.29659829200500587], [0.1522424042566208, -0.02012498145544232], [-0.31773020450764894, 0.09756431981266957], [-0.25388767024787284, -0.20865833148222632], [-0.06549152868915667, -0.10253084504872755], [-0.047012852932693645, 0.11741599898337682], [0.26526013051082903, -0.18996189821299347], [0.2442588296558726, 0.17404051307925203], [0.053323608967773835, 0.34462047536600726]]",density,black,,,N009,visual,1,[],"['1', '2', '3', '4']",1,2023.2.3,harveyvisual,2.1,[],8,0.75,
0,pause,0.4,None,None,None,0,161,161,161,,,,,,,,,,,,,N009,visual,1,[],"['1', '2', '3', '4']",1,2023.2.3,harveyvisual,2.1,[],8,0.75,
9,dot,0.3,['dot'],['density'],black,0,162,162,162,,,59.10023093223572,58.81333899497986,59.11336708068848,dot,"[0.1, 0.1, 0.06, 0.08, 0.08, 0.06, 0.1, 0.1, 0.06]","[[0.4907720478217397, -0.04420899316542184], [0.34945142516086164, 0.15252383324094793], [0.5574461082468273, 0.19132091369540322], [0.27860246559707486, -0.040271372914082004], [0.05137088633600719, 0.3166781443626957], [0.3859483744724672, 0.35594746641407654], [0.08124150308634055, -0.11830714188255424], [-0.07254784919135501, 0.1430213671552253], [0.33979531306265204, -0.26214422422440126]]",density,black,,,N009,visual,1,[],"['1', '2', '3', '4']",1,2023.2.3,harveyvisual,2.1,[],8,0.75,
0,pause,0.4,None,None,None,0,163,163,163,,,,,,,,,,,,,N009,visual,1,[],"['1', '2', '3', '4']",1,2023.2.3,harveyvisual,2.1,[],8,0.75,
9,dot,0.3,['dot'],['density'],black,0,164,164,164,,,59.800225019454956,59.513489961624146,59.81331014633179,dot,"[0.06, 0.06, 0.08, 0.06, 0.1, 0.1, 0.1, 0.06, 0.08]","[[-0.5586095828397086, -0.08452232608263664], [-0.5120381862419278, 0.15370428824398014], [-0.08562135647518901, 0.024493186907675612], [-0.3204263364507457, 0.2397592637991136], [-0.21279117965626912, -0.18999926927512983], [-0.34615304282718484, -0.002506468551820401], [-0.32642794983948487, 0.4412976810435594], [-0.12278716272436474, 0.3390467791696382], [0.05505897535061007, 0.17426903254619158]]",density,black,,,N009,visual,1,[],"['1', '2', '3', '4']",1,2023.2.3,harveyvisual,2.1,[],8,0.75,
0,pause,0.4,None,None,None,0,165,165,165,,,,,,,,,,,,,N009,visual,1,[],"['1', '2', '3', '4']",1,2023.2.3,harveyvisual,2.1,[],8,0.75,
9,dot,0.3,['dot'],['density'],white,0,166,166,166,,,60.50021696090698,60.21331310272217,60.51329803466797,dot,"[0.1, 0.06, 0.08, 0.08, 0.06, 0.1, 0.06, 0.1, 0.06]","[[-0.08830733675648182, -0.32541118850070216], [0.2573655446525002, -0.0029570100823114536], [0.27547652153196345, -0.34332263321768475], [-0.10322368112243578, -0.12113330350182801], [-0.09512634339583304, 0.07974184968350245], [0.1087639633701519, -0.14934854126711464], [-0.2976800736237512, -0.022953619774800198], [0.014308470788770018, -0.5004438889851849], [-0.3557422450128242, -0.24953541402881954]]",density,white,,,N009,visual,1,[],"['1', '2', '3', '4']",1,2023.2.3,harveyvisual,2.1,[],8,0.75,
0,pause,0.4,None,None,None,0,167,167,167,,,,,,,,,,,1,60.56691098213196,N009,visual,1,[],"['1', '2', '3', '4']",1,2023.2.3,harveyvisual,2.1,[],8,0.75,
8,dot,0.3,['dot'],['density'],black,0,168,168,168,,,61.20021915435791,60.91329002380371,61.21341013908386,dot,"[0.06, 0.1, 0.1, 0.06, 0.1, 0.08, 0.08, 0.06]","[[0.43039348711459674, -0.2176132953198537], [0.11499515674856413, 0.2899266495440316], [0.12808102003139596, -0.009244067984354065], [-0.030386771168905473, -0.2551920291624523], [0.3118809155168881, 0.2081403981228026], [-0.06282563634610334, 0.11114412413027695], [0.22944900542930163, -0.23921835558115082], [0.33219925311336224, 0.0035410395788749187]]",density,black,,,N009,visual,1,[],"['1', '2', '3', '4']",1,2023.2.3,harveyvisual,2.1,[],8,0.75,
0,pause,0.4,None,None,None,0,169,169,169,,,,,,,,,,,,,N009,visual,1,[],"['1', '2', '3', '4']",1,2023.2.3,harveyvisual,2.1,[],8,0.75,
8,dot,0.3,['dot'],['density'],black,0,170,170,170,,,61.90022611618042,61.61344003677368,61.91326308250427,dot,"[0.06, 0.08, 0.1, 0.06, 0.06, 0.06, 0.1, 0.06]","[[-0.4639556696772753, 0.10472599959088454], [-0.22970357876872852, 0.24758381400794424], [-0.060094057158436125, -0.14613975383200573], [-0.022569829209962654, 0.2677975872319761], [-0.3077859326170116, -0.10488986274105515], [-0.16040535020917, 0.031608708128470005], [-0.5175577931920246, -0.20517812764611504], [0.1194024413118107, 0.007837779916585986]]",density,black,,,N009,visual,1,[],"['1', '2', '3', '4']",1,2023.2.3,harveyvisual,2.1,[],8,0.75,
0,pause,0.4,None,None,None,0,171,171,171,,,,,,,,,,,,,N009,visual,1,[],"['1', '2', '3', '4']",1,2023.2.3,harveyvisual,2.1,[],8,0.75,
8,dot,0.3,['dot'],['density'],black,0,172,172,172,,,62.6002140045166,62.31324911117554,62.613373041152954,dot,"[0.06, 0.08, 0.1, 0.06, 0.1, 0.1, 0.06, 0.06]","[[0.4578461037593053, -0.0425280984807614], [0.3105081462658962, -0.253400778181943], [0.5107466611240274, 0.18303335057259504], [0.05013881804369301, 0.21472050036076742], [0.11913774150617627, -0.046477809882714556], [0.3069987493408211, 0.11186211070896974], [0.10261508471656716, -0.25482825738733483], [-0.08881417545548334, 0.035709595317019026]]",density,black,,,N009,visual,1,[],"['1', '2', '3', '4']",1,2023.2.3,harveyvisual,2.1,[],8,0.75,
0,pause,0.4,None,None,None,0,173,173,173,,,,,,,,,,,,,N009,visual,1,[],"['1', '2', '3', '4']",1,2023.2.3,harveyvisual,2.1,[],8,0.75,
8,dot,0.3,['dot'],['density'],black,0,174,174,174,,,63.30022096633911,63.0133581161499,63.313360929489136,dot,"[0.08, 0.1, 0.1, 0.06, 0.1, 0.06, 0.1, 0.08]","[[-0.20800618360187478, -0.297823595680997], [0.0208603014005115, -0.46570844314230314], [-0.33947416747489917, -0.46414587466331364], [-0.2657502487478435, -0.0024929956194721667], [-0.07971030345085922, -0.1368829558420488], [0.12327021606192319, -0.12614842517591618], [-0.10944837079043952, 0.12795643756026515], [-0.4050023469846894, -0.16101207847090707]]",density,black,,,N009,visual,1,[],"['1', '2', '3', '4']",1,2023.2.3,harveyvisual,2.1,[],8,0.75,
0,pause,0.4,None,None,None,0,175,175,175,,,,,,,,,,,,,N009,visual,1,[],"['1', '2', '3', '4']",1,2023.2.3,harveyvisual,2.1,[],8,0.75,
8,dot,0.3,['dot'],['density'],black,0,176,176,176,,,64.00021409988403,63.713348150253296,64.01333904266357,dot,"[0.08, 0.1, 0.08, 0.1, 0.06, 0.08, 0.08, 0.1]","[[-0.19427332908310624, 0.44975086906229733], [-0.40583056883657587, 0.41268852933836647], [-0.1064323235824443, 0.09134240931295125], [0.037438273390647224, 0.2873761216870531], [-0.27580465694358225, 0.2567900319995576], [0.047234249799456944, 0.4983172858691376], [0.15563182967593078, 0.1192504703698398], [-0.32834908909536226, -0.014402300111889832]]",density,black,,,N009,visual,1,[],"['1', '2', '3', '4']",1,2023.2.3,harveyvisual,2.1,[],8,0.75,
0,pause,0.4,None,None,None,0,177,177,177,,,,,,,,,,,,,N009,visual,1,[],"['1', '2', '3', '4']",1,2023.2.3,harveyvisual,2.1,[],8,0.75,
8,dot,0.3,['dot'],['density'],black,0,178,178,178,,,64.70022892951965,64.41332602500916,64.7133150100708,dot,"[0.1, 0.06, 0.06, 0.08, 0.06, 0.06, 0.06, 0.1]","[[0.1740819983727909, -0.16863019829442621], [0.14644114519141543, -0.4524198896657212], [0.0024885361438939093, 0.023531574910491997], [-0.23717340943857948, -0.31112918658627675], [-0.11311749148073028, -0.46867866316561874], [-0.17928248077090506, -0.060241557052319365], [-0.03957999532622772, -0.24759906754331504], [-0.4644327601918011, -0.3627803331480915]]",density,black,,,N009,visual,1,[],"['1', '2', '3', '4']",1,2023.2.3,harveyvisual,2.1,[],8,0.75,
0,pause,0.4,None,None,None,0,179,179,179,,,,,,,,,,,,,N009,visual,1,[],"['1', '2', '3', '4']",1,2023.2.3,harveyvisual,2.1,[],8,0.75,
7,dot,0.3,['dot'],['density'],black,0,180,180,180,,,65.4002320766449,65.11331295967102,65.41329598426819,dot,"[0.08, 0.1, 0.06, 0.06, 0.1, 0.1, 0.06]","[[-0.3025445156539714, -0.42280529123536587], [0.12162933753582021, -0.2851722644810181], [-0.2753205641105948, -0.038672864930592576], [-0.4202189534315163, -0.18742991959605093], [-0.15636117447925973, -0.27217203193286355], [-0.09967880665522989, -0.47242523529006747], [-0.06261398545311019, -0.08879309989794046]]",density,black,,,N009,visual,1,[],"['1', '2', '3', '4']",1,2023.2.3,harveyvisual,2.1,[],8,0.75,
0,pause,0.4,None,None,None,0,181,181,181,,,,,,,,,,,,,N009,visual,1,[],"['1', '2', '3', '4']",1,2023.2.3,harveyvisual,2.1,[],8,0.75,
7,dot,0.3,['dot'],['density'],black,0,182,182,182,,,66.10023307800293,65.81330299377441,66.11329293251038,dot,"[0.08, 0.08, 0.1, 0.08, 0.08, 0.1, 0.06]","[[-0.23867826801906328, -0.4967507610264224], [-0.008572732368673055, -0.07934474412745643], [-0.2066881937132076, -0.2790710878612567], [0.21709551483580575, -0.47507177834902015], [0.2058411173229685, -0.17553172422760346], [-0.015438952742397984, -0.3568653319460787], [-0.011603255668745115, -0.5749057065343526]]",density,black,,,N009,visual,1,[],"['1', '2', '3', '4']",1,2023.2.3,harveyvisual,2.1,[],8,0.75,
0,pause,0.4,None,None,None,0,183,183,183,,,,,,,,,,,,,N009,visual,1,[],"['1', '2', '3', '4']",1,2023.2.3,harveyvisual,2.1,[],8,0.75,
7,dot,0.3,['dot'],['density'],black,0,184,184,184,,,66.80022096633911,66.5132839679718,66.8132541179657,dot,"[0.1, 0.06, 0.08, 0.1, 0.1, 0.08, 0.1]","[[-0.08751196138777266, -0.40239331021683095], [-0.1389983634140625, -0.1821537091642013], [-0.5212097088452917, -0.15879536445288125], [-0.24197016774290594, 0.025691971861017886], [-0.324083892787021, -0.3083678109532634], [0.06465625853811506, -0.19815494036826437], [-0.2569867334647868, -0.5155038850209747]]",density,black,,,N009,visual,1,[],"['1', '2', '3', '4']",1,2023.2.3,harveyvisual,2.1,[],8,0.75,
0,pause,0.4,None,None,None,0,185,185,185,,,,,,,,,,,,,N009,visual,1,[],"['1', '2', '3', '4']",1,2023.2.3,harveyvisual,2.1,[],8,0.75,
7,dot,0.3,['dot'],['density'],black,0,186,186,186,,,67.50024104118347,67.21326994895935,67.51314306259155,dot,"[0.06, 0.08, 0.06, 0.1, 0.06, 0.1, 0.08]","[[-0.27882252076513336, 0.33055409005240166], [-0.4957633793454142, -0.06140876275196145], [-0.0066404743852866415, -0.09326226909207957], [-0.0437417051997281, 0.24568157295930956], [-0.4653499650939929, 0.1386387143322748], [-0.23664853702636232, 0.07695828400639043], [-0.2650254833014284, -0.12289079349875774]]",density,black,,,N009,visual,1,[],"['1', '2', '3', '4']",1,2023.2.3,harveyvisual,2.1,[],8,0.75,
0,pause,0.4,None,None,None,0,187,187,187,,,,,,,,,,,,,N009,visual,1,[],"['1', '2', '3', '4']",1,2023.2.3,harveyvisual,2.1,[],8,0.75,
7,dot,0.3,['dot'],['density'],black,0,188,188,188,,,68.20023608207703,67.91315507888794,68.21310305595398,dot,"[0.06, 0.06, 0.06, 0.08, 0.08, 0.1, 0.08]","[[-0.23022292756182125, -0.05768485575552839], [-0.3970021412728509, -0.1722837668104814], [-0.2989980436724142, -0.5015189566068301], [-0.1887121522124618, -0.3052937986494308], [-0.001193606839323686, -0.45187687349833133], [-0.45251418858811787, -0.367940027934103], [0.11213422846620591, -0.19711986939188722]]",density,black,,,N009,visual,1,[],"['1', '2', '3', '4']",1,2023.2.3,harveyvisual,2.1,[],8,0.75,
0,pause,0.4,None,None,None,0,189,189,189,,,,,,,,,,,,,N009,visual,1,[],"['1', '2', '3', '4']",1,2023.2.3,harveyvisual,2.1,[],8,0.75,
7,dot,0.3,['dot'],['density'],black,0,190,190,190,,,68.90022110939026,68.61309695243835,68.91306114196777,dot,"[0.08, 0.06, 0.08, 0.1, 0.08, 0.08, 0.08]","[[-0.026372969700101213, 0.05085620782211805], [-0.16304282038196347, -0.3616501386780019], [-0.013762327205412121, -0.14910430285435466], [0.14729449770710015, -0.3647544547161306], [-0.22494517313234175, -0.12035103032643314], [-0.36514670174418407, -0.33057163197754225], [0.21417125919861074, -0.06627923590771367]]",density,black,,,N009,visual,1,[],"['1', '2', '3', '4']",1,2023.2.3,harveyvisual,2.1,[],8,0.75,
0,pause,0.4,None,None,None,0,191,191,191,,,,,,,,,,,,,N009,visual,1,[],"['1', '2', '3', '4']",1,2023.2.3,harveyvisual,2.1,[],8,0.75,
6,dot,0.3,['dot'],['density'],black,0,192,192,192,,,69.60023093223572,69.3130829334259,69.6130690574646,dot,"[0.08, 0.08, 0.1, 0.08, 0.1, 0.06]","[[-0.4836161913484198, -0.3187453071493452], [-0.26471688047626735, -0.2860523134109648], [-0.41762950244179403, 0.08668289631298715], [-0.3878484475239729, -0.1200129628316565], [-0.19654931186518254, -0.017200237521102193], [-0.07523945320955261, -0.19429752312200124]]",density,black,,,N009,visual,1,[],"['1', '2', '3', '4']",1,2023.2.3,harveyvisual,2.1,[],8,0.75,
0,pause,0.4,None,None,None,0,193,193,193,,,,,,,,,,,,,N009,visual,1,[],"['1', '2', '3', '4']",1,2023.2.3,harveyvisual,2.1,[],8,0.75,
6,dot,0.3,['dot'],['density'],black,0,194,194,194,,,70.30022311210632,70.0130410194397,70.3130259513855,dot,"[0.1, 0.08, 0.08, 0.1, 0.06, 0.08]","[[0.285926512064941, -0.24481785515673876], [0.418595730147314, -0.41068201076939437], [0.08023911914447063, -0.2907744195836184], [0.5255309086764915, -0.21900298349449057], [0.21619509519697316, -0.004828458463526469], [0.21043770887025895, -0.4594541383061854]]",density,black,,,N009,visual,1,[],"['1', '2', '3', '4']",1,2023.2.3,harveyvisual,2.1,[],8,0.75,
0,pause,0.4,None,None,None,0,195,195,195,,,,,,,,,,,,,N009,visual,1,[],"['1', '2', '3', '4']",1,2023.2.3,harveyvisual,2.1,[],8,0.75,
6,dot,0.3,['dot'],['density'],black,0,196,196,196,,,71.00024008750916,70.71304607391357,71.01303195953369,dot,"[0.06, 0.06, 0.1, 0.08, 0.06, 0.06]","[[-0.5379788740814003, -0.011730333491669416], [-0.1820890739253136, -0.27973544868684425], [-0.07809457889047756, -0.09124846264896269], [-0.30616251401069866, -0.45101817852416426], [-0.44200878281119743, -0.26991620184617166], [-0.3315938551005316, -0.08696624632848979]]",density,black,,,N009,visual,1,[],"['1', '2', '3', '4']",1,2023.2.3,harveyvisual,2.1,[],8,0.75,
0,pause,0.4,None,None,None,0,197,197,197,,,,,,,,,,,,,N009,visual,1,[],"['1', '2', '3', '4']",1,2023.2.3,harveyvisual,2.1,[],8,0.75,
6,dot,0.3,['dot'],['density'],black,0,198,198,198,,,71.70021510124207,71.41299700737,71.71296811103821,dot,"[0.08, 0.06, 0.1, 0.08, 0.1, 0.06]","[[-0.3078382271761739, 0.4361778186671046], [-0.059169983783578364, 0.44796520308269433], [-0.3209935464877752, 0.22545519901795916], [-0.10826469778565927, 0.24929594343002343], [-0.016554185736113114, 0.06783813438016018], [-0.29360476626160575, 0.00756342739423081]]",density,black,,,N009,visual,1,[],"['1', '2', '3', '4']",1,2023.2.3,harveyvisual,2.1,[],8,0.75,
0,pause,0.4,None,None,None,0,199,199,199,,,,,,,,,,,,,N009,visual,1,[],"['1', '2', '3', '4']",1,2023.2.3,harveyvisual,2.1,[],8,0.75,
6,dot,0.3,['dot'],['density'],black,0,200,200,200,,,72.40022397041321,72.11297512054443,72.41296100616455,dot,"[0.1, 0.06, 0.1, 0.06, 0.06, 0.1]","[[0.1982846419110591, -0.5292804859653952], [-0.09533153174900855, -0.5647367288422243], [-0.1659446600366624, -0.36958438178462333], [0.23572970018209544, -0.2476946313124468], [-0.023160452264027947, -0.17140847685647978], [0.035419311136148636, -0.3737635646361638]]",density,black,,,N009,visual,1,[],"['1', '2', '3', '4']",1,2023.2.3,harveyvisual,2.1,[],8,0.75,
0,pause,0.4,None,None,None,0,201,201,201,,,,,,,,,,,,,N009,visual,1,[],"['1', '2', '3', '4']",1,2023.2.3,harveyvisual,2.1,[],8,0.75,
6,dot,0.3,['dot'],['density'],black,0,202,202,202,,,73.10024094581604,72.81295800209045,73.1129560470581,dot,"[0.06, 0.1, 0.08, 0.08, 0.08, 0.08]","[[0.404576257273406, 0.0700140295133255], [0.16236872381874318, -0.0021128728600973284], [0.5529541989122894, -0.15659614737169442], [0.13702497511457395, -0.2589057080071786], [0.36740063964394665, -0.3636528069500345], [0.3132750905084481, -0.159771579268986]]",density,black,,,N009,visual,1,[],"['1', '2', '3', '4']",1,2023.2.3,harveyvisual,2.1,[],8,0.75,
0,pause,0.4,None,None,None,0,203,203,203,,,,,,,,,,,,,N009,visual,1,[],"['1', '2', '3', '4']",1,2023.2.3,harveyvisual,2.1,[],8,0.75,
5,dot,0.3,['dot'],['density'],white,0,204,204,204,,,73.80021214485168,73.51293301582336,73.81292414665222,dot,"[0.1, 0.08, 0.08, 0.08, 0.1]","[[-0.18510638544872327, 0.41559840932892733], [-0.057175862535637494, 0.18304904272057057], [0.24003340414173915, 0.43371676657957026], [0.006490958465160464, 0.4770521622163581], [0.13658455045585424, 0.2476502540597336]]",density,white,,,N009,visual,1,[],"['1', '2', '3', '4']",1,2023.2.3,harveyvisual,2.1,[],8,0.75,
0,pause,0.4,None,None,None,0,205,205,205,,,,,,,,,,,1,74.05630397796631,N009,visual,1,[],"['1', '2', '3', '4']",1,2023.2.3,harveyvisual,2.1,[],8,0.75,
5,dot,0.3,['dot'],['density'],black,0,206,206,206,,,74.50024104118347,74.21294212341309,74.51294803619385,dot,"[0.08, 0.06, 0.06, 0.06, 0.08]","[[-0.08906257038347729, 0.3326351968500321], [0.2173987091792188, 0.026220721131276364], [0.07996259445097068, 0.4821024141609844], [0.14345365083950706, 0.2501481494916038], [-0.03323208063638199, 0.08804517681276208]]",density,black,,,N009,visual,1,[],"['1', '2', '3', '4']",1,2023.2.3,harveyvisual,2.1,[],8,0.75,
0,pause,0.4,None,None,None,0,207,207,207,,,,,,,,,,,,,N009,visual,1,[],"['1', '2', '3', '4']",1,2023.2.3,harveyvisual,2.1,[],8,0.75,
5,dot,0.3,['dot'],['density'],white,0,208,208,208,,,75.2002260684967,74.9129409790039,75.21292805671692,dot,"[0.06, 0.06, 0.1, 0.06, 0.06]","[[0.36014554898799966, 0.387810422325294], [0.055757472799778995, 0.16941293674392635], [0.2210739480460382, 0.008175952352481365], [0.48495712857242873, 0.07425785546611247], [0.25975240449222103, 0.2092734881649904]]",density,white,,,N009,visual,1,[],"['1', '2', '3', '4']",1,2023.2.3,harveyvisual,2.1,[],8,0.75,
0,pause,0.4,None,None,None,0,209,209,209,,,,,,,,,,,1,75.23949098587036,N009,visual,1,[],"['1', '2', '3', '4']",1,2023.2.3,harveyvisual,2.1,[],8,0.75,
5,dot,0.3,['dot'],['density'],black,0,210,210,210,,,75.90021300315857,75.61287903785706,75.91294312477112,dot,"[0.1, 0.1, 0.08, 0.08, 0.06]","[[-0.26965218803342234, -0.06061691990321757], [-0.44412238708790114, -0.1605793459593267], [-0.2738608688716076, -0.33598391440877745], [-0.06160694910013377, -0.19463283807086704], [-0.16469008497891707, 0.13324638745272324]]",density,black,,,N009,visual,1,[],"['1', '2', '3', '4']",1,2023.2.3,harveyvisual,2.1,[],8,0.75,
0,pause,0.4,None,None,None,0,211,211,211,,,,,,,,,,,,,N009,visual,1,[],"['1', '2', '3', '4']",1,2023.2.3,harveyvisual,2.1,[],8,0.75,
5,dot,0.3,['dot'],['density'],white,0,212,212,212,,,76.60023307800293,76.31292200088501,76.61288499832153,dot,"[0.1, 0.06, 0.08, 0.06, 0.08]","[[-0.0036269740154891753, 0.5431219823242713], [-0.2646325594942043, 0.5073179604697073], [-0.41902475937036154, 0.37311436690984484], [-0.007163214206743488, 0.2887893175302695], [-0.2156098228659233, 0.2684642371109035]]",density,white,,,N009,visual,1,[],"['1', '2', '3', '4']",1,2023.2.3,harveyvisual,2.1,[],8,0.75,
0,pause,0.4,None,None,None,0,213,213,213,,,,,,,,,,,1,76.65368318557739,N009,visual,1,[],"['1', '2', '3', '4']",1,2023.2.3,harveyvisual,2.1,[],8,0.75,
5,dot,0.3,['dot'],['density'],black,0,214,214,214,,,77.30021214485168,77.01287198066711,77.31287693977356,dot,"[0.06, 0.1, 0.08, 0.08, 0.06]","[[0.2447541601906441, 0.3086669061463178], [0.2085849672204031, -0.04267428248465989], [0.44393754570968663, -0.061602228714441105], [0.027125763574429876, 0.05764502161176834], [0.36879828001487897, 0.1310025380577708]]",density,black,,,N009,visual,1,[],"['1', '2', '3', '4']",1,2023.2.3,harveyvisual,2.1,[],8,0.75,
0,pause,0.4,None,None,None,0,215,215,215,,,,,,,,,,,,,N009,visual,1,[],"['1', '2', '3', '4']",1,2023.2.3,harveyvisual,2.1,[],8,0.75,
4,dot,0.3,['dot'],['density'],black,0,216,216,216,,,78.00021409988403,77.71283197402954,78.01289892196655,dot,"[0.1, 0.08, 0.06, 0.1]","[[-0.4918595852306691, 0.19162898845839058], [-0.30188041745692074, 0.10218906117132437], [-0.3018224646415858, -0.14357118929282034], [-0.4853871342809682, -0.061736688026617866]]",density,black,,,N009,visual,1,[],"['1', '2', '3', '4']",1,2023.2.3,harveyvisual,2.1,[],8,0.75,
0,pause,0.4,None,None,None,0,217,217,217,,,,,,,,,,,,,N009,visual,1,[],"['1', '2', '3', '4']",1,2023.2.3,harveyvisual,2.1,[],8,0.75,
4,dot,0.3,['dot'],['density'],white,0,218,218,218,,,78.70023798942566,78.41282415390015,78.71290612220764,dot,"[0.06, 0.1, 0.1, 0.1]","[[0.17852470546651972, -0.2012438881607824], [-0.031034799765910746, -0.12466087783573923], [0.008996399474264666, -0.3229379719524122], [0.15114343287780646, 0.03986859122442722]]",density,white,,,N009,visual,1,[],"['1', '2', '3', '4']",1,2023.2.3,harveyvisual,2.1,[],8,0.75,
0,pause,0.4,None,None,None,0,219,219,219,,,,,,,,,,,1,78.81087112426758,N009,visual,1,[],"['1', '2', '3', '4']",1,2023.2.3,harveyvisual,2.1,[],8,0.75,
4,dot,0.3,['dot'],['density'],black,0,220,220,220,,,79.40022802352905,79.1128180027008,79.41280698776245,dot,"[0.08, 0.1, 0.06, 0.06]","[[-0.1807894278345534, -0.050693892368996955], [-0.03778933673514029, -0.29773510453537966], [0.0747201162679791, -0.1287424711559737], [-0.02241484737224569, 0.07404475448468936]]",density,black,,,N009,visual,1,[],"['1', '2', '3', '4']",1,2023.2.3,harveyvisual,2.1,[],8,0.75,
0,pause,0.4,None,None,None,0,221,221,221,,,,,,,,,,,,,N009,visual,1,[],"['1', '2', '3', '4']",1,2023.2.3,harveyvisual,2.1,[],8,0.75,
4,dot,0.3,['dot'],['density'],black,0,222,222,222,,,80.10023593902588,79.81277799606323,80.11275601387024,dot,"[0.08, 0.1, 0.08, 0.06]","[[0.08172100217045614, 0.5402562525463245], [-0.024891988969352973, 0.31595276793208527], [-0.14685316472848742, 0.5184788481920529], [-0.2646655063210597, 0.3159281349431851]]",density,black,,,N009,visual,1,[],"['1', '2', '3', '4']",1,2023.2.3,harveyvisual,2.1,[],8,0.75,
0,pause,0.4,None,None,None,0,223,223,223,,,,,,,,,,,,,N009,visual,1,[],"['1', '2', '3', '4']",1,2023.2.3,harveyvisual,2.1,[],8,0.75,
4,dot,0.3,['dot'],['density'],black,0,224,224,224,,,80.80021715164185,80.5127820968628,80.812735080719,dot,"[0.06, 0.1, 0.06, 0.1]","[[-0.22711054503220823, -0.5144049053218714], [-0.016307770745122817, -0.5558659767831347], [-0.26432457165568224, -0.2824025039497699], [-0.026303944553407815, -0.34464361634901186]]",density,black,,,N009,visual,1,[],"['1', '2', '3', '4']",1,2023.2.3,harveyvisual,2.1,[],8,0.75,
0,pause,0.4,None,None,None,0,225,225,225,,,,,,,,,,,,,N009,visual,1,[],"['1', '2', '3', '4']",1,2023.2.3,harveyvisual,2.1,[],8,0.75,
4,dot,0.3,['dot'],['density'],black,0,226,226,226,,,81.50023293495178,81.21273708343506,81.5127899646759,dot,"[0.08, 0.1, 0.1, 0.08]","[[-0.43942495523079517, -0.22401056498097033], [-0.009260832099230759, -0.1633376679159051], [-0.21598309108097546, -0.10172603009605206], [-0.2278206133413005, -0.33154874685782076]]",density,black,,,N009,visual,1,[],"['1', '2', '3', '4']",1,2023.2.3,harveyvisual,2.1,[],8,0.75,
0,pause,0.4,None,None,None,0,227,227,227,,,,,,,,,,,,,N009,visual,1,[],"['1', '2', '3', '4']",1,2023.2.3,harveyvisual,2.1,[],8,0.75,
3,dot,0.3,['dot'],['density'],black,0,228,228,228,,,82.20023608207703,81.9138650894165,82.21289396286011,dot,"[0.06, 0.06, 0.06]","[[0.4290032298944087, 0.1407520187648592], [0.22848299553954127, 0.06362144779139585], [0.3595680574788582, -0.09433362503040832]]",density,black,,,N009,visual,1,[],"['1', '2', '3', '4']",1,2023.2.3,harveyvisual,2.1,[],8,0.75,
0,pause,0.4,None,None,None,0,229,229,229,,,,,,,,,,,,,N009,visual,1,[],"['1', '2', '3', '4']",1,2023.2.3,harveyvisual,2.1,[],8,0.75,
3,dot,0.3,['dot'],['density'],black,0,230,230,230,,,82.90021109580994,82.61291694641113,82.91274905204773,dot,"[0.08, 0.1, 0.06]","[[0.5383732683216915, 0.24050044654635605], [0.337973319445641, 0.36292363064724675], [0.3422154310588786, 0.14570949010333048]]",density,black,,,N009,visual,1,[],"['1', '2', '3', '4']",1,2023.2.3,harveyvisual,2.1,[],8,0.75,
0,pause,0.4,None,None,None,0,231,231,231,,,,,,,,,,,,,N009,visual,1,[],"['1', '2', '3', '4']",1,2023.2.3,harveyvisual,2.1,[],8,0.75,
3,dot,0.3,['dot'],['density'],black,0,232,232,232,,,83.60023593902588,83.31273794174194,83.6127450466156,dot,"[0.08, 0.1, 0.08]","[[-0.5599668940784417, -0.1503624274944763], [-0.33715825845103314, -0.1742393560729378], [-0.447658281307079, 0.035586458508876644]]",density,black,,,N009,visual,1,[],"['1', '2', '3', '4']",1,2023.2.3,harveyvisual,2.1,[],8,0.75,
0,pause,0.4,None,None,None,0,233,233,233,,,,,,,,,,,,,N009,visual,1,[],"['1', '2', '3', '4']",1,2023.2.3,harveyvisual,2.1,[],8,0.75,
3,dot,0.3,['dot'],['density'],black,0,234,234,234,,,84.30021715164185,84.01273894309998,84.31284594535828,dot,"[0.1, 0.06, 0.06]","[[0.348550694073714, -0.26372109460002424], [0.5073713069625243, -0.14206826334288786], [0.3419709386041379, 0.005891602819957491]]",density,black,,,N009,visual,1,[],"['1', '2', '3', '4']",1,2023.2.3,harveyvisual,2.1,[],8,0.75,
0,pause,0.4,None,None,None,0,235,235,235,,,,,,,,,,,,,N009,visual,1,[],"['1', '2', '3', '4']",1,2023.2.3,harveyvisual,2.1,[],8,0.75,
3,dot,0.3,['dot'],['density'],black,0,236,236,236,,,85.00023007392883,84.71272802352905,85.0128800868988,dot,"[0.06, 0.1, 0.1]","[[0.11213305146232053, -0.07893917948794166], [0.05639720131197772, -0.2966044022377523], [-0.1031859716129837, -0.13437008874356654]]",density,black,,,N009,visual,1,[],"['1', '2', '3', '4']",1,2023.2.3,harveyvisual,2.1,[],8,0.75,
0,pause,0.4,None,None,None,0,237,237,237,,,,,,,,,,,,,N009,visual,1,[],"['1', '2', '3', '4']",1,2023.2.3,harveyvisual,2.1,[],8,0.75,
3,dot,0.3,['dot'],['density'],black,0,238,238,238,,,85.70021605491638,85.41271805763245,85.71266508102417,dot,"[0.1, 0.1, 0.06]","[[-0.1599523582230929, -0.020289166781496174], [-0.3458010015304564, -0.14250622038001895], [-0.3538668896253721, 0.08903610231223419]]",density,black,,,N009,visual,1,[],"['1', '2', '3', '4']",1,2023.2.3,harveyvisual,2.1,[],8,0.75,
0,pause,0.4,None,None,None,0,239,239,239,,,,,,,,,,,,,N009,visual,1,[],"['1', '2', '3', '4']",1,2023.2.3,harveyvisual,2.1,[],8,0.75,
2,dot,0.3,['dot'],['density'],black,0,240,240,240,,,86.4002320766449,86.11287212371826,86.41264796257019,dot,"[0.1, 0.06]","[[0.11437717294043931, -0.408092871188616], [0.012734947149558614, -0.23578585574018435]]",density,black,,,N009,visual,1,[],"['1', '2', '3', '4']",1,2023.2.3,harveyvisual,2.1,[],8,0.75,
0,pause,0.4,None,None,None,0,241,241,241,,,,,,,,,,,,,N009,visual,1,[],"['1', '2', '3', '4']",1,2023.2.3,harveyvisual,2.1,[],8,0.75,
2,dot,0.3,['dot'],['density'],black,0,242,242,242,,,87.10023403167725,86.812814950943,87.11264109611511,dot,"[0.08, 0.1]","[[0.06661886780735636, -0.3109770134588511], [-0.03502229105109153, -0.4833380692870097]]",density,black,,,N009,visual,1,[],"['1', '2', '3', '4']",1,2023.2.3,harveyvisual,2.1,[],8,0.75,
0,pause,0.4,None,None,None,0,243,243,243,,,,,,,,,,,,,N009,visual,1,[],"['1', '2', '3', '4']",1,2023.2.3,harveyvisual,2.1,[],8,0.75,
2,dot,0.3,['dot'],['density'],white,0,244,244,244,,,87.80023097991943,87.51265096664429,87.81275296211243,dot,"[0.08, 0.08]","[[-0.16440981108753766, 0.5378091218652469], [-0.08422838651173449, 0.35445914222875186]]",density,white,,,N009,visual,1,[],"['1', '2', '3', '4']",1,2023.2.3,harveyvisual,2.1,[],8,0.75,
0,pause,0.4,None,None,None,0,245,245,245,,,,,,,,,,,1,87.84624910354614,N009,visual,1,[],"['1', '2', '3', '4']",1,2023.2.3,harveyvisual,2.1,[],8,0.75,
2,dot,0.3,['dot'],['density'],white,0,246,246,246,,,88.50021409988403,88.21259808540344,88.5125961303711,dot,"[0.1, 0.06]","[[-0.3970652553054307, 0.36151140161898554], [-0.22306532646831484, 0.26288994227005946]]",density,white,,,N009,visual,1,[],"['1', '2', '3', '4']",1,2023.2.3,harveyvisual,2.1,[],8,0.75,
0,pause,0.4,None,None,None,0,247,247,247,,,,,,,,,,,1,88.55511617660522,N009,visual,1,[],"['1', '2', '3', '4']",1,2023.2.3,harveyvisual,2.1,[],8,0.75,
2,dot,0.3,['dot'],['density'],black,0,248,248,248,,,89.2002420425415,88.91273713111877,89.21256113052368,dot,"[0.06, 0.06]","[[0.45098141687762733, -0.20237638590572143], [0.5433504117931098, -0.02475258047346216]]",density,black,,,N009,visual,1,[],"['1', '2', '3', '4']",1,2023.2.3,harveyvisual,2.1,[],8,0.75,
0,pause,0.4,None,None,None,0,249,249,249,,,,,,,,,,,,,N009,visual,1,[],"['1', '2', '3', '4']",1,2023.2.3,harveyvisual,2.1,[],8,0.75,
2,dot,0.3,['dot'],['density'],black,0,250,250,250,,,89.90024209022522,89.61268591880798,89.91254711151123,dot,"[0.1, 0.1]","[[0.5159928458027473, 0.13749655768121952], [0.38343727829172375, 0.28833164788761484]]",density,black,,,N009,visual,1,[],"['1', '2', '3', '4']",1,2023.2.3,harveyvisual,2.1,[],8,0.75,
0,pause,0.4,None,None,None,0,251,251,251,,,,,,,,,,,,,N009,visual,1,[],"['1', '2', '3', '4']",1,2023.2.3,harveyvisual,2.1,[],8,0.75,
1,dot,0.3,['dot'],['density'],white,0,252,252,252,,,90.6002299785614,90.3125250339508,90.61254811286926,dot,[0.1],"[0.00661777001411412, 0.39634766145863237]",density,white,,,N009,visual,1,[],"['1', '2', '3', '4']",1,2023.2.3,harveyvisual,2.1,[],8,0.75,
0,pause,0.4,None,None,None,0,253,253,253,,,,,,,,,,,1,90.65043616294861,N009,visual,1,[],"['1', '2', '3', '4']",1,2023.2.3,harveyvisual,2.1,[],8,0.75,
1,dot,0.3,['dot'],['density'],black,0,254,254,254,,,91.30023503303528,91.01255106925964,91.31254005432129,dot,[0.1],"[0.0956549371127339, 0.09579573331985794]",density,black,,,N009,visual,1,[],"['1', '2', '3', '4']",1,2023.2.3,harveyvisual,2.1,[],8,0.75,
0,pause,0.4,None,None,None,0,255,255,255,,,,,,,,,,,,,N009,visual,1,[],"['1', '2', '3', '4']",1,2023.2.3,harveyvisual,2.1,[],8,0.75,
1,dot,0.3,['dot'],['density'],black,0,256,256,256,,,92.00021696090698,91.71250796318054,92.01249814033508,dot,[0.06],"[0.15956500649880873, 0.2640393008039057]",density,black,,,N009,visual,1,[],"['1', '2', '3', '4']",1,2023.2.3,harveyvisual,2.1,[],8,0.75,
0,pause,0.4,None,None,None,0,257,257,257,,,,,,,,,,,,,N009,visual,1,[],"['1', '2', '3', '4']",1,2023.2.3,harveyvisual,2.1,[],8,0.75,
1,dot,0.3,['dot'],['density'],black,0,258,258,258,,,92.70022296905518,92.4124960899353,92.71250605583191,dot,[0.08],"[0.2287398259034258, -0.3932960849464651]",density,black,,,N009,visual,1,[],"['1', '2', '3', '4']",1,2023.2.3,harveyvisual,2.1,[],8,0.75,
0,pause,0.4,None,None,None,0,259,259,259,,,,,,,,,,,,,N009,visual,1,[],"['1', '2', '3', '4']",1,2023.2.3,harveyvisual,2.1,[],8,0.75,
1,dot,0.3,['dot'],['density'],white,0,260,260,260,,,93.40023112297058,93.11249995231628,93.41246294975281,dot,[0.1],"[0.15956500649880873, 0.2640393008039057]",density,white,,,N009,visual,1,[],"['1', '2', '3', '4']",1,2023.2.3,harveyvisual,2.1,[],8,0.75,
0,pause,0.4,None,None,None,0,261,261,261,,,,,,,,,,,1,93.52173018455505,N009,visual,1,[],"['1', '2', '3', '4']",1,2023.2.3,harveyvisual,2.1,[],8,0.75,
1,dot,0.3,['dot'],['density'],black,0,262,262,262,,,94.10021710395813,93.81243991851807,94.11257600784302,dot,[0.06],"[0.075024325262877, 0.28946834799837856]",density,black,,,N009,visual,1,[],"['1', '2', '3', '4']",1,2023.2.3,harveyvisual,2.1,[],8,0.75,
0,pause,0.4,None,None,None,0,263,263,263,,,,,,,,,,,,,N009,visual,1,[],"['1', '2', '3', '4']",1,2023.2.3,harveyvisual,2.1,[],8,0.75,
20,dot,0.3,['dot'],['density'],black,0,264,264,264,,,94.80023097991943,94.51242899894714,94.81242203712463,dot,"[0.1, 0.08, 0.06, 0.08, 0.06, 0.08, 0.1, 0.08, 0.06, 0.08, 0.06, 0.06, 0.06, 0.08, 0.1, 0.08, 0.1, 0.06, 0.08, 0.1]","[[0.007485989010641125, -0.38183987096716737], [0.5910448004011278, 0.01652878815831879], [0.20455561402202715, -0.02609727272438611], [-0.5082926331365414, 0.2517626145754712], [0.14612785440286014, -0.5840126834698317], [-0.11660884642033015, 0.3053137644522772], [-0.15446535163313185, -0.04457095998393745], [0.12962449901924822, 0.3772027018720012], [-0.3499609681152926, 0.13021730510577673], [0.19467238627909944, 0.1733548563738403], [-0.5478778431520724, 0.052048084229314895], [-0.5399160633091156, -0.15626017813541704], [0.3965115666684468, 0.10167539117910901], [-0.2246857371170054, 0.5458300599136329], [-0.3458919633731363, -0.35777939293971694], [0.361974416148812, -0.42989444504167845], [0.46268158098114653, 0.3091816526806247], [0.4162554819694221, -0.11749761792114694], [-0.05923962460216481, -0.560814023664782], [-0.041971491740108724, 0.1220399276690396]]",density,black,,,N009,visual,1,[],"['1', '2', '3', '4']",1,2023.2.3,harveyvisual,2.1,[],8,0.75,
0,pause,0.4,None,None,None,0,265,265,265,,,,,,,,,,,,,N009,visual,1,[],"['1', '2', '3', '4']",1,2023.2.3,harveyvisual,2.1,[],8,0.75,
20,dot,0.3,['dot'],['density'],black,0,266,266,266,,,95.50023198127747,95.21245098114014,95.51254510879517,dot,"[0.1, 0.06, 0.06, 0.06, 0.1, 0.06, 0.08, 0.08, 0.1, 0.06, 0.06, 0.06, 0.1, 0.06, 0.06, 0.1, 0.06, 0.08, 0.08, 0.08]","[[0.3889941297795322, -0.14433932007720823], [-0.4212650305441978, -0.06294969120170507], [-0.42379376593246987, 0.34155293359766364], [-0.19872167015161452, -0.5027169671131729], [0.23435638334665698, 0.20026322090950788], [-0.06968481854342956, 0.2639246978086148], [0.14119355637855968, 0.47784129966956745], [-0.045293087092381445, -0.12536175782249637], [0.4403635089206116, 0.3483216266806731], [-0.1331857641756939, 0.5241385500855326], [-0.33897156778481163, -0.3703525888106508], [0.18858973855926198, -0.33847098659356023], [0.5556062525897708, 0.10208381665083444], [0.46147187610173035, -0.3799540187924152], [-0.5989348146306585, 0.019244648996858002], [-0.025229366358940686, -0.3185869222851212], [0.08776261917558781, 0.03340346346440737], [-0.19606942776310593, 0.012203318693849607], [0.13168730505346715, -0.5426704480504907], [-0.5421313507520757, -0.21061377807052994]]",density,black,,,N009,visual,1,[],"['1', '2', '3', '4']",1,2023.2.3,harveyvisual,2.1,[],8,0.75,
0,pause,0.4,None,None,None,0,267,267,267,,,,,,,,,,,,,N009,visual,1,[],"['1', '2', '3', '4']",1,2023.2.3,harveyvisual,2.1,[],8,0.75,
