num,mod,duration,shape,ll_cond,colors,.thisRepN,.thisTrialN,.thisN,.thisIndex,thisRow.t,notes,raw_global_time,t_start,t_stop,shapes,size,pos,cond,color,button,RT,participant,session,starting_run,left button (match/odd),right button (non-match/even),samples_per_block,psychopy version,expName,offset,audio,number_runs,radius,
1,dot,0.3,['dot'],['density'],black,0,0,0,0,,,2.4002139568328857,2.1153271198272705,2.415250062942505,dot,[0.06],"[0.1600937909388646, -0.5041032805904762]",density,black,,,N009,visual,1,[],"['1', '2', '3', '4']",1,2023.2.3,harveyvisual,2.1,[],8,0.75,
0,pause,0.4,None,None,None,0,1,1,1,,,,,,,,,,,,,N009,visual,1,[],"['1', '2', '3', '4']",1,2023.2.3,harveyvisual,2.1,[],8,0.75,
1,dot,0.3,['dot'],['density'],black,0,2,2,2,,,3.1002120971679688,2.7984211444854736,3.115936040878296,dot,[0.08],"[-0.4913090862596544, 0.31587628757091063]",density,black,,,N009,visual,1,[],"['1', '2', '3', '4']",1,2023.2.3,harveyvisual,2.1,[],8,0.75,
0,pause,0.4,None,None,None,0,3,3,3,,,,,,,,,,,,,N009,visual,1,[],"['1', '2', '3', '4']",1,2023.2.3,harveyvisual,2.1,[],8,0.75,
1,dot,0.3,['dot'],['density'],black,0,4,4,4,,,3.8002090454101562,3.5156450271606445,3.815646171569824,dot,[0.1],"[0.2287398259034258, -0.3932960849464651]",density,black,,,N009,visual,1,[],"['1', '2', '3', '4']",1,2023.2.3,harveyvisual,2.1,[],8,0.75,
0,pause,0.4,None,None,None,0,5,5,5,,,,,,,,,,,,,N009,visual,1,[],"['1', '2', '3', '4']",1,2023.2.3,harveyvisual,2.1,[],8,0.75,
1,dot,0.3,['dot'],['density'],black,0,6,6,6,,,4.500213146209717,4.215523958206177,4.515514135360718,dot,[0.06],"[-0.3678067964802796, -0.3513177213804687]",density,black,,,N009,visual,1,[],"['1', '2', '3', '4']",1,2023.2.3,harveyvisual,2.1,[],8,0.75,
0,pause,0.4,None,None,None,0,7,7,7,,,,,,,,,,,,,N009,visual,1,[],"['1', '2', '3', '4']",1,2023.2.3,harveyvisual,2.1,[],8,0.75,
1,dot,0.3,['dot'],['density'],black,0,8,8,8,,,5.200226068496704,4.915503978729248,5.215808153152466,dot,[0.1],"[0.1049869166116724, 0.1335000464341748]",density,black,,,N009,visual,1,[],"['1', '2', '3', '4']",1,2023.2.3,harveyvisual,2.1,[],8,0.75,
0,pause,0.4,None,None,None,0,9,9,9,,,,,,,,,,,,,N009,visual,1,[],"['1', '2', '3', '4']",1,2023.2.3,harveyvisual,2.1,[],8,0.75,
1,dot,0.3,['dot'],['density'],black,0,10,10,10,,,5.900205135345459,5.617999076843262,5.917858123779297,dot,[0.1],"[0.2443568370277045, -0.23874091154858243]",density,black,,,N009,visual,1,[],"['1', '2', '3', '4']",1,2023.2.3,harveyvisual,2.1,[],8,0.75,
0,pause,0.4,None,None,None,0,11,11,11,,,,,,,,,,,,,N009,visual,1,[],"['1', '2', '3', '4']",1,2023.2.3,harveyvisual,2.1,[],8,0.75,
2,dot,0.3,['dot'],['density'],black,0,12,12,12,,,6.600214958190918,6.317861080169678,6.617849111557007,dot,"[0.08, 0.08]","[[0.19540278997321237, -0.319457995891214], [0.34462774624387493, -0.4544903302695001]]",density,black,,,N009,visual,1,[],"['1', '2', '3', '4']",1,2023.2.3,harveyvisual,2.1,[],8,0.75,
0,pause,0.4,None,None,None,0,13,13,13,,,,,,,,,,,,,N009,visual,1,[],"['1', '2', '3', '4']",1,2023.2.3,harveyvisual,2.1,[],8,0.75,
2,dot,0.3,['dot'],['density'],black,0,14,14,14,,,7.300201177597046,7.017802000045776,7.317790985107422,dot,"[0.08, 0.08]","[[-0.1809096912417549, 0.4542701565657042], [0.018526046348631375, 0.4698330185089162]]",density,black,,,N009,visual,1,[],"['1', '2', '3', '4']",1,2023.2.3,harveyvisual,2.1,[],8,0.75,
0,pause,0.4,None,None,None,0,15,15,15,,,,,,,,,,,,,N009,visual,1,[],"['1', '2', '3', '4']",1,2023.2.3,harveyvisual,2.1,[],8,0.75,
2,dot,0.3,['dot'],['density'],black,0,16,16,16,,,8.000200986862183,7.717792987823486,8.017760992050171,dot,"[0.08, 0.06]","[[0.1851205616289071, -0.3624876981064337], [0.3405923022038234, -0.23608025195482504]]",density,black,,,N009,visual,1,[],"['1', '2', '3', '4']",1,2023.2.3,harveyvisual,2.1,[],8,0.75,
0,pause,0.4,None,None,None,0,17,17,17,,,,,,,,,,,,,N009,visual,1,[],"['1', '2', '3', '4']",1,2023.2.3,harveyvisual,2.1,[],8,0.75,
2,dot,0.3,['dot'],['density'],black,0,18,18,18,,,8.700224161148071,8.417762041091919,8.717754125595093,dot,"[0.08, 0.1]","[[0.29932439847351855, -0.2783039550742582], [0.14276117392638485, -0.15345139110726028]]",density,black,,,N009,visual,1,[],"['1', '2', '3', '4']",1,2023.2.3,harveyvisual,2.1,[],8,0.75,
0,pause,0.4,None,None,None,0,19,19,19,,,,,,,,,,,,,N009,visual,1,[],"['1', '2', '3', '4']",1,2023.2.3,harveyvisual,2.1,[],8,0.75,
2,dot,0.3,['dot'],['density'],black,0,20,20,20,,,9.400223970413208,9.11774206161499,9.417725086212158,dot,"[0.08, 0.06]","[[0.07059805578258149, -0.2458188734665979], [0.058763118304238846, -0.4455693812784497]]",density,black,,,N009,visual,1,[],"['1', '2', '3', '4']",1,2023.2.3,harveyvisual,2.1,[],8,0.75,
0,pause,0.4,None,None,None,0,21,21,21,,,,,,,,,,,,,N009,visual,1,[],"['1', '2', '3', '4']",1,2023.2.3,harveyvisual,2.1,[],8,0.75,
2,dot,0.3,['dot'],['density'],black,0,22,22,22,,,10.100211143493652,9.817727088928223,10.117792129516602,dot,"[0.08, 0.06]","[[0.06661886780735636, -0.3109770134588511], [-0.03502229105109153, -0.4833380692870097]]",density,black,,,N009,visual,1,[],"['1', '2', '3', '4']",1,2023.2.3,harveyvisual,2.1,[],8,0.75,
0,pause,0.4,None,None,None,0,23,23,23,,,,,,,,,,,,,N009,visual,1,[],"['1', '2', '3', '4']",1,2023.2.3,harveyvisual,2.1,[],8,0.75,
3,dot,0.3,['dot'],['density'],black,0,24,24,24,,,10.800204038619995,10.517717123031616,10.817698955535889,dot,"[0.1, 0.1, 0.08]","[[0.29938275938101017, 0.44415474715472736], [0.13070782598704628, 0.5557174004537693], [0.11832456902218637, 0.3273615767427578]]",density,black,,,N009,visual,1,[],"['1', '2', '3', '4']",1,2023.2.3,harveyvisual,2.1,[],8,0.75,
0,pause,0.4,None,None,None,0,25,25,25,,,,,,,,,,,,,N009,visual,1,[],"['1', '2', '3', '4']",1,2023.2.3,harveyvisual,2.1,[],8,0.75,
3,dot,0.3,['dot'],['density'],black,0,26,26,26,,,11.500205039978027,11.217672109603882,11.517698049545288,dot,"[0.1, 0.08, 0.06]","[[-0.09236249555143743, 0.14437879021360575], [0.06053771141254397, 0.008702735453236923], [-0.17336599953316903, -0.04113967592870183]]",density,black,,,N009,visual,1,[],"['1', '2', '3', '4']",1,2023.2.3,harveyvisual,2.1,[],8,0.75,
0,pause,0.4,None,None,None,0,27,27,27,,,,,,,,,,,,,N009,visual,1,[],"['1', '2', '3', '4']",1,2023.2.3,harveyvisual,2.1,[],8,0.75,
3,dot,0.3,['dot'],['density'],black,0,28,28,28,,,12.200201034545898,11.917699098587036,12.217664003372192,dot,"[0.08, 0.08, 0.1]","[[-0.1591938184585166, 0.2573970255855866], [-0.049574382916532336, 0.44031337398050124], [0.08264166875933507, 0.262381570646859]]",density,black,,,N009,visual,1,[],"['1', '2', '3', '4']",1,2023.2.3,harveyvisual,2.1,[],8,0.75,
0,pause,0.4,None,None,None,0,29,29,29,,,,,,,,,,,,,N009,visual,1,[],"['1', '2', '3', '4']",1,2023.2.3,harveyvisual,2.1,[],8,0.75,
3,dot,0.3,['dot'],['density'],black,0,30,30,30,,,12.900223016738892,12.617645978927612,12.91765308380127,dot,"[0.08, 0.08, 0.1]","[[-0.5081709494874314, 0.1572673197774781], [-0.37009835501087307, 0.006965763417246156], [-0.5707172634768017, -0.07177594851347295]]",density,black,,,N009,visual,1,[],"['1', '2', '3', '4']",1,2023.2.3,harveyvisual,2.1,[],8,0.75,
0,pause,0.4,None,None,None,0,31,31,31,,,,,,,,,,,,,N009,visual,1,[],"['1', '2', '3', '4']",1,2023.2.3,harveyvisual,2.1,[],8,0.75,
3,dot,0.3,['dot'],['density'],black,0,32,32,32,,,13.60020112991333,13.317716121673584,13.617650985717773,dot,"[0.08, 0.08, 0.1]","[[-0.27441186418729774, -0.31428620701652393], [-0.10438281902574013, -0.2032379983598837], [-0.31523395761825285, -0.08768035506307631]]",density,black,,,N009,visual,1,[],"['1', '2', '3', '4']",1,2023.2.3,harveyvisual,2.1,[],8,0.75,
0,pause,0.4,None,None,None,0,33,33,33,,,,,,,,,,,,,N009,visual,1,[],"['1', '2', '3', '4']",1,2023.2.3,harveyvisual,2.1,[],8,0.75,
3,dot,0.3,['dot'],['density'],black,0,34,34,34,,,14.300228118896484,14.017738103866577,14.317620038986206,dot,"[0.08, 0.1, 0.08]","[[-0.3082868261871679, -0.3137599619928766], [-0.14816041357862977, -0.19371393562593295], [-0.35304767783039576, -0.10610354059871957]]",density,black,,,N009,visual,1,[],"['1', '2', '3', '4']",1,2023.2.3,harveyvisual,2.1,[],8,0.75,
0,pause,0.4,None,None,None,0,35,35,35,,,,,,,,,,,,,N009,visual,1,[],"['1', '2', '3', '4']",1,2023.2.3,harveyvisual,2.1,[],8,0.75,
4,dot,0.3,['dot'],['density'],black,0,36,36,36,,,15.00020694732666,14.717616081237793,15.01760196685791,dot,"[0.1, 0.06, 0.1, 0.06]","[[0.3510671072586959, 0.39105757673094776], [0.13754249634966464, 0.24690230999823115], [0.2791454519284172, 0.028997379515453933], [0.42442503262497266, 0.18132357243737673]]",density,black,,,N009,visual,1,[],"['1', '2', '3', '4']",1,2023.2.3,harveyvisual,2.1,[],8,0.75,
0,pause,0.4,None,None,None,0,37,37,37,,,,,,,,,,,,,N009,visual,1,[],"['1', '2', '3', '4']",1,2023.2.3,harveyvisual,2.1,[],8,0.75,
4,dot,0.3,['dot'],['density'],black,0,38,38,38,,,15.70022702217102,15.417593002319336,15.717586040496826,dot,"[0.1, 0.08, 0.06, 0.1]","[[-0.035956560563939345, -0.32709283091503677], [-0.2190429995428959, -0.2035699502326352], [-0.06992348234594314, -0.5664776463754845], [-0.220471277594294, -0.41208836036752056]]",density,black,,,N009,visual,1,[],"['1', '2', '3', '4']",1,2023.2.3,harveyvisual,2.1,[],8,0.75,
0,pause,0.4,None,None,None,0,39,39,39,,,,,,,,,,,,,N009,visual,1,[],"['1', '2', '3', '4']",1,2023.2.3,harveyvisual,2.1,[],8,0.75,
4,dot,0.3,['dot'],['density'],black,0,40,40,40,,,16.400225162506104,16.117578983306885,16.417551040649414,dot,"[0.08, 0.08, 0.08, 0.06]","[[0.1665887267295909, 0.08389582001604734], [0.4584359263982055, 0.26405512465689546], [0.4157764543415929, 0.03513878013061779], [0.2392225064082761, 0.29777239984320175]]",density,black,,,N009,visual,1,[],"['1', '2', '3', '4']",1,2023.2.3,harveyvisual,2.1,[],8,0.75,
0,pause,0.4,None,None,None,0,41,41,41,,,,,,,,,,,,,N009,visual,1,[],"['1', '2', '3', '4']",1,2023.2.3,harveyvisual,2.1,[],8,0.75,
4,dot,0.3,['dot'],['density'],black,0,42,42,42,,,17.10021209716797,16.817543983459473,17.11759901046753,dot,"[0.1, 0.08, 0.06, 0.06]","[[0.0004228548582206217, 0.4437421379736539], [0.24572762857664815, 0.2260868474052859], [0.007756854070108054, 0.1846819218217072], [0.22099789303306372, 0.4278063517398125]]",density,black,,,N009,visual,1,[],"['1', '2', '3', '4']",1,2023.2.3,harveyvisual,2.1,[],8,0.75,
0,pause,0.4,None,None,None,0,43,43,43,,,,,,,,,,,,,N009,visual,1,[],"['1', '2', '3', '4']",1,2023.2.3,harveyvisual,2.1,[],8,0.75,
4,dot,0.3,['dot'],['density'],black,0,44,44,44,,,17.800228118896484,17.517591953277588,17.81755805015564,dot,"[0.1, 0.06, 0.06, 0.1]","[[-0.03907102058372138, -0.1723346686752248], [0.13255167928633116, -0.03782047714335622], [0.2720101467217329, -0.23443565690461937], [0.07080951743106016, -0.35239766365090747]]",density,black,,,N009,visual,1,[],"['1', '2', '3', '4']",1,2023.2.3,harveyvisual,2.1,[],8,0.75,
0,pause,0.4,None,None,None,0,45,45,45,,,,,,,,,,,,,N009,visual,1,[],"['1', '2', '3', '4']",1,2023.2.3,harveyvisual,2.1,[],8,0.75,
4,dot,0.3,['dot'],['density'],black,0,46,46,46,,,18.500226974487305,18.217650175094604,18.517502069473267,dot,"[0.08, 0.08, 0.06, 0.1]","[[0.0015408600658227804, 0.35051751062746694], [-0.20674122870780898, 0.3211588031025307], [-0.08430622538187964, 0.13383917563087117], [0.1780252705082131, 0.19175915241248492]]",density,black,,,N009,visual,1,[],"['1', '2', '3', '4']",1,2023.2.3,harveyvisual,2.1,[],8,0.75,
0,pause,0.4,None,None,None,0,47,47,47,,,,,,,,,,,,,N009,visual,1,[],"['1', '2', '3', '4']",1,2023.2.3,harveyvisual,2.1,[],8,0.75,
5,dot,0.3,['dot'],['density'],black,0,48,48,48,,,19.200201988220215,18.91748809814453,19.217482089996338,dot,"[0.06, 0.06, 0.1, 0.06, 0.1]","[[0.05896558140131438, -0.5342250951568444], [0.41924064092593105, -0.38742881471212404], [0.0789485457987589, -0.15857793529431863], [0.19859038409043042, -0.3300393182504279], [-0.04229804568701367, -0.31959008629620334]]",density,black,,,N009,visual,1,[],"['1', '2', '3', '4']",1,2023.2.3,harveyvisual,2.1,[],8,0.75,
0,pause,0.4,None,None,None,0,49,49,49,,,,,,,,,,,,,N009,visual,1,[],"['1', '2', '3', '4']",1,2023.2.3,harveyvisual,2.1,[],8,0.75,
5,dot,0.3,['dot'],['density'],black,0,50,50,50,,,19.900220155715942,19.617478132247925,19.917461156845093,dot,"[0.1, 0.08, 0.08, 0.06, 0.06]","[[0.26736814946294957, 0.039639821311179], [0.3007085492035367, 0.3262250213434343], [0.4353907115448318, -0.11778011175670104], [0.4521497692138949, 0.1289853794543976], [0.1485908728023605, -0.12275462689891227]]",density,black,,,N009,visual,1,[],"['1', '2', '3', '4']",1,2023.2.3,harveyvisual,2.1,[],8,0.75,
0,pause,0.4,None,None,None,0,51,51,51,,,,,,,,,,,,,N009,visual,1,[],"['1', '2', '3', '4']",1,2023.2.3,harveyvisual,2.1,[],8,0.75,
5,dot,0.3,['dot'],['density'],black,0,52,52,52,,,20.600208044052124,20.31746006011963,20.617472171783447,dot,"[0.06, 0.08, 0.1, 0.06, 0.1]","[[-0.5348211864270219, -0.08335004612931018], [-0.428892633085643, 0.14758700623805307], [-0.3277098387322906, -0.27887202276080253], [-0.29687101947458117, -0.03792463078145938], [-0.23363771935579355, 0.21194794904782605]]",density,black,,,N009,visual,1,[],"['1', '2', '3', '4']",1,2023.2.3,harveyvisual,2.1,[],8,0.75,
0,pause,0.4,None,None,None,0,53,53,53,,,,,,,,,,,,,N009,visual,1,[],"['1', '2', '3', '4']",1,2023.2.3,harveyvisual,2.1,[],8,0.75,
5,dot,0.3,['dot'],['density'],black,0,54,54,54,,,21.300214052200317,21.01741600036621,21.31741213798523,dot,"[0.1, 0.08, 0.1, 0.06, 0.08]","[[-0.47409275164437775, -0.17842554437930905], [-0.28800513042966097, -0.4059597382025641], [-0.20075697267214665, 0.008887320625593834], [-0.2708677629513771, -0.1868162154653106], [-0.0886924353013077, -0.2820475711339636]]",density,black,,,N009,visual,1,[],"['1', '2', '3', '4']",1,2023.2.3,harveyvisual,2.1,[],8,0.75,
0,pause,0.4,None,None,None,0,55,55,55,,,,,,,,,,,,,N009,visual,1,[],"['1', '2', '3', '4']",1,2023.2.3,harveyvisual,2.1,[],8,0.75,
5,dot,0.3,['dot'],['density'],black,0,56,56,56,,,22.000216960906982,21.717432022094727,22.01741099357605,dot,"[0.08, 0.06, 0.08, 0.1, 0.06]","[[-0.18510638544872327, 0.41559840932892733], [-0.057175862535637494, 0.18304904272057057], [0.24003340414173915, 0.43371676657957026], [0.006490958465160464, 0.4770521622163581], [0.13658455045585424, 0.2476502540597336]]",density,black,,,N009,visual,1,[],"['1', '2', '3', '4']",1,2023.2.3,harveyvisual,2.1,[],8,0.75,
0,pause,0.4,None,None,None,0,57,57,57,,,,,,,,,,,,,N009,visual,1,[],"['1', '2', '3', '4']",1,2023.2.3,harveyvisual,2.1,[],8,0.75,
5,dot,0.3,['dot'],['density'],black,0,58,58,58,,,22.700222969055176,22.41740107536316,22.717408180236816,dot,"[0.06, 0.06, 0.1, 0.06, 0.06]","[[-0.13667773294397823, -0.4810836359727921], [0.22435054442879343, -0.38211739689247126], [0.18745946747878278, -0.17039478388844306], [0.024239655080151325, -0.29759851870815907], [0.08919077751561523, -0.5300131723353856]]",density,black,,,N009,visual,1,[],"['1', '2', '3', '4']",1,2023.2.3,harveyvisual,2.1,[],8,0.75,
0,pause,0.4,None,None,None,0,59,59,59,,,,,,,,,,,,,N009,visual,1,[],"['1', '2', '3', '4']",1,2023.2.3,harveyvisual,2.1,[],8,0.75,
6,dot,0.3,['dot'],['density'],black,0,60,60,60,,,23.400220155715942,23.11738395690918,23.417363166809082,dot,"[0.06, 0.1, 0.1, 0.06, 0.08, 0.1]","[[0.4838288853419304, 0.012393783640839304], [0.3357737587390128, 0.3939464288632381], [0.48781910936274964, 0.21484656822060386], [0.038497076365425514, 0.2266532147795764], [0.13074852606734502, 0.009493629341700475], [0.2855531954453259, 0.1811044151544938]]",density,black,,,N009,visual,1,[],"['1', '2', '3', '4']",1,2023.2.3,harveyvisual,2.1,[],8,0.75,
0,pause,0.4,None,None,None,0,61,61,61,,,,,,,,,,,,,N009,visual,1,[],"['1', '2', '3', '4']",1,2023.2.3,harveyvisual,2.1,[],8,0.75,
6,dot,0.3,['dot'],['density'],white,0,62,62,62,,,24.10020899772644,23.817404985427856,24.117336988449097,dot,"[0.1, 0.06, 0.06, 0.08, 0.06, 0.1]","[[-0.2715212558254698, 0.2586056842756752], [-0.41011716394998093, -0.23288273174477314], [-0.4259032553852052, 0.02963770343160952], [-0.037696467485790364, -0.07921729390734374], [-0.19058944014171011, 0.07565381115733183], [-0.22931220879523878, -0.14417898787482208]]",density,white,,,N009,visual,1,[],"['1', '2', '3', '4']",1,2023.2.3,harveyvisual,2.1,[],8,0.75,
0,pause,0.4,None,None,None,0,63,63,63,,,,,,,,,,,1,24.20396113395691,N009,visual,1,[],"['1', '2', '3', '4']",1,2023.2.3,harveyvisual,2.1,[],8,0.75,
6,dot,0.3,['dot'],['density'],black,0,64,64,64,,,24.800223112106323,24.517416954040527,24.817363023757935,dot,"[0.08, 0.06, 0.06, 0.06, 0.1, 0.08]","[[-0.08086177951302478, 0.2470577028799217], [0.17809040740055945, 0.25721690350386706], [0.248993691455746, -0.144418230259854], [0.04260816027356476, -0.17251108440570345], [0.26201279645255604, 0.07253913185781388], [-0.0017619790798508912, 0.027830886297901026]]",density,black,,,N009,visual,1,[],"['1', '2', '3', '4']",1,2023.2.3,harveyvisual,2.1,[],8,0.75,
0,pause,0.4,None,None,None,0,65,65,65,,,,,,,,,,,,,N009,visual,1,[],"['1', '2', '3', '4']",1,2023.2.3,harveyvisual,2.1,[],8,0.75,
6,dot,0.3,['dot'],['density'],black,0,66,66,66,,,25.500231981277466,25.217350959777832,25.51729702949524,dot,"[0.1, 0.06, 0.08, 0.06, 0.1, 0.06]","[[-0.521575560759306, -0.09896409503936293], [-0.11005055439098525, 0.007412765662050641], [-0.2691644509192311, -0.32034241736757013], [-0.33082776037640693, 0.11579187391948328], [-0.031037041641207554, -0.21820435357846482], [-0.2943013415457968, -0.09543215727460275]]",density,black,,,N009,visual,1,[],"['1', '2', '3', '4']",1,2023.2.3,harveyvisual,2.1,[],8,0.75,
0,pause,0.4,None,None,None,0,67,67,67,,,,,,,,,,,,,N009,visual,1,[],"['1', '2', '3', '4']",1,2023.2.3,harveyvisual,2.1,[],8,0.75,
6,dot,0.3,['dot'],['density'],black,0,68,68,68,,,26.200212001800537,25.91732907295227,26.217295169830322,dot,"[0.1, 0.08, 0.08, 0.1, 0.1, 0.06]","[[-0.5379788740814003, -0.011730333491669416], [-0.1820890739253136, -0.27973544868684425], [-0.07809457889047756, -0.09124846264896269], [-0.30616251401069866, -0.45101817852416426], [-0.44200878281119743, -0.26991620184617166], [-0.3315938551005316, -0.08696624632848979]]",density,black,,,N009,visual,1,[],"['1', '2', '3', '4']",1,2023.2.3,harveyvisual,2.1,[],8,0.75,
0,pause,0.4,None,None,None,0,69,69,69,,,,,,,,,,,,,N009,visual,1,[],"['1', '2', '3', '4']",1,2023.2.3,harveyvisual,2.1,[],8,0.75,
6,dot,0.3,['dot'],['density'],black,0,70,70,70,,,26.900227069854736,26.617295026779175,26.91728901863098,dot,"[0.08, 0.06, 0.06, 0.1, 0.08, 0.06]","[[0.20407874700173578, -0.003607462636592132], [0.19900023894327637, 0.3924983297162132], [0.3038969651674081, 0.19297037853131338], [-0.03476334221878716, -0.0007504963676470482], [-0.04769005191199877, 0.33834827157296915], [0.0832402191747092, 0.1716866405281877]]",density,black,,,N009,visual,1,[],"['1', '2', '3', '4']",1,2023.2.3,harveyvisual,2.1,[],8,0.75,
0,pause,0.4,None,None,None,0,71,71,71,,,,,,,,,,,,,N009,visual,1,[],"['1', '2', '3', '4']",1,2023.2.3,harveyvisual,2.1,[],8,0.75,
7,dot,0.3,['dot'],['density'],white,0,72,72,72,,,27.600213050842285,27.317267179489136,27.617263078689575,dot,"[0.06, 0.1, 0.08, 0.06, 0.1, 0.06, 0.08]","[[0.14162553822338392, 0.3850374027840034], [0.14862566890709045, -0.11120959689479885], [0.39332636479883865, 0.3869926518090174], [0.40462455387813373, -0.12110830933676162], [0.23143806607869288, 0.12402376181071403], [0.031443448417621304, 0.15083815177969048], [0.4360523150463376, 0.1818515773867412]]",density,white,,,N009,visual,1,[],"['1', '2', '3', '4']",1,2023.2.3,harveyvisual,2.1,[],8,0.75,
0,pause,0.4,None,None,None,0,73,73,73,,,,,,,,,,,1,27.60651707649231,N009,visual,1,[],"['1', '2', '3', '4']",1,2023.2.3,harveyvisual,2.1,[],8,0.75,
7,dot,0.3,['dot'],['density'],black,0,74,74,74,,,28.300215005874634,28.017248153686523,28.317239999771118,dot,"[0.1, 0.1, 0.1, 0.08, 0.1, 0.08, 0.1]","[[0.43636558899465056, -0.019888822856555858], [0.3422654810486562, -0.28596623187093184], [0.19265053263460555, -0.4439876245838232], [0.13726272111749335, -0.2453614523272762], [0.002381890354708078, -0.04768315945896726], [0.5336827108411983, -0.21507725682246784], [0.22437755209563529, -0.002563521851875305]]",density,black,,,N009,visual,1,[],"['1', '2', '3', '4']",1,2023.2.3,harveyvisual,2.1,[],8,0.75,
0,pause,0.4,None,None,None,0,75,75,75,,,,,,,,,,,,,N009,visual,1,[],"['1', '2', '3', '4']",1,2023.2.3,harveyvisual,2.1,[],8,0.75,
7,dot,0.3,['dot'],['density'],white,0,76,76,76,,,29.00021505355835,28.71724796295166,29.017227172851562,dot,"[0.06, 0.08, 0.08, 0.1, 0.1, 0.06, 0.08]","[[0.1318978468379982, 0.48780960721302624], [-0.15530952210580917, 0.2429536962773128], [0.21675324185561073, 0.09111206147250148], [0.13033099328542835, 0.28547066376201063], [0.3859901392997328, 0.20497483482614012], [0.014590257841440182, 0.0970646397970693], [0.1730960121663288, -0.1180805096677859]]",density,white,,,N009,visual,1,[],"['1', '2', '3', '4']",1,2023.2.3,harveyvisual,2.1,[],8,0.75,
0,pause,0.4,None,None,None,0,77,77,77,,,,,,,,,,,1,29.038751125335693,N009,visual,1,[],"['1', '2', '3', '4']",1,2023.2.3,harveyvisual,2.1,[],8,0.75,
7,dot,0.3,['dot'],['density'],black,0,78,78,78,,,29.70022702217102,29.41723108291626,29.717223167419434,dot,"[0.08, 0.06, 0.06, 0.1, 0.08, 0.06, 0.08]","[[-0.1635229753841098, 0.12186382262109141], [0.03437657187081179, 0.5178389267683822], [0.324184412335695, 0.17931743601205324], [0.08929018524031027, 0.11005745596178185], [-0.1318259817332877, 0.4026967659136047], [-0.053046683696667, -0.06058584598870606], [0.042745683665752716, 0.304616966822181]]",density,black,,,N009,visual,1,[],"['1', '2', '3', '4']",1,2023.2.3,harveyvisual,2.1,[],8,0.75,
0,pause,0.4,None,None,None,0,79,79,79,,,,,,,,,,,,,N009,visual,1,[],"['1', '2', '3', '4']",1,2023.2.3,harveyvisual,2.1,[],8,0.75,
7,dot,0.3,['dot'],['density'],black,0,80,80,80,,,30.400227069854736,30.117192029953003,30.417173147201538,dot,"[0.1, 0.08, 0.1, 0.06, 0.06, 0.1, 0.06]","[[0.06935229908748385, 0.4911641494940837], [-0.19266199922505295, 0.07836852906048222], [0.055274369019684175, 0.020452523162812593], [0.26239471350362015, 0.1001529216481179], [-0.06036973858781391, 0.3360513952533211], [-0.2638544135394649, 0.29089327984911306], [0.14813816713374972, 0.28344041791591096]]",density,black,,,N009,visual,1,[],"['1', '2', '3', '4']",1,2023.2.3,harveyvisual,2.1,[],8,0.75,
0,pause,0.4,None,None,None,0,81,81,81,,,,,,,,,,,,,N009,visual,1,[],"['1', '2', '3', '4']",1,2023.2.3,harveyvisual,2.1,[],8,0.75,
7,dot,0.3,['dot'],['density'],black,0,82,82,82,,,31.100214958190918,30.81718111038208,31.117167949676514,dot,"[0.08, 0.1, 0.08, 0.1, 0.06, 0.06, 0.1]","[[-0.026372969700101213, 0.05085620782211805], [-0.16304282038196347, -0.3616501386780019], [-0.013762327205412121, -0.14910430285435466], [0.14729449770710015, -0.3647544547161306], [-0.22494517313234175, -0.12035103032643314], [-0.36514670174418407, -0.33057163197754225], [0.21417125919861074, -0.06627923590771367]]",density,black,,,N009,visual,1,[],"['1', '2', '3', '4']",1,2023.2.3,harveyvisual,2.1,[],8,0.75,
0,pause,0.4,None,None,None,0,83,83,83,,,,,,,,,,,,,N009,visual,1,[],"['1', '2', '3', '4']",1,2023.2.3,harveyvisual,2.1,[],8,0.75,
8,dot,0.3,['dot'],['density'],black,0,84,84,84,,,31.800223112106323,31.517171144485474,31.817146062850952,dot,"[0.08, 0.06, 0.08, 0.08, 0.06, 0.1, 0.08, 0.06]","[[-0.17382250058115215, 0.008030820220576582], [-0.5561520679887834, 0.09064024109159684], [-0.2322770524578434, -0.18818443710846813], [-0.41357291590276396, -0.2905316508268561], [-0.37423053416790164, -0.04064357687765813], [-0.014699175284411378, 0.15059198662288528], [-0.015485985535575739, -0.1348843831724925], [-0.36639977644872057, 0.228205681233079]]",density,black,,,N009,visual,1,[],"['1', '2', '3', '4']",1,2023.2.3,harveyvisual,2.1,[],8,0.75,
0,pause,0.4,None,None,None,0,85,85,85,,,,,,,,,,,,,N009,visual,1,[],"['1', '2', '3', '4']",1,2023.2.3,harveyvisual,2.1,[],8,0.75,
8,dot,0.3,['dot'],['density'],black,0,86,86,86,,,32.5002281665802,32.21715307235718,32.51712608337402,dot,"[0.1, 0.08, 0.08, 0.1, 0.08, 0.06, 0.1, 0.06]","[[-0.24177141476747963, 0.37227001522147646], [0.022885153928237218, 0.26973630011126315], [-0.028424808126663318, 0.474031493095366], [-0.14677856605916886, 0.1510981622513803], [-0.33541894344674456, 0.07730913931898181], [0.10840621230513336, 0.04997884008138209], [0.30094222783758756, 0.17024461371702543], [-0.056701880949321645, -0.08542646800774611]]",density,black,,,N009,visual,1,[],"['1', '2', '3', '4']",1,2023.2.3,harveyvisual,2.1,[],8,0.75,
0,pause,0.4,None,None,None,0,87,87,87,,,,,,,,,,,,,N009,visual,1,[],"['1', '2', '3', '4']",1,2023.2.3,harveyvisual,2.1,[],8,0.75,
8,dot,0.3,['dot'],['density'],white,0,88,88,88,,,33.2002170085907,32.91718816757202,33.21720600128174,dot,"[0.08, 0.1, 0.06, 0.08, 0.1, 0.1, 0.1, 0.06]","[[-0.258715538922871, 0.3828151050353194], [-0.4384035523576633, -0.18689856672911037], [-0.5586779833045601, 0.15056420889708766], [-0.1699372658897842, -0.04883432605429875], [-0.36053016753151684, 0.02858569738219561], [-0.199221799186684, 0.1876786431210615], [0.004458053620249285, 0.1240038339062716], [0.019420137312414813, -0.16023679021787893]]",density,white,,,N009,visual,1,[],"['1', '2', '3', '4']",1,2023.2.3,harveyvisual,2.1,[],8,0.75,
0,pause,0.4,None,None,None,0,89,89,89,,,,,,,,,,,1,33.31005597114563,N009,visual,1,[],"['1', '2', '3', '4']",1,2023.2.3,harveyvisual,2.1,[],8,0.75,
8,dot,0.3,['dot'],['density'],black,0,90,90,90,,,33.90023398399353,33.617215156555176,33.91728401184082,dot,"[0.1, 0.08, 0.08, 0.1, 0.08, 0.06, 0.08, 0.08]","[[-0.503192831713878, 0.2818759502405315], [-0.1851508851951268, 0.5121570681976513], [-0.3428391331654375, 0.06336275884690255], [-0.2620893383019587, 0.2653373399092269], [-0.09201493982796581, 0.138249408295409], [-0.14188251758679749, -0.08598668861617832], [-0.5391716430792404, 0.01870596234549803], [-0.2779852747659758, -0.23950462846526258]]",density,black,,,N009,visual,1,[],"['1', '2', '3', '4']",1,2023.2.3,harveyvisual,2.1,[],8,0.75,
0,pause,0.4,None,None,None,0,91,91,91,,,,,,,,,,,,,N009,visual,1,[],"['1', '2', '3', '4']",1,2023.2.3,harveyvisual,2.1,[],8,0.75,
8,dot,0.3,['dot'],['density'],black,0,92,92,92,,,34.600213050842285,34.31722617149353,34.61710000038147,dot,"[0.08, 0.08, 0.06, 0.1, 0.1, 0.1, 0.08, 0.06]","[[-0.19469543066458847, -0.326291241472255], [0.30343637985980976, -0.10925869102227477], [-0.1969922581528186, -0.11664339975312436], [0.2570255161168456, -0.3247060146943647], [0.10684135558856425, -0.18174565546534566], [0.03482742583321104, -0.4893606045609451], [-0.015658395544436696, -0.0001692298399926468], [0.11980560642279467, 0.15585563517441894]]",density,black,,,N009,visual,1,[],"['1', '2', '3', '4']",1,2023.2.3,harveyvisual,2.1,[],8,0.75,
0,pause,0.4,None,None,None,0,93,93,93,,,,,,,,,,,,,N009,visual,1,[],"['1', '2', '3', '4']",1,2023.2.3,harveyvisual,2.1,[],8,0.75,
8,dot,0.3,['dot'],['density'],black,0,94,94,94,,,35.300213098526,35.01709699630737,35.3170690536499,dot,"[0.06, 0.08, 0.08, 0.06, 0.1, 0.06, 0.08, 0.08]","[[0.4578461037593053, -0.0425280984807614], [0.3105081462658962, -0.253400778181943], [0.5107466611240274, 0.18303335057259504], [0.05013881804369301, 0.21472050036076742], [0.11913774150617627, -0.046477809882714556], [0.3069987493408211, 0.11186211070896974], [0.10261508471656716, -0.25482825738733483], [-0.08881417545548334, 0.035709595317019026]]",density,black,,,N009,visual,1,[],"['1', '2', '3', '4']",1,2023.2.3,harveyvisual,2.1,[],8,0.75,
0,pause,0.4,None,None,None,0,95,95,95,,,,,,,,,,,,,N009,visual,1,[],"['1', '2', '3', '4']",1,2023.2.3,harveyvisual,2.1,[],8,0.75,
9,dot,0.3,['dot'],['density'],black,0,96,96,96,,,36.00021195411682,35.71708106994629,36.017078161239624,dot,"[0.06, 0.08, 0.1, 0.06, 0.1, 0.08, 0.06, 0.06, 0.06]","[[0.31750259908069645, 0.09103062301409195], [-0.10814993995151222, -0.14883262012051235], [0.2615101699546999, -0.13245952524223892], [0.014531427323725789, 0.3887544696515085], [-0.1117096847062306, 0.09593752649312724], [0.07810272484559946, -0.019955638642360052], [-0.26173373106631487, 0.2840804484106463], [0.4370020372247476, 0.2669512546191977], [0.11115841416421544, 0.18722161068425575]]",density,black,,,N009,visual,1,[],"['1', '2', '3', '4']",1,2023.2.3,harveyvisual,2.1,[],8,0.75,
0,pause,0.4,None,None,None,0,97,97,97,,,,,,,,,,,,,N009,visual,1,[],"['1', '2', '3', '4']",1,2023.2.3,harveyvisual,2.1,[],8,0.75,
9,dot,0.3,['dot'],['density'],black,0,98,98,98,,,36.70022797584534,36.41704607009888,36.71703815460205,dot,"[0.1, 0.06, 0.1, 0.06, 0.08, 0.06, 0.08, 0.06, 0.06]","[[0.5633060189111645, -0.020447411670609934], [0.24486306384976717, 0.44476630120442473], [0.18428866344346043, -0.051083701103786204], [0.30165572131442664, 0.2239114093385097], [-0.0017431279865323516, 0.11759053127645673], [0.36864926730470376, 0.029118730319846676], [0.08307425003498874, 0.31712463906399285], [0.26393370779995823, -0.24286541122091637], [0.5109425385251136, 0.2557989077594731]]",density,black,,,N009,visual,1,[],"['1', '2', '3', '4']",1,2023.2.3,harveyvisual,2.1,[],8,0.75,
0,pause,0.4,None,None,None,0,99,99,99,,,,,,,,,,,,,N009,visual,1,[],"['1', '2', '3', '4']",1,2023.2.3,harveyvisual,2.1,[],8,0.75,
9,dot,0.3,['dot'],['density'],black,0,100,100,100,,,37.400227069854736,37.11704206466675,37.417020082473755,dot,"[0.08, 0.08, 0.06, 0.08, 0.06, 0.06, 0.06, 0.1, 0.06]","[[0.019793807854907846, -0.43234396454466956], [-0.19026732246162045, -0.30921043426246514], [0.04019268118281429, 0.04496242893187172], [-0.3995051790572048, -0.35321755636659735], [-0.3855517065125252, -0.10705750392277943], [0.08372722599267078, -0.1679482296571974], [0.2622756688563642, -0.3928589043728353], [-0.14305193053609555, -0.047108980659819465], [-0.27076529918092873, 0.10825753519043561]]",density,black,,,N009,visual,1,[],"['1', '2', '3', '4']",1,2023.2.3,harveyvisual,2.1,[],8,0.75,
0,pause,0.4,None,None,None,0,101,101,101,,,,,,,,,,,,,N009,visual,1,[],"['1', '2', '3', '4']",1,2023.2.3,harveyvisual,2.1,[],8,0.75,
9,dot,0.3,['dot'],['density'],white,0,102,102,102,,,38.10020613670349,37.81700396537781,38.1170380115509,dot,"[0.1, 0.1, 0.06, 0.06, 0.06, 0.1, 0.08, 0.1, 0.06]","[[-0.4007656520072294, -0.25517300445391483], [-0.002534053661406415, -0.03841937385778563], [0.03867088550537559, -0.37109058839216275], [0.14298263539714814, -0.19121790068267305], [-0.18592892280395246, 0.09800459324165622], [-0.17114407793371844, -0.47763389460370764], [0.20594417137152282, 0.033112046987541804], [-0.3669302527083935, -0.010624696365658668], [-0.20182203610849478, -0.19970173151634407]]",density,white,,,N009,visual,1,[],"['1', '2', '3', '4']",1,2023.2.3,harveyvisual,2.1,[],8,0.75,
0,pause,0.4,None,None,None,0,103,103,103,,,,,,,,,,,1,38.14591407775879,N009,visual,1,[],"['1', '2', '3', '4']",1,2023.2.3,harveyvisual,2.1,[],8,0.75,
9,dot,0.3,['dot'],['density'],black,0,104,104,104,,,38.80022716522217,38.51700806617737,38.816975116729736,dot,"[0.06, 0.06, 0.06, 0.1, 0.08, 0.06, 0.08, 0.1, 0.1]","[[-0.3143165991636532, -0.4594448536910345], [-0.2552048841139852, -0.06866208597721758], [-0.4539914907372049, -0.019462523532982], [-0.0016330512078212595, -0.20036737320767878], [-0.1856154264835833, -0.2915493351998931], [-0.41369389823818076, -0.2734186166626005], [0.2388286227728169, -0.07063581723838416], [0.0412368179136257, 0.05808754956878123], [-0.37802967984412894, 0.19285536194211775]]",density,black,,,N009,visual,1,[],"['1', '2', '3', '4']",1,2023.2.3,harveyvisual,2.1,[],8,0.75,
0,pause,0.4,None,None,None,0,105,105,105,,,,,,,,,,,,,N009,visual,1,[],"['1', '2', '3', '4']",1,2023.2.3,harveyvisual,2.1,[],8,0.75,
9,dot,0.3,['dot'],['density'],black,0,106,106,106,,,39.50022506713867,39.21696400642395,39.51695895195007,dot,"[0.06, 0.1, 0.06, 0.08, 0.06, 0.06, 0.1, 0.06, 0.06]","[[0.31750259908069645, 0.09103062301409195], [-0.10814993995151222, -0.14883262012051235], [0.2615101699546999, -0.13245952524223892], [0.014531427323725789, 0.3887544696515085], [-0.1117096847062306, 0.09593752649312724], [0.07810272484559946, -0.019955638642360052], [-0.26173373106631487, 0.2840804484106463], [0.4370020372247476, 0.2669512546191977], [0.11115841416421544, 0.18722161068425575]]",density,black,,,N009,visual,1,[],"['1', '2', '3', '4']",1,2023.2.3,harveyvisual,2.1,[],8,0.75,
0,pause,0.4,None,None,None,0,107,107,107,,,,,,,,,,,,,N009,visual,1,[],"['1', '2', '3', '4']",1,2023.2.3,harveyvisual,2.1,[],8,0.75,
20,dot,0.3,['dot'],['density'],black,0,108,108,108,,,40.20022797584534,39.916951179504395,40.21693706512451,dot,"[0.08, 0.08, 0.06, 0.06, 0.06, 0.08, 0.06, 0.06, 0.08, 0.08, 0.08, 0.06, 0.1, 0.1, 0.06, 0.08, 0.08, 0.08, 0.08, 0.08]","[[-0.4282116973234592, 0.11342298782106791], [-0.5234742547053627, 0.2772324264028004], [0.24544032758466983, 0.13106683540247943], [0.2391446573122168, -0.41296442547294365], [0.013535401863365992, -0.09398097528702576], [-0.37758771853142914, -0.16874106375789794], [0.14958918135020915, 0.5347621181567351], [0.48807822582571114, 0.3017049133626202], [-0.12709811313483727, 0.30626470379677695], [0.45418724745788464, 0.09201915049013054], [-0.5609331658181635, -0.08954626722418699], [0.06658021384137747, 0.26216969008244817], [0.5815538453664496, -0.058316636316987275], [-0.22083312018488332, -0.357308222703212], [-0.1604884608576051, 0.5270100206605784], [-0.010321700144358514, -0.5956990451574187], [-0.019725393604543395, -0.383161742343317], [0.3906628023716284, -0.1617418889518844], [0.4569862686779821, -0.38038870127441554], [0.3629596898206441, 0.48121009033241385]]",density,black,,,N009,visual,1,[],"['1', '2', '3', '4']",1,2023.2.3,harveyvisual,2.1,[],8,0.75,
0,pause,0.4,None,None,None,0,109,109,109,,,,,,,,,,,,,N009,visual,1,[],"['1', '2', '3', '4']",1,2023.2.3,harveyvisual,2.1,[],8,0.75,
20,dot,0.3,['dot'],['density'],white,0,110,110,110,,,40.90022802352905,40.61693811416626,40.91694116592407,dot,"[0.08, 0.06, 0.06, 0.08, 0.06, 0.06, 0.06, 0.1, 0.06, 0.1, 0.08, 0.06, 0.06, 0.06, 0.1, 0.06, 0.1, 0.1, 0.08, 0.06]","[[0.3693930909470847, 0.08580988957149849], [-0.199383631687635, 0.06106873174714422], [-0.4913155137982309, -0.06133254593169385], [0.4942747159694697, -0.15359454826831817], [0.35657723430140076, -0.4077110968969885], [0.07659913506721427, 0.11702036521277004], [-0.26516155713724704, 0.5422162192658891], [0.04968927085925856, -0.4414375001813111], [-0.018987500581442163, -0.22661703494598368], [-0.057888966150913435, 0.4869804732264835], [-0.21035002363592348, -0.16867785584251582], [-0.43590237855176006, -0.32690659480988826], [-0.3931527875619898, 0.1812001119714653], [0.2794169366881727, 0.39991640241439563], [0.5618501933815857, 0.15813274272497996], [0.1630191849335315, 0.5754364986556246], [0.4851710347000312, 0.34595572435026684], [-0.2380278861231418, -0.36708097271334755], [-0.13496718587663825, 0.2673836887994546], [-0.40297672744660024, 0.37957350009880425]]",density,white,,,N009,visual,1,[],"['1', '2', '3', '4']",1,2023.2.3,harveyvisual,2.1,[],8,0.75,
0,pause,0.4,None,None,None,0,111,111,111,,,,,,,,,,,1,40.92604112625122,N009,visual,1,[],"['1', '2', '3', '4']",1,2023.2.3,harveyvisual,2.1,[],8,0.75,
20,dot,0.3,['dot'],['density'],black,0,112,112,112,,,41.60023617744446,41.31692600250244,41.616909980773926,dot,"[0.06, 0.08, 0.1, 0.1, 0.1, 0.06, 0.08, 0.1, 0.06, 0.1, 0.06, 0.06, 0.08, 0.1, 0.06, 0.08, 0.08, 0.06, 0.1, 0.1]","[[0.387724872102829, 0.1593542413654902], [0.18416821567398667, -0.31299557952338775], [0.3977904649247316, -0.4108657822108822], [-0.44764533221815894, -0.3066290755278852], [0.1962982313758248, 0.4914122686102742], [0.5830469780917499, -0.1003679145619861], [0.21437596640691647, 0.009965452600117608], [-0.23513787526233249, 0.15934026955517477], [-0.3253263320068484, -0.13663435678952007], [0.07774861825972534, 0.2650573146895905], [-0.27717564022303637, 0.43352813795552325], [-0.4748224858704003, 0.24976206934043688], [-0.03842617931451786, -0.4240693331997294], [-0.6017663410036995, 0.010447912239018253], [0.42903833833055616, 0.41435483302155357], [-0.2385715498448681, -0.4197163452087932], [-0.08450458474916167, 0.4145057291072608], [0.01945497954137765, -0.14622132896057005], [0.20791919860014252, -0.5167675037227095], [-0.07112218787617741, 0.051015328562484696]]",density,black,,,N009,visual,1,[],"['1', '2', '3', '4']",1,2023.2.3,harveyvisual,2.1,[],8,0.75,
0,pause,0.4,None,None,None,0,113,113,113,,,,,,,,,,,,,N009,visual,1,[],"['1', '2', '3', '4']",1,2023.2.3,harveyvisual,2.1,[],8,0.75,
20,dot,0.3,['dot'],['density'],white,0,114,114,114,,,42.30022406578064,42.01691913604736,42.31690216064453,dot,"[0.1, 0.06, 0.1, 0.06, 0.08, 0.1, 0.1, 0.06, 0.06, 0.1, 0.1, 0.08, 0.1, 0.08, 0.1, 0.06, 0.1, 0.08, 0.08, 0.1]","[[0.16175463183599337, -0.05450762556781941], [0.25133246072255433, 0.17520008829349176], [0.2929465947749308, -0.389532524541127], [0.3687572892120945, 0.40883985621888946], [-0.02094926980486056, -0.3640327986857672], [-0.23906343550282338, -0.3385782717002218], [0.5265256617733066, -0.060754108273035096], [-0.4761114082370475, 0.05421661615723772], [-0.5425890440986909, 0.2625994584623185], [-0.06417661050982715, 0.4816562846655327], [-0.1057816847610562, 0.05556601994027066], [-0.44412193117944665, -0.40201619813085787], [0.040349372979510356, 0.294117794656243], [-0.5473158434346193, -0.17047811429535564], [0.5752894584617069, 0.18281945204055775], [0.5079555102549228, -0.28298949637648824], [0.18563007706182988, 0.5550073881877563], [-0.19529066882938045, 0.24476803881888554], [-0.26992172348527177, 0.4552895494300778], [0.12443629585078031, -0.5314439988288377]]",density,white,,,N009,visual,1,[],"['1', '2', '3', '4']",1,2023.2.3,harveyvisual,2.1,[],8,0.75,
0,pause,0.4,None,None,None,0,115,115,115,,,,,,,,,,,1,42.310205936431885,N009,visual,1,[],"['1', '2', '3', '4']",1,2023.2.3,harveyvisual,2.1,[],8,0.75,
20,dot,0.3,['dot'],['density'],white,0,116,116,116,,,43.00021195411682,42.71689701080322,43.01692795753479,dot,"[0.1, 0.1, 0.08, 0.08, 0.08, 0.1, 0.06, 0.1, 0.1, 0.08, 0.06, 0.08, 0.08, 0.06, 0.06, 0.1, 0.08, 0.06, 0.06, 0.1]","[[-0.12882648787001572, 0.4678055022047086], [0.2681456296055602, -0.3136666184440645], [-0.4862243458620312, 0.3198119034073316], [0.13867675328789197, -0.005139001969315493], [-0.5107037016066518, -0.2807972072836291], [0.3831869406986853, 0.003996801726660337], [-0.05298556167104285, -0.25756347120373574], [0.5791172539761972, 0.06772031367950226], [0.3120362867226001, 0.44657178525084207], [0.4916508847404021, -0.35293185079885847], [0.29666237158283626, 0.21274295485975103], [-0.19076789801462435, 0.042220398291973105], [-0.23575283322758545, -0.4753262841719855], [-0.5584100676901559, 0.13631144251653163], [-0.033628539357785314, -0.5915440367676321], [0.4629302806118508, 0.30980888466611517], [0.24113272804069863, -0.5306746133545241], [0.10922404965515253, 0.2674688843192645], [-0.5483527440051017, -0.08420999153196496], [0.5367460921271682, -0.16821771442482758]]",density,white,,,N009,visual,1,[],"['1', '2', '3', '4']",1,2023.2.3,harveyvisual,2.1,[],8,0.75,
0,pause,0.4,None,None,None,0,117,117,117,,,,,,,,,,,1,43.18228197097778,N009,visual,1,[],"['1', '2', '3', '4']",1,2023.2.3,harveyvisual,2.1,[],8,0.75,
20,dot,0.3,['dot'],['density'],black,0,118,118,118,,,43.70021200180054,43.416890144348145,43.716904163360596,dot,"[0.1, 0.08, 0.08, 0.08, 0.1, 0.06, 0.08, 0.1, 0.1, 0.1, 0.06, 0.08, 0.06, 0.08, 0.08, 0.08, 0.08, 0.06, 0.08, 0.1]","[[-0.16193262874801811, -0.4018622203355283], [0.5891844821481188, 0.13021604036201703], [-0.49524467977376807, -0.2517909404187807], [0.10921770290427235, -0.45023068503894736], [-0.3281428971994912, 0.4966075811643066], [-0.15949042525978796, 0.1424551987896434], [0.31514144395410615, 0.36300109683724346], [-0.25574156462868985, -0.08465249713768325], [0.34546372150581894, -0.4416025853628175], [-0.043608857276582924, 0.33885603183935686], [-0.46463309494884486, 0.3013957138112864], [0.5493532851619921, -0.08834349641114267], [-0.5695659162758111, 0.07597054148164128], [0.211867858717807, 0.05565155928827581], [0.41754575858835496, -0.2497657381917], [0.1484362067647088, 0.5360895335752923], [-0.020708147710812752, -0.1834319409823163], [-0.07042990323168175, -0.5853426076352789], [0.014882678819220674, 0.0040936115195122635], [-0.31437363277611785, -0.516887139313731]]",density,black,,,N009,visual,1,[],"['1', '2', '3', '4']",1,2023.2.3,harveyvisual,2.1,[],8,0.75,
0,pause,0.4,None,None,None,0,119,119,119,,,,,,,,,,,,,N009,visual,1,[],"['1', '2', '3', '4']",1,2023.2.3,harveyvisual,2.1,[],8,0.75,
20,dot,0.3,['dot'],['density'],black,0,120,120,120,,,44.40023398399353,44.11685514450073,44.416845083236694,dot,"[0.1, 0.1, 0.06, 0.08, 0.08, 0.06, 0.1, 0.06, 0.06, 0.1, 0.08, 0.08, 0.06, 0.1, 0.06, 0.06, 0.1, 0.1, 0.06, 0.06]","[[-0.22734584798233753, 0.17185963785520497], [0.03976536047430268, -0.21080601481373568], [0.4126237917546761, -0.20105006453815358], [-0.43043362902687826, -0.34518768275215195], [0.03944461299358337, 0.2890006678300949], [0.025877735092837306, -0.41145050826268303], [0.2430481685803232, 0.15504865580131455], [-0.04259118195504363, -0.03852452038206211], [-0.08627995798539212, 0.559990347139596], [-0.5826348116377343, 0.03827086542467539], [-0.20409943938475883, -0.16133937925303143], [0.26085932895473185, -0.07438361316011355], [0.5725157786272036, 0.15372913858606474], [0.29166148295089056, 0.44506551123913984], [-0.3469825846895863, 0.3975453570819383], [-0.4301438687907665, 0.18239991819233303], [0.1897851603778391, -0.51457810341097], [-0.1424075094587876, -0.514618526778143], [-0.5539662219843009, -0.1973607483580674], [0.29156431256988735, -0.348519418886875]]",density,black,,,N009,visual,1,[],"['1', '2', '3', '4']",1,2023.2.3,harveyvisual,2.1,[],8,0.75,
0,pause,0.4,None,None,None,0,121,121,121,,,,,,,,,,,,,N009,visual,1,[],"['1', '2', '3', '4']",1,2023.2.3,harveyvisual,2.1,[],8,0.75,
20,dot,0.3,['dot'],['density'],black,0,122,122,122,,,45.10022711753845,44.81688904762268,45.116852045059204,dot,"[0.06, 0.06, 0.06, 0.1, 0.06, 0.08, 0.06, 0.06, 0.1, 0.06, 0.1, 0.08, 0.08, 0.06, 0.06, 0.1, 0.1, 0.1, 0.1, 0.06]","[[0.2913435541265258, -0.3577331604936672], [0.051133013223579105, 0.10560670534086058], [0.5501785192980945, 0.20884239514813568], [-0.2757493634499806, 0.20595974411102402], [-0.5293686782125082, 0.11831889375833993], [-0.3940755334617735, -0.03442674722105743], [0.374972958572549, 0.3360555716035948], [0.5554415005758596, -0.13124263451561496], [0.17342462134328018, -0.13077972114879077], [0.2005574660904752, 0.458334972357891], [-0.12157058082226907, -0.0505086387214424], [-0.3815858489713392, 0.4453618128920679], [-0.5541368947068182, -0.2081273807668643], [0.024589786006158465, -0.5431050038193189], [-0.3042112250724419, -0.3855440714616248], [0.3543528574357918, -0.021820318384407178], [-0.05525624379815397, 0.48266571016137716], [-0.045448002795046016, 0.27766343297600715], [-0.031593932439268335, -0.30087662314201447], [0.5039368471980205, -0.32163798906786933]]",density,black,,,N009,visual,1,[],"['1', '2', '3', '4']",1,2023.2.3,harveyvisual,2.1,[],8,0.75,
0,pause,0.4,None,None,None,0,123,123,123,,,,,,,,,,,,,N009,visual,1,[],"['1', '2', '3', '4']",1,2023.2.3,harveyvisual,2.1,[],8,0.75,
20,dot,0.3,['dot'],['density'],black,0,124,124,124,,,45.800235986709595,45.516930103302,45.81679701805115,dot,"[0.08, 0.1, 0.08, 0.08, 0.1, 0.08, 0.08, 0.1, 0.08, 0.08, 0.1, 0.1, 0.06, 0.08, 0.08, 0.08, 0.1, 0.08, 0.08, 0.1]","[[-0.5260938005443463, 0.17845093433596465], [-0.21351943274334628, 0.5651347398573697], [0.42343340167487387, -0.16110666851908062], [-0.11483571990501512, -0.08358262397701854], [-0.046453736531994916, -0.35942801654869694], [0.1864515522825827, -0.5464964922236683], [0.23230593092933227, 0.49116734267512774], [0.23036125183694733, 0.16793987156803858], [0.41479940452515496, 0.37068912703256696], [0.4070749001579993, -0.3711308826947888], [0.5342018090535311, 0.18572975254753893], [-0.45342320366334765, -0.358003596140832], [-0.1636558126809945, -0.5726161666353426], [-0.39946639734535627, 0.38048777055932614], [-0.08403144960774434, 0.35628258470154905], [-0.45695378126862857, -0.06969348133501568], [0.5965724860457512, 0.0035339033129524883], [0.021174953719426792, 0.5294684847798578], [-0.2637655979046181, -0.36920913311289316], [0.19830062692075578, -0.31577399483030844]]",density,black,,,N009,visual,1,[],"['1', '2', '3', '4']",1,2023.2.3,harveyvisual,2.1,[],8,0.75,
0,pause,0.4,None,None,None,0,125,125,125,,,,,,,,,,,,,N009,visual,1,[],"['1', '2', '3', '4']",1,2023.2.3,harveyvisual,2.1,[],8,0.75,
20,dot,0.3,['dot'],['density'],white,0,126,126,126,,,46.500235080718994,46.216782093048096,46.51677894592285,dot,"[0.08, 0.1, 0.08, 0.06, 0.08, 0.1, 0.1, 0.08, 0.06, 0.08, 0.06, 0.1, 0.08, 0.08, 0.08, 0.08, 0.1, 0.1, 0.1, 0.08]","[[0.455276207945979, -0.19067748314223576], [0.3889488328688272, 0.3743842384758888], [-0.39302085974850454, 0.31001500630386036], [0.34159238713609186, 0.0818489613493108], [-0.5812312599929503, 0.09124781484971373], [0.05405760997183984, 0.07538895529163703], [-0.5478292780865306, -0.16541556063606505], [-0.355060063848122, -0.11329407879087672], [0.10901878664984144, -0.2281085385442212], [0.22298115731833312, -0.5122142877026653], [-0.31661320849599994, -0.48101123149234837], [-0.1734062119201914, 0.26888718322638094], [0.00632959345849049, -0.5669902580351576], [0.028006174256069216, 0.45921532259072084], [-0.31419234798256, 0.12188305382795828], [0.2050101704853926, 0.5442273719693458], [-0.14047125964963436, -0.40182404154264456], [0.5929195819217176, 0.09931973933343957], [-0.16058786247883222, -0.01061461421880916], [-0.0939303098611044, -0.2122260433606753]]",density,white,,,N009,visual,1,[],"['1', '2', '3', '4']",1,2023.2.3,harveyvisual,2.1,[],8,0.75,
0,pause,0.4,None,None,None,0,127,127,127,,,,,,,,,,,1,46.52866792678833,N009,visual,1,[],"['1', '2', '3', '4']",1,2023.2.3,harveyvisual,2.1,[],8,0.75,
20,dot,0.3,['dot'],['density'],black,0,128,128,128,,,47.20022797584534,46.91677212715149,47.216753005981445,dot,"[0.08, 0.06, 0.1, 0.08, 0.1, 0.08, 0.1, 0.1, 0.06, 0.1, 0.08, 0.08, 0.08, 0.08, 0.06, 0.08, 0.08, 0.1, 0.06, 0.1]","[[0.5424696146256541, 0.21662498270455655], [-0.2006471578053124, 0.4673462905848109], [0.3893721161496626, 0.4037632138198788], [-0.38667911908087466, 0.3950806641138008], [0.3326298368957502, -0.4524188343119008], [-0.534248360688382, -0.10820059158870482], [-0.05403643891669618, -0.5797832191280666], [-0.2903918801778307, -0.14311923127050186], [-0.26354557161542397, 0.05328266305175633], [0.18100176476460217, 0.28035301810329694], [-0.43053935627559026, -0.37711580763152136], [-0.23863644545809798, -0.42711934680268715], [0.5992940954880185, 0.019598196078118815], [-0.06075973153805336, 0.23530243359168002], [0.34802868546338195, -0.1715188106788243], [0.07293975501822869, -0.31201058717497615], [0.06947570602856379, 0.5755028840993013], [-0.05830347988373896, -0.05219323234306972], [0.14757696815550636, -0.5851295160202111], [-0.5951449344000956, 0.0813411151248349]]",density,black,,,N009,visual,1,[],"['1', '2', '3', '4']",1,2023.2.3,harveyvisual,2.1,[],8,0.75,
0,pause,0.4,None,None,None,0,129,129,129,,,,,,,,,,,,,N009,visual,1,[],"['1', '2', '3', '4']",1,2023.2.3,harveyvisual,2.1,[],8,0.75,
20,dot,0.3,['dot'],['density'],black,0,130,130,130,,,47.900208950042725,47.616755962371826,47.91674304008484,dot,"[0.08, 0.08, 0.08, 0.1, 0.06, 0.06, 0.06, 0.06, 0.1, 0.1, 0.06, 0.06, 0.06, 0.06, 0.1, 0.06, 0.1, 0.1, 0.06, 0.1]","[[-0.4892145571448838, 0.23478034392615754], [-0.09417520213715469, -0.5319388994760799], [0.5721113960238634, -0.03205476812549493], [0.17294896666839676, -0.5298958373885226], [0.30766760518463265, 0.48055218716249704], [0.17873284877964724, -0.3219896993362857], [0.41986588956116344, -0.33953637442958623], [0.2582603599508121, 0.16762950122991616], [-0.28318378914619513, -0.21721683140310033], [0.21674715609935769, -0.018184739660695337], [-0.07099801133553074, 0.27534022297441074], [-0.19786640930125726, 0.4376280509150705], [0.5333503638029039, 0.25888908676970795], [-0.28595511368970933, 0.19468408269337667], [-0.27280490664841184, 0.0056234683692414356], [-0.5973634737661734, 0.06828678726523833], [-0.5733734723007713, -0.1573152737653618], [0.12761376258624968, 0.39543906228201986], [-0.03423876616873245, 0.07446629857315623], [-0.4548113471030418, -0.3905775099188215]]",density,black,,,N009,visual,1,[],"['1', '2', '3', '4']",1,2023.2.3,harveyvisual,2.1,[],8,0.75,
0,pause,0.4,None,None,None,0,131,131,131,,,,,,,,,,,,,N009,visual,1,[],"['1', '2', '3', '4']",1,2023.2.3,harveyvisual,2.1,[],8,0.75,
20,dot,0.3,['dot'],['density'],black,0,132,132,132,,,48.60021996498108,48.316734075546265,48.61672401428223,dot,"[0.1, 0.06, 0.06, 0.1, 0.06, 0.08, 0.08, 0.08, 0.08, 0.1, 0.06, 0.08, 0.08, 0.1, 0.06, 0.06, 0.06, 0.06, 0.06, 0.1]","[[-0.33852951591657293, 0.1487725748981551], [0.4765298902747187, -0.333244892881562], [0.25447186746696615, -0.24549902613109048], [0.433964632728434, -0.12411730429498274], [-0.0707555886115937, -0.09966582483831932], [-0.4510661629933414, -0.3474200204197938], [-0.5822131231280696, 0.04110442026125352], [-0.5469662447201314, 0.2531501617240702], [-0.3492410163920063, -0.08723207108274128], [-0.011867161510584867, 0.09201788863222049], [0.4036003181254316, 0.16535714398035917], [0.07375221710097646, 0.2876635034535099], [0.5964098166940436, 0.05440016924534191], [0.07696283797251702, 0.49274628810961374], [-0.022206605270771895, -0.3550627578775101], [-0.37569170249291595, 0.38042921135570656], [-0.26687529710997987, -0.4391096856837576], [-0.15285894585262394, 0.5689144744350093], [-0.5572103658096722, -0.15355696475246877], [0.0299155484604825, -0.583183532948808]]",density,black,,,N009,visual,1,[],"['1', '2', '3', '4']",1,2023.2.3,harveyvisual,2.1,[],8,0.75,
0,pause,0.4,None,None,None,0,133,133,133,,,,,,,,,,,,,N009,visual,1,[],"['1', '2', '3', '4']",1,2023.2.3,harveyvisual,2.1,[],8,0.75,
20,dot,0.3,['dot'],['density'],black,0,134,134,134,,,49.300233125686646,49.01671004295349,49.3167359828949,dot,"[0.06, 0.08, 0.06, 0.06, 0.08, 0.06, 0.06, 0.08, 0.08, 0.08, 0.1, 0.1, 0.1, 0.1, 0.06, 0.1, 0.1, 0.08, 0.1, 0.1]","[[-0.29293360278765623, 0.42662673143147023], [0.17160632449445223, -0.04135331139320153], [0.5722769175358106, -0.04074309767876863], [0.07700146291234178, -0.25820553949221264], [0.09823763160431076, 0.4060879366212471], [-0.34144081913398755, -0.23641720946609118], [0.39987767433585664, 0.3195597318135733], [-0.5235316146778303, 0.22411585791137223], [0.38177042530684224, -0.18551269294893408], [0.022664931492323737, 0.09016240170649714], [-0.0926723498762303, -0.5173974036705311], [-0.07390716219093818, 0.3201100466986233], [-0.2958856146278609, 0.04389507145621174], [-0.49393611928805153, 0.02636178857958632], [-0.11157498765269891, -0.18030403368770948], [-0.3100512192601241, 0.23432551708730243], [0.40829116260901255, -0.44129190116404876], [0.1952032737843502, 0.1832676960537667], [-0.07795910083447577, 0.5301238310883093], [0.27192753788990376, 0.5002409610157564]]",density,black,,,N009,visual,1,[],"['1', '2', '3', '4']",1,2023.2.3,harveyvisual,2.1,[],8,0.75,
0,pause,0.4,None,None,None,0,135,135,135,,,,,,,,,,,,,N009,visual,1,[],"['1', '2', '3', '4']",1,2023.2.3,harveyvisual,2.1,[],8,0.75,
20,dot,0.3,['dot'],['density'],black,0,136,136,136,,,50.0002281665802,49.71673798561096,50.01670002937317,dot,"[0.1, 0.08, 0.1, 0.06, 0.06, 0.08, 0.06, 0.1, 0.06, 0.06, 0.06, 0.1, 0.06, 0.08, 0.06, 0.06, 0.06, 0.1, 0.1, 0.08]","[[-0.377381977391269, 0.1933223773035646], [-0.5173369781024495, -0.15839711664656117], [-0.20532974862582754, 0.4487525089865938], [0.10487904663555325, -0.4720664177411307], [0.554290048371037, 0.021070217841382105], [0.3936076479093473, 0.3558416064834188], [0.07330592396976376, 0.28706478604654284], [0.38098098863176477, 0.10408671337361936], [-0.28085756280036894, -0.10581893123301811], [0.25593923677646135, -0.22110107517411232], [0.38520491148444347, -0.36481961982820865], [-0.09796812250437814, -0.4850554332142929], [-0.27446155003959266, -0.3198303783645396], [-0.0029407916438999315, -0.007818098995075906], [0.17839659666176277, 0.4815536743179408], [-0.4361902097982989, 0.377186911103165], [-0.5780507765694101, 0.07004084172529274], [-0.014503777591132194, 0.4949795906516641], [-0.019659186158336728, -0.20813263845202568], [-0.14769987824525216, 0.19387282932051286]]",density,black,,,N009,visual,1,[],"['1', '2', '3', '4']",1,2023.2.3,harveyvisual,2.1,[],8,0.75,
0,pause,0.4,None,None,None,0,137,137,137,,,,,,,,,,,,,N009,visual,1,[],"['1', '2', '3', '4']",1,2023.2.3,harveyvisual,2.1,[],8,0.75,
20,dot,0.3,['dot'],['density'],black,0,138,138,138,,,50.70022201538086,50.416680097579956,50.71676015853882,dot,"[0.06, 0.1, 0.1, 0.06, 0.08, 0.08, 0.08, 0.1, 0.06, 0.06, 0.06, 0.1, 0.1, 0.1, 0.1, 0.1, 0.08, 0.1, 0.1, 0.1]","[[0.5430966836096426, 0.2602353873222762], [-0.014887786063275787, -0.5640199479000103], [-0.5185887272049712, 0.12401813010197754], [0.05352588801718827, 0.18535795983188363], [-0.2747758573965027, 0.05776903089679686], [0.06872651600643487, 0.5347971240681393], [-0.4874456601449939, -0.19373487991595403], [-0.2939465114973819, -0.24733612744052674], [0.18088574102084887, -0.32221485550977486], [-0.34136102360832044, 0.2544126984356067], [0.1649086091560259, 0.3580355335217663], [0.4862752438207728, -0.14102391331498978], [-0.2558236102545434, -0.497893426057475], [0.2510362156472443, 0.11722254519964947], [0.20726086732194238, -0.12041561655775168], [0.3725491592178112, -0.4606642175121819], [0.35368627089725313, 0.42843687951370574], [-0.23062525043693916, 0.5577652339135337], [0.6041667257680455, 0.007968640383213835], [-0.05392938470619735, -0.08914210254169075]]",density,black,,,N009,visual,1,[],"['1', '2', '3', '4']",1,2023.2.3,harveyvisual,2.1,[],8,0.75,
0,pause,0.4,None,None,None,0,139,139,139,,,,,,,,,,,,,N009,visual,1,[],"['1', '2', '3', '4']",1,2023.2.3,harveyvisual,2.1,[],8,0.75,
20,dot,0.3,['dot'],['density'],black,0,140,140,140,,,51.40022301673889,51.11666202545166,51.41670513153076,dot,"[0.08, 0.06, 0.1, 0.08, 0.1, 0.06, 0.08, 0.08, 0.08, 0.06, 0.08, 0.08, 0.06, 0.06, 0.06, 0.08, 0.06, 0.06, 0.1, 0.08]","[[-0.2552110854384286, -0.35919080246880747], [-0.03416661859785097, -0.5847787839207068], [-0.4657834961458282, -0.15257249532124684], [-0.3179555720935148, -0.01862908382268258], [0.2734304328438244, -0.3838593579330174], [0.26664830415226637, 0.05541921975562336], [0.5343393946955769, -0.16592491535059356], [0.1659339875639776, -0.1848247491661259], [-0.19450769429918469, 0.2108462989194987], [-0.281118028429257, 0.4896376930864631], [-0.5261496866873018, 0.21627478894050195], [-0.04891368041474198, 0.5850430185728256], [0.36832860212671903, 0.3463808307708706], [0.003426244502817366, -0.0028244101859159487], [-0.047448084268621904, 0.3540816528892764], [0.17334152979316397, 0.5469005682218135], [0.14147817556650977, 0.30311733809348107], [0.5689912851220714, 0.13259546344694814], [-0.0047615768636604106, -0.33766443506316124], [-0.4614875851732889, -0.3615536044465694]]",density,black,,,N009,visual,1,[],"['1', '2', '3', '4']",1,2023.2.3,harveyvisual,2.1,[],8,0.75,
0,pause,0.4,None,None,None,0,141,141,141,,,,,,,,,,,,,N009,visual,1,[],"['1', '2', '3', '4']",1,2023.2.3,harveyvisual,2.1,[],8,0.75,
20,dot,0.3,['dot'],['density'],black,0,142,142,142,,,52.100224018096924,51.81666612625122,52.116690158843994,dot,"[0.06, 0.06, 0.08, 0.06, 0.1, 0.1, 0.08, 0.06, 0.06, 0.08, 0.06, 0.06, 0.08, 0.1, 0.08, 0.1, 0.08, 0.1, 0.08, 0.08]","[[0.2976792285006624, 0.08779858271228858], [-0.421476648486079, 0.3005031546816886], [0.5559469977082913, -0.05373433731020877], [-0.03184042784450969, 0.3999205787245136], [-0.33786931115484814, -0.4267248049383936], [-0.6017044535929615, 0.05473112221220576], [0.48788611706376084, 0.2651319662490029], [-0.3925692307895967, -0.014649948157851977], [0.30978217339015146, -0.14675028496779324], [0.011581372722641814, -0.38985833054743363], [0.003972978726742293, -0.11773561976007252], [0.24841558480456216, 0.33740680095919806], [0.23438663414832683, -0.36374001600932215], [-0.22651662175735043, 0.21757641706114905], [-0.510749586547805, -0.2734724028461255], [2.3867076288319744e-05, 0.6022062758987818], [0.45730653949549194, -0.3179832773545028], [-0.18150042399503424, -0.21413826207312192], [-0.1836752681864564, 0.5435400323942516], [-0.19379461985090374, -0.5547315067818162]]",density,black,,,N009,visual,1,[],"['1', '2', '3', '4']",1,2023.2.3,harveyvisual,2.1,[],8,0.75,
0,pause,0.4,None,None,None,0,143,143,143,,,,,,,,,,,,,N009,visual,1,[],"['1', '2', '3', '4']",1,2023.2.3,harveyvisual,2.1,[],8,0.75,
20,dot,0.3,['dot'],['density'],black,0,144,144,144,,,52.80022597312927,52.51681303977966,52.81666302680969,dot,"[0.08, 0.1, 0.06, 0.08, 0.1, 0.1, 0.08, 0.06, 0.1, 0.06, 0.06, 0.06, 0.06, 0.06, 0.06, 0.06, 0.1, 0.08, 0.08, 0.08]","[[-0.17791388394390573, -0.12698890379251754], [-0.017952709244067888, 0.38666287215477135], [0.2935724215812776, -0.1919036506363349], [0.349318370302542, -0.47459221580682887], [-0.3728136543227177, -0.023099511306295395], [-0.3438200958578719, -0.4462366451095348], [-0.4215260955413201, 0.23984680070004882], [0.21296336344299405, 0.30702658732647115], [-0.006567357250410466, -0.5067329183544781], [0.5750368777251665, -0.14262986923787407], [-0.010284012499050865, -0.2641280305341938], [0.2789463331337583, 0.1128804311431425], [-0.2380698713157725, 0.1112330071575458], [-0.5826783260647027, 0.12508227970737937], [-0.4678583765423153, -0.24787314308707808], [-0.35571597194431703, 0.4895724778097623], [0.02002577682545026, -0.007932162842588242], [0.5354442062388852, 0.08523534807411537], [0.4701312452940928, 0.3350098364374198], [-0.2018434371336445, 0.3311607057846385]]",density,black,,,N009,visual,1,[],"['1', '2', '3', '4']",1,2023.2.3,harveyvisual,2.1,[],8,0.75,
0,pause,0.4,None,None,None,0,145,145,145,,,,,,,,,,,,,N009,visual,1,[],"['1', '2', '3', '4']",1,2023.2.3,harveyvisual,2.1,[],8,0.75,
20,dot,0.3,['dot'],['density'],black,0,146,146,146,,,53.50021815299988,53.21664500236511,53.51674795150757,dot,"[0.1, 0.06, 0.06, 0.08, 0.06, 0.06, 0.06, 0.08, 0.06, 0.08, 0.06, 0.06, 0.1, 0.06, 0.08, 0.08, 0.08, 0.08, 0.1, 0.08]","[[-0.3819966571847775, 0.004182067762898478], [-0.5829477058257555, -0.06316144301963768], [-0.422393858126591, -0.3426750787563774], [0.3919913478951397, -0.05672568542032813], [0.10591380539975881, 0.06262034870766342], [-0.2805107691325493, 0.39707476165905176], [0.37136625494551034, 0.2538856878180303], [0.026882435078407596, -0.4481846660799854], [0.29102582511139874, -0.29853783146619595], [-0.46036816866612446, 0.24646565572908535], [0.07437588862421896, 0.4325503927694295], [-0.18653868115409178, -0.4612955790999175], [0.5973746786115804, 0.06762967637592927], [-0.03683556925364384, -0.169710225317993], [0.5407120126276596, -0.2221343063973842], [-0.2508745682132464, -0.14292853401865063], [-0.12870299563350923, 0.0837754171029843], [0.16106159747452808, 0.25945977421000455], [0.1651029208464675, -0.1404723510070799], [-0.05656151702886847, 0.27124820697050134]]",density,black,,,N009,visual,1,[],"['1', '2', '3', '4']",1,2023.2.3,harveyvisual,2.1,[],8,0.75,
0,pause,0.4,None,None,None,0,147,147,147,,,,,,,,,,,,,N009,visual,1,[],"['1', '2', '3', '4']",1,2023.2.3,harveyvisual,2.1,[],8,0.75,
20,dot,0.3,['dot'],['density'],black,0,148,148,148,,,54.2002170085907,53.91674613952637,54.21675515174866,dot,"[0.06, 0.1, 0.08, 0.08, 0.1, 0.1, 0.1, 0.06, 0.06, 0.06, 0.06, 0.1, 0.1, 0.06, 0.06, 0.08, 0.06, 0.08, 0.1, 0.1]","[[0.00878158007080354, 0.15547430995068579], [0.4155369500584073, -0.30096471296997707], [-0.5952890659602876, -0.04923236173253495], [0.4837488165394729, 0.32216778294039206], [-0.47641128078708334, 0.36613683941887526], [0.4210302579559081, 0.11383445370683515], [-0.4460146794312378, -0.2521757174698468], [0.08045669754698981, -0.41532253822445253], [-0.17686433009969732, 0.43457614107998566], [0.27377603168802944, 0.40463310356716764], [-0.3792097419201022, -0.43183636493499616], [-0.1709741435875396, 0.013957364909588876], [0.5645801815036212, -0.07691797529574437], [0.23350141085274312, -0.08000261919104895], [-0.3664122981054899, 0.06338723461641355], [-0.17832817174229482, -0.18740943705406388], [0.06066321734189806, 0.42669583222900775], [0.27817052639275186, -0.4397289747494115], [0.19276081621673802, 0.10772955080673263], [-0.1150571157502917, -0.5215724974188786]]",density,black,,,N009,visual,1,[],"['1', '2', '3', '4']",1,2023.2.3,harveyvisual,2.1,[],8,0.75,
0,pause,0.4,None,None,None,0,149,149,149,,,,,,,,,,,,,N009,visual,1,[],"['1', '2', '3', '4']",1,2023.2.3,harveyvisual,2.1,[],8,0.75,
20,dot,0.3,['dot'],['density'],black,0,150,150,150,,,54.90022301673889,54.616767168045044,54.916759967803955,dot,"[0.08, 0.1, 0.1, 0.1, 0.08, 0.08, 0.1, 0.1, 0.06, 0.08, 0.1, 0.1, 0.08, 0.08, 0.1, 0.1, 0.1, 0.06, 0.06, 0.06]","[[0.1482318475547274, 0.2561438659810613], [-0.15648609580791278, -0.024256945621523585], [0.4504058709239481, -0.06881857293796068], [0.1776442613172401, 0.568443721117229], [0.38747469131390466, 0.28191161452426006], [-0.02368715779978614, -0.2485434464101835], [-0.20908562515999246, 0.16107439117922617], [0.046030797554267644, -0.45799481512533763], [-0.5057800790878575, 0.2621338114279263], [0.2817109004352518, 0.11936008929208597], [-0.36293672276095024, -0.01170611854284076], [-0.4266362618409584, -0.3957854560450954], [-0.10954356321547903, 0.5209961412646182], [0.5711882846128521, 0.154311972744822], [0.5292177624672291, -0.26662935898136314], [0.2104310199764744, -0.190875582162207], [-0.20926516982143079, -0.3173319506942923], [-0.30876274136907655, 0.40527439505159946], [-0.2648446972418911, -0.5243901787292037], [0.23794552166459537, -0.5119667409152222]]",density,black,,,N009,visual,1,[],"['1', '2', '3', '4']",1,2023.2.3,harveyvisual,2.1,[],8,0.75,
0,pause,0.4,None,None,None,0,151,151,151,,,,,,,,,,,,,N009,visual,1,[],"['1', '2', '3', '4']",1,2023.2.3,harveyvisual,2.1,[],8,0.75,
20,dot,0.3,['dot'],['density'],black,0,152,152,152,,,55.60022711753845,55.31676006317139,55.616573095321655,dot,"[0.08, 0.1, 0.06, 0.08, 0.08, 0.06, 0.06, 0.1, 0.06, 0.08, 0.1, 0.08, 0.06, 0.06, 0.06, 0.1, 0.1, 0.1, 0.06, 0.1]","[[0.5187303258738728, -0.1924193540552977], [-0.4298664157926555, -0.35852355712473377], [0.4595972926404107, 0.2482738936912537], [-0.5705901259275187, 0.030451760284705642], [-0.060967344007983204, -0.37954217292940373], [-0.4029469821483189, 0.37969835443481864], [-0.18034900543736, -0.05571224786360873], [0.5854177658875065, 0.05932534391708394], [-0.11193064815427561, 0.5412008002221956], [-0.2412859792308633, -0.305469350318767], [-0.034016634073669394, -0.18787905775611524], [0.1855810951918223, 0.34019284682540607], [-0.48169027249853597, 0.20222563925991494], [0.4553009039371553, -0.37112522529471814], [0.35674979409223584, 0.05180396669683729], [0.15910795485310658, 0.060485147174988096], [0.26657934324834986, -0.3102254574524506], [-0.0909631544680296, 0.1325912785331378], [-0.3871462054922935, -0.08910895350596293], [-0.30199324497310265, -0.5165259330299861]]",density,black,,,N009,visual,1,[],"['1', '2', '3', '4']",1,2023.2.3,harveyvisual,2.1,[],8,0.75,
0,pause,0.4,None,None,None,0,153,153,153,,,,,,,,,,,,,N009,visual,1,[],"['1', '2', '3', '4']",1,2023.2.3,harveyvisual,2.1,[],8,0.75,
20,dot,0.3,['dot'],['density'],black,0,154,154,154,,,56.30022215843201,56.01671004295349,56.31671094894409,dot,"[0.1, 0.06, 0.1, 0.06, 0.1, 0.1, 0.08, 0.08, 0.08, 0.08, 0.06, 0.06, 0.08, 0.1, 0.06, 0.1, 0.08, 0.08, 0.1, 0.08]","[[0.3769636014357328, -0.1383073958011677], [0.25297446367886856, 0.45355537480289254], [0.10899931501181248, 0.245556138070402], [-0.10990013874116361, -0.17855427148096342], [-0.25931336915126807, -0.4572602022182525], [0.43291456465169376, -0.396772551080107], [-0.37478172003388677, -0.24794511852212817], [0.04542713476084703, -0.4022668742969986], [-0.28307352441294553, 0.31543467954650306], [-0.5572308568575222, -0.16004288630428642], [0.5353253048300702, 0.0024713656981213417], [-0.09660184918193793, 0.4231950906533942], [0.1363479937185461, -0.18526989666772076], [0.3173909370631043, 0.16831830223459454], [-0.60031843178081, 0.025080016548377812], [-0.41555731764700765, 0.11243264061747382], [-0.220636746358242, 0.022735648987314616], [-0.021395918387030033, 0.015443258416599104], [0.24124003065553434, -0.42100438739197515], [-0.5036516996317824, 0.289152783779661]]",density,black,,,N009,visual,1,[],"['1', '2', '3', '4']",1,2023.2.3,harveyvisual,2.1,[],8,0.75,
0,pause,0.4,None,None,None,0,155,155,155,,,,,,,,,,,,,N009,visual,1,[],"['1', '2', '3', '4']",1,2023.2.3,harveyvisual,2.1,[],8,0.75,
9,dot,0.3,['dot'],['density'],black,0,156,156,156,,,57.00021696090698,56.71669101715088,57.016680002212524,dot,"[0.08, 0.1, 0.08, 0.1, 0.06, 0.06, 0.06, 0.08, 0.06]","[[0.5176022259896301, 0.07013652950073157], [0.29073914382076843, 0.49095716113391286], [0.25755010907869064, 0.10321661572421419], [0.11549350267606502, 0.37871636325142816], [-0.040248060121338324, 0.07603447111469516], [0.35733910828644905, -0.07238149579930037], [0.09184169877402729, -0.10424630849328012], [-0.10934901156313583, -0.14911132891814113], [0.4158094160330474, 0.26019999263529187]]",density,black,,,N009,visual,1,[],"['1', '2', '3', '4']",1,2023.2.3,harveyvisual,2.1,[],8,0.75,
0,pause,0.4,None,None,None,0,157,157,157,,,,,,,,,,,,,N009,visual,1,[],"['1', '2', '3', '4']",1,2023.2.3,harveyvisual,2.1,[],8,0.75,
9,dot,0.3,['dot'],['density'],black,0,158,158,158,,,57.70021104812622,57.416603088378906,57.71652913093567,dot,"[0.1, 0.08, 0.08, 0.1, 0.06, 0.06, 0.08, 0.08, 0.08]","[[0.12352761201622256, -0.5468572532837559], [0.3269537579821693, -0.14821727133703638], [-0.17374906020363926, -0.07190913605219341], [-0.07646026346349713, -0.5341566642345157], [0.06446752128858728, 0.011530587655488696], [0.17734850627899523, -0.32847254707869106], [-0.01015131191695844, -0.24065236825376074], [-0.3732824370369478, -0.21519922319826376], [-0.23017550258214428, -0.35747389881463476]]",density,black,,,N009,visual,1,[],"['1', '2', '3', '4']",1,2023.2.3,harveyvisual,2.1,[],8,0.75,
0,pause,0.4,None,None,None,0,159,159,159,,,,,,,,,,,,,N009,visual,1,[],"['1', '2', '3', '4']",1,2023.2.3,harveyvisual,2.1,[],8,0.75,
9,dot,0.3,['dot'],['density'],black,0,160,160,160,,,58.40021300315857,58.116533041000366,58.41647005081177,dot,"[0.08, 0.06, 0.08, 0.1, 0.06, 0.1, 0.1, 0.06, 0.06]","[[0.15603996265512696, -0.0872053538661942], [-0.29211765964195757, -0.04110002513656992], [-0.071087909845803, -0.33174387981618686], [-0.13011395490928096, 0.2584597801106329], [-0.08364541374476576, -0.0980664528631432], [-0.26669569773039664, -0.25481833902542456], [-0.35582819085755485, -0.4494505046102014], [-0.1269674344078877, -0.5566175884613933], [0.011820482989003244, 0.07934247632600783]]",density,black,,,N009,visual,1,[],"['1', '2', '3', '4']",1,2023.2.3,harveyvisual,2.1,[],8,0.75,
0,pause,0.4,None,None,None,0,161,161,161,,,,,,,,,,,,,N009,visual,1,[],"['1', '2', '3', '4']",1,2023.2.3,harveyvisual,2.1,[],8,0.75,
9,dot,0.3,['dot'],['density'],black,0,162,162,162,,,59.100213050842285,58.81663799285889,59.1166250705719,dot,"[0.08, 0.06, 0.06, 0.1, 0.08, 0.1, 0.1, 0.06, 0.08]","[[-0.06218673389315922, -0.4689115343027075], [0.3660477402554353, -0.15396192139437054], [0.1401329754895462, -0.14262156541192547], [0.12293598154832706, -0.38779640022673934], [0.42645158233284447, -0.3607859009111275], [-0.06238477126329685, -0.2564764349502154], [-0.2584688277182379, -0.29964401945706215], [-0.11312192996032899, -0.05439345917292958], [0.19096873654163896, 0.1321853744035435]]",density,black,,,N009,visual,1,[],"['1', '2', '3', '4']",1,2023.2.3,harveyvisual,2.1,[],8,0.75,
0,pause,0.4,None,None,None,0,163,163,163,,,,,,,,,,,,,N009,visual,1,[],"['1', '2', '3', '4']",1,2023.2.3,harveyvisual,2.1,[],8,0.75,
9,dot,0.3,['dot'],['density'],white,0,164,164,164,,,59.800215005874634,59.516627073287964,59.81660199165344,dot,"[0.1, 0.08, 0.06, 0.08, 0.1, 0.06, 0.08, 0.08, 0.08]","[[-0.4219467838066047, -0.18114019941065054], [-0.2081543488995217, -0.4860059455967178], [-0.008274735502094755, -0.3457533902190916], [0.02376323820852766, -0.0891001390581758], [-0.4116277839025775, 0.058108040724694845], [-0.18144554169200455, -0.05292133149533743], [0.21944315682242976, -0.26450239569476724], [0.11466821484809545, 0.13327019789913197], [-0.2288148866166432, -0.2599929378926301]]",density,white,,,N009,visual,1,[],"['1', '2', '3', '4']",1,2023.2.3,harveyvisual,2.1,[],8,0.75,
0,pause,0.4,None,None,None,0,165,165,165,,,,,,,,,,,1,59.95739698410034,N009,visual,1,[],"['1', '2', '3', '4']",1,2023.2.3,harveyvisual,2.1,[],8,0.75,
9,dot,0.3,['dot'],['density'],black,0,166,166,166,,,60.50021195411682,60.2166211605072,60.51644015312195,dot,"[0.06, 0.1, 0.1, 0.06, 0.06, 0.08, 0.08, 0.06, 0.06]","[[-0.4219467838066047, -0.18114019941065054], [-0.2081543488995217, -0.4860059455967178], [-0.008274735502094755, -0.3457533902190916], [0.02376323820852766, -0.0891001390581758], [-0.4116277839025775, 0.058108040724694845], [-0.18144554169200455, -0.05292133149533743], [0.21944315682242976, -0.26450239569476724], [0.11466821484809545, 0.13327019789913197], [-0.2288148866166432, -0.2599929378926301]]",density,black,,,N009,visual,1,[],"['1', '2', '3', '4']",1,2023.2.3,harveyvisual,2.1,[],8,0.75,
0,pause,0.4,None,None,None,0,167,167,167,,,,,,,,,,,,,N009,visual,1,[],"['1', '2', '3', '4']",1,2023.2.3,harveyvisual,2.1,[],8,0.75,
8,dot,0.3,['dot'],['density'],black,0,168,168,168,,,61.20023012161255,60.916409969329834,61.21642303466797,dot,"[0.1, 0.08, 0.1, 0.06, 0.08, 0.06, 0.06, 0.08]","[[0.2715518471235014, -0.4245138665073026], [0.03602391524707561, -0.40638782213015096], [0.4828297141312073, -0.09119901312376678], [0.02835794216237903, 0.028275321652194735], [-0.0895445032969687, -0.19822740391127236], [0.3178997883629752, 0.08245100984997318], [0.21920060966397442, -0.22342839817001514], [0.46807969757011175, -0.32427319705723295]]",density,black,,,N009,visual,1,[],"['1', '2', '3', '4']",1,2023.2.3,harveyvisual,2.1,[],8,0.75,
0,pause,0.4,None,None,None,0,169,169,169,,,,,,,,,,,,,N009,visual,1,[],"['1', '2', '3', '4']",1,2023.2.3,harveyvisual,2.1,[],8,0.75,
8,dot,0.3,['dot'],['density'],black,0,170,170,170,,,61.900230169296265,61.6164071559906,61.916430950164795,dot,"[0.1, 0.06, 0.06, 0.06, 0.08, 0.06, 0.06, 0.1]","[[-0.4639556696772753, 0.10472599959088454], [-0.22970357876872852, 0.24758381400794424], [-0.060094057158436125, -0.14613975383200573], [-0.022569829209962654, 0.2677975872319761], [-0.3077859326170116, -0.10488986274105515], [-0.16040535020917, 0.031608708128470005], [-0.5175577931920246, -0.20517812764611504], [0.1194024413118107, 0.007837779916585986]]",density,black,,,N009,visual,1,[],"['1', '2', '3', '4']",1,2023.2.3,harveyvisual,2.1,[],8,0.75,
0,pause,0.4,None,None,None,0,171,171,171,,,,,,,,,,,,,N009,visual,1,[],"['1', '2', '3', '4']",1,2023.2.3,harveyvisual,2.1,[],8,0.75,
8,dot,0.3,['dot'],['density'],black,0,172,172,172,,,62.600239992141724,62.316418170928955,62.61639904975891,dot,"[0.06, 0.06, 0.08, 0.08, 0.06, 0.08, 0.08, 0.06]","[[0.08034727882022866, 0.21485544138691295], [0.4485208087802622, -0.24912681836757106], [0.26129939989417056, 0.09257513963058502], [0.557413308755299, 0.1511846349250138], [0.2634990941728302, -0.1333032593777782], [0.3632073825345479, 0.269269938976799], [-0.13869722159995554, 0.017464377414806956], [0.4339652718412117, -0.009910074233595774]]",density,black,,,N009,visual,1,[],"['1', '2', '3', '4']",1,2023.2.3,harveyvisual,2.1,[],8,0.75,
0,pause,0.4,None,None,None,0,173,173,173,,,,,,,,,,,,,N009,visual,1,[],"['1', '2', '3', '4']",1,2023.2.3,harveyvisual,2.1,[],8,0.75,
8,dot,0.3,['dot'],['density'],black,0,174,174,174,,,63.300233125686646,63.01639699935913,63.31639504432678,dot,"[0.08, 0.06, 0.08, 0.06, 0.08, 0.08, 0.06, 0.06]","[[-0.3869743371455666, 0.15388434217336297], [0.11424038932868294, 0.18734519769139274], [-0.06602262913525138, -0.20199883598953133], [-0.13221522482970946, 0.16661696891490863], [-0.2408224703751142, -0.03724946932993881], [-0.01219752370661542, -0.004327099574405561], [-0.20345141844285677, 0.44978546357431476], [0.2450906497331586, -0.012808503174003826]]",density,black,,,N009,visual,1,[],"['1', '2', '3', '4']",1,2023.2.3,harveyvisual,2.1,[],8,0.75,
0,pause,0.4,None,None,None,0,175,175,175,,,,,,,,,,,,,N009,visual,1,[],"['1', '2', '3', '4']",1,2023.2.3,harveyvisual,2.1,[],8,0.75,
8,dot,0.3,['dot'],['density'],black,0,176,176,176,,,64.00023913383484,63.71638298034668,64.01637411117554,dot,"[0.1, 0.08, 0.1, 0.06, 0.06, 0.1, 0.06, 0.06]","[[0.4694715163891994, 0.13329625263481096], [0.14358160208090395, 0.35167434699812705], [0.41559735975202405, 0.3690190921299561], [-0.041805684447173724, 0.4315913723966695], [-0.04993254304034498, 0.2285123563850015], [0.25337459258073897, 0.16365346604105616], [0.18476510797087844, 0.5481483313560797], [0.14868800337579569, -0.10349430855878591]]",density,black,,,N009,visual,1,[],"['1', '2', '3', '4']",1,2023.2.3,harveyvisual,2.1,[],8,0.75,
0,pause,0.4,None,None,None,0,177,177,177,,,,,,,,,,,,,N009,visual,1,[],"['1', '2', '3', '4']",1,2023.2.3,harveyvisual,2.1,[],8,0.75,
8,dot,0.3,['dot'],['density'],black,0,178,178,178,,,64.7002341747284,64.4163589477539,64.71634817123413,dot,"[0.08, 0.06, 0.1, 0.06, 0.06, 0.1, 0.06, 0.08]","[[-0.43120034012996816, -0.3965796075128045], [0.1478983624034229, -0.46770986256388064], [-0.23058307999139557, -0.3238539366063682], [-0.07988642296593639, -0.13993938361429092], [-0.08664795903044427, -0.5418074813242995], [0.11879255589163208, -0.1637425359681226], [-0.09873641234556067, 0.08705286872936738], [-0.025120016651009644, -0.34045580780112095]]",density,black,,,N009,visual,1,[],"['1', '2', '3', '4']",1,2023.2.3,harveyvisual,2.1,[],8,0.75,
0,pause,0.4,None,None,None,0,179,179,179,,,,,,,,,,,,,N009,visual,1,[],"['1', '2', '3', '4']",1,2023.2.3,harveyvisual,2.1,[],8,0.75,
7,dot,0.3,['dot'],['density'],black,0,180,180,180,,,65.40023517608643,65.11638903617859,65.41630601882935,dot,"[0.1, 0.06, 0.06, 0.08, 0.06, 0.06, 0.1]","[[0.23608374802607182, -0.42864299173344095], [-0.09209027036414452, -0.12416238309953632], [0.2788105912293623, 0.0033410667889120396], [0.04539289310230788, 0.08875296613859053], [0.036272769320452085, -0.32980830156280494], [-0.23317126701056543, -0.2895908304292693], [0.15392952834370008, -0.16140965755482034]]",density,black,,,N009,visual,1,[],"['1', '2', '3', '4']",1,2023.2.3,harveyvisual,2.1,[],8,0.75,
0,pause,0.4,None,None,None,0,181,181,181,,,,,,,,,,,,,N009,visual,1,[],"['1', '2', '3', '4']",1,2023.2.3,harveyvisual,2.1,[],8,0.75,
7,dot,0.3,['dot'],['density'],black,0,182,182,182,,,66.10020899772644,65.81629204750061,66.1163239479065,dot,"[0.1, 0.1, 0.08, 0.06, 0.1, 0.1, 0.06]","[[0.2037857981676222, -0.1815971672986122], [0.4890839798603071, 0.25295445478885614], [0.1294833597440532, 0.050421522491765555], [0.5249724357971474, 0.014331621614536631], [0.4084294087299191, -0.1546943519977724], [0.31356179590401956, 0.13415696527685209], [-0.016262925640377804, -0.1588315022511765]]",density,black,,,N009,visual,1,[],"['1', '2', '3', '4']",1,2023.2.3,harveyvisual,2.1,[],8,0.75,
0,pause,0.4,None,None,None,0,183,183,183,,,,,,,,,,,,,N009,visual,1,[],"['1', '2', '3', '4']",1,2023.2.3,harveyvisual,2.1,[],8,0.75,
7,dot,0.3,['dot'],['density'],black,0,184,184,184,,,66.80021715164185,66.5163049697876,66.81631398200989,dot,"[0.08, 0.06, 0.08, 0.1, 0.08, 0.1, 0.08]","[[-0.39883248072855915, 0.30823732592088265], [-0.041341486549100435, 0.2390478988097413], [-0.013495537319202725, 0.5211111720540192], [-0.2415889716500472, 0.10795059447242317], [-0.023803066389735523, 0.02076064871433158], [0.14387498046506175, 0.3548008600093999], [-0.24331877599120405, 0.46521846842164205]]",density,black,,,N009,visual,1,[],"['1', '2', '3', '4']",1,2023.2.3,harveyvisual,2.1,[],8,0.75,
0,pause,0.4,None,None,None,0,185,185,185,,,,,,,,,,,,,N009,visual,1,[],"['1', '2', '3', '4']",1,2023.2.3,harveyvisual,2.1,[],8,0.75,
7,dot,0.3,['dot'],['density'],black,0,186,186,186,,,67.50021505355835,67.21653509140015,67.51649808883667,dot,"[0.06, 0.08, 0.1, 0.08, 0.1, 0.06, 0.06]","[[0.43636558899465056, -0.019888822856555858], [0.3422654810486562, -0.28596623187093184], [0.19265053263460555, -0.4439876245838232], [0.13726272111749335, -0.2453614523272762], [0.002381890354708078, -0.04768315945896726], [0.5336827108411983, -0.21507725682246784], [0.22437755209563529, -0.002563521851875305]]",density,black,,,N009,visual,1,[],"['1', '2', '3', '4']",1,2023.2.3,harveyvisual,2.1,[],8,0.75,
0,pause,0.4,None,None,None,0,187,187,187,,,,,,,,,,,,,N009,visual,1,[],"['1', '2', '3', '4']",1,2023.2.3,harveyvisual,2.1,[],8,0.75,
7,dot,0.3,['dot'],['density'],black,0,188,188,188,,,68.20022296905518,67.91629004478455,68.21625995635986,dot,"[0.1, 0.08, 0.08, 0.08, 0.08, 0.06, 0.06]","[[0.020512593940644967, 0.06058225053891463], [-0.12457192929091994, 0.22210134043855223], [0.2267676360835929, 0.07227077176864677], [-0.19381219694833235, -0.14277017550647156], [0.096077147208419, -0.13886261858003718], [0.087393672000005, 0.26445259248386815], [-0.018663113410245565, 0.4344684582511623]]",density,black,,,N009,visual,1,[],"['1', '2', '3', '4']",1,2023.2.3,harveyvisual,2.1,[],8,0.75,
0,pause,0.4,None,None,None,0,189,189,189,,,,,,,,,,,,,N009,visual,1,[],"['1', '2', '3', '4']",1,2023.2.3,harveyvisual,2.1,[],8,0.75,
7,dot,0.3,['dot'],['density'],black,0,190,190,190,,,68.90021705627441,68.61626601219177,68.91623711585999,dot,"[0.1, 0.08, 0.08, 0.08, 0.1, 0.06, 0.06]","[[-0.03978284138183809, -0.43963729991580147], [0.2770736023028816, -0.4460091285183096], [0.4264240077257641, -0.26124456405115876], [0.04351789842027954, -0.004572294527936195], [0.08491707485555088, -0.26540219852266356], [0.2274622265833728, -0.10044916879814345], [0.4232844185721205, -0.050742783717769746]]",density,black,,,N009,visual,1,[],"['1', '2', '3', '4']",1,2023.2.3,harveyvisual,2.1,[],8,0.75,
0,pause,0.4,None,None,None,0,191,191,191,,,,,,,,,,,,,N009,visual,1,[],"['1', '2', '3', '4']",1,2023.2.3,harveyvisual,2.1,[],8,0.75,
6,dot,0.3,['dot'],['density'],black,0,192,192,192,,,69.60024094581604,69.31639218330383,69.61639499664307,dot,"[0.1, 0.1, 0.06, 0.06, 0.06, 0.08]","[[-0.21871154593458392, 0.523205648483303], [-0.10311842393244862, 0.3355489225101837], [0.008055670172287269, 0.5366903261171385], [0.1303263863168633, 0.3782575370349718], [0.03185769749340688, 0.17145177849191712], [-0.2810167974491763, 0.15418865533644557]]",density,black,,,N009,visual,1,[],"['1', '2', '3', '4']",1,2023.2.3,harveyvisual,2.1,[],8,0.75,
0,pause,0.4,None,None,None,0,193,193,193,,,,,,,,,,,,,N009,visual,1,[],"['1', '2', '3', '4']",1,2023.2.3,harveyvisual,2.1,[],8,0.75,
6,dot,0.3,['dot'],['density'],black,0,194,194,194,,,70.30021810531616,70.01638698577881,70.31638813018799,dot,"[0.08, 0.1, 0.06, 0.08, 0.06, 0.06]","[[-0.5416753121247185, 0.020803147184574915], [-0.3232269173664433, -0.07161231053200118], [-0.3008479376061402, -0.286480119217458], [-0.22299540496279888, 0.12470258063391813], [-0.10776740766186912, -0.19554033341247495], [-0.5165544979209102, -0.21376225914528924]]",density,black,,,N009,visual,1,[],"['1', '2', '3', '4']",1,2023.2.3,harveyvisual,2.1,[],8,0.75,
0,pause,0.4,None,None,None,0,195,195,195,,,,,,,,,,,,,N009,visual,1,[],"['1', '2', '3', '4']",1,2023.2.3,harveyvisual,2.1,[],8,0.75,
6,dot,0.3,['dot'],['density'],black,0,196,196,196,,,71.00022411346436,70.71640801429749,71.01640915870667,dot,"[0.1, 0.1, 0.1, 0.08, 0.08, 0.1]","[[-0.521575560759306, -0.09896409503936293], [-0.11005055439098525, 0.007412765662050641], [-0.2691644509192311, -0.32034241736757013], [-0.33082776037640693, 0.11579187391948328], [-0.031037041641207554, -0.21820435357846482], [-0.2943013415457968, -0.09543215727460275]]",density,black,,,N009,visual,1,[],"['1', '2', '3', '4']",1,2023.2.3,harveyvisual,2.1,[],8,0.75,
0,pause,0.4,None,None,None,0,197,197,197,,,,,,,,,,,,,N009,visual,1,[],"['1', '2', '3', '4']",1,2023.2.3,harveyvisual,2.1,[],8,0.75,
6,dot,0.3,['dot'],['density'],black,0,198,198,198,,,71.70023107528687,71.41639614105225,71.71617412567139,dot,"[0.1, 0.1, 0.06, 0.08, 0.06, 0.06]","[[-0.36904347190091025, 0.2789229011504548], [-0.01038079434194998, 0.053649704929766846], [-0.08735338951653393, 0.578282782753283], [5.153534382930422e-05, 0.38446941554394387], [-0.22753401468201206, 0.43210907521897474], [-0.14647282530567177, 0.24517240432070728]]",density,black,,,N009,visual,1,[],"['1', '2', '3', '4']",1,2023.2.3,harveyvisual,2.1,[],8,0.75,
0,pause,0.4,None,None,None,0,199,199,199,,,,,,,,,,,,,N009,visual,1,[],"['1', '2', '3', '4']",1,2023.2.3,harveyvisual,2.1,[],8,0.75,
6,dot,0.3,['dot'],['density'],black,0,200,200,200,,,72.40022206306458,72.11619400978088,72.41615796089172,dot,"[0.08, 0.06, 0.08, 0.08, 0.1, 0.06]","[[-0.5042184434856596, 0.24959378884587158], [-0.14877643798118484, -0.059020126001740114], [-0.46546181494132466, -0.1471818588402077], [-0.26957518187208745, -0.22263810459524838], [-0.2342448443914648, 0.21754944417529726], [-0.37109182385784195, 0.03297203532481631]]",density,black,,,N009,visual,1,[],"['1', '2', '3', '4']",1,2023.2.3,harveyvisual,2.1,[],8,0.75,
0,pause,0.4,None,None,None,0,201,201,201,,,,,,,,,,,,,N009,visual,1,[],"['1', '2', '3', '4']",1,2023.2.3,harveyvisual,2.1,[],8,0.75,
6,dot,0.3,['dot'],['density'],black,0,202,202,202,,,73.10023999214172,72.81630396842957,73.11630296707153,dot,"[0.1, 0.06, 0.08, 0.1, 0.06, 0.1]","[[-0.36904347190091025, 0.2789229011504548], [-0.01038079434194998, 0.053649704929766846], [-0.08735338951653393, 0.578282782753283], [5.153534382930422e-05, 0.38446941554394387], [-0.22753401468201206, 0.43210907521897474], [-0.14647282530567177, 0.24517240432070728]]",density,black,,,N009,visual,1,[],"['1', '2', '3', '4']",1,2023.2.3,harveyvisual,2.1,[],8,0.75,
0,pause,0.4,None,None,None,0,203,203,203,,,,,,,,,,,,,N009,visual,1,[],"['1', '2', '3', '4']",1,2023.2.3,harveyvisual,2.1,[],8,0.75,
5,dot,0.3,['dot'],['density'],black,0,204,204,204,,,73.80021810531616,73.51611804962158,73.81624913215637,dot,"[0.08, 0.06, 0.06, 0.06, 0.1]","[[-0.082153098152829, -0.06894165798345762], [0.016766770742065788, -0.42680196676869325], [0.2961099764235258, -0.14925166127785872], [-0.1456021726000032, -0.26669195071034546], [0.10213220283607832, -0.23321095001989858]]",density,black,,,N009,visual,1,[],"['1', '2', '3', '4']",1,2023.2.3,harveyvisual,2.1,[],8,0.75,
0,pause,0.4,None,None,None,0,205,205,205,,,,,,,,,,,,,N009,visual,1,[],"['1', '2', '3', '4']",1,2023.2.3,harveyvisual,2.1,[],8,0.75,
5,dot,0.3,['dot'],['density'],black,0,206,206,206,,,74.50022101402283,74.21624612808228,74.51622009277344,dot,"[0.08, 0.06, 0.1, 0.06, 0.08]","[[-0.13250041589442924, 0.4634743177333449], [-0.03625216126902591, 0.28212032656479163], [0.10864293512180892, 0.5244886061775208], [-0.2806491611955352, 0.29160063440784684], [-0.17458602784440078, 0.11997474961663163]]",density,black,,,N009,visual,1,[],"['1', '2', '3', '4']",1,2023.2.3,harveyvisual,2.1,[],8,0.75,
0,pause,0.4,None,None,None,0,207,207,207,,,,,,,,,,,,,N009,visual,1,[],"['1', '2', '3', '4']",1,2023.2.3,harveyvisual,2.1,[],8,0.75,
5,dot,0.3,['dot'],['density'],black,0,208,208,208,,,75.20023512840271,74.9160521030426,75.21605110168457,dot,"[0.08, 0.06, 0.06, 0.1, 0.08]","[[0.26736814946294957, 0.039639821311179], [0.3007085492035367, 0.3262250213434343], [0.4353907115448318, -0.11778011175670104], [0.4521497692138949, 0.1289853794543976], [0.1485908728023605, -0.12275462689891227]]",density,black,,,N009,visual,1,[],"['1', '2', '3', '4']",1,2023.2.3,harveyvisual,2.1,[],8,0.75,
0,pause,0.4,None,None,None,0,209,209,209,,,,,,,,,,,,,N009,visual,1,[],"['1', '2', '3', '4']",1,2023.2.3,harveyvisual,2.1,[],8,0.75,
5,dot,0.3,['dot'],['density'],black,0,210,210,210,,,75.90023803710938,75.61608004570007,75.91605615615845,dot,"[0.08, 0.1, 0.1, 0.1, 0.06]","[[-0.08538919239777085, -0.3767281323802813], [0.14382612128503536, -0.4947333592336123], [0.2503732289573559, -0.06783159190520484], [0.07777572498152553, -0.21879460077906046], [0.26544561712664855, -0.2975172507008621]]",density,black,,,N009,visual,1,[],"['1', '2', '3', '4']",1,2023.2.3,harveyvisual,2.1,[],8,0.75,
0,pause,0.4,None,None,None,0,211,211,211,,,,,,,,,,,,,N009,visual,1,[],"['1', '2', '3', '4']",1,2023.2.3,harveyvisual,2.1,[],8,0.75,
5,dot,0.3,['dot'],['density'],black,0,212,212,212,,,76.60023808479309,76.3160331249237,76.61599397659302,dot,"[0.08, 0.1, 0.1, 0.06, 0.08]","[[-0.16893136043895146, -0.20127892763881453], [-0.5727216740452047, -0.07682091551650742], [-0.343702592036276, -0.060533526953518955], [-0.5038383983260774, 0.15268268748871192], [-0.379488354443274, -0.2704310218069364]]",density,black,,,N009,visual,1,[],"['1', '2', '3', '4']",1,2023.2.3,harveyvisual,2.1,[],8,0.75,
0,pause,0.4,None,None,None,0,213,213,213,,,,,,,,,,,,,N009,visual,1,[],"['1', '2', '3', '4']",1,2023.2.3,harveyvisual,2.1,[],8,0.75,
5,dot,0.3,['dot'],['density'],black,0,214,214,214,,,77.30023097991943,77.01603412628174,77.31599617004395,dot,"[0.1, 0.08, 0.06, 0.1, 0.06]","[[-0.5348211864270219, -0.08335004612931018], [-0.428892633085643, 0.14758700623805307], [-0.3277098387322906, -0.27887202276080253], [-0.29687101947458117, -0.03792463078145938], [-0.23363771935579355, 0.21194794904782605]]",density,black,,,N009,visual,1,[],"['1', '2', '3', '4']",1,2023.2.3,harveyvisual,2.1,[],8,0.75,
0,pause,0.4,None,None,None,0,215,215,215,,,,,,,,,,,,,N009,visual,1,[],"['1', '2', '3', '4']",1,2023.2.3,harveyvisual,2.1,[],8,0.75,
4,dot,0.3,['dot'],['density'],black,0,216,216,216,,,78.0002281665802,77.71597599983215,78.01617503166199,dot,"[0.1, 0.06, 0.08, 0.1]","[[0.012521055699324385, 0.11356654047594222], [0.23234191260135498, 0.08597184236642744], [-0.1711309036876675, 0.020891973622313913], [0.11376048882462075, -0.09104804463782627]]",density,black,,,N009,visual,1,[],"['1', '2', '3', '4']",1,2023.2.3,harveyvisual,2.1,[],8,0.75,
0,pause,0.4,None,None,None,0,217,217,217,,,,,,,,,,,,,N009,visual,1,[],"['1', '2', '3', '4']",1,2023.2.3,harveyvisual,2.1,[],8,0.75,
4,dot,0.3,['dot'],['density'],black,0,218,218,218,,,78.70023798942566,78.41597294807434,78.71595597267151,dot,"[0.06, 0.06, 0.08, 0.1]","[[0.17852470546651972, -0.2012438881607824], [-0.031034799765910746, -0.12466087783573923], [0.008996399474264666, -0.3229379719524122], [0.15114343287780646, 0.03986859122442722]]",density,black,,,N009,visual,1,[],"['1', '2', '3', '4']",1,2023.2.3,harveyvisual,2.1,[],8,0.75,
0,pause,0.4,None,None,None,0,219,219,219,,,,,,,,,,,,,N009,visual,1,[],"['1', '2', '3', '4']",1,2023.2.3,harveyvisual,2.1,[],8,0.75,
4,dot,0.3,['dot'],['density'],black,0,220,220,220,,,79.40024495124817,79.11595296859741,79.41596603393555,dot,"[0.08, 0.08, 0.08, 0.06]","[[0.012521055699324385, 0.11356654047594222], [0.23234191260135498, 0.08597184236642744], [-0.1711309036876675, 0.020891973622313913], [0.11376048882462075, -0.09104804463782627]]",density,black,,,N009,visual,1,[],"['1', '2', '3', '4']",1,2023.2.3,harveyvisual,2.1,[],8,0.75,
0,pause,0.4,None,None,None,0,221,221,221,,,,,,,,,,,,,N009,visual,1,[],"['1', '2', '3', '4']",1,2023.2.3,harveyvisual,2.1,[],8,0.75,
4,dot,0.3,['dot'],['density'],black,0,222,222,222,,,80.10023403167725,79.81593298912048,80.11594104766846,dot,"[0.1, 0.06, 0.06, 0.06]","[[0.3428963381299033, -0.004396565162037705], [0.42558881424794154, 0.18301493672810298], [0.5687630200397232, 0.01721079717795714], [0.4301208405972816, -0.23499851958356296]]",density,black,,,N009,visual,1,[],"['1', '2', '3', '4']",1,2023.2.3,harveyvisual,2.1,[],8,0.75,
0,pause,0.4,None,None,None,0,223,223,223,,,,,,,,,,,,,N009,visual,1,[],"['1', '2', '3', '4']",1,2023.2.3,harveyvisual,2.1,[],8,0.75,
4,dot,0.3,['dot'],['density'],black,0,224,224,224,,,80.80021905899048,80.51593613624573,80.81591796875,dot,"[0.08, 0.06, 0.06, 0.1]","[[-0.4771446773377139, 0.25157103962592786], [-0.4259846000875058, -0.15982147080050188], [-0.5514119563937664, 0.017569371675289724], [-0.3400083930451492, 0.09263869595453958]]",density,black,,,N009,visual,1,[],"['1', '2', '3', '4']",1,2023.2.3,harveyvisual,2.1,[],8,0.75,
0,pause,0.4,None,None,None,0,225,225,225,,,,,,,,,,,,,N009,visual,1,[],"['1', '2', '3', '4']",1,2023.2.3,harveyvisual,2.1,[],8,0.75,
4,dot,0.3,['dot'],['density'],black,0,226,226,226,,,81.50021505355835,81.21696901321411,81.51593017578125,dot,"[0.1, 0.06, 0.1, 0.06]","[[0.13421512820946938, -0.5336194340609706], [0.2622623892029083, -0.3575253733063478], [0.024533045116508903, -0.3376850530006363], [0.166924465117498, -0.0963569090623874]]",density,black,,,N009,visual,1,[],"['1', '2', '3', '4']",1,2023.2.3,harveyvisual,2.1,[],8,0.75,
0,pause,0.4,None,None,None,0,227,227,227,,,,,,,,,,,,,N009,visual,1,[],"['1', '2', '3', '4']",1,2023.2.3,harveyvisual,2.1,[],8,0.75,
3,dot,0.3,['dot'],['density'],black,0,228,228,228,,,82.2002260684967,81.91595816612244,82.21593117713928,dot,"[0.06, 0.08, 0.08]","[[-0.15674404860239688, -0.25078459247658497], [0.006578924124220241, -0.41324131210186005], [0.06959682433872849, -0.20549031443856539]]",density,black,,,N009,visual,1,[],"['1', '2', '3', '4']",1,2023.2.3,harveyvisual,2.1,[],8,0.75,
0,pause,0.4,None,None,None,0,229,229,229,,,,,,,,,,,,,N009,visual,1,[],"['1', '2', '3', '4']",1,2023.2.3,harveyvisual,2.1,[],8,0.75,
3,dot,0.3,['dot'],['density'],black,0,230,230,230,,,82.9002251625061,82.61587500572205,82.91586208343506,dot,"[0.1, 0.06, 0.06]","[[-0.27441186418729774, -0.31428620701652393], [-0.10438281902574013, -0.2032379983598837], [-0.31523395761825285, -0.08768035506307631]]",density,black,,,N009,visual,1,[],"['1', '2', '3', '4']",1,2023.2.3,harveyvisual,2.1,[],8,0.75,
0,pause,0.4,None,None,None,0,231,231,231,,,,,,,,,,,,,N009,visual,1,[],"['1', '2', '3', '4']",1,2023.2.3,harveyvisual,2.1,[],8,0.75,
3,dot,0.3,['dot'],['density'],black,0,232,232,232,,,83.60021805763245,83.31584596633911,83.61582398414612,dot,"[0.08, 0.1, 0.06]","[[-0.32624451712468355, -0.43854848545497693], [-0.39409142490376414, -0.22516425170789148], [-0.152352104904091, -0.33204091051628687]]",density,black,,,N009,visual,1,[],"['1', '2', '3', '4']",1,2023.2.3,harveyvisual,2.1,[],8,0.75,
0,pause,0.4,None,None,None,0,233,233,233,,,,,,,,,,,,,N009,visual,1,[],"['1', '2', '3', '4']",1,2023.2.3,harveyvisual,2.1,[],8,0.75,
3,dot,0.3,['dot'],['density'],black,0,234,234,234,,,84.300222158432,84.01585102081299,84.3158130645752,dot,"[0.1, 0.1, 0.06]","[[-0.18534860244577742, 0.5145019772121514], [0.05660586421610542, 0.42456432010350276], [-0.11463700911578348, 0.31489985189225056]]",density,black,,,N009,visual,1,[],"['1', '2', '3', '4']",1,2023.2.3,harveyvisual,2.1,[],8,0.75,
0,pause,0.4,None,None,None,0,235,235,235,,,,,,,,,,,,,N009,visual,1,[],"['1', '2', '3', '4']",1,2023.2.3,harveyvisual,2.1,[],8,0.75,
3,dot,0.3,['dot'],['density'],black,0,236,236,236,,,85.00023913383484,84.71581411361694,85.01580309867859,dot,"[0.1, 0.1, 0.1]","[[-0.3082868261871679, -0.3137599619928766], [-0.14816041357862977, -0.19371393562593295], [-0.35304767783039576, -0.10610354059871957]]",density,black,,,N009,visual,1,[],"['1', '2', '3', '4']",1,2023.2.3,harveyvisual,2.1,[],8,0.75,
0,pause,0.4,None,None,None,0,237,237,237,,,,,,,,,,,,,N009,visual,1,[],"['1', '2', '3', '4']",1,2023.2.3,harveyvisual,2.1,[],8,0.75,
3,dot,0.3,['dot'],['density'],black,0,238,238,238,,,85.70022010803223,85.41579699516296,85.7157781124115,dot,"[0.06, 0.08, 0.1]","[[-0.32624451712468355, -0.43854848545497693], [-0.39409142490376414, -0.22516425170789148], [-0.152352104904091, -0.33204091051628687]]",density,black,,,N009,visual,1,[],"['1', '2', '3', '4']",1,2023.2.3,harveyvisual,2.1,[],8,0.75,
0,pause,0.4,None,None,None,0,239,239,239,,,,,,,,,,,,,N009,visual,1,[],"['1', '2', '3', '4']",1,2023.2.3,harveyvisual,2.1,[],8,0.75,
2,dot,0.3,['dot'],['density'],black,0,240,240,240,,,86.40024304389954,86.1157591342926,86.41575908660889,dot,"[0.1, 0.06]","[[0.21195259569903124, -0.4986433684978455], [0.023877440871594643, -0.42921284787985464]]",density,black,,,N009,visual,1,[],"['1', '2', '3', '4']",1,2023.2.3,harveyvisual,2.1,[],8,0.75,
0,pause,0.4,None,None,None,0,241,241,241,,,,,,,,,,,,,N009,visual,1,[],"['1', '2', '3', '4']",1,2023.2.3,harveyvisual,2.1,[],8,0.75,
2,dot,0.3,['dot'],['density'],black,0,242,242,242,,,87.10022115707397,86.81579899787903,87.11580109596252,dot,"[0.06, 0.06]","[[0.510744558366804, -0.07965895932329134], [0.5183014925016622, -0.2796299572401246]]",density,black,,,N009,visual,1,[],"['1', '2', '3', '4']",1,2023.2.3,harveyvisual,2.1,[],8,0.75,
0,pause,0.4,None,None,None,0,243,243,243,,,,,,,,,,,,,N009,visual,1,[],"['1', '2', '3', '4']",1,2023.2.3,harveyvisual,2.1,[],8,0.75,
2,dot,0.3,['dot'],['density'],black,0,244,244,244,,,87.80023407936096,87.51578211784363,87.81575798988342,dot,"[0.06, 0.1]","[[-0.4149324818804315, 0.28007444048998836], [-0.5260390884397633, 0.11347960973083408]]",density,black,,,N009,visual,1,[],"['1', '2', '3', '4']",1,2023.2.3,harveyvisual,2.1,[],8,0.75,
0,pause,0.4,None,None,None,0,245,245,245,,,,,,,,,,,,,N009,visual,1,[],"['1', '2', '3', '4']",1,2023.2.3,harveyvisual,2.1,[],8,0.75,
2,dot,0.3,['dot'],['density'],white,0,246,246,246,,,88.50023007392883,88.21575212478638,88.51589012145996,dot,"[0.06, 0.06]","[[0.4101371699595759, -0.046236245446824746], [0.42481245787877703, -0.24684889303111815]]",density,white,,,N009,visual,1,[],"['1', '2', '3', '4']",1,2023.2.3,harveyvisual,2.1,[],8,0.75,
0,pause,0.4,None,None,None,0,247,247,247,,,,,,,,,,,1,88.65991592407227,N009,visual,1,[],"['1', '2', '3', '4']",1,2023.2.3,harveyvisual,2.1,[],8,0.75,
2,dot,0.3,['dot'],['density'],black,0,248,248,248,,,89.2002260684967,88.91573405265808,89.21586418151855,dot,"[0.08, 0.1]","[[-0.5356907773971091, -0.01454049690556478], [-0.3936553319468624, 0.1263392020735458]]",density,black,,,N009,visual,1,[],"['1', '2', '3', '4']",1,2023.2.3,harveyvisual,2.1,[],8,0.75,
0,pause,0.4,None,None,None,0,249,249,249,,,,,,,,,,,,,N009,visual,1,[],"['1', '2', '3', '4']",1,2023.2.3,harveyvisual,2.1,[],8,0.75,
2,dot,0.3,['dot'],['density'],black,0,250,250,250,,,89.90023612976074,89.61587905883789,89.91583895683289,dot,"[0.06, 0.08]","[[-0.40295961353468523, -0.33947470962363085], [-0.23663605411983973, -0.22749761394439932]]",density,black,,,N009,visual,1,[],"['1', '2', '3', '4']",1,2023.2.3,harveyvisual,2.1,[],8,0.75,
0,pause,0.4,None,None,None,0,251,251,251,,,,,,,,,,,,,N009,visual,1,[],"['1', '2', '3', '4']",1,2023.2.3,harveyvisual,2.1,[],8,0.75,
1,dot,0.3,['dot'],['density'],black,0,252,252,252,,,90.60021615028381,90.31566715240479,90.61566996574402,dot,[0.1],"[0.03111034986587176, -0.1137363894063533]",density,black,,,N009,visual,1,[],"['1', '2', '3', '4']",1,2023.2.3,harveyvisual,2.1,[],8,0.75,
0,pause,0.4,None,None,None,0,253,253,253,,,,,,,,,,,,,N009,visual,1,[],"['1', '2', '3', '4']",1,2023.2.3,harveyvisual,2.1,[],8,0.75,
1,dot,0.3,['dot'],['density'],white,0,254,254,254,,,91.30024695396423,91.01565909385681,91.3156430721283,dot,[0.06],"[-0.00037526000000685745, -0.027921386894572527]",density,white,,,N009,visual,1,[],"['1', '2', '3', '4']",1,2023.2.3,harveyvisual,2.1,[],8,0.75,
0,pause,0.4,None,None,None,0,255,255,255,,,,,,,,,,,1,91.3861620426178,N009,visual,1,[],"['1', '2', '3', '4']",1,2023.2.3,harveyvisual,2.1,[],8,0.75,
1,dot,0.3,['dot'],['density'],black,0,256,256,256,,,92.0002281665802,91.71564316749573,92.01563215255737,dot,[0.06],"[-0.22356924330877379, 0.41145231278245986]",density,black,,,N009,visual,1,[],"['1', '2', '3', '4']",1,2023.2.3,harveyvisual,2.1,[],8,0.75,
0,pause,0.4,None,None,None,0,257,257,257,,,,,,,,,,,,,N009,visual,1,[],"['1', '2', '3', '4']",1,2023.2.3,harveyvisual,2.1,[],8,0.75,
1,dot,0.3,['dot'],['density'],black,0,258,258,258,,,92.70021796226501,92.41561913490295,92.7155990600586,dot,[0.1],"[-0.43105706563061386, -0.18359692062194616]",density,black,,,N009,visual,1,[],"['1', '2', '3', '4']",1,2023.2.3,harveyvisual,2.1,[],8,0.75,
0,pause,0.4,None,None,None,0,259,259,259,,,,,,,,,,,,,N009,visual,1,[],"['1', '2', '3', '4']",1,2023.2.3,harveyvisual,2.1,[],8,0.75,
1,dot,0.3,['dot'],['density'],black,0,260,260,260,,,93.40022397041321,93.11558699607849,93.41564011573792,dot,[0.1],"[0.2830289625583117, -0.03026882548871228]",density,black,,,N009,visual,1,[],"['1', '2', '3', '4']",1,2023.2.3,harveyvisual,2.1,[],8,0.75,
0,pause,0.4,None,None,None,0,261,261,261,,,,,,,,,,,,,N009,visual,1,[],"['1', '2', '3', '4']",1,2023.2.3,harveyvisual,2.1,[],8,0.75,
1,dot,0.3,['dot'],['density'],black,0,262,262,262,,,94.10023212432861,93.81556916236877,94.1156051158905,dot,[0.1],"[0.1600937909388646, -0.5041032805904762]",density,black,,,N009,visual,1,[],"['1', '2', '3', '4']",1,2023.2.3,harveyvisual,2.1,[],8,0.75,
0,pause,0.4,None,None,None,0,263,263,263,,,,,,,,,,,,,N009,visual,1,[],"['1', '2', '3', '4']",1,2023.2.3,harveyvisual,2.1,[],8,0.75,
20,dot,0.3,['dot'],['density'],black,0,264,264,264,,,94.80023503303528,94.51557302474976,94.8155620098114,dot,"[0.1, 0.06, 0.1, 0.1, 0.06, 0.08, 0.1, 0.06, 0.06, 0.1, 0.1, 0.06, 0.08, 0.06, 0.1, 0.06, 0.08, 0.08, 0.1, 0.1]","[[-0.07081530977028128, 0.033180797332531764], [-0.046844104096754435, -0.3586226130658253], [-0.35854729595825835, 0.19278370107560655], [0.5501385462434457, 0.03596349741962335], [0.18046374960577294, -0.03836064850924048], [-0.49476333088777524, -0.01900357344323894], [0.39665418467901026, -0.4265664604124285], [0.29618566297784266, 0.38536165139837164], [0.397218562041861, -0.14978806302849224], [-0.26791468456738804, -0.06951981923173417], [-0.030622637227694094, 0.5328632322370258], [-0.5385617049572381, 0.2613187555597531], [0.1602658235561547, 0.21053705027546166], [0.07826926196312067, -0.5023003270393229], [-0.2722679737607233, -0.5182132365240693], [0.1463472709559661, -0.2954762908617646], [-0.4136780524135204, -0.28030174231501104], [-0.19435638680359668, 0.3051608658323417], [0.46366570588679423, 0.24744512251950213], [-0.3092776936735395, 0.5041256034135603]]",density,black,,,N009,visual,1,[],"['1', '2', '3', '4']",1,2023.2.3,harveyvisual,2.1,[],8,0.75,
0,pause,0.4,None,None,None,0,265,265,265,,,,,,,,,,,,,N009,visual,1,[],"['1', '2', '3', '4']",1,2023.2.3,harveyvisual,2.1,[],8,0.75,
20,dot,0.3,['dot'],['density'],black,0,266,266,266,,,95.50023317337036,95.21555399894714,95.51553916931152,dot,"[0.1, 0.08, 0.08, 0.08, 0.06, 0.1, 0.08, 0.08, 0.08, 0.1, 0.1, 0.1, 0.06, 0.1, 0.08, 0.08, 0.08, 0.06, 0.1, 0.06]","[[0.5371740074308186, -0.01721409052485745], [-0.5571916222226406, 0.10998891300337571], [0.3134959984382424, 0.37974043788665424], [0.03567917988004088, 0.007571272876962243], [-0.41475488267145155, -0.3157358851938737], [0.21127975175204394, 0.08522555513768693], [0.040520338807789824, 0.2197769320514137], [0.47830098873779947, -0.2544309547534185], [-0.015272321241277975, 0.4497234364282623], [-0.5826708284993889, -0.14034578228830963], [-0.258002917596301, 0.036925741111806354], [0.5465636340147245, 0.219215461645259], [0.12733512818555204, -0.5020772024374699], [-0.14840260504911634, -0.49906195073270354], [-0.04319451721911882, -0.22036050272193897], [-0.4051010901031332, 0.33489213842002485], [0.2254936239381401, -0.3224704221494292], [-0.27992251224010994, 0.5057715762523132], [-0.1573390687681842, 0.20204232445997683], [0.24589847971557321, -0.12702367800624237]]",density,black,,,N009,visual,1,[],"['1', '2', '3', '4']",1,2023.2.3,harveyvisual,2.1,[],8,0.75,
0,pause,0.4,None,None,None,0,267,267,267,,,,,,,,,,,,,N009,visual,1,[],"['1', '2', '3', '4']",1,2023.2.3,harveyvisual,2.1,[],8,0.75,
