num,mod,duration,shape,ll_cond,colors,.thisRepN,.thisTrialN,.thisN,.thisIndex,thisRow.t,notes,raw_global_time,t_start,t_stop,shapes,size,pos,cond,color,button,RT,participant,session,starting_run,left button (match/odd),right button (non-match/even),samples_per_block,psychopy version,expName,offset,audio,number_runs,radius,
1,dot,0.3,['dot'],['density'],black,0,0,0,0,,,2.400200128555298,2.105905055999756,2.405750036239624,dot,[0.06],"[-0.3631366314731191, 0.1590646049745197]",density,black,,,N009,visual,1,[],"['1', '2', '3', '4']",1,2023.2.3,harveyvisual,2.1,[],8,0.75,
0,pause,0.4,None,None,None,0,1,1,1,,,,,,,,,,,,,N009,visual,1,[],"['1', '2', '3', '4']",1,2023.2.3,harveyvisual,2.1,[],8,0.75,
1,dot,0.3,['dot'],['density'],black,0,2,2,2,,,3.100208044052124,2.805711030960083,3.106203079223633,dot,[0.06],"[-0.2532192430475575, -0.5275431624831907]",density,black,,,N009,visual,1,[],"['1', '2', '3', '4']",1,2023.2.3,harveyvisual,2.1,[],8,0.75,
0,pause,0.4,None,None,None,0,3,3,3,,,,,,,,,,,,,N009,visual,1,[],"['1', '2', '3', '4']",1,2023.2.3,harveyvisual,2.1,[],8,0.75,
1,dot,0.3,['dot'],['density'],black,0,4,4,4,,,3.8002231121063232,3.506188154220581,3.806178092956543,dot,[0.1],"[0.43730911014729085, 0.38068286015665653]",density,black,,,N009,visual,1,[],"['1', '2', '3', '4']",1,2023.2.3,harveyvisual,2.1,[],8,0.75,
0,pause,0.4,None,None,None,0,5,5,5,,,,,,,,,,,,,N009,visual,1,[],"['1', '2', '3', '4']",1,2023.2.3,harveyvisual,2.1,[],8,0.75,
1,dot,0.3,['dot'],['density'],black,0,6,6,6,,,4.500211000442505,4.206195116043091,4.506155967712402,dot,[0.06],"[-0.13294789447644317, -0.0050084293737640015]",density,black,,,N009,visual,1,[],"['1', '2', '3', '4']",1,2023.2.3,harveyvisual,2.1,[],8,0.75,
0,pause,0.4,None,None,None,0,7,7,7,,,,,,,,,,,,,N009,visual,1,[],"['1', '2', '3', '4']",1,2023.2.3,harveyvisual,2.1,[],8,0.75,
1,dot,0.3,['dot'],['density'],black,0,8,8,8,,,5.200217962265015,4.906154155731201,5.206176996231079,dot,[0.1],"[0.19623115665255414, 0.1676894875529279]",density,black,,,N009,visual,1,[],"['1', '2', '3', '4']",1,2023.2.3,harveyvisual,2.1,[],8,0.75,
0,pause,0.4,None,None,None,0,9,9,9,,,,,,,,,,,,,N009,visual,1,[],"['1', '2', '3', '4']",1,2023.2.3,harveyvisual,2.1,[],8,0.75,
1,dot,0.3,['dot'],['density'],black,0,10,10,10,,,5.900223016738892,5.606130123138428,5.9084601402282715,dot,[0.06],"[-0.1989246115662565, -0.15069844343359862]",density,black,,,N009,visual,1,[],"['1', '2', '3', '4']",1,2023.2.3,harveyvisual,2.1,[],8,0.75,
0,pause,0.4,None,None,None,0,11,11,11,,,,,,,,,,,,,N009,visual,1,[],"['1', '2', '3', '4']",1,2023.2.3,harveyvisual,2.1,[],8,0.75,
2,dot,0.3,['dot'],['density'],black,0,12,12,12,,,6.600224018096924,6.308459043502808,6.608448028564453,dot,"[0.06, 0.1]","[[0.29932439847351855, -0.2783039550742582], [0.14276117392638485, -0.15345139110726028]]",density,black,,,N009,visual,1,[],"['1', '2', '3', '4']",1,2023.2.3,harveyvisual,2.1,[],8,0.75,
0,pause,0.4,None,None,None,0,13,13,13,,,,,,,,,,,,,N009,visual,1,[],"['1', '2', '3', '4']",1,2023.2.3,harveyvisual,2.1,[],8,0.75,
2,dot,0.3,['dot'],['density'],black,0,14,14,14,,,7.300209999084473,7.0084450244903564,7.308427095413208,dot,"[0.06, 0.1]","[[0.06661886780735636, -0.3109770134588511], [-0.03502229105109153, -0.4833380692870097]]",density,black,,,N009,visual,1,[],"['1', '2', '3', '4']",1,2023.2.3,harveyvisual,2.1,[],8,0.75,
0,pause,0.4,None,None,None,0,15,15,15,,,,,,,,,,,,,N009,visual,1,[],"['1', '2', '3', '4']",1,2023.2.3,harveyvisual,2.1,[],8,0.75,
2,dot,0.3,['dot'],['density'],black,0,16,16,16,,,8.000221967697144,7.708431959152222,8.008423089981079,dot,"[0.1, 0.08]","[[0.4101371699595759, -0.046236245446824746], [0.42481245787877703, -0.24684889303111815]]",density,black,,,N009,visual,1,[],"['1', '2', '3', '4']",1,2023.2.3,harveyvisual,2.1,[],8,0.75,
0,pause,0.4,None,None,None,0,17,17,17,,,,,,,,,,,,,N009,visual,1,[],"['1', '2', '3', '4']",1,2023.2.3,harveyvisual,2.1,[],8,0.75,
2,dot,0.3,['dot'],['density'],black,0,18,18,18,,,8.700206995010376,8.408430099487305,8.708970069885254,dot,"[0.06, 0.08]","[[-0.5356907773971091, -0.01454049690556478], [-0.3936553319468624, 0.1263392020735458]]",density,black,,,N009,visual,1,[],"['1', '2', '3', '4']",1,2023.2.3,harveyvisual,2.1,[],8,0.75,
0,pause,0.4,None,None,None,0,19,19,19,,,,,,,,,,,,,N009,visual,1,[],"['1', '2', '3', '4']",1,2023.2.3,harveyvisual,2.1,[],8,0.75,
2,dot,0.3,['dot'],['density'],black,0,20,20,20,,,9.400218963623047,9.108421087265015,9.408604145050049,dot,"[0.06, 0.08]","[[-0.19266755722762574, -0.036106715323925336], [-0.096675332858716, 0.13967695308521302]]",density,black,,,N009,visual,1,[],"['1', '2', '3', '4']",1,2023.2.3,harveyvisual,2.1,[],8,0.75,
0,pause,0.4,None,None,None,0,21,21,21,,,,,,,,,,,,,N009,visual,1,[],"['1', '2', '3', '4']",1,2023.2.3,harveyvisual,2.1,[],8,0.75,
2,dot,0.3,['dot'],['density'],black,0,22,22,22,,,10.100203037261963,9.80840015411377,10.108392000198364,dot,"[0.1, 0.06]","[[0.4162662019019998, 0.09129510669171749], [0.33420900269466314, 0.27427456354974017]]",density,black,,,N009,visual,1,[],"['1', '2', '3', '4']",1,2023.2.3,harveyvisual,2.1,[],8,0.75,
0,pause,0.4,None,None,None,0,23,23,23,,,,,,,,,,,,,N009,visual,1,[],"['1', '2', '3', '4']",1,2023.2.3,harveyvisual,2.1,[],8,0.75,
3,dot,0.3,['dot'],['density'],black,0,24,24,24,,,10.800209045410156,10.508454084396362,10.80857515335083,dot,"[0.06, 0.06, 0.1]","[[0.3835821938049364, -0.20766469641190155], [0.321707527308891, -0.4175939354614905], [0.1897943789354585, -0.2642367600490923]]",density,black,,,N009,visual,1,[],"['1', '2', '3', '4']",1,2023.2.3,harveyvisual,2.1,[],8,0.75,
0,pause,0.4,None,None,None,0,25,25,25,,,,,,,,,,,,,N009,visual,1,[],"['1', '2', '3', '4']",1,2023.2.3,harveyvisual,2.1,[],8,0.75,
3,dot,0.3,['dot'],['density'],black,0,26,26,26,,,11.500211954116821,11.208354949951172,11.508337020874023,dot,"[0.08, 0.1, 0.08]","[[-0.18534860244577742, 0.5145019772121514], [0.05660586421610542, 0.42456432010350276], [-0.11463700911578348, 0.31489985189225056]]",density,black,,,N009,visual,1,[],"['1', '2', '3', '4']",1,2023.2.3,harveyvisual,2.1,[],8,0.75,
0,pause,0.4,None,None,None,0,27,27,27,,,,,,,,,,,,,N009,visual,1,[],"['1', '2', '3', '4']",1,2023.2.3,harveyvisual,2.1,[],8,0.75,
3,dot,0.3,['dot'],['density'],black,0,28,28,28,,,12.200202941894531,11.908318996429443,12.208312034606934,dot,"[0.1, 0.06, 0.08]","[[-0.17592395544936776, 0.40510565415719324], [-0.30566154612550034, 0.21848422264492345], [-0.39822260978708685, 0.43144058222919995]]",density,black,,,N009,visual,1,[],"['1', '2', '3', '4']",1,2023.2.3,harveyvisual,2.1,[],8,0.75,
0,pause,0.4,None,None,None,0,29,29,29,,,,,,,,,,,,,N009,visual,1,[],"['1', '2', '3', '4']",1,2023.2.3,harveyvisual,2.1,[],8,0.75,
3,dot,0.3,['dot'],['density'],black,0,30,30,30,,,12.900211095809937,12.60831093788147,12.908306121826172,dot,"[0.06, 0.1, 0.08]","[[-0.15188894406744968, -0.195193050272512], [6.772800145782267e-05, -0.040844811103836635], [-0.2045693439875358, 0.0038115475482788236]]",density,black,,,N009,visual,1,[],"['1', '2', '3', '4']",1,2023.2.3,harveyvisual,2.1,[],8,0.75,
0,pause,0.4,None,None,None,0,31,31,31,,,,,,,,,,,,,N009,visual,1,[],"['1', '2', '3', '4']",1,2023.2.3,harveyvisual,2.1,[],8,0.75,
3,dot,0.3,['dot'],['density'],black,0,32,32,32,,,13.600202083587646,13.30829906463623,13.608272075653076,dot,"[0.1, 0.1, 0.08]","[[-0.10589639487257244, 0.35295021258352427], [0.12780035046084517, 0.3479378296372768], [0.013663645537612555, 0.51889388118174]]",density,black,,,N009,visual,1,[],"['1', '2', '3', '4']",1,2023.2.3,harveyvisual,2.1,[],8,0.75,
0,pause,0.4,None,None,None,0,33,33,33,,,,,,,,,,,,,N009,visual,1,[],"['1', '2', '3', '4']",1,2023.2.3,harveyvisual,2.1,[],8,0.75,
3,dot,0.3,['dot'],['density'],black,0,34,34,34,,,14.300225019454956,14.008278131484985,14.308264017105103,dot,"[0.08, 0.06, 0.06]","[[-0.32624451712468355, -0.43854848545497693], [-0.39409142490376414, -0.22516425170789148], [-0.152352104904091, -0.33204091051628687]]",density,black,,,N009,visual,1,[],"['1', '2', '3', '4']",1,2023.2.3,harveyvisual,2.1,[],8,0.75,
0,pause,0.4,None,None,None,0,35,35,35,,,,,,,,,,,,,N009,visual,1,[],"['1', '2', '3', '4']",1,2023.2.3,harveyvisual,2.1,[],8,0.75,
4,dot,0.3,['dot'],['density'],black,0,36,36,36,,,15.000221967697144,14.708259105682373,15.008255958557129,dot,"[0.1, 0.06, 0.08, 0.06]","[[-0.22375678750486633, 0.16938766720995918], [-0.03438308412182927, 0.2632029670309489], [0.15312837370161694, 0.1265605786946886], [-0.035433382102469414, 0.014828983441921377]]",density,black,,,N009,visual,1,[],"['1', '2', '3', '4']",1,2023.2.3,harveyvisual,2.1,[],8,0.75,
0,pause,0.4,None,None,None,0,37,37,37,,,,,,,,,,,,,N009,visual,1,[],"['1', '2', '3', '4']",1,2023.2.3,harveyvisual,2.1,[],8,0.75,
4,dot,0.3,['dot'],['density'],black,0,38,38,38,,,15.700202941894531,15.408300161361694,15.708261013031006,dot,"[0.1, 0.1, 0.1, 0.06]","[[-0.42715721775789556, -0.3806885655784049], [-0.5104054706627589, -0.18016651458941194], [-0.409412055521987, 0.008153849732111747], [-0.2456709064377862, -0.21492281530681134]]",density,black,,,N009,visual,1,[],"['1', '2', '3', '4']",1,2023.2.3,harveyvisual,2.1,[],8,0.75,
0,pause,0.4,None,None,None,0,39,39,39,,,,,,,,,,,,,N009,visual,1,[],"['1', '2', '3', '4']",1,2023.2.3,harveyvisual,2.1,[],8,0.75,
4,dot,0.3,['dot'],['density'],black,0,40,40,40,,,16.40020513534546,16.10830307006836,16.408273935317993,dot,"[0.06, 0.06, 0.08, 0.1]","[[0.041567121943163726, -0.05225384285034155], [-0.0805660347394345, -0.3501797602382367], [-0.1695568067340664, -0.0700859275369407], [0.1361950610904954, -0.2628340353233457]]",density,black,,,N009,visual,1,[],"['1', '2', '3', '4']",1,2023.2.3,harveyvisual,2.1,[],8,0.75,
0,pause,0.4,None,None,None,0,41,41,41,,,,,,,,,,,,,N009,visual,1,[],"['1', '2', '3', '4']",1,2023.2.3,harveyvisual,2.1,[],8,0.75,
4,dot,0.3,['dot'],['density'],black,0,42,42,42,,,17.100226163864136,16.808242082595825,17.10822606086731,dot,"[0.06, 0.1, 0.06, 0.08]","[[-0.46485289602757673, 0.3603628353310837], [-0.30733625211232357, 0.21626236973196436], [-0.38991578213366157, 0.024479253410336757], [-0.570234662048439, 0.14093512067028166]]",density,black,,,N009,visual,1,[],"['1', '2', '3', '4']",1,2023.2.3,harveyvisual,2.1,[],8,0.75,
0,pause,0.4,None,None,None,0,43,43,43,,,,,,,,,,,,,N009,visual,1,[],"['1', '2', '3', '4']",1,2023.2.3,harveyvisual,2.1,[],8,0.75,
4,dot,0.3,['dot'],['density'],black,0,44,44,44,,,17.80022406578064,17.50822114944458,17.808266162872314,dot,"[0.1, 0.06, 0.08, 0.08]","[[-0.03907102058372138, -0.1723346686752248], [0.13255167928633116, -0.03782047714335622], [0.2720101467217329, -0.23443565690461937], [0.07080951743106016, -0.35239766365090747]]",density,black,,,N009,visual,1,[],"['1', '2', '3', '4']",1,2023.2.3,harveyvisual,2.1,[],8,0.75,
0,pause,0.4,None,None,None,0,45,45,45,,,,,,,,,,,,,N009,visual,1,[],"['1', '2', '3', '4']",1,2023.2.3,harveyvisual,2.1,[],8,0.75,
4,dot,0.3,['dot'],['density'],black,0,46,46,46,,,18.50020408630371,18.208368062973022,18.50818705558777,dot,"[0.06, 0.1, 0.06, 0.1]","[[0.13421512820946938, -0.5336194340609706], [0.2622623892029083, -0.3575253733063478], [0.024533045116508903, -0.3376850530006363], [0.166924465117498, -0.0963569090623874]]",density,black,,,N009,visual,1,[],"['1', '2', '3', '4']",1,2023.2.3,harveyvisual,2.1,[],8,0.75,
0,pause,0.4,None,None,None,0,47,47,47,,,,,,,,,,,,,N009,visual,1,[],"['1', '2', '3', '4']",1,2023.2.3,harveyvisual,2.1,[],8,0.75,
5,dot,0.3,['dot'],['density'],black,0,48,48,48,,,19.200209140777588,18.90817093849182,19.208166122436523,dot,"[0.08, 0.08, 0.06, 0.08, 0.1]","[[-0.08906257038347729, 0.3326351968500321], [0.2173987091792188, 0.026220721131276364], [0.07996259445097068, 0.4821024141609844], [0.14345365083950706, 0.2501481494916038], [-0.03323208063638199, 0.08804517681276208]]",density,black,,,N009,visual,1,[],"['1', '2', '3', '4']",1,2023.2.3,harveyvisual,2.1,[],8,0.75,
0,pause,0.4,None,None,None,0,49,49,49,,,,,,,,,,,,,N009,visual,1,[],"['1', '2', '3', '4']",1,2023.2.3,harveyvisual,2.1,[],8,0.75,
5,dot,0.3,['dot'],['density'],black,0,50,50,50,,,19.90022110939026,19.60840606689453,19.908194065093994,dot,"[0.06, 0.08, 0.08, 0.1, 0.08]","[[-0.2338402938730933, 0.15846616122991625], [-0.3229678957369872, -0.0901175890533356], [-0.5034912146055804, 0.021834460539281654], [-0.23914892391179104, -0.28496604153387733], [-0.10132718886958789, -0.1172648190903725]]",density,black,,,N009,visual,1,[],"['1', '2', '3', '4']",1,2023.2.3,harveyvisual,2.1,[],8,0.75,
0,pause,0.4,None,None,None,0,51,51,51,,,,,,,,,,,,,N009,visual,1,[],"['1', '2', '3', '4']",1,2023.2.3,harveyvisual,2.1,[],8,0.75,
5,dot,0.3,['dot'],['density'],black,0,52,52,52,,,20.60022497177124,20.308141946792603,20.608091115951538,dot,"[0.1, 0.06, 0.08, 0.08, 0.1]","[[0.2947939438731228, -0.23060267152592065], [-0.16069394766121817, -0.3416383267983795], [0.17571447256805817, -0.04795497140357211], [-0.06398416024856234, -0.043165972544212804], [0.046845399773749824, -0.2436216536023896]]",density,black,,,N009,visual,1,[],"['1', '2', '3', '4']",1,2023.2.3,harveyvisual,2.1,[],8,0.75,
0,pause,0.4,None,None,None,0,53,53,53,,,,,,,,,,,,,N009,visual,1,[],"['1', '2', '3', '4']",1,2023.2.3,harveyvisual,2.1,[],8,0.75,
5,dot,0.3,['dot'],['density'],black,0,54,54,54,,,21.30021095275879,21.008135080337524,21.308269023895264,dot,"[0.1, 0.06, 0.1, 0.1, 0.1]","[[0.26736814946294957, 0.039639821311179], [0.3007085492035367, 0.3262250213434343], [0.4353907115448318, -0.11778011175670104], [0.4521497692138949, 0.1289853794543976], [0.1485908728023605, -0.12275462689891227]]",density,black,,,N009,visual,1,[],"['1', '2', '3', '4']",1,2023.2.3,harveyvisual,2.1,[],8,0.75,
0,pause,0.4,None,None,None,0,55,55,55,,,,,,,,,,,,,N009,visual,1,[],"['1', '2', '3', '4']",1,2023.2.3,harveyvisual,2.1,[],8,0.75,
5,dot,0.3,['dot'],['density'],black,0,56,56,56,,,22.000208139419556,21.708121061325073,22.00824809074402,dot,"[0.08, 0.1, 0.1, 0.06, 0.08]","[[-0.16893136043895146, -0.20127892763881453], [-0.5727216740452047, -0.07682091551650742], [-0.343702592036276, -0.060533526953518955], [-0.5038383983260774, 0.15268268748871192], [-0.379488354443274, -0.2704310218069364]]",density,black,,,N009,visual,1,[],"['1', '2', '3', '4']",1,2023.2.3,harveyvisual,2.1,[],8,0.75,
0,pause,0.4,None,None,None,0,57,57,57,,,,,,,,,,,,,N009,visual,1,[],"['1', '2', '3', '4']",1,2023.2.3,harveyvisual,2.1,[],8,0.75,
5,dot,0.3,['dot'],['density'],white,0,58,58,58,,,22.700207948684692,22.408120155334473,22.70822811126709,dot,"[0.1, 0.1, 0.06, 0.06, 0.06]","[[0.33660852042816714, -0.448935078303268], [0.16237328695183198, -0.028906365321866932], [0.003149504206933677, -0.1844463225559013], [0.4065340125681681, -0.22407981263326276], [0.20027486954239768, -0.2346061295568129]]",density,white,,,N009,visual,1,[],"['1', '2', '3', '4']",1,2023.2.3,harveyvisual,2.1,[],8,0.75,
0,pause,0.4,None,None,None,0,59,59,59,,,,,,,,,,,1,22.797643899917603,N009,visual,1,[],"['1', '2', '3', '4']",1,2023.2.3,harveyvisual,2.1,[],8,0.75,
6,dot,0.3,['dot'],['density'],black,0,60,60,60,,,23.40022897720337,23.108071088790894,23.408180952072144,dot,"[0.08, 0.1, 0.1, 0.08, 0.1, 0.06]","[[0.26568550625605564, -0.48823100126060537], [0.030589778490880962, -0.34307155488476027], [0.2920158589989485, -0.005481777194348812], [0.4969139129819881, -0.3034402107212153], [0.2924968692334099, -0.2393606426967254], [0.09404279540557291, -0.1505005030192783]]",density,black,,,N009,visual,1,[],"['1', '2', '3', '4']",1,2023.2.3,harveyvisual,2.1,[],8,0.75,
0,pause,0.4,None,None,None,0,61,61,61,,,,,,,,,,,,,N009,visual,1,[],"['1', '2', '3', '4']",1,2023.2.3,harveyvisual,2.1,[],8,0.75,
6,dot,0.3,['dot'],['density'],black,0,62,62,62,,,24.100221157073975,23.80819606781006,24.108031034469604,dot,"[0.08, 0.1, 0.1, 0.08, 0.1, 0.1]","[[-0.11553075830627273, 0.47698778124428043], [-0.1112787518129194, 0.10456141670764223], [-0.48855705683845824, 0.21494657582805063], [-0.2538299919008863, 0.2532006538804931], [-0.3271837865365474, 0.4662148945367939], [0.006792750312598743, 0.27345996435494924]]",density,black,,,N009,visual,1,[],"['1', '2', '3', '4']",1,2023.2.3,harveyvisual,2.1,[],8,0.75,
0,pause,0.4,None,None,None,0,63,63,63,,,,,,,,,,,,,N009,visual,1,[],"['1', '2', '3', '4']",1,2023.2.3,harveyvisual,2.1,[],8,0.75,
6,dot,0.3,['dot'],['density'],black,0,64,64,64,,,24.80021095275879,24.508157968521118,24.82469916343689,dot,"[0.06, 0.08, 0.1, 0.06, 0.06, 0.08]","[[0.4249538099490167, -0.025354946498656116], [0.305005901383002, 0.397829445973664], [0.04954868862097969, 0.09819418046919175], [0.452299537631068, 0.2574679639516015], [0.21081936584905453, -0.08903757916275208], [0.27954488569289765, 0.14103100078867375]]",density,black,,,N009,visual,1,[],"['1', '2', '3', '4']",1,2023.2.3,harveyvisual,2.1,[],8,0.75,
0,pause,0.4,None,None,None,0,65,65,65,,,,,,,,,,,,,N009,visual,1,[],"['1', '2', '3', '4']",1,2023.2.3,harveyvisual,2.1,[],8,0.75,
6,dot,0.3,['dot'],['density'],black,0,66,66,66,,,25.5002019405365,25.208137035369873,25.507982969284058,dot,"[0.06, 0.08, 0.1, 0.06, 0.06, 0.06]","[[0.0015484977009578463, -0.37153509484940705], [-0.24631791352898516, -0.16063896847060222], [-0.21037316856202723, -0.37491302730087106], [-0.14520134419833938, 0.05228402714841561], [-0.41979900021501537, -0.27073368115662844], [-0.020720382871846178, -0.14076137757070492]]",density,black,,,N009,visual,1,[],"['1', '2', '3', '4']",1,2023.2.3,harveyvisual,2.1,[],8,0.75,
0,pause,0.4,None,None,None,0,67,67,67,,,,,,,,,,,,,N009,visual,1,[],"['1', '2', '3', '4']",1,2023.2.3,harveyvisual,2.1,[],8,0.75,
6,dot,0.3,['dot'],['density'],black,0,68,68,68,,,26.200216054916382,25.908025979995728,26.207901000976562,dot,"[0.1, 0.1, 0.1, 0.06, 0.06, 0.1]","[[0.0015484977009578463, -0.37153509484940705], [-0.24631791352898516, -0.16063896847060222], [-0.21037316856202723, -0.37491302730087106], [-0.14520134419833938, 0.05228402714841561], [-0.41979900021501537, -0.27073368115662844], [-0.020720382871846178, -0.14076137757070492]]",density,black,,,N009,visual,1,[],"['1', '2', '3', '4']",1,2023.2.3,harveyvisual,2.1,[],8,0.75,
0,pause,0.4,None,None,None,0,69,69,69,,,,,,,,,,,,,N009,visual,1,[],"['1', '2', '3', '4']",1,2023.2.3,harveyvisual,2.1,[],8,0.75,
6,dot,0.3,['dot'],['density'],black,0,70,70,70,,,26.900202989578247,26.60812497138977,26.908134937286377,dot,"[0.08, 0.06, 0.08, 0.1, 0.08, 0.08]","[[0.1382403832049451, 0.0462086450304607], [-0.07534018949214154, -0.3274433807795599], [0.3332171610134826, -0.14895102818546319], [0.22614943412716124, -0.3322834867125916], [-0.0756450994425101, -0.005640117700353421], [0.0938048843888254, -0.16909843217532775]]",density,black,,,N009,visual,1,[],"['1', '2', '3', '4']",1,2023.2.3,harveyvisual,2.1,[],8,0.75,
0,pause,0.4,None,None,None,0,71,71,71,,,,,,,,,,,,,N009,visual,1,[],"['1', '2', '3', '4']",1,2023.2.3,harveyvisual,2.1,[],8,0.75,
7,dot,0.3,['dot'],['density'],black,0,72,72,72,,,27.60021996498108,27.307974100112915,27.607969045639038,dot,"[0.1, 0.06, 0.1, 0.08, 0.08, 0.08, 0.08]","[[-0.3423230189937584, -0.41219609722212536], [-0.1182323968952694, -0.35552357509158045], [-0.4111032443031386, -0.006313161275750597], [-0.5095560862941229, -0.2529410328503813], [-0.2588176969072235, -0.18091026219072012], [-0.0026253510642934245, -0.12197054074907589], [-0.16586784627322051, 0.0941069694468023]]",density,black,,,N009,visual,1,[],"['1', '2', '3', '4']",1,2023.2.3,harveyvisual,2.1,[],8,0.75,
0,pause,0.4,None,None,None,0,73,73,73,,,,,,,,,,,,,N009,visual,1,[],"['1', '2', '3', '4']",1,2023.2.3,harveyvisual,2.1,[],8,0.75,
7,dot,0.3,['dot'],['density'],black,0,74,74,74,,,28.30020499229431,28.00814700126648,28.30814814567566,dot,"[0.08, 0.1, 0.06, 0.1, 0.1, 0.06, 0.08]","[[0.4852053974746821, 0.2414638673891567], [0.4489127705046299, 0.011725618337583463], [0.18065050592779294, 0.3526250807613559], [0.03625639584007868, 0.1261309995663498], [0.1794309074695897, -0.0624577020416761], [0.2856641480650803, 0.17770493422509798], [0.3124387752689665, -0.21816880331392838]]",density,black,,,N009,visual,1,[],"['1', '2', '3', '4']",1,2023.2.3,harveyvisual,2.1,[],8,0.75,
0,pause,0.4,None,None,None,0,75,75,75,,,,,,,,,,,,,N009,visual,1,[],"['1', '2', '3', '4']",1,2023.2.3,harveyvisual,2.1,[],8,0.75,
7,dot,0.3,['dot'],['density'],black,0,76,76,76,,,29.000225067138672,28.707950115203857,29.00819206237793,dot,"[0.06, 0.08, 0.1, 0.06, 0.1, 0.08, 0.1]","[[-0.3025445156539714, -0.42280529123536587], [0.12162933753582021, -0.2851722644810181], [-0.2753205641105948, -0.038672864930592576], [-0.4202189534315163, -0.18742991959605093], [-0.15636117447925973, -0.27217203193286355], [-0.09967880665522989, -0.47242523529006747], [-0.06261398545311019, -0.08879309989794046]]",density,black,,,N009,visual,1,[],"['1', '2', '3', '4']",1,2023.2.3,harveyvisual,2.1,[],8,0.75,
0,pause,0.4,None,None,None,0,77,77,77,,,,,,,,,,,,,N009,visual,1,[],"['1', '2', '3', '4']",1,2023.2.3,harveyvisual,2.1,[],8,0.75,
7,dot,0.3,['dot'],['density'],black,0,78,78,78,,,29.70022201538086,29.407926082611084,29.708059072494507,dot,"[0.08, 0.1, 0.08, 0.1, 0.06, 0.08, 0.08]","[[-0.026372969700101213, 0.05085620782211805], [-0.16304282038196347, -0.3616501386780019], [-0.013762327205412121, -0.14910430285435466], [0.14729449770710015, -0.3647544547161306], [-0.22494517313234175, -0.12035103032643314], [-0.36514670174418407, -0.33057163197754225], [0.21417125919861074, -0.06627923590771367]]",density,black,,,N009,visual,1,[],"['1', '2', '3', '4']",1,2023.2.3,harveyvisual,2.1,[],8,0.75,
0,pause,0.4,None,None,None,0,79,79,79,,,,,,,,,,,,,N009,visual,1,[],"['1', '2', '3', '4']",1,2023.2.3,harveyvisual,2.1,[],8,0.75,
7,dot,0.3,['dot'],['density'],black,0,80,80,80,,,30.400216102600098,30.108060121536255,30.407931089401245,dot,"[0.06, 0.08, 0.08, 0.1, 0.08, 0.06, 0.06]","[[0.12430361198122393, -0.484697593056103], [0.0493599320108737, -0.036540600477799993], [0.2536650008125765, -0.05314613827093128], [-0.10908149692518246, -0.38401305955505927], [0.3510411480849886, -0.3949608705840701], [0.16732256025271752, -0.2817377092689904], [0.4277002215428168, -0.1937739732965619]]",density,black,,,N009,visual,1,[],"['1', '2', '3', '4']",1,2023.2.3,harveyvisual,2.1,[],8,0.75,
0,pause,0.4,None,None,None,0,81,81,81,,,,,,,,,,,,,N009,visual,1,[],"['1', '2', '3', '4']",1,2023.2.3,harveyvisual,2.1,[],8,0.75,
7,dot,0.3,['dot'],['density'],black,0,82,82,82,,,31.1002140045166,30.80793309211731,31.10805606842041,dot,"[0.08, 0.1, 0.1, 0.1, 0.1, 0.1, 0.06]","[[0.12902113605384963, -0.35167066519854956], [0.3838909825822851, -0.05572740120406059], [-0.02857767273637445, 0.1549795872955612], [0.19333287999408408, 0.10698923431715611], [-0.08146847087507005, -0.06064403559207536], [0.18020694687254563, -0.15550905334431223], [-0.07225335190945896, -0.28606481362007624]]",density,black,,,N009,visual,1,[],"['1', '2', '3', '4']",1,2023.2.3,harveyvisual,2.1,[],8,0.75,
0,pause,0.4,None,None,None,0,83,83,83,,,,,,,,,,,,,N009,visual,1,[],"['1', '2', '3', '4']",1,2023.2.3,harveyvisual,2.1,[],8,0.75,
8,dot,0.3,['dot'],['density'],black,0,84,84,84,,,31.800225019454956,31.508039951324463,31.80789804458618,dot,"[0.1, 0.08, 0.06, 0.1, 0.08, 0.08, 0.1, 0.06]","[[0.3364035831170529, 0.12390393923093283], [0.4336864367158133, 0.35981147627037974], [0.06743640335689947, 0.0759148581953004], [-0.079559988999742, 0.39531058321326396], [0.21309668101319243, 0.48855257098982907], [0.23478258025928536, -0.08446837776908474], [-0.12854716397353463, 0.17339976512773136], [0.14965136140762586, 0.26897313353206964]]",density,black,,,N009,visual,1,[],"['1', '2', '3', '4']",1,2023.2.3,harveyvisual,2.1,[],8,0.75,
0,pause,0.4,None,None,None,0,85,85,85,,,,,,,,,,,,,N009,visual,1,[],"['1', '2', '3', '4']",1,2023.2.3,harveyvisual,2.1,[],8,0.75,
8,dot,0.3,['dot'],['density'],black,0,86,86,86,,,32.50022602081299,32.20781898498535,32.50787115097046,dot,"[0.08, 0.06, 0.08, 0.1, 0.08, 0.1, 0.08, 0.06]","[[0.4359105889063985, -0.17362457700912998], [-0.10421753759268779, -0.0599030042764737], [0.3870326705858601, 0.24174009796940588], [0.2566713073165989, 0.014561377540278508], [0.2306797840234149, -0.3263374489921181], [0.47690301692068965, 0.04601699051563034], [0.08674944532705724, -0.15383855565976665], [0.03609124925759635, 0.09790267139194009]]",density,black,,,N009,visual,1,[],"['1', '2', '3', '4']",1,2023.2.3,harveyvisual,2.1,[],8,0.75,
0,pause,0.4,None,None,None,0,87,87,87,,,,,,,,,,,,,N009,visual,1,[],"['1', '2', '3', '4']",1,2023.2.3,harveyvisual,2.1,[],8,0.75,
8,dot,0.3,['dot'],['density'],black,0,88,88,88,,,33.20022106170654,32.90779995918274,33.207863092422485,dot,"[0.06, 0.08, 0.1, 0.1, 0.08, 0.06, 0.08, 0.06]","[[0.4359105889063985, -0.17362457700912998], [-0.10421753759268779, -0.0599030042764737], [0.3870326705858601, 0.24174009796940588], [0.2566713073165989, 0.014561377540278508], [0.2306797840234149, -0.3263374489921181], [0.47690301692068965, 0.04601699051563034], [0.08674944532705724, -0.15383855565976665], [0.03609124925759635, 0.09790267139194009]]",density,black,,,N009,visual,1,[],"['1', '2', '3', '4']",1,2023.2.3,harveyvisual,2.1,[],8,0.75,
0,pause,0.4,None,None,None,0,89,89,89,,,,,,,,,,,,,N009,visual,1,[],"['1', '2', '3', '4']",1,2023.2.3,harveyvisual,2.1,[],8,0.75,
8,dot,0.3,['dot'],['density'],black,0,90,90,90,,,33.9002161026001,33.60776901245117,33.90785503387451,dot,"[0.1, 0.06, 0.1, 0.06, 0.06, 0.06, 0.06, 0.08]","[[0.3129921899656287, 0.2226642157048143], [0.41298599633021416, -0.001766323215076977], [0.013785601627645026, 0.39275307090924344], [-0.009407606244017683, 0.02333367620517349], [0.20163499737495916, -0.08731087547331118], [0.31235423233837933, 0.42762820752661124], [0.10705959187470679, 0.21318577255187057], [-0.13233007013452783, 0.20605257250075132]]",density,black,,,N009,visual,1,[],"['1', '2', '3', '4']",1,2023.2.3,harveyvisual,2.1,[],8,0.75,
0,pause,0.4,None,None,None,0,91,91,91,,,,,,,,,,,,,N009,visual,1,[],"['1', '2', '3', '4']",1,2023.2.3,harveyvisual,2.1,[],8,0.75,
8,dot,0.3,['dot'],['density'],white,0,92,92,92,,,34.600213050842285,34.30781292915344,34.60786509513855,dot,"[0.08, 0.1, 0.08, 0.06, 0.08, 0.06, 0.1, 0.1]","[[-0.20800618360187478, -0.297823595680997], [0.0208603014005115, -0.46570844314230314], [-0.33947416747489917, -0.46414587466331364], [-0.2657502487478435, -0.0024929956194721667], [-0.07971030345085922, -0.1368829558420488], [0.12327021606192319, -0.12614842517591618], [-0.10944837079043952, 0.12795643756026515], [-0.4050023469846894, -0.16101207847090707]]",density,white,,,N009,visual,1,[],"['1', '2', '3', '4']",1,2023.2.3,harveyvisual,2.1,[],8,0.75,
0,pause,0.4,None,None,None,0,93,93,93,,,,,,,,,,,1,34.903018951416016,N009,visual,1,[],"['1', '2', '3', '4']",1,2023.2.3,harveyvisual,2.1,[],8,0.75,
8,dot,0.3,['dot'],['density'],white,0,94,94,94,,,35.30021905899048,35.00776195526123,35.307673931121826,dot,"[0.06, 0.06, 0.08, 0.06, 0.08, 0.1, 0.06, 0.06]","[[0.2695774744445919, -0.006239189610034271], [0.562582848369008, 0.10338967896652898], [0.24075709842543627, 0.2415297589697605], [0.16944247952526825, 0.43473569867318385], [0.009973801462114143, 0.2622623098226203], [0.4378981685404615, 0.30984992123658367], [0.345623627049791, -0.19390063473497438], [0.01218861403819752, 6.35764658527089e-05]]",density,white,,,N009,visual,1,[],"['1', '2', '3', '4']",1,2023.2.3,harveyvisual,2.1,[],8,0.75,
0,pause,0.4,None,None,None,0,95,95,95,,,,,,,,,,,1,35.52009582519531,N009,visual,1,[],"['1', '2', '3', '4']",1,2023.2.3,harveyvisual,2.1,[],8,0.75,
9,dot,0.3,['dot'],['density'],black,0,96,96,96,,,36.00021195411682,35.70774698257446,36.007643938064575,dot,"[0.08, 0.08, 0.06, 0.08, 0.1, 0.08, 0.1, 0.1, 0.1]","[[-0.06218673389315922, -0.4689115343027075], [0.3660477402554353, -0.15396192139437054], [0.1401329754895462, -0.14262156541192547], [0.12293598154832706, -0.38779640022673934], [0.42645158233284447, -0.3607859009111275], [-0.06238477126329685, -0.2564764349502154], [-0.2584688277182379, -0.29964401945706215], [-0.11312192996032899, -0.05439345917292958], [0.19096873654163896, 0.1321853744035435]]",density,black,,,N009,visual,1,[],"['1', '2', '3', '4']",1,2023.2.3,harveyvisual,2.1,[],8,0.75,
0,pause,0.4,None,None,None,0,97,97,97,,,,,,,,,,,,,N009,visual,1,[],"['1', '2', '3', '4']",1,2023.2.3,harveyvisual,2.1,[],8,0.75,
9,dot,0.3,['dot'],['density'],black,0,98,98,98,,,36.70022511482239,36.40772008895874,36.724360942840576,dot,"[0.08, 0.1, 0.08, 0.08, 0.08, 0.06, 0.08, 0.1, 0.06]","[[-0.25982930089867384, 0.41046177320377714], [0.2391912210628672, 0.4152301159030731], [-0.011899047454085643, 0.5103750441914148], [0.15826907621474634, 0.20577518054892585], [-0.29033424199965224, 0.2058356795488901], [-0.056026696670660174, 0.08152775180209879], [-0.32571421803823364, -0.002973879155612714], [0.39820859476685, 0.29236875228581105], [-0.06367065787951752, 0.28966088639372295]]",density,black,,,N009,visual,1,[],"['1', '2', '3', '4']",1,2023.2.3,harveyvisual,2.1,[],8,0.75,
0,pause,0.4,None,None,None,0,99,99,99,,,,,,,,,,,,,N009,visual,1,[],"['1', '2', '3', '4']",1,2023.2.3,harveyvisual,2.1,[],8,0.75,
9,dot,0.3,['dot'],['density'],black,0,100,100,100,,,37.40021800994873,37.10768914222717,37.40759015083313,dot,"[0.1, 0.08, 0.1, 0.08, 0.06, 0.06, 0.06, 0.06, 0.08]","[[0.4433726728065019, 0.22320554513198193], [0.1026133663954636, -0.050786049565613584], [0.20022034484770485, 0.4412403735117007], [0.45250313802570796, 0.010227273383000257], [0.037500571895399265, 0.24935285809920393], [0.23874579090912346, 0.11348512554989887], [0.25013734113836505, -0.23502010549412247], [0.4599692436892986, -0.2536974682823114], [0.04694731086691962, -0.2548367103293993]]",density,black,,,N009,visual,1,[],"['1', '2', '3', '4']",1,2023.2.3,harveyvisual,2.1,[],8,0.75,
0,pause,0.4,None,None,None,0,101,101,101,,,,,,,,,,,,,N009,visual,1,[],"['1', '2', '3', '4']",1,2023.2.3,harveyvisual,2.1,[],8,0.75,
9,dot,0.3,['dot'],['density'],black,0,102,102,102,,,38.10023093223572,37.80765700340271,38.12432408332825,dot,"[0.08, 0.1, 0.1, 0.06, 0.08, 0.1, 0.08, 0.08, 0.08]","[[0.17250841666444466, -0.5173949811024123], [-0.03744062107829021, -0.3895067986023326], [0.30010350549611725, -0.35742528465303014], [0.33064876224298684, -0.08057424749072183], [-0.16743636965090838, -0.09291053242622109], [0.1226827020066543, -0.24711763375004436], [0.047527772487498496, -0.037432207059122605], [0.20928928941955194, 0.09999474740890861], [-0.30040876562534896, -0.42726910911839744]]",density,black,,,N009,visual,1,[],"['1', '2', '3', '4']",1,2023.2.3,harveyvisual,2.1,[],8,0.75,
0,pause,0.4,None,None,None,0,103,103,103,,,,,,,,,,,,,N009,visual,1,[],"['1', '2', '3', '4']",1,2023.2.3,harveyvisual,2.1,[],8,0.75,
9,dot,0.3,['dot'],['density'],black,0,104,104,104,,,38.80020713806152,38.50765109062195,38.82430100440979,dot,"[0.08, 0.1, 0.08, 0.1, 0.1, 0.08, 0.1, 0.08, 0.1]","[[-0.15654783233563613, 0.5456880468186037], [-0.24757731968740795, 0.34117179271889175], [0.237608115185398, 0.5379153628426676], [0.0469559873873498, 0.0609843963705915], [0.17872629641391088, 0.30721368784738284], [-0.014663874177430473, 0.385293302856951], [-0.1034840675008618, 0.1993866575147459], [0.37552485507684036, 0.26074226948317425], [-0.1631567374159006, -0.0021534685146951615]]",density,black,,,N009,visual,1,[],"['1', '2', '3', '4']",1,2023.2.3,harveyvisual,2.1,[],8,0.75,
0,pause,0.4,None,None,None,0,105,105,105,,,,,,,,,,,,,N009,visual,1,[],"['1', '2', '3', '4']",1,2023.2.3,harveyvisual,2.1,[],8,0.75,
9,dot,0.3,['dot'],['density'],black,0,106,106,106,,,39.50022792816162,39.207656145095825,39.52432608604431,dot,"[0.08, 0.08, 0.08, 0.08, 0.08, 0.08, 0.06, 0.1, 0.1]","[[0.31750259908069645, 0.09103062301409195], [-0.10814993995151222, -0.14883262012051235], [0.2615101699546999, -0.13245952524223892], [0.014531427323725789, 0.3887544696515085], [-0.1117096847062306, 0.09593752649312724], [0.07810272484559946, -0.019955638642360052], [-0.26173373106631487, 0.2840804484106463], [0.4370020372247476, 0.2669512546191977], [0.11115841416421544, 0.18722161068425575]]",density,black,,,N009,visual,1,[],"['1', '2', '3', '4']",1,2023.2.3,harveyvisual,2.1,[],8,0.75,
0,pause,0.4,None,None,None,0,107,107,107,,,,,,,,,,,,,N009,visual,1,[],"['1', '2', '3', '4']",1,2023.2.3,harveyvisual,2.1,[],8,0.75,
20,dot,0.3,['dot'],['density'],white,0,108,108,108,,,40.20021295547485,39.92431592941284,40.224323987960815,dot,"[0.06, 0.08, 0.1, 0.06, 0.08, 0.1, 0.06, 0.06, 0.06, 0.08, 0.08, 0.08, 0.1, 0.08, 0.1, 0.1, 0.08, 0.1, 0.1, 0.08]","[[0.36616162248981876, -0.25487142606655405], [-0.4096585631111076, -0.06602250358166345], [-0.2731321874916605, 0.10502526681457358], [-0.31253980542503845, -0.4175970423528476], [0.11036082642703793, 0.019291894674851373], [-0.30117755848257205, 0.36144896563453466], [0.3354466148711994, 0.3327418960571834], [0.5804977778035875, -0.1529920210531929], [0.1557492906978707, -0.23486906646837524], [-0.5818200802256136, 0.06636092806782584], [-0.015459903340959702, -0.48456215359850374], [0.511637288926522, 0.24115251914516567], [0.1458229185608163, 0.208309001970444], [0.05282397182726761, 0.4698110737026143], [-0.11978867468488519, 0.5921021964167019], [-0.11276306124065266, -0.2681680835178521], [-0.5054073028058533, -0.26038620629397125], [0.32228528525061584, -0.05905030505113146], [0.2667984680722614, 0.5329582185830377], [-0.0774511790869612, 0.1503101612259533]]",density,white,,,N009,visual,1,[],"['1', '2', '3', '4']",1,2023.2.3,harveyvisual,2.1,[],8,0.75,
0,pause,0.4,None,None,None,0,109,109,109,,,,,,,,,,,1,40.28769302368164,N009,visual,1,[],"['1', '2', '3', '4']",1,2023.2.3,harveyvisual,2.1,[],8,0.75,
20,dot,0.3,['dot'],['density'],black,0,110,110,110,,,40.90020799636841,40.624269008636475,40.924253940582275,dot,"[0.06, 0.08, 0.1, 0.1, 0.08, 0.06, 0.08, 0.1, 0.08, 0.06, 0.08, 0.08, 0.08, 0.06, 0.06, 0.1, 0.1, 0.08, 0.1, 0.08]","[[-0.4989748202926985, -0.22550237744246926], [0.49697459638389685, 0.3122117461385867], [-0.2234154866961856, -0.29861607187817074], [-0.2527549727808865, -0.4964350702436215], [0.15928770922643287, -0.5311022419514524], [0.14187530763697265, 0.3796996861216595], [0.2856918464423497, -0.20687232438817743], [-0.4034917623737437, 0.4495477796950429], [-0.049118154990812846, 0.420403870240718], [0.09233027046245335, -0.10149113689905692], [-0.4839378991420239, 0.06755935438793242], [-0.25536993856401785, 0.11373159399981814], [-0.24145614985928004, 0.34016958256793384], [0.035022514757224066, -0.2963295329822958], [0.4310583805400586, 0.0791091137801927], [0.36610270821231305, -0.3952368275745125], [-0.07146779185859042, 0.1760821909304322], [0.5479842774776057, -0.1492711287308598], [-0.35599384831723707, -0.07741309881785347], [0.3237901720109533, 0.4593694295571411]]",density,black,,,N009,visual,1,[],"['1', '2', '3', '4']",1,2023.2.3,harveyvisual,2.1,[],8,0.75,
0,pause,0.4,None,None,None,0,111,111,111,,,,,,,,,,,,,N009,visual,1,[],"['1', '2', '3', '4']",1,2023.2.3,harveyvisual,2.1,[],8,0.75,
20,dot,0.3,['dot'],['density'],black,0,112,112,112,,,41.600234031677246,41.32424592971802,41.624244928359985,dot,"[0.1, 0.1, 0.06, 0.06, 0.06, 0.1, 0.1, 0.06, 0.08, 0.06, 0.06, 0.08, 0.1, 0.06, 0.1, 0.06, 0.08, 0.06, 0.06, 0.1]","[[-0.2867838884422119, -0.47287343964233836], [0.36244349241007345, 0.46385952061006086], [-0.5137036106139158, 0.2741891620258], [0.12377054960028722, -0.27236272851177135], [0.024837550620701587, 0.49615436487399356], [0.17378163441939354, 0.14706987377172864], [-0.16358722026845202, 0.3311811639771879], [-0.5930212724360522, -0.05017706068942744], [0.37575017204826433, 0.031089853662946088], [-0.44457207941725496, -0.3385691843380248], [-0.18561009078099133, 0.02111432679655212], [0.5848096795237451, -0.04136715858136554], [0.421173436221682, -0.38465197701523735], [-0.033115996376396284, -0.11380958639465832], [-0.015478958437416646, -0.5315408514714255], [-0.21622653798551145, 0.5405700268664022], [0.5584888335914203, 0.15015429516411724], [-0.40130969002168143, -0.1357794900476022], [-0.16107466351487298, -0.2679411883970005], [0.025998632224948137, 0.2735939826544507]]",density,black,,,N009,visual,1,[],"['1', '2', '3', '4']",1,2023.2.3,harveyvisual,2.1,[],8,0.75,
0,pause,0.4,None,None,None,0,113,113,113,,,,,,,,,,,,,N009,visual,1,[],"['1', '2', '3', '4']",1,2023.2.3,harveyvisual,2.1,[],8,0.75,
20,dot,0.3,['dot'],['density'],white,0,114,114,114,,,42.30022692680359,42.02426099777222,42.32421803474426,dot,"[0.08, 0.1, 0.06, 0.08, 0.1, 0.08, 0.08, 0.06, 0.06, 0.08, 0.1, 0.08, 0.06, 0.1, 0.06, 0.1, 0.06, 0.08, 0.08, 0.06]","[[0.31141136950269066, -0.3497779900635246], [0.33812817867940925, 0.3883487385087818], [-0.4632489813727634, 0.10987766891485784], [-0.5617769268289137, -0.224625932961688], [0.2861350708515481, -0.08101348478165105], [0.03580860759395421, 0.18632524762020242], [-0.21008986815683467, 0.196345569590182], [0.49235639494624894, 0.1689891012402437], [-0.021901366979138692, -0.6026703190178645], [0.20006011060381135, -0.5555095292254232], [0.006435422883990682, -0.06057155341050169], [0.07485855696883059, -0.37207613022902963], [0.48366898907655054, -0.2006807293044282], [-0.3746963433456469, 0.30801082570185356], [-0.22951947687029367, 0.4715947501745973], [0.21459648854164393, 0.5539958844462428], [0.03387880521773046, 0.4428864446205746], [-0.3215409851183972, -0.48335380905809533], [-0.14845537996757824, -0.32816671230311145], [-0.34007341387118056, -0.22537920931521338]]",density,white,,,N009,visual,1,[],"['1', '2', '3', '4']",1,2023.2.3,harveyvisual,2.1,[],8,0.75,
0,pause,0.4,None,None,None,0,115,115,115,,,,,,,,,,,1,42.46689701080322,N009,visual,1,[],"['1', '2', '3', '4']",1,2023.2.3,harveyvisual,2.1,[],8,0.75,
20,dot,0.3,['dot'],['density'],white,0,116,116,116,,,43.000208139419556,42.7242169380188,43.02421498298645,dot,"[0.1, 0.1, 0.1, 0.08, 0.1, 0.06, 0.08, 0.06, 0.06, 0.06, 0.1, 0.08, 0.1, 0.1, 0.08, 0.1, 0.1, 0.08, 0.1, 0.08]","[[0.0780126453867257, 0.5941300426997145], [0.09263957765209141, 0.3548800981717767], [-0.5407452330147955, -0.1398664037048179], [0.5564726138890773, 0.2180960823914871], [0.5501830384344127, -0.2133398228366219], [0.41279719628639133, -0.08184718352863979], [0.40137620534775376, -0.4235700572718896], [-0.39091518418448423, -0.33457962357645255], [0.1605894261520282, 0.1720483769421468], [-0.1459937406661217, -0.35193977555665446], [0.596735083780307, -0.0053106378899816925], [-0.4511049269784305, 0.16955645234161815], [-0.1559891730123419, 0.16767579108959496], [0.07632254984575504, -0.4659686661248117], [0.3652653481379935, 0.13253621123904474], [0.028558982335173733, 0.013637540415699312], [-0.03395970823785477, -0.17141222790621236], [-0.3062680549132021, -0.07728680225165724], [0.2976673075341445, 0.37421816566287947], [-0.3025772867436355, 0.3895303564883362]]",density,white,,,N009,visual,1,[],"['1', '2', '3', '4']",1,2023.2.3,harveyvisual,2.1,[],8,0.75,
0,pause,0.4,None,None,None,0,117,117,117,,,,,,,,,,,1,43.13997483253479,N009,visual,1,[],"['1', '2', '3', '4']",1,2023.2.3,harveyvisual,2.1,[],8,0.75,
20,dot,0.3,['dot'],['density'],black,0,118,118,118,,,43.70021414756775,43.42422294616699,43.724337100982666,dot,"[0.06, 0.08, 0.06, 0.06, 0.1, 0.06, 0.1, 0.06, 0.06, 0.06, 0.08, 0.08, 0.08, 0.06, 0.1, 0.08, 0.1, 0.08, 0.06, 0.1]","[[-0.5506007087430572, 0.026266816479405486], [-0.3974556126544011, 0.1458875738918738], [0.22346607715724598, 0.2220634117686794], [-0.15776622556067726, 0.21920973032431346], [-0.04361788813836498, -0.11180629614951337], [0.1598554959119245, 0.4230930557953786], [0.5328095456785648, 0.06584099620250827], [-0.37023279042336177, 0.4680444061494296], [0.09003545648883227, -0.49538209595096017], [0.47174434158299017, -0.2724483975656585], [0.022788677339888652, -0.3110543068194193], [-0.52999955855061, -0.27784353905815123], [0.43501334805688063, 0.2320331469256231], [-0.22943851533322718, 0.04132021207643366], [0.3148734620357768, -0.5089534610486102], [-0.3050769167480934, -0.4279026572134121], [-0.10089139997270935, -0.5827246825008763], [0.2850377177323803, -0.0717839430287111], [0.25014796407577, -0.31174040146976356], [-0.3398062587759325, -0.22543418944606047]]",density,black,,,N009,visual,1,[],"['1', '2', '3', '4']",1,2023.2.3,harveyvisual,2.1,[],8,0.75,
0,pause,0.4,None,None,None,0,119,119,119,,,,,,,,,,,,,N009,visual,1,[],"['1', '2', '3', '4']",1,2023.2.3,harveyvisual,2.1,[],8,0.75,
20,dot,0.3,['dot'],['density'],black,0,120,120,120,,,44.40022897720337,44.12433314323425,44.424176931381226,dot,"[0.1, 0.06, 0.06, 0.06, 0.08, 0.08, 0.08, 0.08, 0.08, 0.08, 0.06, 0.06, 0.08, 0.08, 0.06, 0.06, 0.06, 0.06, 0.1, 0.1]","[[0.4568556669483369, -0.1422905557679247], [-0.3363379090492068, 0.38703655267900716], [-0.2945513255604798, -0.06698968157090007], [-0.02208867931407754, 0.19381310675398522], [0.4057527222252625, 0.43002189244994243], [-0.18581464785713742, -0.5425888580070266], [0.438859049073553, -0.38193295137376965], [-0.5996692489257073, 0.07730508338529651], [0.5847088665812427, 0.06340703986432114], [0.13821180849399417, -0.17847342248123632], [-0.5108797482377037, -0.18422057780219167], [0.4897096189719278, 0.259670927897999], [0.3041778700243669, 0.13096587764379508], [-0.10074076114375341, -0.08493658059560283], [-0.45196731851063876, 0.220844166435458], [-0.014994943946869621, -0.4068937573824454], [-0.31807207301692453, -0.30417918964976004], [-0.11493514585588033, 0.43845390969831866], [0.14785057381367295, 0.3236089298388709], [0.11884279867124836, 0.01835183614369207]]",density,black,,,N009,visual,1,[],"['1', '2', '3', '4']",1,2023.2.3,harveyvisual,2.1,[],8,0.75,
0,pause,0.4,None,None,None,0,121,121,121,,,,,,,,,,,,,N009,visual,1,[],"['1', '2', '3', '4']",1,2023.2.3,harveyvisual,2.1,[],8,0.75,
20,dot,0.3,['dot'],['density'],black,0,122,122,122,,,45.10023093223572,44.82419395446777,45.12434196472168,dot,"[0.06, 0.1, 0.06, 0.06, 0.1, 0.06, 0.08, 0.08, 0.08, 0.08, 0.08, 0.1, 0.08, 0.08, 0.06, 0.1, 0.1, 0.06, 0.06, 0.08]","[[0.5092629425800205, 0.13035975213581225], [-0.3533741308407422, -0.1019230301929443], [-0.19851389957971943, 0.3709427747060585], [0.16489043176219687, -0.25650471226623334], [-0.5550517265183137, 0.09570400018527575], [-0.11360221800004233, -0.4614991007928999], [-0.3677502065402489, -0.46914797695600774], [0.23255955271171214, 0.036383361884118615], [0.28318488965049804, 0.2268767806486378], [-0.32831693285018787, 0.23252324363345833], [0.4913089292344558, -0.10637913107540489], [-0.5417537088506122, -0.24615954113490018], [0.2579376686749516, -0.5051194075349416], [-0.09158947925927863, -0.03727485673123243], [0.045008403719868806, 0.38190978463841496], [0.12419530950941893, 0.586345329720686], [-0.21331594762347483, -0.2550331986280474], [-0.05819167342593923, 0.1775339040268381], [0.427700074209323, -0.3578598865347313], [0.3145014916278124, 0.48906441194961925]]",density,black,,,N009,visual,1,[],"['1', '2', '3', '4']",1,2023.2.3,harveyvisual,2.1,[],8,0.75,
0,pause,0.4,None,None,None,0,123,123,123,,,,,,,,,,,,,N009,visual,1,[],"['1', '2', '3', '4']",1,2023.2.3,harveyvisual,2.1,[],8,0.75,
20,dot,0.3,['dot'],['density'],black,0,124,124,124,,,45.800220012664795,45.52416014671326,45.82417297363281,dot,"[0.1, 0.08, 0.06, 0.06, 0.08, 0.06, 0.08, 0.08, 0.08, 0.1, 0.1, 0.1, 0.1, 0.1, 0.08, 0.06, 0.06, 0.06, 0.1, 0.06]","[[0.36148792103187133, -0.09533880556090729], [-0.16761619888768076, -0.039060505529166845], [-0.03227589672076159, 0.2715362175025168], [0.4738432418721271, 0.3151912028326166], [0.26854350052482423, -0.30858290096209773], [-0.3389714496340677, 0.21371182512264952], [-0.4808552278672136, -0.056102772577389104], [0.00646218831441181, -0.13500620667790142], [-0.5874480282586032, 0.119065372857491], [0.2921356082230183, 0.1516438989420672], [0.26623519927575656, 0.5131166341155022], [0.48298814307687643, -0.30861382959643513], [0.5785901957686937, 0.10033090322095758], [-0.5371822889312905, -0.23898847315384], [-0.1763803728846372, -0.31700832069634416], [-0.1823497883963311, 0.5274544148688485], [0.06328640273514485, 0.05168179662209127], [-0.11106371197760695, -0.5339257497435717], [0.006160737822662243, 0.6024308764355046], [-0.31565109164569344, -0.4905737306535616]]",density,black,,,N009,visual,1,[],"['1', '2', '3', '4']",1,2023.2.3,harveyvisual,2.1,[],8,0.75,
0,pause,0.4,None,None,None,0,125,125,125,,,,,,,,,,,,,N009,visual,1,[],"['1', '2', '3', '4']",1,2023.2.3,harveyvisual,2.1,[],8,0.75,
20,dot,0.3,['dot'],['density'],black,0,126,126,126,,,46.500205993652344,46.22416305541992,46.52415704727173,dot,"[0.06, 0.08, 0.08, 0.08, 0.06, 0.08, 0.06, 0.08, 0.06, 0.06, 0.1, 0.06, 0.08, 0.1, 0.1, 0.1, 0.08, 0.1, 0.06, 0.06]","[[0.36827691456237854, -0.04541798551391446], [0.13676489385977675, 0.5434336618356967], [-0.36562496726695726, -0.22755053423980703], [-0.15475884876455887, -0.5833624235467758], [-0.447663527726548, 0.00033527832097413057], [-0.5183283654099771, 0.2871047175634486], [0.07467531473504685, -0.0659842994372799], [-0.05117997901000981, 0.4105723430694772], [0.4868001940101102, 0.2523066735439203], [0.4521421919583485, -0.25854921836387695], [0.2137535285325417, -0.32545464416592257], [-0.06052559248761735, -0.38359758072333855], [0.3993031942396231, 0.44733411269633266], [-0.10717168121769921, 0.2188903283661775], [-0.18191410382985201, -0.16109450285102556], [0.5877711190379445, -0.0063333038620621285], [-0.3834930260895433, 0.4561642169922814], [-0.2746696023011749, 0.10634555168981086], [0.14028202177429694, 0.11672199552182982], [-0.3297476826328992, -0.42920864291533534]]",density,black,,,N009,visual,1,[],"['1', '2', '3', '4']",1,2023.2.3,harveyvisual,2.1,[],8,0.75,
0,pause,0.4,None,None,None,0,127,127,127,,,,,,,,,,,,,N009,visual,1,[],"['1', '2', '3', '4']",1,2023.2.3,harveyvisual,2.1,[],8,0.75,
20,dot,0.3,['dot'],['density'],black,0,128,128,128,,,47.20022106170654,46.924148082733154,47.22414493560791,dot,"[0.06, 0.08, 0.06, 0.08, 0.06, 0.1, 0.06, 0.1, 0.1, 0.08, 0.1, 0.08, 0.08, 0.06, 0.06, 0.08, 0.1, 0.08, 0.1, 0.06]","[[-0.020534351224121172, -0.3782372629828049], [-0.5535818611863882, 0.015067041613045479], [-0.08262066600544793, 0.06947043791827168], [0.4004577087252549, -0.04229863592995625], [-0.22048385697995831, -0.22033313026520052], [0.18272851292498649, 0.06992913012600632], [0.11917139626611684, -0.1772593707087654], [0.10611299485055581, 0.3135925230584884], [0.514006875443428, 0.20298595180851337], [0.14178449511530156, -0.5790504875554902], [0.41226038300666723, -0.35097776084238796], [-0.381469492531873, 0.3057487772637001], [-0.16922985200623203, 0.3439061422535934], [-0.3058043371123503, -0.4111384126910628], [-0.4477254288603747, -0.26310908749214923], [0.35228825497124583, 0.35587832699315863], [0.5909444089918693, -0.07652738957839429], [-0.07097278825429554, 0.5663879404312917], [-0.3317297452671218, 0.03966833335432873], [-0.2864572410913918, 0.525772518129891]]",density,black,,,N009,visual,1,[],"['1', '2', '3', '4']",1,2023.2.3,harveyvisual,2.1,[],8,0.75,
0,pause,0.4,None,None,None,0,129,129,129,,,,,,,,,,,,,N009,visual,1,[],"['1', '2', '3', '4']",1,2023.2.3,harveyvisual,2.1,[],8,0.75,
20,dot,0.3,['dot'],['density'],black,0,130,130,130,,,47.90020799636841,47.624109983444214,47.92410206794739,dot,"[0.06, 0.08, 0.06, 0.06, 0.1, 0.1, 0.08, 0.06, 0.08, 0.06, 0.06, 0.08, 0.08, 0.1, 0.06, 0.08, 0.1, 0.06, 0.08, 0.06]","[[-0.3475148378804136, 0.033727647274801875], [0.034755224528862705, 0.051742285276126565], [0.5486544898617486, -0.07299737413054178], [-0.2300520017394353, -0.18753742617193236], [0.12432846041298184, -0.5260459458212138], [0.1410463827725832, -0.2753029739098742], [0.27121323873088565, 0.38227981155785284], [-0.535321051236904, 0.08957472021017593], [0.10612696066052174, 0.5075707620763288], [-0.403853437599882, 0.3826086537252444], [-0.17756134568585152, 0.4529407346058385], [0.468608750684259, -0.3366589620899902], [0.28818667759232364, 0.014798952818089961], [-0.05109460986886005, -0.28778419646110365], [-0.24808560915294864, -0.5093117836456276], [0.4502296762996435, 0.26102938398185027], [-0.4900448046873887, -0.2380591979715201], [0.08314231206465184, 0.25032756779688137], [-0.14122856598281752, 0.2524297030184207], [0.34728300558643455, -0.18182431980969171]]",density,black,,,N009,visual,1,[],"['1', '2', '3', '4']",1,2023.2.3,harveyvisual,2.1,[],8,0.75,
0,pause,0.4,None,None,None,0,131,131,131,,,,,,,,,,,,,N009,visual,1,[],"['1', '2', '3', '4']",1,2023.2.3,harveyvisual,2.1,[],8,0.75,
20,dot,0.3,['dot'],['density'],white,0,132,132,132,,,48.60020613670349,48.32434296607971,48.62411093711853,dot,"[0.1, 0.08, 0.06, 0.1, 0.1, 0.08, 0.06, 0.06, 0.06, 0.08, 0.08, 0.06, 0.08, 0.08, 0.1, 0.08, 0.06, 0.1, 0.1, 0.08]","[[-0.5506007087430572, 0.026266816479405486], [-0.3974556126544011, 0.1458875738918738], [0.22346607715724598, 0.2220634117686794], [-0.15776622556067726, 0.21920973032431346], [-0.04361788813836498, -0.11180629614951337], [0.1598554959119245, 0.4230930557953786], [0.5328095456785648, 0.06584099620250827], [-0.37023279042336177, 0.4680444061494296], [0.09003545648883227, -0.49538209595096017], [0.47174434158299017, -0.2724483975656585], [0.022788677339888652, -0.3110543068194193], [-0.52999955855061, -0.27784353905815123], [0.43501334805688063, 0.2320331469256231], [-0.22943851533322718, 0.04132021207643366], [0.3148734620357768, -0.5089534610486102], [-0.3050769167480934, -0.4279026572134121], [-0.10089139997270935, -0.5827246825008763], [0.2850377177323803, -0.0717839430287111], [0.25014796407577, -0.31174040146976356], [-0.3398062587759325, -0.22543418944606047]]",density,white,,,N009,visual,1,[],"['1', '2', '3', '4']",1,2023.2.3,harveyvisual,2.1,[],8,0.75,
0,pause,0.4,None,None,None,0,133,133,133,,,,,,,,,,,1,48.731947898864746,N009,visual,1,[],"['1', '2', '3', '4']",1,2023.2.3,harveyvisual,2.1,[],8,0.75,
20,dot,0.3,['dot'],['density'],black,0,134,134,134,,,49.30021905899048,49.024248123168945,49.32404708862305,dot,"[0.08, 0.08, 0.1, 0.06, 0.08, 0.06, 0.1, 0.06, 0.1, 0.06, 0.08, 0.06, 0.06, 0.08, 0.1, 0.08, 0.06, 0.08, 0.1, 0.08]","[[0.27971866213933294, 0.4393874477219374], [-0.4946913400189653, 0.12567075975792702], [-0.07656457021251095, -0.20038703780815587], [0.5929746148288352, 0.012767816351758138], [-0.29101123755724007, 0.41844027598657985], [-0.35526613065440776, -0.46610716366660165], [0.22278752140913516, 0.06664207426414215], [-0.36104658123709954, -0.14814762932553255], [0.04988737390534981, 0.5409794212369683], [0.31979702073105476, -0.4107453130018149], [-0.252130697462045, 0.05930544664478188], [-0.10961920991342766, 0.29004886144861075], [-0.5330009760242904, -0.265517247099116], [0.5104195398980241, 0.28711660514583126], [-0.011452468065130339, 0.07376474101605357], [0.4053136294282652, -0.20342690682741246], [-0.1281812218277366, -0.5827092410077889], [0.11222995036540417, -0.2639208029960277], [0.19847419271404143, 0.260038947041319], [-0.4590029609377369, 0.3156126841875619]]",density,black,,,N009,visual,1,[],"['1', '2', '3', '4']",1,2023.2.3,harveyvisual,2.1,[],8,0.75,
0,pause,0.4,None,None,None,0,135,135,135,,,,,,,,,,,,,N009,visual,1,[],"['1', '2', '3', '4']",1,2023.2.3,harveyvisual,2.1,[],8,0.75,
20,dot,0.3,['dot'],['density'],black,0,136,136,136,,,50.00021195411682,49.72424507141113,50.024078130722046,dot,"[0.06, 0.06, 0.06, 0.08, 0.08, 0.1, 0.06, 0.06, 0.06, 0.1, 0.1, 0.08, 0.1, 0.1, 0.06, 0.06, 0.1, 0.06, 0.08, 0.1]","[[-0.27027432546520136, 0.1904064050410339], [0.4173037189422354, -0.36016660815290397], [-0.5349607195897332, 0.21902566341288088], [0.20479964168071718, 0.0033277222899615877], [-0.13718270930247006, 0.4388489664207118], [-0.06043322846871946, 0.09116089498490665], [0.24087958314395252, 0.2969289279578736], [0.39371562005982264, -0.029678909444030954], [0.04140577107311283, -0.1269873978592731], [0.5191095417824291, -0.17265039643385183], [0.0847271823801733, 0.4532443074082718], [-0.26640296766741905, -0.42545068357334415], [0.5159288624545891, 0.28067055471021435], [0.06781806960865178, -0.3453604386105389], [-0.5004216205353614, -0.05153114391168229], [0.19091948971133754, -0.5591895135986806], [0.26131986951074704, -0.2028039445337046], [-0.0765351470683785, -0.4825337771980783], [-0.47615309101886505, -0.3703164556383143], [-0.28736961499934216, -0.20319290220638275]]",density,black,,,N009,visual,1,[],"['1', '2', '3', '4']",1,2023.2.3,harveyvisual,2.1,[],8,0.75,
0,pause,0.4,None,None,None,0,137,137,137,,,,,,,,,,,,,N009,visual,1,[],"['1', '2', '3', '4']",1,2023.2.3,harveyvisual,2.1,[],8,0.75,
20,dot,0.3,['dot'],['density'],black,0,138,138,138,,,50.70021414756775,50.42406415939331,50.72422504425049,dot,"[0.06, 0.08, 0.08, 0.06, 0.1, 0.08, 0.06, 0.1, 0.08, 0.08, 0.1, 0.06, 0.08, 0.08, 0.1, 0.08, 0.08, 0.06, 0.06, 0.06]","[[0.5093037923268419, 0.14874836683295706], [-0.343970881980724, 0.382637586400547], [-0.6037508135719727, -0.005053838013444695], [0.41296572417237754, 0.4051935016687538], [-0.21059761861253945, -0.3033997983696486], [-0.04118474936482175, -0.5900993109506298], [0.09160157778130129, -0.10383100144114477], [0.4146075771832215, -0.07863473083922828], [0.1467120233412904, -0.4430799700351568], [-0.4712988539559725, 0.2266471765958547], [-0.4350907850530231, -0.3609213411711975], [-0.5653540448213232, -0.20498246421731212], [0.3468276524584538, -0.48792768263911135], [0.1307488634848214, 0.5627670657982055], [-0.15791081959160175, 0.17072961208896453], [-0.37293260589250277, 0.05753932669813766], [0.04355612274717857, 0.392959571686055], [0.4810078281613467, -0.3151347444578452], [0.010315944811328692, 0.0694142761144475], [0.26723997673161404, 0.2683499949199313]]",density,black,,,N009,visual,1,[],"['1', '2', '3', '4']",1,2023.2.3,harveyvisual,2.1,[],8,0.75,
0,pause,0.4,None,None,None,0,139,139,139,,,,,,,,,,,,,N009,visual,1,[],"['1', '2', '3', '4']",1,2023.2.3,harveyvisual,2.1,[],8,0.75,
20,dot,0.3,['dot'],['density'],black,0,140,140,140,,,51.4002320766449,51.12425208091736,51.4240779876709,dot,"[0.1, 0.1, 0.1, 0.1, 0.08, 0.08, 0.1, 0.08, 0.08, 0.08, 0.1, 0.06, 0.08, 0.08, 0.06, 0.08, 0.06, 0.08, 0.06, 0.06]","[[-0.5258899421947645, 0.22830366690201742], [-0.4377692968970091, -0.2118545876364835], [0.423121040266753, 0.10636857676061923], [0.4872585291646828, -0.12054605908910634], [0.25342283023580514, -0.30277683091720686], [0.030502127336616613, -0.30145086254985126], [0.06587845269638593, 0.5666352905261434], [-0.33477721927238235, -0.3953947086296764], [0.007625912712166838, 0.24908621537861098], [0.33868324114676185, 0.2785996576323043], [0.4459619434598564, -0.36345953179745033], [0.3212184673445897, 0.509252351621357], [-0.3101238304281597, 0.03165461070451081], [-0.5173284331903447, 0.009575386950260445], [-0.3854885206188984, 0.3906995959369721], [-0.10444356431147928, -0.5523018201307998], [-0.13142664352489514, 0.5888536779990792], [-0.16843349149460674, -0.21660334567385348], [0.08474231901628848, -0.11787422089021843], [0.25779313215305366, -0.02107081780691733]]",density,black,,,N009,visual,1,[],"['1', '2', '3', '4']",1,2023.2.3,harveyvisual,2.1,[],8,0.75,
0,pause,0.4,None,None,None,0,141,141,141,,,,,,,,,,,,,N009,visual,1,[],"['1', '2', '3', '4']",1,2023.2.3,harveyvisual,2.1,[],8,0.75,
20,dot,0.3,['dot'],['density'],black,0,142,142,142,,,52.100224018096924,51.82404899597168,52.12405514717102,dot,"[0.08, 0.08, 0.06, 0.08, 0.1, 0.06, 0.06, 0.1, 0.06, 0.06, 0.08, 0.06, 0.1, 0.1, 0.08, 0.08, 0.06, 0.06, 0.08, 0.1]","[[-0.4080754522264936, 0.4067652968963657], [0.06324393150639096, -0.024720185381067572], [0.5285035416619269, -0.12321010658698664], [-0.3641419153508118, 0.024123209131655166], [0.14772797922647551, 0.31947671943485956], [-0.11622017963328019, 0.22950695273378963], [-0.057655011146064306, 0.5678306256506572], [0.43914225812962504, -0.3267707419899224], [0.09165945316689328, -0.4047275151848244], [0.4087154651643944, 0.06936783641022992], [-0.6033778208500356, -0.04675733737763541], [0.447638657964642, 0.3230929213157005], [0.14100767808782477, 0.5795680144503859], [-0.15193448612878363, -0.2029037467498816], [-0.5654114455837831, 0.18743665310579402], [-0.16065438914454738, -0.43329929793502], [-0.253322775692594, 0.5193344354288753], [-0.4430181511119342, -0.27881019228135234], [0.5725086897750492, 0.1800888914742988], [0.20631061230181968, -0.5682093422691297]]",density,black,,,N009,visual,1,[],"['1', '2', '3', '4']",1,2023.2.3,harveyvisual,2.1,[],8,0.75,
0,pause,0.4,None,None,None,0,143,143,143,,,,,,,,,,,,,N009,visual,1,[],"['1', '2', '3', '4']",1,2023.2.3,harveyvisual,2.1,[],8,0.75,
20,dot,0.3,['dot'],['density'],white,0,144,144,144,,,52.800209045410156,52.524219036102295,52.82420897483826,dot,"[0.1, 0.06, 0.1, 0.08, 0.06, 0.08, 0.1, 0.1, 0.1, 0.08, 0.1, 0.08, 0.08, 0.06, 0.1, 0.06, 0.1, 0.08, 0.06, 0.1]","[[0.024911972872760146, -0.3700212862353772], [0.3787692939948758, -0.2803655708969237], [0.05002120819794964, 0.5465380631520563], [-0.002656663445192553, 0.10585902451976326], [-0.5163844849387521, 0.10183992661783287], [-0.32234323972795764, 0.11133604495041416], [0.2939005229593016, 0.2120320162909709], [0.5158203378330709, 0.025257259097077323], [0.3436496328607208, -0.4678379360750865], [0.13978383131935046, 0.3591461687264449], [0.536388762374609, 0.2622786081434678], [-0.130457382852456, -0.09892206014436128], [-0.32798101447340655, -0.08369095233745205], [0.40122520641579007, 0.4079581272659675], [0.23321308318753708, -0.12653571195888796], [-0.5344676353635434, -0.1774837440574064], [-0.3238473653289293, 0.32021091111412936], [-0.2354139875326528, -0.5056218713847913], [-0.38701566038295976, -0.35412225025141925], [-0.12097585294197655, 0.4141927267635984]]",density,white,,,N009,visual,1,[],"['1', '2', '3', '4']",1,2023.2.3,harveyvisual,2.1,[],8,0.75,
0,pause,0.4,None,None,None,0,145,145,145,,,,,,,,,,,1,52.901291847229004,N009,visual,1,[],"['1', '2', '3', '4']",1,2023.2.3,harveyvisual,2.1,[],8,0.75,
20,dot,0.3,['dot'],['density'],black,0,146,146,146,,,53.50020909309387,53.22406196594238,53.52412700653076,dot,"[0.06, 0.06, 0.06, 0.06, 0.1, 0.06, 0.06, 0.1, 0.1, 0.08, 0.1, 0.08, 0.06, 0.06, 0.1, 0.06, 0.06, 0.06, 0.08, 0.08]","[[0.006150231005973228, 0.3884259688991176], [-0.06754257950673181, -0.394098942237034], [-0.5812768182855503, 0.12889750440547254], [0.04716735556266427, -0.15584383263589857], [0.5362184963394346, 0.09621005612812017], [-0.2170487137138022, -0.20706939132393237], [0.32395426864791044, 0.2649543370768004], [0.08751676898925309, -0.5750574042274175], [-0.36546402629639096, -0.47271962108528065], [0.4382647334203308, -0.16053239284113152], [-0.34488862664956516, -0.03685386909486499], [0.13267789053645296, 0.14448978797489598], [-0.3557597860881825, 0.35074500695547217], [0.40031518181489145, -0.3680148429041278], [-0.25923502830565137, 0.1726228618384652], [-0.1373448355304442, -0.012373917677840574], [-0.46061753824344376, -0.2544333663008862], [0.511891532803337, 0.3180396842891238], [0.2828105044993978, 0.5168482075146197], [-0.18792474749382915, -0.5752552537056229]]",density,black,,,N009,visual,1,[],"['1', '2', '3', '4']",1,2023.2.3,harveyvisual,2.1,[],8,0.75,
0,pause,0.4,None,None,None,0,147,147,147,,,,,,,,,,,,,N009,visual,1,[],"['1', '2', '3', '4']",1,2023.2.3,harveyvisual,2.1,[],8,0.75,
20,dot,0.3,['dot'],['density'],black,0,148,148,148,,,54.20023012161255,53.92399215698242,54.22409796714783,dot,"[0.08, 0.1, 0.06, 0.1, 0.08, 0.08, 0.06, 0.1, 0.06, 0.06, 0.06, 0.06, 0.08, 0.08, 0.1, 0.08, 0.08, 0.08, 0.1, 0.1]","[[-0.5206794044553806, -0.20926358219876118], [-0.4192247848740541, 0.012796269935999582], [-0.21139238720873144, -0.16470490291817713], [0.4772600393208314, 0.3436466672531041], [0.23039742041266265, -0.29392442381376005], [-0.11865319056591234, 0.5504677026105743], [0.27912099656569733, 0.05841780299415167], [0.18889227892922267, 0.43309062148038435], [0.08178793484185942, 0.11833612897078227], [-0.5275007954086302, 0.18214905333492232], [0.5285801001239095, 0.14408048036541654], [0.420152816969353, -0.19430190127245217], [0.052754611025166986, -0.5488406026078906], [-0.3715645071139796, -0.32905017488602023], [-0.24573900167102292, 0.24362983954462425], [-0.436308716318907, 0.40662699999534296], [0.12250161768205992, -0.11956225295502909], [0.5575293143935603, -0.04698166920650945], [0.2471414650996061, -0.5404242466618179], [0.00558930046621775, -0.30885961289838554]]",density,black,,,N009,visual,1,[],"['1', '2', '3', '4']",1,2023.2.3,harveyvisual,2.1,[],8,0.75,
0,pause,0.4,None,None,None,0,149,149,149,,,,,,,,,,,,,N009,visual,1,[],"['1', '2', '3', '4']",1,2023.2.3,harveyvisual,2.1,[],8,0.75,
20,dot,0.3,['dot'],['density'],black,0,150,150,150,,,54.90022611618042,54.62395715713501,54.92396903038025,dot,"[0.06, 0.06, 0.06, 0.06, 0.1, 0.08, 0.1, 0.06, 0.08, 0.1, 0.1, 0.08, 0.06, 0.08, 0.06, 0.08, 0.06, 0.08, 0.08, 0.1]","[[0.39791025246370404, 0.20310713616458803], [-0.42370482997548514, 0.412094016111039], [0.2047196757968931, 0.0872282478998242], [-0.19137979025752716, -0.5680754117257591], [-0.5879273074057656, 0.07451383724199928], [-0.02375234987939845, -0.2773410354665717], [0.3944655225179563, -0.2523555635764207], [0.5913491689045508, -0.08435737888700975], [-0.03959023476854173, 0.37169627121410387], [-0.5704730486518812, -0.15177953216353085], [0.20822757309982387, -0.38358867668973085], [-0.27948511030642204, -0.21295689148680408], [-0.3443816244747062, 0.21105513466869052], [0.0008947285083170664, 0.07954055524344605], [0.0038776260685837727, -0.579656525917197], [0.23446700473861293, 0.48971035297574317], [-0.15432701677442728, -0.053967632106752594], [-0.3905350410015622, -0.45681249927112366], [-0.35803392179722615, -0.035685582455954934], [0.1681329767057006, -0.14674667261940283]]",density,black,,,N009,visual,1,[],"['1', '2', '3', '4']",1,2023.2.3,harveyvisual,2.1,[],8,0.75,
0,pause,0.4,None,None,None,0,151,151,151,,,,,,,,,,,,,N009,visual,1,[],"['1', '2', '3', '4']",1,2023.2.3,harveyvisual,2.1,[],8,0.75,
20,dot,0.3,['dot'],['density'],black,0,152,152,152,,,55.60022807121277,55.32406401634216,55.623929023742676,dot,"[0.1, 0.1, 0.06, 0.1, 0.08, 0.1, 0.1, 0.08, 0.06, 0.06, 0.06, 0.06, 0.1, 0.08, 0.06, 0.06, 0.06, 0.08, 0.06, 0.06]","[[0.14447921946297448, -0.25877906377364973], [0.30013528064948525, 0.4752091225995432], [0.4747287105873955, 0.04344704156594653], [-0.500230299487857, -0.030379054768596536], [-0.16816236372028492, -0.05465805267361323], [0.0480247384470307, 0.13854526949865553], [-0.29411116191403003, -0.24695838819522958], [0.3277884021860096, 0.23085799152997555], [-0.07037956903266085, -0.5247784661446561], [-0.034941617376525236, 0.5469362559044838], [-0.18782375784919775, 0.24356885462243139], [0.2916487458314311, -0.47356823582550717], [0.36809555144495254, -0.17954265924709562], [-0.5070998298315345, 0.2203668760167708], [-0.5099870034885993, -0.27314608322676004], [0.19717892516970326, 0.013214582171767075], [-0.31204084784397396, -0.4398456726319868], [0.11247714995730729, 0.41935588943792235], [-0.03551175664241335, -0.19497726589607955], [0.5315523595314556, 0.2888376740805177]]",density,black,,,N009,visual,1,[],"['1', '2', '3', '4']",1,2023.2.3,harveyvisual,2.1,[],8,0.75,
0,pause,0.4,None,None,None,0,153,153,153,,,,,,,,,,,,,N009,visual,1,[],"['1', '2', '3', '4']",1,2023.2.3,harveyvisual,2.1,[],8,0.75,
20,dot,0.3,['dot'],['density'],black,0,154,154,154,,,56.30023407936096,56.02392101287842,56.323899030685425,dot,"[0.08, 0.08, 0.08, 0.08, 0.1, 0.1, 0.06, 0.1, 0.08, 0.1, 0.08, 0.1, 0.1, 0.08, 0.08, 0.08, 0.06, 0.08, 0.08, 0.08]","[[-0.5557295579901622, 0.13020112173529214], [-0.2946571131277305, 0.11672908637441692], [0.5802170608963105, 0.1682587081736193], [0.13282447406546216, 0.14187705858266264], [0.13035023824415126, -0.2323788447133388], [0.3446241772619424, 0.48193655284094883], [-0.43581845479116027, -0.2669938079807097], [0.25357269038582986, -0.4657759980403306], [-0.25162278324284193, 0.500268256879961], [-0.4324866463231356, 0.395475612653358], [0.273080663241008, -0.06847320386355493], [-0.16266463485412463, -0.5767110207893545], [0.4079960067370224, -0.25971592812995736], [-0.006507193981765913, 0.5104582542312734], [-0.23888162428859366, -0.23833442149953304], [-0.5714239993792528, -0.0810830794830225], [-0.10115715247962864, 0.08309214811352006], [0.5533950901677255, -0.085254219985437], [-0.34160458479225364, -0.4717467604222335], [0.3256461857547146, 0.16860505905680512]]",density,black,,,N009,visual,1,[],"['1', '2', '3', '4']",1,2023.2.3,harveyvisual,2.1,[],8,0.75,
0,pause,0.4,None,None,None,0,155,155,155,,,,,,,,,,,,,N009,visual,1,[],"['1', '2', '3', '4']",1,2023.2.3,harveyvisual,2.1,[],8,0.75,
9,dot,0.3,['dot'],['density'],black,0,156,156,156,,,57.00023603439331,56.70725202560425,57.02401113510132,dot,"[0.06, 0.06, 0.06, 0.06, 0.1, 0.06, 0.06, 0.1, 0.1]","[[0.02295687172906439, -0.4555612238154966], [0.343534432465795, -0.2595759245515751], [-0.16187815285083418, -0.09052449078383604], [0.11251247888811697, -0.27313237114007116], [0.30947849701411384, 0.04064216277921932], [0.06991680920562879, 0.010838090335221196], [-0.17538857600721916, -0.30040513178321704], [-0.11470383471809205, 0.10558329706542706], [-0.35883798189287325, -0.15372405551062507]]",density,black,,,N009,visual,1,[],"['1', '2', '3', '4']",1,2023.2.3,harveyvisual,2.1,[],8,0.75,
0,pause,0.4,None,None,None,0,157,157,157,,,,,,,,,,,,,N009,visual,1,[],"['1', '2', '3', '4']",1,2023.2.3,harveyvisual,2.1,[],8,0.75,
9,dot,0.3,['dot'],['density'],black,0,158,158,158,,,57.70021414756775,57.407225131988525,57.72399306297302,dot,"[0.1, 0.06, 0.06, 0.1, 0.06, 0.08, 0.06, 0.08, 0.06]","[[-0.03413633707233166, 0.539775862693792], [0.03045342777742709, 0.14881397110038386], [0.3968101769942594, 0.3516381959676015], [-0.12464897846505978, 0.27513009849494485], [0.24828272947848068, 0.13372878599656182], [0.1825630446668698, 0.5466865974155928], [-0.40057775338259505, 0.3148646888607764], [0.06988801613907401, -0.06658504348068199], [0.07277149512897427, 0.3699912437376705]]",density,black,,,N009,visual,1,[],"['1', '2', '3', '4']",1,2023.2.3,harveyvisual,2.1,[],8,0.75,
0,pause,0.4,None,None,None,0,159,159,159,,,,,,,,,,,,,N009,visual,1,[],"['1', '2', '3', '4']",1,2023.2.3,harveyvisual,2.1,[],8,0.75,
9,dot,0.3,['dot'],['density'],black,0,160,160,160,,,58.40022397041321,58.10740613937378,58.42391014099121,dot,"[0.1, 0.08, 0.06, 0.1, 0.08, 0.08, 0.06, 0.08, 0.06]","[[0.5610971552988853, -0.17060184332349634], [0.41375718760989944, -0.015869013459887487], [0.10524493337967332, -0.4151143617417518], [0.33762937987512565, -0.21166948995529247], [0.31978246251342735, -0.42403070142702926], [0.14918584865882126, 0.054317793641313596], [-0.13687229080136074, -0.3544767643123256], [-0.14284940328496695, -0.15361328447573858], [0.09035025664413378, -0.16809195260635462]]",density,black,,,N009,visual,1,[],"['1', '2', '3', '4']",1,2023.2.3,harveyvisual,2.1,[],8,0.75,
0,pause,0.4,None,None,None,0,161,161,161,,,,,,,,,,,,,N009,visual,1,[],"['1', '2', '3', '4']",1,2023.2.3,harveyvisual,2.1,[],8,0.75,
9,dot,0.3,['dot'],['density'],black,0,162,162,162,,,59.10022711753845,58.80716800689697,59.123955965042114,dot,"[0.06, 0.06, 0.08, 0.06, 0.06, 0.1, 0.06, 0.08, 0.06]","[[0.5610971552988853, -0.17060184332349634], [0.41375718760989944, -0.015869013459887487], [0.10524493337967332, -0.4151143617417518], [0.33762937987512565, -0.21166948995529247], [0.31978246251342735, -0.42403070142702926], [0.14918584865882126, 0.054317793641313596], [-0.13687229080136074, -0.3544767643123256], [-0.14284940328496695, -0.15361328447573858], [0.09035025664413378, -0.16809195260635462]]",density,black,,,N009,visual,1,[],"['1', '2', '3', '4']",1,2023.2.3,harveyvisual,2.1,[],8,0.75,
0,pause,0.4,None,None,None,0,163,163,163,,,,,,,,,,,,,N009,visual,1,[],"['1', '2', '3', '4']",1,2023.2.3,harveyvisual,2.1,[],8,0.75,
9,dot,0.3,['dot'],['density'],black,0,164,164,164,,,59.80022311210632,59.507840156555176,59.823817014694214,dot,"[0.1, 0.08, 0.1, 0.08, 0.08, 0.1, 0.06, 0.08, 0.08]","[[-0.25982930089867384, 0.41046177320377714], [0.2391912210628672, 0.4152301159030731], [-0.011899047454085643, 0.5103750441914148], [0.15826907621474634, 0.20577518054892585], [-0.29033424199965224, 0.2058356795488901], [-0.056026696670660174, 0.08152775180209879], [-0.32571421803823364, -0.002973879155612714], [0.39820859476685, 0.29236875228581105], [-0.06367065787951752, 0.28966088639372295]]",density,black,,,N009,visual,1,[],"['1', '2', '3', '4']",1,2023.2.3,harveyvisual,2.1,[],8,0.75,
0,pause,0.4,None,None,None,0,165,165,165,,,,,,,,,,,,,N009,visual,1,[],"['1', '2', '3', '4']",1,2023.2.3,harveyvisual,2.1,[],8,0.75,
9,dot,0.3,['dot'],['density'],black,0,166,166,166,,,60.500216007232666,60.20734405517578,60.523940086364746,dot,"[0.06, 0.1, 0.08, 0.1, 0.08, 0.06, 0.06, 0.08, 0.08]","[[0.11766436913102363, -0.04327704920019282], [0.17973489876850246, -0.2957558932143311], [0.4322853556796634, 0.1292829237047714], [-0.0348924626991882, -0.2091692004054023], [0.511593351462966, -0.2715393032181878], [0.39631341359825684, -0.10388811790353111], [0.1759041025424718, 0.35783279634564974], [-0.11077337801993212, 0.08002505665429639], [0.1915495233696259, 0.15329463501335125]]",density,black,,,N009,visual,1,[],"['1', '2', '3', '4']",1,2023.2.3,harveyvisual,2.1,[],8,0.75,
0,pause,0.4,None,None,None,0,167,167,167,,,,,,,,,,,,,N009,visual,1,[],"['1', '2', '3', '4']",1,2023.2.3,harveyvisual,2.1,[],8,0.75,
8,dot,0.3,['dot'],['density'],black,0,168,168,168,,,61.20021200180054,60.90732407569885,61.22380208969116,dot,"[0.1, 0.08, 0.08, 0.08, 0.06, 0.1, 0.1, 0.08]","[[-0.30918623351354413, -0.2762980118811315], [0.03442122464869854, -0.32944299641312663], [0.20656618624830034, -0.4515266663928406], [0.20458815773351877, -0.002924552385479317], [-0.054765695239429084, -0.14491701700869716], [-0.0008776159608741382, 0.05441634750414142], [0.19975410704164612, -0.21252729673777132], [-0.19330391669800595, 0.14377227853430027]]",density,black,,,N009,visual,1,[],"['1', '2', '3', '4']",1,2023.2.3,harveyvisual,2.1,[],8,0.75,
0,pause,0.4,None,None,None,0,169,169,169,,,,,,,,,,,,,N009,visual,1,[],"['1', '2', '3', '4']",1,2023.2.3,harveyvisual,2.1,[],8,0.75,
8,dot,0.3,['dot'],['density'],black,0,170,170,170,,,61.900217056274414,61.60731911659241,61.92391395568848,dot,"[0.1, 0.1, 0.06, 0.08, 0.08, 0.1, 0.1, 0.06]","[[0.43039348711459674, -0.2176132953198537], [0.11499515674856413, 0.2899266495440316], [0.12808102003139596, -0.009244067984354065], [-0.030386771168905473, -0.2551920291624523], [0.3118809155168881, 0.2081403981228026], [-0.06282563634610334, 0.11114412413027695], [0.22944900542930163, -0.23921835558115082], [0.33219925311336224, 0.0035410395788749187]]",density,black,,,N009,visual,1,[],"['1', '2', '3', '4']",1,2023.2.3,harveyvisual,2.1,[],8,0.75,
0,pause,0.4,None,None,None,0,171,171,171,,,,,,,,,,,,,N009,visual,1,[],"['1', '2', '3', '4']",1,2023.2.3,harveyvisual,2.1,[],8,0.75,
8,dot,0.3,['dot'],['density'],black,0,172,172,172,,,62.60021495819092,62.30721998214722,62.62391805648804,dot,"[0.1, 0.08, 0.08, 0.06, 0.1, 0.1, 0.08, 0.1]","[[-0.3167478768396544, -0.2124469325344782], [0.11150510454677101, -0.25361932254341324], [0.17657050060311263, -0.496926349220185], [0.20833757931744315, -0.0002320808252021913], [-0.0015234955214533466, 0.034722119540356526], [-0.10690598217119997, -0.19846612199298916], [0.32498422138424443, -0.23444872628509345], [-0.054741640541526956, -0.4230750989992696]]",density,black,,,N009,visual,1,[],"['1', '2', '3', '4']",1,2023.2.3,harveyvisual,2.1,[],8,0.75,
0,pause,0.4,None,None,None,0,173,173,173,,,,,,,,,,,,,N009,visual,1,[],"['1', '2', '3', '4']",1,2023.2.3,harveyvisual,2.1,[],8,0.75,
8,dot,0.3,['dot'],['density'],black,0,174,174,174,,,63.30021905899048,63.007216930389404,63.323888063430786,dot,"[0.1, 0.08, 0.1, 0.06, 0.1, 0.08, 0.06, 0.1]","[[0.5011924336457421, -0.024432440978935197], [0.2806328112604475, -0.04317330297599672], [0.4832514634589159, 0.31109822070486504], [0.16408111659662816, 0.42847901077729456], [0.23688927214560462, 0.23559820796421724], [0.07772697954394367, 0.06196890701796274], [0.10192126774068293, -0.18867749580812243], [-0.012619648351882298, 0.24997239668137242]]",density,black,,,N009,visual,1,[],"['1', '2', '3', '4']",1,2023.2.3,harveyvisual,2.1,[],8,0.75,
0,pause,0.4,None,None,None,0,175,175,175,,,,,,,,,,,,,N009,visual,1,[],"['1', '2', '3', '4']",1,2023.2.3,harveyvisual,2.1,[],8,0.75,
8,dot,0.3,['dot'],['density'],black,0,176,176,176,,,64.00023412704468,63.70722699165344,64.02371406555176,dot,"[0.06, 0.06, 0.06, 0.06, 0.08, 0.06, 0.1, 0.08]","[[-0.258715538922871, 0.3828151050353194], [-0.4384035523576633, -0.18689856672911037], [-0.5586779833045601, 0.15056420889708766], [-0.1699372658897842, -0.04883432605429875], [-0.36053016753151684, 0.02858569738219561], [-0.199221799186684, 0.1876786431210615], [0.004458053620249285, 0.1240038339062716], [0.019420137312414813, -0.16023679021787893]]",density,black,,,N009,visual,1,[],"['1', '2', '3', '4']",1,2023.2.3,harveyvisual,2.1,[],8,0.75,
0,pause,0.4,None,None,None,0,177,177,177,,,,,,,,,,,,,N009,visual,1,[],"['1', '2', '3', '4']",1,2023.2.3,harveyvisual,2.1,[],8,0.75,
8,dot,0.3,['dot'],['density'],black,0,178,178,178,,,64.70022296905518,64.40721201896667,64.72364616394043,dot,"[0.08, 0.06, 0.06, 0.06, 0.06, 0.08, 0.1, 0.08]","[[0.016639406518403475, -0.10031965053970064], [-0.49734137941811546, 0.023312718056099104], [0.03171158295547566, 0.2028207856397581], [-0.3777108616291506, 0.18827317115199685], [-0.2734124440264558, -0.20525012861841768], [-0.1742574757978524, 0.04093824739900491], [-0.17815403785603903, 0.26205888083036905], [-0.2502819750276768, 0.4804358206127844]]",density,black,,,N009,visual,1,[],"['1', '2', '3', '4']",1,2023.2.3,harveyvisual,2.1,[],8,0.75,
0,pause,0.4,None,None,None,0,179,179,179,,,,,,,,,,,,,N009,visual,1,[],"['1', '2', '3', '4']",1,2023.2.3,harveyvisual,2.1,[],8,0.75,
7,dot,0.3,['dot'],['density'],black,0,180,180,180,,,65.4002251625061,65.10703802108765,65.42365312576294,dot,"[0.1, 0.1, 0.1, 0.1, 0.1, 0.06, 0.1]","[[0.3350011905151264, 0.09255159473130091], [-0.07424962927914175, -0.2643067362759337], [-0.0068732696698998825, 0.04948606721470151], [0.12855319879406235, -0.3381192636220083], [0.11551090787938859, 0.24000211478775196], [0.3415900712266813, -0.1269386107563701], [0.14228147320501944, -0.08533637750285226]]",density,black,,,N009,visual,1,[],"['1', '2', '3', '4']",1,2023.2.3,harveyvisual,2.1,[],8,0.75,
0,pause,0.4,None,None,None,0,181,181,181,,,,,,,,,,,,,N009,visual,1,[],"['1', '2', '3', '4']",1,2023.2.3,harveyvisual,2.1,[],8,0.75,
7,dot,0.3,['dot'],['density'],black,0,182,182,182,,,66.10022616386414,65.80702114105225,66.12365007400513,dot,"[0.1, 0.1, 0.08, 0.08, 0.1, 0.06, 0.08]","[[0.3350011905151264, 0.09255159473130091], [-0.07424962927914175, -0.2643067362759337], [-0.0068732696698998825, 0.04948606721470151], [0.12855319879406235, -0.3381192636220083], [0.11551090787938859, 0.24000211478775196], [0.3415900712266813, -0.1269386107563701], [0.14228147320501944, -0.08533637750285226]]",density,black,,,N009,visual,1,[],"['1', '2', '3', '4']",1,2023.2.3,harveyvisual,2.1,[],8,0.75,
0,pause,0.4,None,None,None,0,183,183,183,,,,,,,,,,,,,N009,visual,1,[],"['1', '2', '3', '4']",1,2023.2.3,harveyvisual,2.1,[],8,0.75,
7,dot,0.3,['dot'],['density'],black,0,184,184,184,,,66.80023002624512,66.50698208808899,66.82365012168884,dot,"[0.1, 0.06, 0.08, 0.08, 0.08, 0.08, 0.06]","[[0.06935229908748385, 0.4911641494940837], [-0.19266199922505295, 0.07836852906048222], [0.055274369019684175, 0.020452523162812593], [0.26239471350362015, 0.1001529216481179], [-0.06036973858781391, 0.3360513952533211], [-0.2638544135394649, 0.29089327984911306], [0.14813816713374972, 0.28344041791591096]]",density,black,,,N009,visual,1,[],"['1', '2', '3', '4']",1,2023.2.3,harveyvisual,2.1,[],8,0.75,
0,pause,0.4,None,None,None,0,185,185,185,,,,,,,,,,,,,N009,visual,1,[],"['1', '2', '3', '4']",1,2023.2.3,harveyvisual,2.1,[],8,0.75,
7,dot,0.3,['dot'],['density'],white,0,186,186,186,,,67.50021314620972,67.20699715614319,67.52363014221191,dot,"[0.1, 0.06, 0.1, 0.08, 0.1, 0.06, 0.06]","[[-0.23675386446936744, -0.019099737415117023], [-0.3793299299598963, 0.3840296974489508], [0.16444052853698826, 0.25964081185693966], [-0.17441972694422359, 0.2376971805458075], [0.025313303261310992, 0.0859287266400301], [-0.3760941870171968, 0.1722047307528389], [-0.012854506600276856, 0.3778399739802858]]",density,white,,,N009,visual,1,[],"['1', '2', '3', '4']",1,2023.2.3,harveyvisual,2.1,[],8,0.75,
0,pause,0.4,None,None,None,0,187,187,187,,,,,,,,,,,1,67.7050108909607,N009,visual,1,[],"['1', '2', '3', '4']",1,2023.2.3,harveyvisual,2.1,[],8,0.75,
7,dot,0.3,['dot'],['density'],black,0,188,188,188,,,68.20023608207703,67.90692710876465,68.22373795509338,dot,"[0.08, 0.06, 0.06, 0.1, 0.06, 0.08, 0.1]","[[0.06935229908748385, 0.4911641494940837], [-0.19266199922505295, 0.07836852906048222], [0.055274369019684175, 0.020452523162812593], [0.26239471350362015, 0.1001529216481179], [-0.06036973858781391, 0.3360513952533211], [-0.2638544135394649, 0.29089327984911306], [0.14813816713374972, 0.28344041791591096]]",density,black,,,N009,visual,1,[],"['1', '2', '3', '4']",1,2023.2.3,harveyvisual,2.1,[],8,0.75,
0,pause,0.4,None,None,None,0,189,189,189,,,,,,,,,,,,,N009,visual,1,[],"['1', '2', '3', '4']",1,2023.2.3,harveyvisual,2.1,[],8,0.75,
7,dot,0.3,['dot'],['density'],black,0,190,190,190,,,68.90022611618042,68.60709309577942,68.92359709739685,dot,"[0.1, 0.06, 0.1, 0.06, 0.1, 0.06, 0.06]","[[-0.23895008888738212, 0.05027357720500052], [0.04847041368780161, 0.3376116924566045], [0.007425979130163878, -0.07582657330311053], [-0.16109724709992976, 0.33554312732420544], [-0.17199436159673825, -0.1887904434853683], [0.1858169564317131, 0.14031933770952934], [-0.038655615351801086, 0.15226176997737048]]",density,black,,,N009,visual,1,[],"['1', '2', '3', '4']",1,2023.2.3,harveyvisual,2.1,[],8,0.75,
0,pause,0.4,None,None,None,0,191,191,191,,,,,,,,,,,,,N009,visual,1,[],"['1', '2', '3', '4']",1,2023.2.3,harveyvisual,2.1,[],8,0.75,
6,dot,0.3,['dot'],['density'],black,0,192,192,192,,,69.60022401809692,69.30708408355713,69.62356805801392,dot,"[0.06, 0.06, 0.1, 0.08, 0.06, 0.1]","[[-0.5042184434856596, 0.24959378884587158], [-0.14877643798118484, -0.059020126001740114], [-0.46546181494132466, -0.1471818588402077], [-0.26957518187208745, -0.22263810459524838], [-0.2342448443914648, 0.21754944417529726], [-0.37109182385784195, 0.03297203532481631]]",density,black,,,N009,visual,1,[],"['1', '2', '3', '4']",1,2023.2.3,harveyvisual,2.1,[],8,0.75,
0,pause,0.4,None,None,None,0,193,193,193,,,,,,,,,,,,,N009,visual,1,[],"['1', '2', '3', '4']",1,2023.2.3,harveyvisual,2.1,[],8,0.75,
6,dot,0.3,['dot'],['density'],black,0,194,194,194,,,70.3002359867096,70.00705003738403,70.32357406616211,dot,"[0.1, 0.1, 0.06, 0.1, 0.08, 0.08]","[[-0.3495133471434448, -0.27378397825191725], [-0.13100446626766318, 0.13866361521721876], [-0.5155090776439144, 0.11776884681908774], [-0.4780287848267884, -0.11588239978167382], [-0.11897161770401087, -0.0933943475842369], [-0.303431097341306, -0.010759678588622423]]",density,black,,,N009,visual,1,[],"['1', '2', '3', '4']",1,2023.2.3,harveyvisual,2.1,[],8,0.75,
0,pause,0.4,None,None,None,0,195,195,195,,,,,,,,,,,,,N009,visual,1,[],"['1', '2', '3', '4']",1,2023.2.3,harveyvisual,2.1,[],8,0.75,
6,dot,0.3,['dot'],['density'],black,0,196,196,196,,,71.00023698806763,70.70704293251038,71.02356910705566,dot,"[0.08, 0.08, 0.06, 0.06, 0.1, 0.06]","[[-0.36954580940820725, 0.05815165478813925], [-0.28534481837461456, -0.12375618373579561], [-0.26428406214372846, 0.28010711109252995], [-0.5657182147315603, -0.11096589427743007], [-0.1492704575467133, 0.06899119969773035], [-0.5584105255039638, 0.13196562846102936]]",density,black,,,N009,visual,1,[],"['1', '2', '3', '4']",1,2023.2.3,harveyvisual,2.1,[],8,0.75,
0,pause,0.4,None,None,None,0,197,197,197,,,,,,,,,,,,,N009,visual,1,[],"['1', '2', '3', '4']",1,2023.2.3,harveyvisual,2.1,[],8,0.75,
6,dot,0.3,['dot'],['density'],black,0,198,198,198,,,71.70023703575134,71.40701103210449,71.72354412078857,dot,"[0.08, 0.06, 0.06, 0.06, 0.1, 0.1]","[[0.23625405956766557, 0.3892633732772463], [0.11760889656980711, -0.0038201085241890706], [0.42882153754783053, 0.07157264481568941], [0.22360409458703237, 0.16865996735680294], [-0.08582952339030024, 0.051003002567710905], [-0.0010028139275050567, 0.23222523166366787]]",density,black,,,N009,visual,1,[],"['1', '2', '3', '4']",1,2023.2.3,harveyvisual,2.1,[],8,0.75,
0,pause,0.4,None,None,None,0,199,199,199,,,,,,,,,,,,,N009,visual,1,[],"['1', '2', '3', '4']",1,2023.2.3,harveyvisual,2.1,[],8,0.75,
6,dot,0.3,['dot'],['density'],black,0,200,200,200,,,72.4002161026001,72.10700702667236,72.42348599433899,dot,"[0.1, 0.1, 0.1, 0.1, 0.08, 0.06]","[[0.1643264729387965, -0.2471077239796436], [-0.22534804549937193, -0.4918728234310363], [-0.026166131246113146, -0.09278119687647148], [-0.24451989516519138, -0.21339523607155425], [0.11868454116144263, -0.4574197693624388], [-0.058907778787058426, -0.30919141315076737]]",density,black,,,N009,visual,1,[],"['1', '2', '3', '4']",1,2023.2.3,harveyvisual,2.1,[],8,0.75,
0,pause,0.4,None,None,None,0,201,201,201,,,,,,,,,,,,,N009,visual,1,[],"['1', '2', '3', '4']",1,2023.2.3,harveyvisual,2.1,[],8,0.75,
6,dot,0.3,['dot'],['density'],black,0,202,202,202,,,73.10021114349365,72.80699014663696,73.12346601486206,dot,"[0.1, 0.06, 0.06, 0.06, 0.06, 0.06]","[[0.5108460974500976, 0.10904555526594768], [0.5033362887342737, -0.29902707163897635], [0.3062164979741722, 0.05793810054487639], [0.22849736264613016, -0.28041776899433873], [0.12909977445373055, -0.06500178518750158], [0.41889526300287094, -0.11616960582105396]]",density,black,,,N009,visual,1,[],"['1', '2', '3', '4']",1,2023.2.3,harveyvisual,2.1,[],8,0.75,
0,pause,0.4,None,None,None,0,203,203,203,,,,,,,,,,,,,N009,visual,1,[],"['1', '2', '3', '4']",1,2023.2.3,harveyvisual,2.1,[],8,0.75,
5,dot,0.3,['dot'],['density'],black,0,204,204,204,,,73.80023694038391,73.5069899559021,73.82347893714905,dot,"[0.1, 0.06, 0.08, 0.1, 0.08]","[[0.2075830250205083, 0.5448960418430373], [0.010600229768786232, 0.45420498888786176], [-0.10187712889758427, 0.28364076042242115], [0.1691377395635631, 0.293820614486451], [-0.2596336492265815, 0.40815120909286945]]",density,black,,,N009,visual,1,[],"['1', '2', '3', '4']",1,2023.2.3,harveyvisual,2.1,[],8,0.75,
0,pause,0.4,None,None,None,0,205,205,205,,,,,,,,,,,,,N009,visual,1,[],"['1', '2', '3', '4']",1,2023.2.3,harveyvisual,2.1,[],8,0.75,
5,dot,0.3,['dot'],['density'],black,0,206,206,206,,,74.50022506713867,74.20677900314331,74.52346205711365,dot,"[0.06, 0.08, 0.1, 0.08, 0.06]","[[0.10176071415026891, -0.0029310292721688898], [0.32748853803000494, -0.2831003617774451], [0.10999898603900501, -0.23076615641811304], [0.2383494361888625, 0.16403485824849598], [0.3558293804179042, -0.08171974316418079]]",density,black,,,N009,visual,1,[],"['1', '2', '3', '4']",1,2023.2.3,harveyvisual,2.1,[],8,0.75,
0,pause,0.4,None,None,None,0,207,207,207,,,,,,,,,,,,,N009,visual,1,[],"['1', '2', '3', '4']",1,2023.2.3,harveyvisual,2.1,[],8,0.75,
5,dot,0.3,['dot'],['density'],black,0,208,208,208,,,75.20023393630981,74.90675115585327,75.22347116470337,dot,"[0.08, 0.06, 0.1, 0.1, 0.06]","[[-0.16893136043895146, -0.20127892763881453], [-0.5727216740452047, -0.07682091551650742], [-0.343702592036276, -0.060533526953518955], [-0.5038383983260774, 0.15268268748871192], [-0.379488354443274, -0.2704310218069364]]",density,black,,,N009,visual,1,[],"['1', '2', '3', '4']",1,2023.2.3,harveyvisual,2.1,[],8,0.75,
0,pause,0.4,None,None,None,0,209,209,209,,,,,,,,,,,,,N009,visual,1,[],"['1', '2', '3', '4']",1,2023.2.3,harveyvisual,2.1,[],8,0.75,
5,dot,0.3,['dot'],['density'],black,0,210,210,210,,,75.90024209022522,75.60677599906921,75.92345213890076,dot,"[0.08, 0.1, 0.08, 0.08, 0.06]","[[0.2075830250205083, 0.5448960418430373], [0.010600229768786232, 0.45420498888786176], [-0.10187712889758427, 0.28364076042242115], [0.1691377395635631, 0.293820614486451], [-0.2596336492265815, 0.40815120909286945]]",density,black,,,N009,visual,1,[],"['1', '2', '3', '4']",1,2023.2.3,harveyvisual,2.1,[],8,0.75,
0,pause,0.4,None,None,None,0,211,211,211,,,,,,,,,,,,,N009,visual,1,[],"['1', '2', '3', '4']",1,2023.2.3,harveyvisual,2.1,[],8,0.75,
5,dot,0.3,['dot'],['density'],black,0,212,212,212,,,76.60023593902588,76.30675411224365,76.62342500686646,dot,"[0.06, 0.1, 0.1, 0.1, 0.1]","[[0.05896558140131438, -0.5342250951568444], [0.41924064092593105, -0.38742881471212404], [0.0789485457987589, -0.15857793529431863], [0.19859038409043042, -0.3300393182504279], [-0.04229804568701367, -0.31959008629620334]]",density,black,,,N009,visual,1,[],"['1', '2', '3', '4']",1,2023.2.3,harveyvisual,2.1,[],8,0.75,
0,pause,0.4,None,None,None,0,213,213,213,,,,,,,,,,,,,N009,visual,1,[],"['1', '2', '3', '4']",1,2023.2.3,harveyvisual,2.1,[],8,0.75,
5,dot,0.3,['dot'],['density'],black,0,214,214,214,,,77.3002290725708,77.00685501098633,77.32340502738953,dot,"[0.1, 0.1, 0.08, 0.08, 0.06]","[[-0.053215572458232586, 0.27221330895143253], [0.10089702531331296, 0.1334794413224796], [0.12897289155288158, 0.4002796015157326], [0.3022660506716914, 0.02685289149411272], [0.2804295634962893, 0.24950018434757285]]",density,black,,,N009,visual,1,[],"['1', '2', '3', '4']",1,2023.2.3,harveyvisual,2.1,[],8,0.75,
0,pause,0.4,None,None,None,0,215,215,215,,,,,,,,,,,,,N009,visual,1,[],"['1', '2', '3', '4']",1,2023.2.3,harveyvisual,2.1,[],8,0.75,
4,dot,0.3,['dot'],['density'],black,0,216,216,216,,,78.00023293495178,77.70678615570068,78.02339100837708,dot,"[0.06, 0.08, 0.08, 0.1]","[[-0.2516773625496151, -0.30151264897341506], [-0.16747001932966935, -0.11477707456203952], [0.007305472957725734, -0.4586877449884055], [0.017540980065453668, -0.20354321808263612]]",density,black,,,N009,visual,1,[],"['1', '2', '3', '4']",1,2023.2.3,harveyvisual,2.1,[],8,0.75,
0,pause,0.4,None,None,None,0,217,217,217,,,,,,,,,,,,,N009,visual,1,[],"['1', '2', '3', '4']",1,2023.2.3,harveyvisual,2.1,[],8,0.75,
4,dot,0.3,['dot'],['density'],black,0,218,218,218,,,78.70023798942566,78.40669512748718,78.72337102890015,dot,"[0.06, 0.06, 0.1, 0.06]","[[-0.035956560563939345, -0.32709283091503677], [-0.2190429995428959, -0.2035699502326352], [-0.06992348234594314, -0.5664776463754845], [-0.220471277594294, -0.41208836036752056]]",density,black,,,N009,visual,1,[],"['1', '2', '3', '4']",1,2023.2.3,harveyvisual,2.1,[],8,0.75,
0,pause,0.4,None,None,None,0,219,219,219,,,,,,,,,,,,,N009,visual,1,[],"['1', '2', '3', '4']",1,2023.2.3,harveyvisual,2.1,[],8,0.75,
4,dot,0.3,['dot'],['density'],black,0,220,220,220,,,79.40022611618042,79.10672116279602,79.42334604263306,dot,"[0.06, 0.08, 0.06, 0.1]","[[0.14909032788103166, -0.4768554918693636], [0.26071220381864263, -0.20018841858473793], [0.02634252458519163, -0.30967292471165575], [0.3541358554053611, -0.43808560323820217]]",density,black,,,N009,visual,1,[],"['1', '2', '3', '4']",1,2023.2.3,harveyvisual,2.1,[],8,0.75,
0,pause,0.4,None,None,None,0,221,221,221,,,,,,,,,,,,,N009,visual,1,[],"['1', '2', '3', '4']",1,2023.2.3,harveyvisual,2.1,[],8,0.75,
4,dot,0.3,['dot'],['density'],black,0,222,222,222,,,80.10023212432861,79.80666995048523,80.1233720779419,dot,"[0.08, 0.1, 0.1, 0.1]","[[0.06241226843583792, -0.3147100539198924], [0.2553405417111816, -0.24584579293690137], [0.0027514156828475403, -0.09786489187307437], [0.1660279615748852, 0.026007470517245626]]",density,black,,,N009,visual,1,[],"['1', '2', '3', '4']",1,2023.2.3,harveyvisual,2.1,[],8,0.75,
0,pause,0.4,None,None,None,0,223,223,223,,,,,,,,,,,,,N009,visual,1,[],"['1', '2', '3', '4']",1,2023.2.3,harveyvisual,2.1,[],8,0.75,
4,dot,0.3,['dot'],['density'],black,0,224,224,224,,,80.8002359867096,80.50664901733398,80.8233699798584,dot,"[0.1, 0.06, 0.1, 0.06]","[[0.041567121943163726, -0.05225384285034155], [-0.0805660347394345, -0.3501797602382367], [-0.1695568067340664, -0.0700859275369407], [0.1361950610904954, -0.2628340353233457]]",density,black,,,N009,visual,1,[],"['1', '2', '3', '4']",1,2023.2.3,harveyvisual,2.1,[],8,0.75,
0,pause,0.4,None,None,None,0,225,225,225,,,,,,,,,,,,,N009,visual,1,[],"['1', '2', '3', '4']",1,2023.2.3,harveyvisual,2.1,[],8,0.75,
4,dot,0.3,['dot'],['density'],black,0,226,226,226,,,81.50022101402283,81.20663905143738,81.5233690738678,dot,"[0.1, 0.1, 0.06, 0.06]","[[-0.1266132934267609, -0.4419116806690939], [0.09906976576587005, -0.33923851916676484], [0.1053941350115203, -0.5768907290059295], [0.29145715672269834, -0.49787884973145785]]",density,black,,,N009,visual,1,[],"['1', '2', '3', '4']",1,2023.2.3,harveyvisual,2.1,[],8,0.75,
0,pause,0.4,None,None,None,0,227,227,227,,,,,,,,,,,,,N009,visual,1,[],"['1', '2', '3', '4']",1,2023.2.3,harveyvisual,2.1,[],8,0.75,
3,dot,0.3,['dot'],['density'],white,0,228,228,228,,,82.20021104812622,81.90663313865662,82.22330904006958,dot,"[0.06, 0.1, 0.08]","[[0.5267872668145167, -0.16137547842759675], [0.3420119191573968, -0.036920749927643534], [0.3185462880061428, -0.2399114968218526]]",density,white,,,N009,visual,1,[],"['1', '2', '3', '4']",1,2023.2.3,harveyvisual,2.1,[],8,0.75,
0,pause,0.4,None,None,None,0,229,229,229,,,,,,,,,,,1,82.36902785301208,N009,visual,1,[],"['1', '2', '3', '4']",1,2023.2.3,harveyvisual,2.1,[],8,0.75,
3,dot,0.3,['dot'],['density'],black,0,230,230,230,,,82.90022015571594,82.60663914680481,82.92355608940125,dot,"[0.1, 0.08, 0.1]","[[-0.05604225559701161, -0.5082314702914299], [0.10137377066920354, -0.3837858820064252], [-0.12802807887251882, -0.3142638921214105]]",density,black,,,N009,visual,1,[],"['1', '2', '3', '4']",1,2023.2.3,harveyvisual,2.1,[],8,0.75,
0,pause,0.4,None,None,None,0,231,231,231,,,,,,,,,,,,,N009,visual,1,[],"['1', '2', '3', '4']",1,2023.2.3,harveyvisual,2.1,[],8,0.75,
3,dot,0.3,['dot'],['density'],black,0,232,232,232,,,83.6002140045166,83.30657315254211,83.62328696250916,dot,"[0.08, 0.06, 0.1]","[[-0.31319101668702665, 0.019781348947723338], [-0.5473895760332308, 0.024991247927059115], [-0.4494119348059314, -0.1602141851013313]]",density,black,,,N009,visual,1,[],"['1', '2', '3', '4']",1,2023.2.3,harveyvisual,2.1,[],8,0.75,
0,pause,0.4,None,None,None,0,233,233,233,,,,,,,,,,,,,N009,visual,1,[],"['1', '2', '3', '4']",1,2023.2.3,harveyvisual,2.1,[],8,0.75,
3,dot,0.3,['dot'],['density'],black,0,234,234,234,,,84.30023312568665,84.00662398338318,84.32321000099182,dot,"[0.06, 0.08, 0.08]","[[0.2768253388883432, 0.03346297355107007], [0.11287187477499526, -0.09417797505773098], [0.09003622344097514, 0.12370024427926096]]",density,black,,,N009,visual,1,[],"['1', '2', '3', '4']",1,2023.2.3,harveyvisual,2.1,[],8,0.75,
0,pause,0.4,None,None,None,0,235,235,235,,,,,,,,,,,,,N009,visual,1,[],"['1', '2', '3', '4']",1,2023.2.3,harveyvisual,2.1,[],8,0.75,
3,dot,0.3,['dot'],['density'],black,0,236,236,236,,,85.00021314620972,84.70651507377625,85.02317500114441,dot,"[0.1, 0.1, 0.08]","[[-0.15674404860239688, -0.25078459247658497], [0.006578924124220241, -0.41324131210186005], [0.06959682433872849, -0.20549031443856539]]",density,black,,,N009,visual,1,[],"['1', '2', '3', '4']",1,2023.2.3,harveyvisual,2.1,[],8,0.75,
0,pause,0.4,None,None,None,0,237,237,237,,,,,,,,,,,,,N009,visual,1,[],"['1', '2', '3', '4']",1,2023.2.3,harveyvisual,2.1,[],8,0.75,
3,dot,0.3,['dot'],['density'],black,0,238,238,238,,,85.70021295547485,85.40649008750916,85.72315311431885,dot,"[0.1, 0.1, 0.1]","[[-0.17592395544936776, 0.40510565415719324], [-0.30566154612550034, 0.21848422264492345], [-0.39822260978708685, 0.43144058222919995]]",density,black,,,N009,visual,1,[],"['1', '2', '3', '4']",1,2023.2.3,harveyvisual,2.1,[],8,0.75,
0,pause,0.4,None,None,None,0,239,239,239,,,,,,,,,,,,,N009,visual,1,[],"['1', '2', '3', '4']",1,2023.2.3,harveyvisual,2.1,[],8,0.75,
2,dot,0.3,['dot'],['density'],black,0,240,240,240,,,86.40022397041321,86.10647201538086,86.42313003540039,dot,"[0.1, 0.08]","[[0.1734117655345296, 0.46860731914486053], [-0.01847566562869785, 0.52581935004857]]",density,black,,,N009,visual,1,[],"['1', '2', '3', '4']",1,2023.2.3,harveyvisual,2.1,[],8,0.75,
0,pause,0.4,None,None,None,0,241,241,241,,,,,,,,,,,,,N009,visual,1,[],"['1', '2', '3', '4']",1,2023.2.3,harveyvisual,2.1,[],8,0.75,
2,dot,0.3,['dot'],['density'],black,0,242,242,242,,,87.10023999214172,86.80645513534546,87.12310910224915,dot,"[0.06, 0.1]","[[0.500151128333041, 0.1656925720118866], [0.3771979967144504, 0.3235340638115745]]",density,black,,,N009,visual,1,[],"['1', '2', '3', '4']",1,2023.2.3,harveyvisual,2.1,[],8,0.75,
0,pause,0.4,None,None,None,0,243,243,243,,,,,,,,,,,,,N009,visual,1,[],"['1', '2', '3', '4']",1,2023.2.3,harveyvisual,2.1,[],8,0.75,
2,dot,0.3,['dot'],['density'],black,0,244,244,244,,,87.80021595954895,87.50642800331116,87.82320713996887,dot,"[0.08, 0.08]","[[-0.4579128382498026, -0.013317831223324628], [-0.28624676016543393, -0.11681778735554697]]",density,black,,,N009,visual,1,[],"['1', '2', '3', '4']",1,2023.2.3,harveyvisual,2.1,[],8,0.75,
0,pause,0.4,None,None,None,0,245,245,245,,,,,,,,,,,,,N009,visual,1,[],"['1', '2', '3', '4']",1,2023.2.3,harveyvisual,2.1,[],8,0.75,
2,dot,0.3,['dot'],['density'],black,0,246,246,246,,,88.50023603439331,88.20658993721008,88.52320194244385,dot,"[0.08, 0.1]","[[0.1851205616289071, -0.3624876981064337], [0.3405923022038234, -0.23608025195482504]]",density,black,,,N009,visual,1,[],"['1', '2', '3', '4']",1,2023.2.3,harveyvisual,2.1,[],8,0.75,
0,pause,0.4,None,None,None,0,247,247,247,,,,,,,,,,,,,N009,visual,1,[],"['1', '2', '3', '4']",1,2023.2.3,harveyvisual,2.1,[],8,0.75,
2,dot,0.3,['dot'],['density'],black,0,248,248,248,,,89.20022296905518,88.90657496452332,89.22320103645325,dot,"[0.1, 0.1]","[[0.4298854344354601, 0.24556028782034023], [0.23727674624932948, 0.18886586315459258]]",density,black,,,N009,visual,1,[],"['1', '2', '3', '4']",1,2023.2.3,harveyvisual,2.1,[],8,0.75,
0,pause,0.4,None,None,None,0,249,249,249,,,,,,,,,,,,,N009,visual,1,[],"['1', '2', '3', '4']",1,2023.2.3,harveyvisual,2.1,[],8,0.75,
2,dot,0.3,['dot'],['density'],black,0,250,250,250,,,89.90022015571594,89.60659313201904,89.92320609092712,dot,"[0.08, 0.06]","[[-0.21141336561075566, 0.4273762957479495], [-0.1407142259739198, 0.23984948612333498]]",density,black,,,N009,visual,1,[],"['1', '2', '3', '4']",1,2023.2.3,harveyvisual,2.1,[],8,0.75,
0,pause,0.4,None,None,None,0,251,251,251,,,,,,,,,,,,,N009,visual,1,[],"['1', '2', '3', '4']",1,2023.2.3,harveyvisual,2.1,[],8,0.75,
1,dot,0.3,['dot'],['density'],white,0,252,252,252,,,90.60023903846741,90.3066041469574,90.623202085495,dot,[0.1],"[0.1600937909388646, -0.5041032805904762]",density,white,,,N009,visual,1,[],"['1', '2', '3', '4']",1,2023.2.3,harveyvisual,2.1,[],8,0.75,
0,pause,0.4,None,None,None,0,253,253,253,,,,,,,,,,,1,90.68594479560852,N009,visual,1,[],"['1', '2', '3', '4']",1,2023.2.3,harveyvisual,2.1,[],8,0.75,
1,dot,0.3,['dot'],['density'],black,0,254,254,254,,,91.3002381324768,91.00663113594055,91.32318997383118,dot,[0.08],"[-0.045934412585722416, -0.12236734128406912]",density,black,,,N009,visual,1,[],"['1', '2', '3', '4']",1,2023.2.3,harveyvisual,2.1,[],8,0.75,
0,pause,0.4,None,None,None,0,255,255,255,,,,,,,,,,,,,N009,visual,1,[],"['1', '2', '3', '4']",1,2023.2.3,harveyvisual,2.1,[],8,0.75,
1,dot,0.3,['dot'],['density'],black,0,256,256,256,,,92.000244140625,91.70639109611511,92.02304601669312,dot,[0.1],"[-0.43400380483721984, 0.10531265887229962]",density,black,,,N009,visual,1,[],"['1', '2', '3', '4']",1,2023.2.3,harveyvisual,2.1,[],8,0.75,
0,pause,0.4,None,None,None,0,257,257,257,,,,,,,,,,,,,N009,visual,1,[],"['1', '2', '3', '4']",1,2023.2.3,harveyvisual,2.1,[],8,0.75,
1,dot,0.3,['dot'],['density'],black,0,258,258,258,,,92.70023894309998,92.40649795532227,92.72319006919861,dot,[0.08],"[0.2287398259034258, -0.3932960849464651]",density,black,,,N009,visual,1,[],"['1', '2', '3', '4']",1,2023.2.3,harveyvisual,2.1,[],8,0.75,
0,pause,0.4,None,None,None,0,259,259,259,,,,,,,,,,,,,N009,visual,1,[],"['1', '2', '3', '4']",1,2023.2.3,harveyvisual,2.1,[],8,0.75,
1,dot,0.3,['dot'],['density'],black,0,260,260,260,,,93.40022397041321,93.10648894309998,93.42300295829773,dot,[0.08],"[-0.22356924330877379, 0.41145231278245986]",density,black,,,N009,visual,1,[],"['1', '2', '3', '4']",1,2023.2.3,harveyvisual,2.1,[],8,0.75,
0,pause,0.4,None,None,None,0,261,261,261,,,,,,,,,,,,,N009,visual,1,[],"['1', '2', '3', '4']",1,2023.2.3,harveyvisual,2.1,[],8,0.75,
1,dot,0.3,['dot'],['density'],black,0,262,262,262,,,94.10023808479309,93.806312084198,94.12309908866882,dot,[0.06],"[0.2443568370277045, -0.23874091154858243]",density,black,,,N009,visual,1,[],"['1', '2', '3', '4']",1,2023.2.3,harveyvisual,2.1,[],8,0.75,
0,pause,0.4,None,None,None,0,263,263,263,,,,,,,,,,,,,N009,visual,1,[],"['1', '2', '3', '4']",1,2023.2.3,harveyvisual,2.1,[],8,0.75,
20,dot,0.3,['dot'],['density'],black,0,264,264,264,,,94.80023407936096,94.52308702468872,94.82308197021484,dot,"[0.1, 0.1, 0.08, 0.06, 0.06, 0.06, 0.06, 0.1, 0.1, 0.06, 0.08, 0.06, 0.1, 0.08, 0.06, 0.06, 0.1, 0.08, 0.08, 0.06]","[[0.29873489622467153, 0.3959777338117034], [-0.37327739844993324, -0.2743366955340659], [0.5326091411244976, -0.2106476379119793], [-0.37050322967400584, 0.16669536895810472], [-0.08498399801524692, -0.3639700668575722], [-0.5018710868147217, 0.00956290379936775], [0.47810724851424824, 0.17790119261385118], [0.03892989112305023, 0.35300829807793377], [0.012304929577001467, 0.15404390719397998], [-0.41762055839126994, 0.4381098507658211], [-0.15082206828218075, 0.4108754557095833], [0.15084181743004343, -0.48354956635739577], [0.1269735285879584, 0.5431950097820855], [-0.20482818767446515, -0.09158085127730725], [0.594964009175993, -0.027402831886175857], [-0.0034170915961199144, -0.045099024179203306], [0.3400998595795497, -0.37631282912424324], [-0.2785965238323865, -0.5090579027216603], [0.17605748359189055, 0.03264851643645561], [-0.16880596649599172, 0.21884489104185767]]",density,black,,,N009,visual,1,[],"['1', '2', '3', '4']",1,2023.2.3,harveyvisual,2.1,[],8,0.75,
0,pause,0.4,None,None,None,0,265,265,265,,,,,,,,,,,,,N009,visual,1,[],"['1', '2', '3', '4']",1,2023.2.3,harveyvisual,2.1,[],8,0.75,
20,dot,0.3,['dot'],['density'],black,0,266,266,266,,,95.50023007392883,95.22309994697571,95.52306294441223,dot,"[0.06, 0.08, 0.06, 0.08, 0.1, 0.08, 0.06, 0.06, 0.1, 0.1, 0.1, 0.08, 0.06, 0.08, 0.06, 0.06, 0.1, 0.08, 0.06, 0.08]","[[0.15090137136205284, -0.522595262524169], [0.30970562272540425, 0.5046141643428317], [-0.2968500751134782, 0.19948922126039792], [0.4077673850147484, -0.16360918100898159], [-0.47596630542174245, -0.32330007801545707], [-0.19272175703495514, -0.13462347382393336], [-0.428310141525812, 0.39535666948602316], [0.6026085208585091, 0.042077299782579076], [0.19117822699160647, -0.19837327718815267], [-0.2697238802299586, -0.3435823061262951], [0.34679127653707453, -0.4728494776519626], [-0.048539649799039686, 0.5228543627920428], [0.09410401728928175, 0.26604413099469937], [-0.026929279759961844, -0.24380431517373635], [0.34040684956979694, 0.21708940126663334], [-0.4827624317507017, 0.16191575124327984], [-0.5230899806046071, -0.11121425516896177], [-0.010034452040904251, 0.0364337486815457], [0.5305155952677066, 0.2703730347322655], [-0.052657946412525636, -0.5222050883357533]]",density,black,,,N009,visual,1,[],"['1', '2', '3', '4']",1,2023.2.3,harveyvisual,2.1,[],8,0.75,
0,pause,0.4,None,None,None,0,267,267,267,,,,,,,,,,,,,N009,visual,1,[],"['1', '2', '3', '4']",1,2023.2.3,harveyvisual,2.1,[],8,0.75,
