num,mod,duration,shape,ll_cond,colors,.thisRepN,.thisTrialN,.thisN,.thisIndex,thisRow.t,notes,raw_global_time,t_start,t_stop,pos,fonts,size,button,RT,answer,participant,session,starting_run,left button (match/odd),right button (non-match/even),samples_per_block,psychopy version,expName,offset,audio,number_runs,radius,
1,digit,0.3,['dot'],['big_1'],black,0,0,0,0,,,2.400200843811035,2.1039748191833496,2.403775930404663,"[[0.14849157267543653, -0.13110256332311834]]",['DejaVu Sans'],[0.9],,,,N006,digit,1,"['6', '7', '8', '9']","['1', '2', '3', '4']",1,2023.2.3,harveydigits,2.1,[],8,0.75,
0,pause,0.4,None,None,None,0,1,1,1,,,,,,,,,,,,N006,digit,1,"['6', '7', '8', '9']","['1', '2', '3', '4']",1,2023.2.3,harveydigits,2.1,[],8,0.75,
1,digit,0.3,['dot'],['big_1'],black,0,2,2,2,,,3.100214958190918,2.8038058280944824,3.1044108867645264,"[[0.15517729174365305, -0.049366074149760755]]",['DejaVu Sans'],[0.9],,,,N006,digit,1,"['6', '7', '8', '9']","['1', '2', '3', '4']",1,2023.2.3,harveydigits,2.1,[],8,0.75,
0,pause,0.4,None,None,None,0,3,3,3,,,,,,,,,,,,N006,digit,1,"['6', '7', '8', '9']","['1', '2', '3', '4']",1,2023.2.3,harveydigits,2.1,[],8,0.75,
1,digit,0.3,['dot'],['big_1'],black,0,4,4,4,,,3.8001959323883057,3.5042808055877686,3.8042118549346924,"[[-0.10308381564240333, -0.06157787365533397]]",['DejaVu Sans'],[0.9],,,,N006,digit,1,"['6', '7', '8', '9']","['1', '2', '3', '4']",1,2023.2.3,harveydigits,2.1,[],8,0.75,
0,pause,0.4,None,None,None,0,5,5,5,,,,,,,,,,,,N006,digit,1,"['6', '7', '8', '9']","['1', '2', '3', '4']",1,2023.2.3,harveydigits,2.1,[],8,0.75,
1,digit,0.3,['dot'],['big_1'],black,0,6,6,6,,,4.5002219676971436,4.204255819320679,4.520907878875732,"[[0.14261873618541113, -0.022151925133272396]]",['DejaVu Sans'],[0.9],,,,N006,digit,1,"['6', '7', '8', '9']","['1', '2', '3', '4']",1,2023.2.3,harveydigits,2.1,[],8,0.75,
0,pause,0.4,None,None,None,0,7,7,7,,,,,,,,,,,,N006,digit,1,"['6', '7', '8', '9']","['1', '2', '3', '4']",1,2023.2.3,harveydigits,2.1,[],8,0.75,
1,digit,0.3,['dot'],['big_1'],black,0,8,8,8,,,5.200191974639893,4.904191970825195,5.204213857650757,"[[0.1351615139578057, 0.006877954340771292]]",['DejaVu Sans'],[0.9],,,,N006,digit,1,"['6', '7', '8', '9']","['1', '2', '3', '4']",1,2023.2.3,harveydigits,2.1,[],8,0.75,
0,pause,0.4,None,None,None,0,9,9,9,,,,,,,,,,,,N006,digit,1,"['6', '7', '8', '9']","['1', '2', '3', '4']",1,2023.2.3,harveydigits,2.1,[],8,0.75,
1,digit,0.3,['dot'],['big_1'],black,0,10,10,10,,,5.90021276473999,5.604328870773315,5.923179864883423,"[[-0.12398495029198084, -0.035388481760554175]]",['DejaVu Sans'],[0.9],,,,N006,digit,1,"['6', '7', '8', '9']","['1', '2', '3', '4']",1,2023.2.3,harveydigits,2.1,[],8,0.75,
0,pause,0.4,None,None,None,0,11,11,11,,,,,,,,,,,,N006,digit,1,"['6', '7', '8', '9']","['1', '2', '3', '4']",1,2023.2.3,harveydigits,2.1,[],8,0.75,
2,digit,0.3,['dot'],['big_1'],black,0,12,12,12,,,6.600203990936279,6.306476831436157,6.6231608390808105,"[[0.07295363718553458, -0.008580397421712294]]",['DejaVu Sans'],[0.9],,,,N006,digit,1,"['6', '7', '8', '9']","['1', '2', '3', '4']",1,2023.2.3,harveydigits,2.1,[],8,0.75,
0,pause,0.4,None,None,None,0,13,13,13,,,,,,,,,,,,N006,digit,1,"['6', '7', '8', '9']","['1', '2', '3', '4']",1,2023.2.3,harveydigits,2.1,[],8,0.75,
2,digit,0.3,['dot'],['big_1'],black,0,14,14,14,,,7.300218820571899,7.006492853164673,7.323138952255249,"[[-0.06855182925475742, 0.10522350193830113]]",['DejaVu Sans'],[0.9],,,,N006,digit,1,"['6', '7', '8', '9']","['1', '2', '3', '4']",1,2023.2.3,harveydigits,2.1,[],8,0.75,
0,pause,0.4,None,None,None,0,15,15,15,,,,,,,,,,,,N006,digit,1,"['6', '7', '8', '9']","['1', '2', '3', '4']",1,2023.2.3,harveydigits,2.1,[],8,0.75,
2,digit,0.3,['dot'],['big_1'],black,0,16,16,16,,,8.00019884109497,7.7064738273620605,8.02312684059143,"[[0.030431838446271564, -0.14713015844566352]]",['DejaVu Sans'],[0.9],,,,N006,digit,1,"['6', '7', '8', '9']","['1', '2', '3', '4']",1,2023.2.3,harveydigits,2.1,[],8,0.75,
0,pause,0.4,None,None,None,0,17,17,17,,,,,,,,,,,,N006,digit,1,"['6', '7', '8', '9']","['1', '2', '3', '4']",1,2023.2.3,harveydigits,2.1,[],8,0.75,
2,digit,0.3,['dot'],['big_1'],black,0,18,18,18,,,8.700195789337158,8.406453847885132,8.723120927810669,"[[0.08151156083815322, 0.07408121050435815]]",['DejaVu Sans'],[0.9],,,,N006,digit,1,"['6', '7', '8', '9']","['1', '2', '3', '4']",1,2023.2.3,harveydigits,2.1,[],8,0.75,
0,pause,0.4,None,None,None,0,19,19,19,,,,,,,,,,,,N006,digit,1,"['6', '7', '8', '9']","['1', '2', '3', '4']",1,2023.2.3,harveydigits,2.1,[],8,0.75,
2,digit,0.3,['dot'],['big_1'],black,0,20,20,20,,,9.400206804275513,9.10645079612732,9.423101902008057,"[[-0.17309154842387645, -0.06480472119574184]]",['DejaVu Sans'],[0.9],,,,N006,digit,1,"['6', '7', '8', '9']","['1', '2', '3', '4']",1,2023.2.3,harveydigits,2.1,[],8,0.75,
0,pause,0.4,None,None,None,0,21,21,21,,,,,,,,,,,,N006,digit,1,"['6', '7', '8', '9']","['1', '2', '3', '4']",1,2023.2.3,harveydigits,2.1,[],8,0.75,
2,digit,0.3,['dot'],['big_1'],black,0,22,22,22,,,10.100207805633545,9.806424856185913,10.1230788230896,"[[-0.19028927917253677, -0.023865403292699906]]",['DejaVu Sans'],[0.9],,,,N006,digit,1,"['6', '7', '8', '9']","['1', '2', '3', '4']",1,2023.2.3,harveydigits,2.1,[],8,0.75,
0,pause,0.4,None,None,None,0,23,23,23,,,,,,,,,,,,N006,digit,1,"['6', '7', '8', '9']","['1', '2', '3', '4']",1,2023.2.3,harveydigits,2.1,[],8,0.75,
3,digit,0.3,['dot'],['big_1'],black,0,24,24,24,,,10.8002028465271,10.506378889083862,10.823057889938354,"[[-0.1748314749089289, 0.04008286999015395]]",['DejaVu Sans'],[0.9],,,,N006,digit,1,"['6', '7', '8', '9']","['1', '2', '3', '4']",1,2023.2.3,harveydigits,2.1,[],8,0.75,
0,pause,0.4,None,None,None,0,25,25,25,,,,,,,,,,,,N006,digit,1,"['6', '7', '8', '9']","['1', '2', '3', '4']",1,2023.2.3,harveydigits,2.1,[],8,0.75,
3,digit,0.3,['dot'],['big_1'],black,0,26,26,26,,,11.500215768814087,11.20651888847351,11.523162841796875,"[[-0.12249315654008827, -0.05923256933489077]]",['DejaVu Sans'],[0.9],,,,N006,digit,1,"['6', '7', '8', '9']","['1', '2', '3', '4']",1,2023.2.3,harveydigits,2.1,[],8,0.75,
0,pause,0.4,None,None,None,0,27,27,27,,,,,,,,,,,,N006,digit,1,"['6', '7', '8', '9']","['1', '2', '3', '4']",1,2023.2.3,harveydigits,2.1,[],8,0.75,
3,digit,0.3,['dot'],['big_1'],black,0,28,28,28,,,12.200207948684692,11.906508922576904,12.223018884658813,"[[0.02171220287899081, 0.027908942166026157]]",['DejaVu Sans'],[0.9],,,,N006,digit,1,"['6', '7', '8', '9']","['1', '2', '3', '4']",1,2023.2.3,harveydigits,2.1,[],8,0.75,
0,pause,0.4,None,None,None,0,29,29,29,,,,,,,,,,,,N006,digit,1,"['6', '7', '8', '9']","['1', '2', '3', '4']",1,2023.2.3,harveydigits,2.1,[],8,0.75,
3,digit,0.3,['dot'],['big_1'],black,0,30,30,30,,,12.900201797485352,12.606345891952515,12.923000812530518,"[[-0.07728199591466382, -0.10714791329898667]]",['DejaVu Sans'],[0.9],,,,N006,digit,1,"['6', '7', '8', '9']","['1', '2', '3', '4']",1,2023.2.3,harveydigits,2.1,[],8,0.75,
0,pause,0.4,None,None,None,0,31,31,31,,,,,,,,,,,,N006,digit,1,"['6', '7', '8', '9']","['1', '2', '3', '4']",1,2023.2.3,harveydigits,2.1,[],8,0.75,
3,digit,0.3,['dot'],['big_1'],black,0,32,32,32,,,13.600213766098022,13.30632996559143,13.62298583984375,"[[-0.09881856956002104, 0.04719438044483973]]",['DejaVu Sans'],[0.9],,,,N006,digit,1,"['6', '7', '8', '9']","['1', '2', '3', '4']",1,2023.2.3,harveydigits,2.1,[],8,0.75,
0,pause,0.4,None,None,None,0,33,33,33,,,,,,,,,,,,N006,digit,1,"['6', '7', '8', '9']","['1', '2', '3', '4']",1,2023.2.3,harveydigits,2.1,[],8,0.75,
3,digit,0.3,['dot'],['big_1'],black,0,34,34,34,,,14.300206899642944,14.006322860717773,14.322963953018188,"[[-0.15746745188922334, -0.10625211643039227]]",['DejaVu Sans'],[0.9],,,,N006,digit,1,"['6', '7', '8', '9']","['1', '2', '3', '4']",1,2023.2.3,harveydigits,2.1,[],8,0.75,
0,pause,0.4,None,None,None,0,35,35,35,,,,,,,,,,,,N006,digit,1,"['6', '7', '8', '9']","['1', '2', '3', '4']",1,2023.2.3,harveydigits,2.1,[],8,0.75,
4,digit,0.3,['dot'],['big_1'],black,0,36,36,36,,,15.000219821929932,14.706304788589478,15.022944927215576,"[[-0.17785492310053697, -0.03569161499772842]]",['DejaVu Sans'],[0.9],,,,N006,digit,1,"['6', '7', '8', '9']","['1', '2', '3', '4']",1,2023.2.3,harveydigits,2.1,[],8,0.75,
0,pause,0.4,None,None,None,0,37,37,37,,,,,,,,,,,,N006,digit,1,"['6', '7', '8', '9']","['1', '2', '3', '4']",1,2023.2.3,harveydigits,2.1,[],8,0.75,
4,digit,0.3,['dot'],['big_1'],black,0,38,38,38,,,15.700224876403809,15.406283855438232,15.722935914993286,"[[0.1627898395644414, -0.0782918802190673]]",['DejaVu Sans'],[0.9],,,,N006,digit,1,"['6', '7', '8', '9']","['1', '2', '3', '4']",1,2023.2.3,harveydigits,2.1,[],8,0.75,
0,pause,0.4,None,None,None,0,39,39,39,,,,,,,,,,,,N006,digit,1,"['6', '7', '8', '9']","['1', '2', '3', '4']",1,2023.2.3,harveydigits,2.1,[],8,0.75,
4,digit,0.3,['dot'],['big_1'],black,0,40,40,40,,,16.400210857391357,16.10627794265747,16.422952890396118,"[[0.007451482892743222, 0.0450893883991908]]",['DejaVu Sans'],[0.9],,,,N006,digit,1,"['6', '7', '8', '9']","['1', '2', '3', '4']",1,2023.2.3,harveydigits,2.1,[],8,0.75,
0,pause,0.4,None,None,None,0,41,41,41,,,,,,,,,,,,N006,digit,1,"['6', '7', '8', '9']","['1', '2', '3', '4']",1,2023.2.3,harveydigits,2.1,[],8,0.75,
4,digit,0.3,['dot'],['big_1'],black,0,42,42,42,,,17.100212812423706,16.806238889694214,17.12288999557495,"[[0.023684563292124927, -0.07930236397469351]]",['DejaVu Sans'],[0.9],,,,N006,digit,1,"['6', '7', '8', '9']","['1', '2', '3', '4']",1,2023.2.3,harveydigits,2.1,[],8,0.75,
0,pause,0.4,None,None,None,0,43,43,43,,,,,,,,,,,,N006,digit,1,"['6', '7', '8', '9']","['1', '2', '3', '4']",1,2023.2.3,harveydigits,2.1,[],8,0.75,
4,digit,0.3,['dot'],['big_1'],black,0,44,44,44,,,17.80021595954895,17.50622582435608,17.82286286354065,"[[0.14098906793861268, 0.10799426594273834]]",['DejaVu Sans'],[0.9],,,,N006,digit,1,"['6', '7', '8', '9']","['1', '2', '3', '4']",1,2023.2.3,harveydigits,2.1,[],8,0.75,
0,pause,0.4,None,None,None,0,45,45,45,,,,,,,,,,,,N006,digit,1,"['6', '7', '8', '9']","['1', '2', '3', '4']",1,2023.2.3,harveydigits,2.1,[],8,0.75,
4,digit,0.3,['dot'],['big_1'],black,0,46,46,46,,,18.50020694732666,18.206215858459473,18.522880792617798,"[[-0.024436905405601145, 0.05927155092812164]]",['DejaVu Sans'],[0.9],,,,N006,digit,1,"['6', '7', '8', '9']","['1', '2', '3', '4']",1,2023.2.3,harveydigits,2.1,[],8,0.75,
0,pause,0.4,None,None,None,0,47,47,47,,,,,,,,,,,,N006,digit,1,"['6', '7', '8', '9']","['1', '2', '3', '4']",1,2023.2.3,harveydigits,2.1,[],8,0.75,
5,digit,0.3,['dot'],['big_1'],black,0,48,48,48,,,19.200203895568848,18.906186819076538,19.22283387184143,"[[-0.15236943191910268, -0.005730521999467816]]",['DejaVu Sans'],[0.9],,,,N006,digit,1,"['6', '7', '8', '9']","['1', '2', '3', '4']",1,2023.2.3,harveydigits,2.1,[],8,0.75,
0,pause,0.4,None,None,None,0,49,49,49,,,,,,,,,,,,N006,digit,1,"['6', '7', '8', '9']","['1', '2', '3', '4']",1,2023.2.3,harveydigits,2.1,[],8,0.75,
5,digit,0.3,['dot'],['big_1'],black,0,50,50,50,,,19.900223970413208,19.60617685317993,19.922810792922974,"[[-0.19312159158834036, -0.024919424983782336]]",['DejaVu Sans'],[0.9],,,,N006,digit,1,"['6', '7', '8', '9']","['1', '2', '3', '4']",1,2023.2.3,harveydigits,2.1,[],8,0.75,
0,pause,0.4,None,None,None,0,51,51,51,,,,,,,,,,,,N006,digit,1,"['6', '7', '8', '9']","['1', '2', '3', '4']",1,2023.2.3,harveydigits,2.1,[],8,0.75,
5,digit,0.3,['dot'],['big_1'],black,0,52,52,52,,,20.600201845169067,20.30613899230957,20.623015880584717,"[[-0.14533032620651667, -0.09873089762242229]]",['DejaVu Sans'],[0.9],,,,N006,digit,1,"['6', '7', '8', '9']","['1', '2', '3', '4']",1,2023.2.3,harveydigits,2.1,[],8,0.75,
0,pause,0.4,None,None,None,0,53,53,53,,,,,,,,,,,,N006,digit,1,"['6', '7', '8', '9']","['1', '2', '3', '4']",1,2023.2.3,harveydigits,2.1,[],8,0.75,
5,digit,0.3,['dot'],['big_1'],black,0,54,54,54,,,21.30022382736206,21.00612783432007,21.322913885116577,"[[0.03567364878048829, -0.12222491894433385]]",['DejaVu Sans'],[0.9],,,,N006,digit,1,"['6', '7', '8', '9']","['1', '2', '3', '4']",1,2023.2.3,harveydigits,2.1,[],8,0.75,
0,pause,0.4,None,None,None,0,55,55,55,,,,,,,,,,,,N006,digit,1,"['6', '7', '8', '9']","['1', '2', '3', '4']",1,2023.2.3,harveydigits,2.1,[],8,0.75,
5,digit,0.3,['dot'],['big_1'],black,0,56,56,56,,,22.00020694732666,21.706148862838745,22.022795915603638,"[[0.11316984648214976, 0.04986864516950512]]",['DejaVu Sans'],[0.9],,,,N006,digit,1,"['6', '7', '8', '9']","['1', '2', '3', '4']",1,2023.2.3,harveydigits,2.1,[],8,0.75,
0,pause,0.4,None,None,None,0,57,57,57,,,,,,,,,,,,N006,digit,1,"['6', '7', '8', '9']","['1', '2', '3', '4']",1,2023.2.3,harveydigits,2.1,[],8,0.75,
5,digit,0.3,['dot'],['big_1'],black,0,58,58,58,,,22.700222969055176,22.40613079071045,22.72276282310486,"[[-0.19826922928292798, -0.007803330248537833]]",['DejaVu Sans'],[0.9],,,,N006,digit,1,"['6', '7', '8', '9']","['1', '2', '3', '4']",1,2023.2.3,harveydigits,2.1,[],8,0.75,
0,pause,0.4,None,None,None,0,59,59,59,,,,,,,,,,,,N006,digit,1,"['6', '7', '8', '9']","['1', '2', '3', '4']",1,2023.2.3,harveydigits,2.1,[],8,0.75,
6,digit,0.3,['dot'],['big_1'],white,0,60,60,60,,,23.400208950042725,23.106090784072876,23.422693967819214,"[[0.16538208055164763, 0.10605795812788509]]",['DejaVu Sans'],[0.9],,,,N006,digit,1,"['6', '7', '8', '9']","['1', '2', '3', '4']",1,2023.2.3,harveydigits,2.1,[],8,0.75,
0,pause,0.4,None,None,None,0,61,61,61,,,,,,,,,1,23.483134031295776,,N006,digit,1,"['6', '7', '8', '9']","['1', '2', '3', '4']",1,2023.2.3,harveydigits,2.1,[],8,0.75,
6,digit,0.3,['dot'],['big_1'],white,0,62,62,62,,,24.100199937820435,23.80601978302002,24.122679948806763,"[[0.15574322795952214, 0.12508499640908383]]",['DejaVu Sans'],[0.9],,,,N006,digit,1,"['6', '7', '8', '9']","['1', '2', '3', '4']",1,2023.2.3,harveydigits,2.1,[],8,0.75,
0,pause,0.4,None,None,None,0,63,63,63,,,,,,,,,1,24.074202060699463,,N006,digit,1,"['6', '7', '8', '9']","['1', '2', '3', '4']",1,2023.2.3,harveydigits,2.1,[],8,0.75,
6,digit,0.3,['dot'],['big_1'],white,0,64,64,64,,,24.800241947174072,24.506000995635986,24.82267189025879,"[[0.07239155927798083, 0.1276755207897418]]",['DejaVu Sans'],[0.9],1,24.695302963256836,,N006,digit,1,"['6', '7', '8', '9']","['1', '2', '3', '4']",1,2023.2.3,harveydigits,2.1,[],8,0.75,
0,pause,0.4,None,None,None,0,65,65,65,,,,,,,,,,,,N006,digit,1,"['6', '7', '8', '9']","['1', '2', '3', '4']",1,2023.2.3,harveydigits,2.1,[],8,0.75,
6,digit,0.3,['dot'],['big_1'],white,0,66,66,66,,,25.500220775604248,25.205983877182007,25.522644996643066,"[[0.1144487790440388, 0.05831063887809029]]",['DejaVu Sans'],[0.9],1,25.358333110809326,,N006,digit,1,"['6', '7', '8', '9']","['1', '2', '3', '4']",1,2023.2.3,harveydigits,2.1,[],8,0.75,
0,pause,0.4,None,None,None,0,67,67,67,,,,,,,,,,,,N006,digit,1,"['6', '7', '8', '9']","['1', '2', '3', '4']",1,2023.2.3,harveydigits,2.1,[],8,0.75,
6,digit,0.3,['dot'],['big_1'],white,0,68,68,68,,,26.200235843658447,25.905974864959717,26.222620964050293,"[[-0.19197773424270922, 0.0449479499040371]]",['DejaVu Sans'],[0.9],1,25.97545313835144,,N006,digit,1,"['6', '7', '8', '9']","['1', '2', '3', '4']",1,2023.2.3,harveydigits,2.1,[],8,0.75,
0,pause,0.4,None,None,None,0,69,69,69,,,,,,,,,,,,N006,digit,1,"['6', '7', '8', '9']","['1', '2', '3', '4']",1,2023.2.3,harveydigits,2.1,[],8,0.75,
6,digit,0.3,['dot'],['big_1'],white,0,70,70,70,,,26.900234937667847,26.605944871902466,26.922616958618164,"[[0.07415362490789959, -0.00013000772331289712]]",['DejaVu Sans'],[0.9],1,26.768551111221313,,N006,digit,1,"['6', '7', '8', '9']","['1', '2', '3', '4']",1,2023.2.3,harveydigits,2.1,[],8,0.75,
0,pause,0.4,None,None,None,0,71,71,71,,,,,,,,,,,,N006,digit,1,"['6', '7', '8', '9']","['1', '2', '3', '4']",1,2023.2.3,harveydigits,2.1,[],8,0.75,
7,digit,0.3,['dot'],['big_1'],black,0,72,72,72,,,27.600201845169067,27.305938959121704,27.62259078025818,"[[-0.010239029097775992, -0.009555402267131002]]",['DejaVu Sans'],[0.9],,,,N006,digit,1,"['6', '7', '8', '9']","['1', '2', '3', '4']",1,2023.2.3,harveydigits,2.1,[],8,0.75,
0,pause,0.4,None,None,None,0,73,73,73,,,,,,,,,,,,N006,digit,1,"['6', '7', '8', '9']","['1', '2', '3', '4']",1,2023.2.3,harveydigits,2.1,[],8,0.75,
7,digit,0.3,['dot'],['big_1'],black,0,74,74,74,,,28.30021381378174,28.005982875823975,28.322619915008545,"[[0.09760706738624766, 0.09826168439021024]]",['DejaVu Sans'],[0.9],,,,N006,digit,1,"['6', '7', '8', '9']","['1', '2', '3', '4']",1,2023.2.3,harveydigits,2.1,[],8,0.75,
0,pause,0.4,None,None,None,0,75,75,75,,,,,,,,,,,,N006,digit,1,"['6', '7', '8', '9']","['1', '2', '3', '4']",1,2023.2.3,harveydigits,2.1,[],8,0.75,
7,digit,0.3,['dot'],['big_1'],black,0,76,76,76,,,29.00022792816162,28.70591688156128,29.02259397506714,"[[0.12999595083499146, 0.1020433509222845]]",['DejaVu Sans'],[0.9],,,,N006,digit,1,"['6', '7', '8', '9']","['1', '2', '3', '4']",1,2023.2.3,harveydigits,2.1,[],8,0.75,
0,pause,0.4,None,None,None,0,77,77,77,,,,,,,,,,,,N006,digit,1,"['6', '7', '8', '9']","['1', '2', '3', '4']",1,2023.2.3,harveydigits,2.1,[],8,0.75,
7,digit,0.3,['dot'],['big_1'],black,0,78,78,78,,,29.700225830078125,29.405866861343384,29.722566843032837,"[[-0.16406575546217986, 0.10373344769654598]]",['DejaVu Sans'],[0.9],,,,N006,digit,1,"['6', '7', '8', '9']","['1', '2', '3', '4']",1,2023.2.3,harveydigits,2.1,[],8,0.75,
0,pause,0.4,None,None,None,0,79,79,79,,,,,,,,,,,,N006,digit,1,"['6', '7', '8', '9']","['1', '2', '3', '4']",1,2023.2.3,harveydigits,2.1,[],8,0.75,
7,digit,0.3,['dot'],['big_1'],black,0,80,80,80,,,30.400224924087524,30.105875968933105,30.42251491546631,"[[0.023491969177708405, -0.0755775118899542]]",['DejaVu Sans'],[0.9],,,,N006,digit,1,"['6', '7', '8', '9']","['1', '2', '3', '4']",1,2023.2.3,harveydigits,2.1,[],8,0.75,
0,pause,0.4,None,None,None,0,81,81,81,,,,,,,,,,,,N006,digit,1,"['6', '7', '8', '9']","['1', '2', '3', '4']",1,2023.2.3,harveydigits,2.1,[],8,0.75,
7,digit,0.3,['dot'],['big_1'],black,0,82,82,82,,,31.100223779678345,30.805864810943604,31.122488975524902,"[[0.1867384608863187, -0.06890508581533279]]",['DejaVu Sans'],[0.9],,,,N006,digit,1,"['6', '7', '8', '9']","['1', '2', '3', '4']",1,2023.2.3,harveydigits,2.1,[],8,0.75,
0,pause,0.4,None,None,None,0,83,83,83,,,,,,,,,,,,N006,digit,1,"['6', '7', '8', '9']","['1', '2', '3', '4']",1,2023.2.3,harveydigits,2.1,[],8,0.75,
8,digit,0.3,['dot'],['big_1'],white,0,84,84,84,,,31.8002028465271,31.505814790725708,31.822505950927734,"[[0.04365211900939059, 0.19444368822032773]]",['DejaVu Sans'],[0.9],,,,N006,digit,1,"['6', '7', '8', '9']","['1', '2', '3', '4']",1,2023.2.3,harveydigits,2.1,[],8,0.75,
0,pause,0.4,None,None,None,0,85,85,85,,,,,,,,,,,,N006,digit,1,"['6', '7', '8', '9']","['1', '2', '3', '4']",1,2023.2.3,harveydigits,2.1,[],8,0.75,
8,digit,0.3,['dot'],['big_1'],white,0,86,86,86,,,32.50024390220642,32.205832958221436,32.5224769115448,"[[0.037596516646078104, 0.0702965590407012]]",['DejaVu Sans'],[0.9],left,32.17224097251892,odd,N006,digit,1,"['6', '7', '8', '9']","['1', '2', '3', '4']",1,2023.2.3,harveydigits,2.1,[],8,0.75,
0,pause,0.4,None,None,None,0,87,87,87,,,,,,,,,,,,N006,digit,1,"['6', '7', '8', '9']","['1', '2', '3', '4']",1,2023.2.3,harveydigits,2.1,[],8,0.75,
8,digit,0.3,['dot'],['big_1'],white,0,88,88,88,,,33.20024299621582,32.90580177307129,33.22247290611267,"[[-0.16101510001129948, 0.0857567179227]]",['DejaVu Sans'],[0.9],1,32.943294048309326,,N006,digit,1,"['6', '7', '8', '9']","['1', '2', '3', '4']",1,2023.2.3,harveydigits,2.1,[],8,0.75,
0,pause,0.4,None,None,None,0,89,89,89,,,,,,,,,,,,N006,digit,1,"['6', '7', '8', '9']","['1', '2', '3', '4']",1,2023.2.3,harveydigits,2.1,[],8,0.75,
8,digit,0.3,['dot'],['big_1'],white,0,90,90,90,,,33.90024280548096,33.605801820755005,33.92246079444885,"[[-0.15645561318562162, 0.0675323407936131]]",['DejaVu Sans'],[0.9],1,33.65136694908142,,N006,digit,1,"['6', '7', '8', '9']","['1', '2', '3', '4']",1,2023.2.3,harveydigits,2.1,[],8,0.75,
0,pause,0.4,None,None,None,0,91,91,91,,,,,,,,,,,,N006,digit,1,"['6', '7', '8', '9']","['1', '2', '3', '4']",1,2023.2.3,harveydigits,2.1,[],8,0.75,
8,digit,0.3,['dot'],['big_1'],white,0,92,92,92,,,34.60024881362915,34.30576777458191,34.62243986129761,"[[-0.04723613287462139, -0.10091878115664324]]",['DejaVu Sans'],[0.9],1,34.299489974975586,,N006,digit,1,"['6', '7', '8', '9']","['1', '2', '3', '4']",1,2023.2.3,harveydigits,2.1,[],8,0.75,
0,pause,0.4,None,None,None,0,93,93,93,,,,,,,,,,,,N006,digit,1,"['6', '7', '8', '9']","['1', '2', '3', '4']",1,2023.2.3,harveydigits,2.1,[],8,0.75,
8,digit,0.3,['dot'],['big_1'],white,0,94,94,94,,,35.300243854522705,35.005836963653564,35.32239890098572,"[[0.02432510403597027, -0.08445473299865128]]",['DejaVu Sans'],[0.9],1,35.00059914588928,,N006,digit,1,"['6', '7', '8', '9']","['1', '2', '3', '4']",1,2023.2.3,harveydigits,2.1,[],8,0.75,
0,pause,0.4,None,None,None,0,95,95,95,,,,,,,,,,,,N006,digit,1,"['6', '7', '8', '9']","['1', '2', '3', '4']",1,2023.2.3,harveydigits,2.1,[],8,0.75,
9,digit,0.3,['dot'],['big_1'],black,0,96,96,96,,,36.00022292137146,35.70573592185974,36.02240300178528,"[[-0.008766520895241076, -0.0505945215081226]]",['DejaVu Sans'],[0.9],,,,N006,digit,1,"['6', '7', '8', '9']","['1', '2', '3', '4']",1,2023.2.3,harveydigits,2.1,[],8,0.75,
0,pause,0.4,None,None,None,0,97,97,97,,,,,,,,,,,,N006,digit,1,"['6', '7', '8', '9']","['1', '2', '3', '4']",1,2023.2.3,harveydigits,2.1,[],8,0.75,
9,digit,0.3,['dot'],['big_1'],black,0,98,98,98,,,36.700204849243164,36.4057137966156,36.722519874572754,"[[-0.17243297131019653, -0.006154807654532829]]",['DejaVu Sans'],[0.9],,,,N006,digit,1,"['6', '7', '8', '9']","['1', '2', '3', '4']",1,2023.2.3,harveydigits,2.1,[],8,0.75,
0,pause,0.4,None,None,None,0,99,99,99,,,,,,,,,,,,N006,digit,1,"['6', '7', '8', '9']","['1', '2', '3', '4']",1,2023.2.3,harveydigits,2.1,[],8,0.75,
9,digit,0.3,['dot'],['big_1'],black,0,100,100,100,,,37.40020799636841,37.10584998130798,37.42238688468933,"[[-0.09902026874568154, -0.07633085747330326]]",['DejaVu Sans'],[0.9],,,,N006,digit,1,"['6', '7', '8', '9']","['1', '2', '3', '4']",1,2023.2.3,harveydigits,2.1,[],8,0.75,
0,pause,0.4,None,None,None,0,101,101,101,,,,,,,,,,,,N006,digit,1,"['6', '7', '8', '9']","['1', '2', '3', '4']",1,2023.2.3,harveydigits,2.1,[],8,0.75,
9,digit,0.3,['dot'],['big_1'],black,0,102,102,102,,,38.100212812423706,37.805720806121826,38.12231779098511,"[[-0.12701436758341805, 0.11138220214877287]]",['DejaVu Sans'],[0.9],,,,N006,digit,1,"['6', '7', '8', '9']","['1', '2', '3', '4']",1,2023.2.3,harveydigits,2.1,[],8,0.75,
0,pause,0.4,None,None,None,0,103,103,103,,,,,,,,,,,,N006,digit,1,"['6', '7', '8', '9']","['1', '2', '3', '4']",1,2023.2.3,harveydigits,2.1,[],8,0.75,
9,digit,0.3,['dot'],['big_1'],black,0,104,104,104,,,38.80020785331726,38.505711793899536,38.82233381271362,"[[-0.1342192851164905, 0.000688307392308185]]",['DejaVu Sans'],[0.9],,,,N006,digit,1,"['6', '7', '8', '9']","['1', '2', '3', '4']",1,2023.2.3,harveydigits,2.1,[],8,0.75,
0,pause,0.4,None,None,None,0,105,105,105,,,,,,,,,,,,N006,digit,1,"['6', '7', '8', '9']","['1', '2', '3', '4']",1,2023.2.3,harveydigits,2.1,[],8,0.75,
9,digit,0.3,['dot'],['big_1'],black,0,106,106,106,,,39.50020694732666,39.205713987350464,39.522289991378784,"[[0.16040689919054893, 0.061939910297170275]]",['DejaVu Sans'],[0.9],,,,N006,digit,1,"['6', '7', '8', '9']","['1', '2', '3', '4']",1,2023.2.3,harveydigits,2.1,[],8,0.75,
0,pause,0.4,None,None,None,0,107,107,107,,,,,,,,,,,,N006,digit,1,"['6', '7', '8', '9']","['1', '2', '3', '4']",1,2023.2.3,harveydigits,2.1,[],8,0.75,
20,digit,0.3,['dot'],['big_1'],black,0,108,108,108,,,40.20021200180054,39.90566086769104,40.222336769104004,"[[-0.13031845524711552, -0.08841785362641331]]",['DejaVu Sans'],[0.9],,,,N006,digit,1,"['6', '7', '8', '9']","['1', '2', '3', '4']",1,2023.2.3,harveydigits,2.1,[],8,0.75,
0,pause,0.4,None,None,None,0,109,109,109,,,,,,,,,,,,N006,digit,1,"['6', '7', '8', '9']","['1', '2', '3', '4']",1,2023.2.3,harveydigits,2.1,[],8,0.75,
20,digit,0.3,['dot'],['big_1'],black,0,110,110,110,,,40.900227785110474,40.605652809143066,40.92231297492981,"[[0.041509169157738224, 0.07170126769113391]]",['DejaVu Sans'],[0.9],,,,N006,digit,1,"['6', '7', '8', '9']","['1', '2', '3', '4']",1,2023.2.3,harveydigits,2.1,[],8,0.75,
0,pause,0.4,None,None,None,0,111,111,111,,,,,,,,,,,,N006,digit,1,"['6', '7', '8', '9']","['1', '2', '3', '4']",1,2023.2.3,harveydigits,2.1,[],8,0.75,
20,digit,0.3,['dot'],['big_1'],black,0,112,112,112,,,41.60020899772644,41.305630922317505,41.62222599983215,"[[0.082684126804101, -0.16531393565114727]]",['DejaVu Sans'],[0.9],,,,N006,digit,1,"['6', '7', '8', '9']","['1', '2', '3', '4']",1,2023.2.3,harveydigits,2.1,[],8,0.75,
0,pause,0.4,None,None,None,0,113,113,113,,,,,,,,,,,,N006,digit,1,"['6', '7', '8', '9']","['1', '2', '3', '4']",1,2023.2.3,harveydigits,2.1,[],8,0.75,
20,digit,0.3,['dot'],['big_1'],black,0,114,114,114,,,42.30020999908447,42.00564694404602,42.322227001190186,"[[-0.16448062980922276, -0.013251720086762384]]",['DejaVu Sans'],[0.9],,,,N006,digit,1,"['6', '7', '8', '9']","['1', '2', '3', '4']",1,2023.2.3,harveydigits,2.1,[],8,0.75,
0,pause,0.4,None,None,None,0,115,115,115,,,,,,,,,,,,N006,digit,1,"['6', '7', '8', '9']","['1', '2', '3', '4']",1,2023.2.3,harveydigits,2.1,[],8,0.75,
20,digit,0.3,['dot'],['big_1'],black,0,116,116,116,,,43.00021982192993,42.70562982559204,43.022273778915405,"[[0.0982476711208897, -0.11550472189987676]]",['DejaVu Sans'],[0.9],,,,N006,digit,1,"['6', '7', '8', '9']","['1', '2', '3', '4']",1,2023.2.3,harveydigits,2.1,[],8,0.75,
0,pause,0.4,None,None,None,0,117,117,117,,,,,,,,,,,,N006,digit,1,"['6', '7', '8', '9']","['1', '2', '3', '4']",1,2023.2.3,harveydigits,2.1,[],8,0.75,
20,digit,0.3,['dot'],['big_1'],black,0,118,118,118,,,43.70021891593933,43.40560698509216,43.72222089767456,"[[0.032338073234985165, -0.09506936993474144]]",['DejaVu Sans'],[0.9],,,,N006,digit,1,"['6', '7', '8', '9']","['1', '2', '3', '4']",1,2023.2.3,harveydigits,2.1,[],8,0.75,
0,pause,0.4,None,None,None,0,119,119,119,,,,,,,,,,,,N006,digit,1,"['6', '7', '8', '9']","['1', '2', '3', '4']",1,2023.2.3,harveydigits,2.1,[],8,0.75,
20,digit,0.3,['dot'],['big_1'],black,0,120,120,120,,,44.400216817855835,44.10558295249939,44.42222785949707,"[[0.12582707254118827, -0.10910114302229071]]",['DejaVu Sans'],[0.9],,,,N006,digit,1,"['6', '7', '8', '9']","['1', '2', '3', '4']",1,2023.2.3,harveydigits,2.1,[],8,0.75,
0,pause,0.4,None,None,None,0,121,121,121,,,,,,,,,,,,N006,digit,1,"['6', '7', '8', '9']","['1', '2', '3', '4']",1,2023.2.3,harveydigits,2.1,[],8,0.75,
20,digit,0.3,['dot'],['big_1'],black,0,122,122,122,,,45.100220918655396,44.805516958236694,45.12213492393494,"[[-0.16056834637329315, -0.09994114340666153]]",['DejaVu Sans'],[0.9],,,,N006,digit,1,"['6', '7', '8', '9']","['1', '2', '3', '4']",1,2023.2.3,harveydigits,2.1,[],8,0.75,
0,pause,0.4,None,None,None,0,123,123,123,,,,,,,,,,,,N006,digit,1,"['6', '7', '8', '9']","['1', '2', '3', '4']",1,2023.2.3,harveydigits,2.1,[],8,0.75,
20,digit,0.3,['dot'],['big_1'],black,0,124,124,124,,,45.80021691322327,45.50546479225159,45.82212686538696,"[[-0.024459539165283317, -0.0352705387949864]]",['DejaVu Sans'],[0.9],,,,N006,digit,1,"['6', '7', '8', '9']","['1', '2', '3', '4']",1,2023.2.3,harveydigits,2.1,[],8,0.75,
0,pause,0.4,None,None,None,0,125,125,125,,,,,,,,,,,,N006,digit,1,"['6', '7', '8', '9']","['1', '2', '3', '4']",1,2023.2.3,harveydigits,2.1,[],8,0.75,
20,digit,0.3,['dot'],['big_1'],black,0,126,126,126,,,46.500226974487305,46.20546293258667,46.522106885910034,"[[-0.05175849629574339, 0.15580137915349046]]",['DejaVu Sans'],[0.9],,,,N006,digit,1,"['6', '7', '8', '9']","['1', '2', '3', '4']",1,2023.2.3,harveydigits,2.1,[],8,0.75,
0,pause,0.4,None,None,None,0,127,127,127,,,,,,,,,,,,N006,digit,1,"['6', '7', '8', '9']","['1', '2', '3', '4']",1,2023.2.3,harveydigits,2.1,[],8,0.75,
20,digit,0.3,['dot'],['big_1'],black,0,128,128,128,,,47.2002158164978,46.90543293952942,47.22208499908447,"[[-0.13681077437150535, -0.11072355576466555]]",['DejaVu Sans'],[0.9],,,,N006,digit,1,"['6', '7', '8', '9']","['1', '2', '3', '4']",1,2023.2.3,harveydigits,2.1,[],8,0.75,
0,pause,0.4,None,None,None,0,129,129,129,,,,,,,,,,,,N006,digit,1,"['6', '7', '8', '9']","['1', '2', '3', '4']",1,2023.2.3,harveydigits,2.1,[],8,0.75,
20,digit,0.3,['dot'],['big_1'],black,0,130,130,130,,,47.900227785110474,47.60542178153992,47.92215585708618,"[[-0.1178335741496498, -0.12908379933768882]]",['DejaVu Sans'],[0.9],,,,N006,digit,1,"['6', '7', '8', '9']","['1', '2', '3', '4']",1,2023.2.3,harveydigits,2.1,[],8,0.75,
0,pause,0.4,None,None,None,0,131,131,131,,,,,,,,,,,,N006,digit,1,"['6', '7', '8', '9']","['1', '2', '3', '4']",1,2023.2.3,harveydigits,2.1,[],8,0.75,
20,digit,0.3,['dot'],['big_1'],white,0,132,132,132,,,48.60020899772644,48.30539298057556,48.6221239566803,"[[-0.04815366178356845, 0.1886469656680425]]",['DejaVu Sans'],[0.9],,,,N006,digit,1,"['6', '7', '8', '9']","['1', '2', '3', '4']",1,2023.2.3,harveydigits,2.1,[],8,0.75,
0,pause,0.4,None,None,None,0,133,133,133,,,,,,,,,,,,N006,digit,1,"['6', '7', '8', '9']","['1', '2', '3', '4']",1,2023.2.3,harveydigits,2.1,[],8,0.75,
20,digit,0.3,['dot'],['big_1'],white,0,134,134,134,,,49.300248861312866,49.00546598434448,49.3220648765564,"[[0.19822353537171464, -0.020014393710315714]]",['DejaVu Sans'],[0.9],1,49.14528703689575,,N006,digit,1,"['6', '7', '8', '9']","['1', '2', '3', '4']",1,2023.2.3,harveydigits,2.1,[],8,0.75,
0,pause,0.4,None,None,None,0,135,135,135,,,,,,,,,,,,N006,digit,1,"['6', '7', '8', '9']","['1', '2', '3', '4']",1,2023.2.3,harveydigits,2.1,[],8,0.75,
20,digit,0.3,['dot'],['big_1'],white,0,136,136,136,,,50.00024390220642,49.705365896224976,50.02202081680298,"[[-0.13811882808425094, -0.12597270337527064]]",['DejaVu Sans'],[0.9],1,49.725346088409424,,N006,digit,1,"['6', '7', '8', '9']","['1', '2', '3', '4']",1,2023.2.3,harveydigits,2.1,[],8,0.75,
0,pause,0.4,None,None,None,0,137,137,137,,,,,,,,,,,,N006,digit,1,"['6', '7', '8', '9']","['1', '2', '3', '4']",1,2023.2.3,harveydigits,2.1,[],8,0.75,
20,digit,0.3,['dot'],['big_1'],white,0,138,138,138,,,50.700236797332764,50.405335903167725,50.7219979763031,"[[0.028984420861501464, 0.09166595667641528]]",['DejaVu Sans'],[0.9],1,50.41840600967407,,N006,digit,1,"['6', '7', '8', '9']","['1', '2', '3', '4']",1,2023.2.3,harveydigits,2.1,[],8,0.75,
0,pause,0.4,None,None,None,0,139,139,139,,,,,,,,,,,,N006,digit,1,"['6', '7', '8', '9']","['1', '2', '3', '4']",1,2023.2.3,harveydigits,2.1,[],8,0.75,
20,digit,0.3,['dot'],['big_1'],white,0,140,140,140,,,51.40025496482849,51.10532999038696,51.42197799682617,"[[-0.18021664843047935, -0.029154130804146007]]",['DejaVu Sans'],[0.9],1,51.14754009246826,,N006,digit,1,"['6', '7', '8', '9']","['1', '2', '3', '4']",1,2023.2.3,harveydigits,2.1,[],8,0.75,
0,pause,0.4,None,None,None,0,141,141,141,,,,,,,,,,,,N006,digit,1,"['6', '7', '8', '9']","['1', '2', '3', '4']",1,2023.2.3,harveydigits,2.1,[],8,0.75,
20,digit,0.3,['dot'],['big_1'],white,0,142,142,142,,,52.10023784637451,51.80538487434387,52.122031927108765,"[[-0.1349807062486747, -0.12722752480232216]]",['DejaVu Sans'],[0.9],1,51.814682960510254,,N006,digit,1,"['6', '7', '8', '9']","['1', '2', '3', '4']",1,2023.2.3,harveydigits,2.1,[],8,0.75,
0,pause,0.4,None,None,None,0,143,143,143,,,,,,,,,,,,N006,digit,1,"['6', '7', '8', '9']","['1', '2', '3', '4']",1,2023.2.3,harveydigits,2.1,[],8,0.75,
20,digit,0.3,['dot'],['big_1'],black,0,144,144,144,,,52.80020594596863,52.50642991065979,52.8219678401947,"[[0.14621663647703645, 0.07858783728348656]]",['DejaVu Sans'],[0.9],,,,N006,digit,1,"['6', '7', '8', '9']","['1', '2', '3', '4']",1,2023.2.3,harveydigits,2.1,[],8,0.75,
0,pause,0.4,None,None,None,0,145,145,145,,,,,,,,,,,,N006,digit,1,"['6', '7', '8', '9']","['1', '2', '3', '4']",1,2023.2.3,harveydigits,2.1,[],8,0.75,
20,digit,0.3,['dot'],['big_1'],black,0,146,146,146,,,53.50023293495178,53.20529794692993,53.52191686630249,"[[-0.12871545728148492, -0.033241497244844875]]",['DejaVu Sans'],[0.9],,,,N006,digit,1,"['6', '7', '8', '9']","['1', '2', '3', '4']",1,2023.2.3,harveydigits,2.1,[],8,0.75,
0,pause,0.4,None,None,None,0,147,147,147,,,,,,,,,,,,N006,digit,1,"['6', '7', '8', '9']","['1', '2', '3', '4']",1,2023.2.3,harveydigits,2.1,[],8,0.75,
20,digit,0.3,['dot'],['big_1'],black,0,148,148,148,,,54.20020580291748,53.90524482727051,54.22190189361572,"[[-0.09856403217124975, -0.05613815709605151]]",['DejaVu Sans'],[0.9],,,,N006,digit,1,"['6', '7', '8', '9']","['1', '2', '3', '4']",1,2023.2.3,harveydigits,2.1,[],8,0.75,
0,pause,0.4,None,None,None,0,149,149,149,,,,,,,,,,,,N006,digit,1,"['6', '7', '8', '9']","['1', '2', '3', '4']",1,2023.2.3,harveydigits,2.1,[],8,0.75,
20,digit,0.3,['dot'],['big_1'],black,0,150,150,150,,,54.90021085739136,54.605241775512695,54.921918869018555,"[[-0.13239984591514387, 0.041899319357490306]]",['DejaVu Sans'],[0.9],,,,N006,digit,1,"['6', '7', '8', '9']","['1', '2', '3', '4']",1,2023.2.3,harveydigits,2.1,[],8,0.75,
0,pause,0.4,None,None,None,0,151,151,151,,,,,,,,,,,,N006,digit,1,"['6', '7', '8', '9']","['1', '2', '3', '4']",1,2023.2.3,harveydigits,2.1,[],8,0.75,
20,digit,0.3,['dot'],['big_1'],black,0,152,152,152,,,55.60021376609802,55.30524277687073,55.62189793586731,"[[-0.036947954995660975, -0.05780738404563823]]",['DejaVu Sans'],[0.9],,,,N006,digit,1,"['6', '7', '8', '9']","['1', '2', '3', '4']",1,2023.2.3,harveydigits,2.1,[],8,0.75,
0,pause,0.4,None,None,None,0,153,153,153,,,,,,,,,,,,N006,digit,1,"['6', '7', '8', '9']","['1', '2', '3', '4']",1,2023.2.3,harveydigits,2.1,[],8,0.75,
20,digit,0.3,['dot'],['big_1'],black,0,154,154,154,,,56.30020499229431,56.00525498390198,56.32188391685486,"[[-0.12531949607095969, -0.013971330415301964]]",['DejaVu Sans'],[0.9],,,,N006,digit,1,"['6', '7', '8', '9']","['1', '2', '3', '4']",1,2023.2.3,harveydigits,2.1,[],8,0.75,
0,pause,0.4,None,None,None,0,155,155,155,,,,,,,,,,,,N006,digit,1,"['6', '7', '8', '9']","['1', '2', '3', '4']",1,2023.2.3,harveydigits,2.1,[],8,0.75,
9,digit,0.3,['dot'],['big_1'],black,0,156,156,156,,,57.00022792816162,56.70520091056824,57.02188587188721,"[[0.05611839185290127, -0.18587188329375737]]",['DejaVu Sans'],[0.9],,,,N006,digit,1,"['6', '7', '8', '9']","['1', '2', '3', '4']",1,2023.2.3,harveydigits,2.1,[],8,0.75,
0,pause,0.4,None,None,None,0,157,157,157,,,,,,,,,,,,N006,digit,1,"['6', '7', '8', '9']","['1', '2', '3', '4']",1,2023.2.3,harveydigits,2.1,[],8,0.75,
9,digit,0.3,['dot'],['big_1'],black,0,158,158,158,,,57.700204849243164,57.405237913131714,57.72184896469116,"[[0.12430679720737156, 0.07339003297744362]]",['DejaVu Sans'],[0.9],,,,N006,digit,1,"['6', '7', '8', '9']","['1', '2', '3', '4']",1,2023.2.3,harveydigits,2.1,[],8,0.75,
0,pause,0.4,None,None,None,0,159,159,159,,,,,,,,,,,,N006,digit,1,"['6', '7', '8', '9']","['1', '2', '3', '4']",1,2023.2.3,harveydigits,2.1,[],8,0.75,
9,digit,0.3,['dot'],['big_1'],black,0,160,160,160,,,58.400216817855835,58.105185985565186,58.421862840652466,"[[0.0870045182717469, -0.17496093258694703]]",['DejaVu Sans'],[0.9],,,,N006,digit,1,"['6', '7', '8', '9']","['1', '2', '3', '4']",1,2023.2.3,harveydigits,2.1,[],8,0.75,
0,pause,0.4,None,None,None,0,161,161,161,,,,,,,,,,,,N006,digit,1,"['6', '7', '8', '9']","['1', '2', '3', '4']",1,2023.2.3,harveydigits,2.1,[],8,0.75,
9,digit,0.3,['dot'],['big_1'],black,0,162,162,162,,,59.10022282600403,58.80507183074951,59.12184286117554,"[[-0.04099411187428753, 0.003913674190957561]]",['DejaVu Sans'],[0.9],,,,N006,digit,1,"['6', '7', '8', '9']","['1', '2', '3', '4']",1,2023.2.3,harveydigits,2.1,[],8,0.75,
0,pause,0.4,None,None,None,0,163,163,163,,,,,,,,,,,,N006,digit,1,"['6', '7', '8', '9']","['1', '2', '3', '4']",1,2023.2.3,harveydigits,2.1,[],8,0.75,
9,digit,0.3,['dot'],['big_1'],black,0,164,164,164,,,59.80021286010742,59.50510096549988,59.82181787490845,"[[-0.14976938167788115, 0.005154650539749617]]",['DejaVu Sans'],[0.9],,,,N006,digit,1,"['6', '7', '8', '9']","['1', '2', '3', '4']",1,2023.2.3,harveydigits,2.1,[],8,0.75,
0,pause,0.4,None,None,None,0,165,165,165,,,,,,,,,,,,N006,digit,1,"['6', '7', '8', '9']","['1', '2', '3', '4']",1,2023.2.3,harveydigits,2.1,[],8,0.75,
9,digit,0.3,['dot'],['big_1'],black,0,166,166,166,,,60.50022792816162,60.205134868621826,60.52180194854736,"[[-0.09534433630766265, -0.17416238362159517]]",['DejaVu Sans'],[0.9],,,,N006,digit,1,"['6', '7', '8', '9']","['1', '2', '3', '4']",1,2023.2.3,harveydigits,2.1,[],8,0.75,
0,pause,0.4,None,None,None,0,167,167,167,,,,,,,,,,,,N006,digit,1,"['6', '7', '8', '9']","['1', '2', '3', '4']",1,2023.2.3,harveydigits,2.1,[],8,0.75,
8,digit,0.3,['dot'],['big_1'],black,0,168,168,168,,,61.200233936309814,60.90500092506409,61.221784830093384,"[[0.029155335585862252, -0.12019670264016352]]",['DejaVu Sans'],[0.9],,,,N006,digit,1,"['6', '7', '8', '9']","['1', '2', '3', '4']",1,2023.2.3,harveydigits,2.1,[],8,0.75,
0,pause,0.4,None,None,None,0,169,169,169,,,,,,,,,,,,N006,digit,1,"['6', '7', '8', '9']","['1', '2', '3', '4']",1,2023.2.3,harveydigits,2.1,[],8,0.75,
8,digit,0.3,['dot'],['big_1'],black,0,170,170,170,,,61.900211811065674,61.60512685775757,61.921769857406616,"[[0.055955808315048955, -0.12097863217625464]]",['DejaVu Sans'],[0.9],,,,N006,digit,1,"['6', '7', '8', '9']","['1', '2', '3', '4']",1,2023.2.3,harveydigits,2.1,[],8,0.75,
0,pause,0.4,None,None,None,0,171,171,171,,,,,,,,,,,,N006,digit,1,"['6', '7', '8', '9']","['1', '2', '3', '4']",1,2023.2.3,harveydigits,2.1,[],8,0.75,
8,digit,0.3,['dot'],['big_1'],black,0,172,172,172,,,62.60022783279419,62.304993867874146,62.621750831604004,"[[0.12304198139420633, 0.0538618824135538]]",['DejaVu Sans'],[0.9],,,,N006,digit,1,"['6', '7', '8', '9']","['1', '2', '3', '4']",1,2023.2.3,harveydigits,2.1,[],8,0.75,
0,pause,0.4,None,None,None,0,173,173,173,,,,,,,,,,,,N006,digit,1,"['6', '7', '8', '9']","['1', '2', '3', '4']",1,2023.2.3,harveydigits,2.1,[],8,0.75,
8,digit,0.3,['dot'],['big_1'],black,0,174,174,174,,,63.3002347946167,63.004963874816895,63.32178092002869,"[[-0.10144001368370453, 0.015471469109304109]]",['DejaVu Sans'],[0.9],,,,N006,digit,1,"['6', '7', '8', '9']","['1', '2', '3', '4']",1,2023.2.3,harveydigits,2.1,[],8,0.75,
0,pause,0.4,None,None,None,0,175,175,175,,,,,,,,,,,,N006,digit,1,"['6', '7', '8', '9']","['1', '2', '3', '4']",1,2023.2.3,harveydigits,2.1,[],8,0.75,
8,digit,0.3,['dot'],['big_1'],black,0,176,176,176,,,64.0002269744873,63.70497679710388,64.021723985672,"[[0.09945509308504016, 0.10126679721304119]]",['DejaVu Sans'],[0.9],,,,N006,digit,1,"['6', '7', '8', '9']","['1', '2', '3', '4']",1,2023.2.3,harveydigits,2.1,[],8,0.75,
0,pause,0.4,None,None,None,0,177,177,177,,,,,,,,,,,,N006,digit,1,"['6', '7', '8', '9']","['1', '2', '3', '4']",1,2023.2.3,harveydigits,2.1,[],8,0.75,
8,digit,0.3,['dot'],['big_1'],black,0,178,178,178,,,64.70022296905518,64.40516376495361,64.72181582450867,"[[0.02720362697216272, -0.07980802309366915]]",['DejaVu Sans'],[0.9],,,,N006,digit,1,"['6', '7', '8', '9']","['1', '2', '3', '4']",1,2023.2.3,harveydigits,2.1,[],8,0.75,
0,pause,0.4,None,None,None,0,179,179,179,,,,,,,,,,,,N006,digit,1,"['6', '7', '8', '9']","['1', '2', '3', '4']",1,2023.2.3,harveydigits,2.1,[],8,0.75,
7,digit,0.3,['dot'],['big_1'],white,0,180,180,180,,,65.40023279190063,65.1049599647522,65.42164993286133,"[[0.15864261771372848, 0.10593929471878291]]",['DejaVu Sans'],[0.9],,,,N006,digit,1,"['6', '7', '8', '9']","['1', '2', '3', '4']",1,2023.2.3,harveydigits,2.1,[],8,0.75,
0,pause,0.4,None,None,None,0,181,181,181,,,,,,,,,,,,N006,digit,1,"['6', '7', '8', '9']","['1', '2', '3', '4']",1,2023.2.3,harveydigits,2.1,[],8,0.75,
7,digit,0.3,['dot'],['big_1'],white,0,182,182,182,,,66.100270986557,65.80488681793213,66.1216368675232,"[[0.19660915940891358, -0.02344590507972577]]",['DejaVu Sans'],[0.9],left,65.43134713172913,odd,N006,digit,1,"['6', '7', '8', '9']","['1', '2', '3', '4']",1,2023.2.3,harveydigits,2.1,[],8,0.75,
0,pause,0.4,None,None,None,0,183,183,183,,,,,,,,,,,,N006,digit,1,"['6', '7', '8', '9']","['1', '2', '3', '4']",1,2023.2.3,harveydigits,2.1,[],8,0.75,
7,digit,0.3,['dot'],['big_1'],white,0,184,184,184,,,66.8002438545227,66.50486397743225,66.82159781455994,"[[-0.09779886215461601, 0.0618308245203478]]",['DejaVu Sans'],[0.9],left,66.48242211341858,odd,N006,digit,1,"['6', '7', '8', '9']","['1', '2', '3', '4']",1,2023.2.3,harveydigits,2.1,[],8,0.75,
0,pause,0.4,None,None,None,0,185,185,185,,,,,,,,,,,,N006,digit,1,"['6', '7', '8', '9']","['1', '2', '3', '4']",1,2023.2.3,harveydigits,2.1,[],8,0.75,
7,digit,0.3,['dot'],['big_1'],white,0,186,186,186,,,67.50025391578674,67.22160387039185,67.52159380912781,"[[0.1417244650684009, -0.0720813463128753]]",['DejaVu Sans'],[0.9],left,67.19946694374084,odd,N006,digit,1,"['6', '7', '8', '9']","['1', '2', '3', '4']",1,2023.2.3,harveydigits,2.1,[],8,0.75,
0,pause,0.4,None,None,None,0,187,187,187,,,,,,,,,,,,N006,digit,1,"['6', '7', '8', '9']","['1', '2', '3', '4']",1,2023.2.3,harveydigits,2.1,[],8,0.75,
7,digit,0.3,['dot'],['big_1'],white,0,188,188,188,,,68.20025396347046,67.92156195640564,68.22155094146729,"[[0.12435061255461607, 0.07889391207949575]]",['DejaVu Sans'],[0.9],left,67.90862894058228,odd,N006,digit,1,"['6', '7', '8', '9']","['1', '2', '3', '4']",1,2023.2.3,harveydigits,2.1,[],8,0.75,
0,pause,0.4,None,None,None,0,189,189,189,,,,,,,,,,,,N006,digit,1,"['6', '7', '8', '9']","['1', '2', '3', '4']",1,2023.2.3,harveydigits,2.1,[],8,0.75,
7,digit,0.3,['dot'],['big_1'],white,0,190,190,190,,,68.90024876594543,68.62155294418335,68.92153692245483,"[[0.06844181396640273, 0.17081903582078067]]",['DejaVu Sans'],[0.9],left,68.54770517349243,odd,N006,digit,1,"['6', '7', '8', '9']","['1', '2', '3', '4']",1,2023.2.3,harveydigits,2.1,[],8,0.75,
0,pause,0.4,None,None,None,0,191,191,191,,,,,,,,,,,,N006,digit,1,"['6', '7', '8', '9']","['1', '2', '3', '4']",1,2023.2.3,harveydigits,2.1,[],8,0.75,
6,digit,0.3,['dot'],['big_1'],black,0,192,192,192,,,69.60021591186523,69.32152986526489,69.6215078830719,"[[-0.1920822428107157, -0.034927397921798]]",['DejaVu Sans'],[0.9],,,,N006,digit,1,"['6', '7', '8', '9']","['1', '2', '3', '4']",1,2023.2.3,harveydigits,2.1,[],8,0.75,
0,pause,0.4,None,None,None,0,193,193,193,,,,,,,,,,,,N006,digit,1,"['6', '7', '8', '9']","['1', '2', '3', '4']",1,2023.2.3,harveydigits,2.1,[],8,0.75,
6,digit,0.3,['dot'],['big_1'],black,0,194,194,194,,,70.30021977424622,70.02151489257812,70.32149291038513,"[[-0.006769894341333821, 0.013850080322262759]]",['DejaVu Sans'],[0.9],,,,N006,digit,1,"['6', '7', '8', '9']","['1', '2', '3', '4']",1,2023.2.3,harveydigits,2.1,[],8,0.75,
0,pause,0.4,None,None,None,0,195,195,195,,,,,,,,,,,,N006,digit,1,"['6', '7', '8', '9']","['1', '2', '3', '4']",1,2023.2.3,harveydigits,2.1,[],8,0.75,
6,digit,0.3,['dot'],['big_1'],black,0,196,196,196,,,71.0002269744873,70.72151899337769,71.02150392532349,"[[0.10329985098450975, -0.13931978507151044]]",['DejaVu Sans'],[0.9],,,,N006,digit,1,"['6', '7', '8', '9']","['1', '2', '3', '4']",1,2023.2.3,harveydigits,2.1,[],8,0.75,
0,pause,0.4,None,None,None,0,197,197,197,,,,,,,,,,,,N006,digit,1,"['6', '7', '8', '9']","['1', '2', '3', '4']",1,2023.2.3,harveydigits,2.1,[],8,0.75,
6,digit,0.3,['dot'],['big_1'],black,0,198,198,198,,,71.70022892951965,71.42150592803955,71.72146797180176,"[[0.15555825857764086, 0.08424191360506414]]",['DejaVu Sans'],[0.9],,,,N006,digit,1,"['6', '7', '8', '9']","['1', '2', '3', '4']",1,2023.2.3,harveydigits,2.1,[],8,0.75,
0,pause,0.4,None,None,None,0,199,199,199,,,,,,,,,,,,N006,digit,1,"['6', '7', '8', '9']","['1', '2', '3', '4']",1,2023.2.3,harveydigits,2.1,[],8,0.75,
6,digit,0.3,['dot'],['big_1'],black,0,200,200,200,,,72.40022277832031,72.12147784233093,72.42144083976746,"[[-0.008607592697217503, 0.16321075609390548]]",['DejaVu Sans'],[0.9],,,,N006,digit,1,"['6', '7', '8', '9']","['1', '2', '3', '4']",1,2023.2.3,harveydigits,2.1,[],8,0.75,
0,pause,0.4,None,None,None,0,201,201,201,,,,,,,,,,,,N006,digit,1,"['6', '7', '8', '9']","['1', '2', '3', '4']",1,2023.2.3,harveydigits,2.1,[],8,0.75,
6,digit,0.3,['dot'],['big_1'],black,0,202,202,202,,,73.10020899772644,72.82144689559937,73.12142896652222,"[[-0.04136240167874619, -0.06214033657922846]]",['DejaVu Sans'],[0.9],,,,N006,digit,1,"['6', '7', '8', '9']","['1', '2', '3', '4']",1,2023.2.3,harveydigits,2.1,[],8,0.75,
0,pause,0.4,None,None,None,0,203,203,203,,,,,,,,,,,,N006,digit,1,"['6', '7', '8', '9']","['1', '2', '3', '4']",1,2023.2.3,harveydigits,2.1,[],8,0.75,
5,digit,0.3,['dot'],['big_1'],black,0,204,204,204,,,73.80023193359375,73.52140879631042,73.82140684127808,"[[-0.1510956045281555, 0.012345827907646156]]",['DejaVu Sans'],[0.9],,,,N006,digit,1,"['6', '7', '8', '9']","['1', '2', '3', '4']",1,2023.2.3,harveydigits,2.1,[],8,0.75,
0,pause,0.4,None,None,None,0,205,205,205,,,,,,,,,,,,N006,digit,1,"['6', '7', '8', '9']","['1', '2', '3', '4']",1,2023.2.3,harveydigits,2.1,[],8,0.75,
5,digit,0.3,['dot'],['big_1'],black,0,206,206,206,,,74.50022578239441,74.2213978767395,74.52138495445251,"[[-0.12933714526011023, -0.14932960115956487]]",['DejaVu Sans'],[0.9],,,,N006,digit,1,"['6', '7', '8', '9']","['1', '2', '3', '4']",1,2023.2.3,harveydigits,2.1,[],8,0.75,
0,pause,0.4,None,None,None,0,207,207,207,,,,,,,,,,,,N006,digit,1,"['6', '7', '8', '9']","['1', '2', '3', '4']",1,2023.2.3,harveydigits,2.1,[],8,0.75,
5,digit,0.3,['dot'],['big_1'],black,0,208,208,208,,,75.20023488998413,74.92139196395874,75.22138381004333,"[[0.015197311912540534, -0.09885426462182396]]",['DejaVu Sans'],[0.9],,,,N006,digit,1,"['6', '7', '8', '9']","['1', '2', '3', '4']",1,2023.2.3,harveydigits,2.1,[],8,0.75,
0,pause,0.4,None,None,None,0,209,209,209,,,,,,,,,,,,N006,digit,1,"['6', '7', '8', '9']","['1', '2', '3', '4']",1,2023.2.3,harveydigits,2.1,[],8,0.75,
5,digit,0.3,['dot'],['big_1'],black,0,210,210,210,,,75.90022397041321,75.62140393257141,75.92134690284729,"[[0.10414685576073515, -0.1442600841811082]]",['DejaVu Sans'],[0.9],,,,N006,digit,1,"['6', '7', '8', '9']","['1', '2', '3', '4']",1,2023.2.3,harveydigits,2.1,[],8,0.75,
0,pause,0.4,None,None,None,0,211,211,211,,,,,,,,,,,,N006,digit,1,"['6', '7', '8', '9']","['1', '2', '3', '4']",1,2023.2.3,harveydigits,2.1,[],8,0.75,
5,digit,0.3,['dot'],['big_1'],black,0,212,212,212,,,76.60021781921387,76.32135081291199,76.62135076522827,"[[-0.17634773310322485, 0.05749294824738391]]",['DejaVu Sans'],[0.9],,,,N006,digit,1,"['6', '7', '8', '9']","['1', '2', '3', '4']",1,2023.2.3,harveydigits,2.1,[],8,0.75,
0,pause,0.4,None,None,None,0,213,213,213,,,,,,,,,,,,N006,digit,1,"['6', '7', '8', '9']","['1', '2', '3', '4']",1,2023.2.3,harveydigits,2.1,[],8,0.75,
5,digit,0.3,['dot'],['big_1'],black,0,214,214,214,,,77.3002347946167,77.02134299278259,77.32132291793823,"[[-0.14640477677183605, 0.002501473706542384]]",['DejaVu Sans'],[0.9],,,,N006,digit,1,"['6', '7', '8', '9']","['1', '2', '3', '4']",1,2023.2.3,harveydigits,2.1,[],8,0.75,
0,pause,0.4,None,None,None,0,215,215,215,,,,,,,,,,,,N006,digit,1,"['6', '7', '8', '9']","['1', '2', '3', '4']",1,2023.2.3,harveydigits,2.1,[],8,0.75,
4,digit,0.3,['dot'],['big_1'],black,0,216,216,216,,,78.00020980834961,77.72131180763245,78.02129578590393,"[[-0.0721676726869831, -0.03638895013623081]]",['DejaVu Sans'],[0.9],,,,N006,digit,1,"['6', '7', '8', '9']","['1', '2', '3', '4']",1,2023.2.3,harveydigits,2.1,[],8,0.75,
0,pause,0.4,None,None,None,0,217,217,217,,,,,,,,,,,,N006,digit,1,"['6', '7', '8', '9']","['1', '2', '3', '4']",1,2023.2.3,harveydigits,2.1,[],8,0.75,
4,digit,0.3,['dot'],['big_1'],black,0,218,218,218,,,78.70023584365845,78.4230968952179,78.72131395339966,"[[0.10097641029184798, 0.12400521871100328]]",['DejaVu Sans'],[0.9],,,,N006,digit,1,"['6', '7', '8', '9']","['1', '2', '3', '4']",1,2023.2.3,harveydigits,2.1,[],8,0.75,
0,pause,0.4,None,None,None,0,219,219,219,,,,,,,,,,,,N006,digit,1,"['6', '7', '8', '9']","['1', '2', '3', '4']",1,2023.2.3,harveydigits,2.1,[],8,0.75,
4,digit,0.3,['dot'],['big_1'],black,0,220,220,220,,,79.40021896362305,79.12130784988403,79.42125391960144,"[[-0.13447388843844676, -0.02952107660724798]]",['DejaVu Sans'],[0.9],,,,N006,digit,1,"['6', '7', '8', '9']","['1', '2', '3', '4']",1,2023.2.3,harveydigits,2.1,[],8,0.75,
0,pause,0.4,None,None,None,0,221,221,221,,,,,,,,,,,,N006,digit,1,"['6', '7', '8', '9']","['1', '2', '3', '4']",1,2023.2.3,harveydigits,2.1,[],8,0.75,
4,digit,0.3,['dot'],['big_1'],black,0,222,222,222,,,80.1002299785614,79.82128381729126,80.12122988700867,"[[0.0828459630489102, 0.009750777423640139]]",['DejaVu Sans'],[0.9],,,,N006,digit,1,"['6', '7', '8', '9']","['1', '2', '3', '4']",1,2023.2.3,harveydigits,2.1,[],8,0.75,
0,pause,0.4,None,None,None,0,223,223,223,,,,,,,,,,,,N006,digit,1,"['6', '7', '8', '9']","['1', '2', '3', '4']",1,2023.2.3,harveydigits,2.1,[],8,0.75,
4,digit,0.3,['dot'],['big_1'],black,0,224,224,224,,,80.8002347946167,80.52124786376953,80.82123398780823,"[[0.008866626250992382, 0.14969536587532756]]",['DejaVu Sans'],[0.9],,,,N006,digit,1,"['6', '7', '8', '9']","['1', '2', '3', '4']",1,2023.2.3,harveydigits,2.1,[],8,0.75,
0,pause,0.4,None,None,None,0,225,225,225,,,,,,,,,,,,N006,digit,1,"['6', '7', '8', '9']","['1', '2', '3', '4']",1,2023.2.3,harveydigits,2.1,[],8,0.75,
4,digit,0.3,['dot'],['big_1'],black,0,226,226,226,,,81.50022983551025,81.22130489349365,81.52122282981873,"[[0.11401667589784872, -0.15313680893630735]]",['DejaVu Sans'],[0.9],,,,N006,digit,1,"['6', '7', '8', '9']","['1', '2', '3', '4']",1,2023.2.3,harveydigits,2.1,[],8,0.75,
0,pause,0.4,None,None,None,0,227,227,227,,,,,,,,,,,,N006,digit,1,"['6', '7', '8', '9']","['1', '2', '3', '4']",1,2023.2.3,harveydigits,2.1,[],8,0.75,
3,digit,0.3,['dot'],['big_1'],black,0,228,228,228,,,82.20023488998413,81.92122387886047,82.22121977806091,"[[0.014608760331062787, -0.0710687407759259]]",['DejaVu Sans'],[0.9],,,,N006,digit,1,"['6', '7', '8', '9']","['1', '2', '3', '4']",1,2023.2.3,harveydigits,2.1,[],8,0.75,
0,pause,0.4,None,None,None,0,229,229,229,,,,,,,,,,,,N006,digit,1,"['6', '7', '8', '9']","['1', '2', '3', '4']",1,2023.2.3,harveydigits,2.1,[],8,0.75,
3,digit,0.3,['dot'],['big_1'],black,0,230,230,230,,,82.90023684501648,82.6211907863617,82.92117977142334,"[[0.10850166744953202, -0.08179972473607279]]",['DejaVu Sans'],[0.9],,,,N006,digit,1,"['6', '7', '8', '9']","['1', '2', '3', '4']",1,2023.2.3,harveydigits,2.1,[],8,0.75,
0,pause,0.4,None,None,None,0,231,231,231,,,,,,,,,,,,N006,digit,1,"['6', '7', '8', '9']","['1', '2', '3', '4']",1,2023.2.3,harveydigits,2.1,[],8,0.75,
3,digit,0.3,['dot'],['big_1'],black,0,232,232,232,,,83.60021090507507,83.32117486000061,83.62115979194641,"[[-0.13862060570997548, -0.10242354141776476]]",['DejaVu Sans'],[0.9],,,,N006,digit,1,"['6', '7', '8', '9']","['1', '2', '3', '4']",1,2023.2.3,harveydigits,2.1,[],8,0.75,
0,pause,0.4,None,None,None,0,233,233,233,,,,,,,,,,,,N006,digit,1,"['6', '7', '8', '9']","['1', '2', '3', '4']",1,2023.2.3,harveydigits,2.1,[],8,0.75,
3,digit,0.3,['dot'],['big_1'],black,0,234,234,234,,,84.30022883415222,84.02114677429199,84.32113695144653,"[[-0.1264488753215803, 0.06214495177080526]]",['DejaVu Sans'],[0.9],,,,N006,digit,1,"['6', '7', '8', '9']","['1', '2', '3', '4']",1,2023.2.3,harveydigits,2.1,[],8,0.75,
0,pause,0.4,None,None,None,0,235,235,235,,,,,,,,,,,,N006,digit,1,"['6', '7', '8', '9']","['1', '2', '3', '4']",1,2023.2.3,harveydigits,2.1,[],8,0.75,
3,digit,0.3,['dot'],['big_1'],black,0,236,236,236,,,85.00023293495178,84.72116184234619,85.02112483978271,"[[0.060943762709140786, 0.1170371162248153]]",['DejaVu Sans'],[0.9],,,,N006,digit,1,"['6', '7', '8', '9']","['1', '2', '3', '4']",1,2023.2.3,harveydigits,2.1,[],8,0.75,
0,pause,0.4,None,None,None,0,237,237,237,,,,,,,,,,,,N006,digit,1,"['6', '7', '8', '9']","['1', '2', '3', '4']",1,2023.2.3,harveydigits,2.1,[],8,0.75,
3,digit,0.3,['dot'],['big_1'],black,0,238,238,238,,,85.70021295547485,85.4211778640747,85.72116088867188,"[[-0.18792866648553674, 0.032622782545687734]]",['DejaVu Sans'],[0.9],,,,N006,digit,1,"['6', '7', '8', '9']","['1', '2', '3', '4']",1,2023.2.3,harveydigits,2.1,[],8,0.75,
0,pause,0.4,None,None,None,0,239,239,239,,,,,,,,,,,,N006,digit,1,"['6', '7', '8', '9']","['1', '2', '3', '4']",1,2023.2.3,harveydigits,2.1,[],8,0.75,
2,digit,0.3,['dot'],['big_1'],black,0,240,240,240,,,86.40022277832031,86.12115097045898,86.42114281654358,"[[0.05973848338239593, -0.09336334733087504]]",['DejaVu Sans'],[0.9],,,,N006,digit,1,"['6', '7', '8', '9']","['1', '2', '3', '4']",1,2023.2.3,harveydigits,2.1,[],8,0.75,
0,pause,0.4,None,None,None,0,241,241,241,,,,,,,,,,,,N006,digit,1,"['6', '7', '8', '9']","['1', '2', '3', '4']",1,2023.2.3,harveydigits,2.1,[],8,0.75,
2,digit,0.3,['dot'],['big_1'],black,0,242,242,242,,,87.10023498535156,86.82127285003662,87.12122178077698,"[[-0.04146983075269409, 0.0431493303280083]]",['DejaVu Sans'],[0.9],,,,N006,digit,1,"['6', '7', '8', '9']","['1', '2', '3', '4']",1,2023.2.3,harveydigits,2.1,[],8,0.75,
0,pause,0.4,None,None,None,0,243,243,243,,,,,,,,,,,,N006,digit,1,"['6', '7', '8', '9']","['1', '2', '3', '4']",1,2023.2.3,harveydigits,2.1,[],8,0.75,
2,digit,0.3,['dot'],['big_1'],black,0,244,244,244,,,87.80023384094238,87.52123188972473,87.8211989402771,"[[0.04242040841983921, -0.13714214858598295]]",['DejaVu Sans'],[0.9],,,,N006,digit,1,"['6', '7', '8', '9']","['1', '2', '3', '4']",1,2023.2.3,harveydigits,2.1,[],8,0.75,
0,pause,0.4,None,None,None,0,245,245,245,,,,,,,,,,,,N006,digit,1,"['6', '7', '8', '9']","['1', '2', '3', '4']",1,2023.2.3,harveydigits,2.1,[],8,0.75,
2,digit,0.3,['dot'],['big_1'],black,0,246,246,246,,,88.50023889541626,88.2210738658905,88.52108693122864,"[[-0.135785608567776, 0.0681385998710542]]",['DejaVu Sans'],[0.9],,,,N006,digit,1,"['6', '7', '8', '9']","['1', '2', '3', '4']",1,2023.2.3,harveydigits,2.1,[],8,0.75,
0,pause,0.4,None,None,None,0,247,247,247,,,,,,,,,,,,N006,digit,1,"['6', '7', '8', '9']","['1', '2', '3', '4']",1,2023.2.3,harveydigits,2.1,[],8,0.75,
2,digit,0.3,['dot'],['big_1'],black,0,248,248,248,,,89.20022583007812,88.92104387283325,89.22101092338562,"[[0.13974822260453093, 0.11751180791749752]]",['DejaVu Sans'],[0.9],,,,N006,digit,1,"['6', '7', '8', '9']","['1', '2', '3', '4']",1,2023.2.3,harveydigits,2.1,[],8,0.75,
0,pause,0.4,None,None,None,0,249,249,249,,,,,,,,,,,,N006,digit,1,"['6', '7', '8', '9']","['1', '2', '3', '4']",1,2023.2.3,harveydigits,2.1,[],8,0.75,
2,digit,0.3,['dot'],['big_1'],black,0,250,250,250,,,89.90021276473999,89.62101578712463,89.92105388641357,"[[0.06642962126084564, 0.0904421574069002]]",['DejaVu Sans'],[0.9],,,,N006,digit,1,"['6', '7', '8', '9']","['1', '2', '3', '4']",1,2023.2.3,harveydigits,2.1,[],8,0.75,
0,pause,0.4,None,None,None,0,251,251,251,,,,,,,,,,,,N006,digit,1,"['6', '7', '8', '9']","['1', '2', '3', '4']",1,2023.2.3,harveydigits,2.1,[],8,0.75,
1,digit,0.3,['dot'],['big_1'],black,0,252,252,252,,,90.60021090507507,90.3209958076477,90.62097883224487,"[[-0.19241793269730229, 0.021776399468003846]]",['DejaVu Sans'],[0.9],,,,N006,digit,1,"['6', '7', '8', '9']","['1', '2', '3', '4']",1,2023.2.3,harveydigits,2.1,[],8,0.75,
0,pause,0.4,None,None,None,0,253,253,253,,,,,,,,,,,,N006,digit,1,"['6', '7', '8', '9']","['1', '2', '3', '4']",1,2023.2.3,harveydigits,2.1,[],8,0.75,
1,digit,0.3,['dot'],['big_1'],black,0,254,254,254,,,91.30023097991943,91.02099585533142,91.32099390029907,"[[-0.19503489287513015, 0.010171353257205924]]",['DejaVu Sans'],[0.9],,,,N006,digit,1,"['6', '7', '8', '9']","['1', '2', '3', '4']",1,2023.2.3,harveydigits,2.1,[],8,0.75,
0,pause,0.4,None,None,None,0,255,255,255,,,,,,,,,,,,N006,digit,1,"['6', '7', '8', '9']","['1', '2', '3', '4']",1,2023.2.3,harveydigits,2.1,[],8,0.75,
1,digit,0.3,['dot'],['big_1'],black,0,256,256,256,,,92.00023293495178,91.72101879119873,92.0209608078003,"[[0.03854990327709021, 0.10936182192105756]]",['DejaVu Sans'],[0.9],,,,N006,digit,1,"['6', '7', '8', '9']","['1', '2', '3', '4']",1,2023.2.3,harveydigits,2.1,[],8,0.75,
0,pause,0.4,None,None,None,0,257,257,257,,,,,,,,,,,,N006,digit,1,"['6', '7', '8', '9']","['1', '2', '3', '4']",1,2023.2.3,harveydigits,2.1,[],8,0.75,
1,digit,0.3,['dot'],['big_1'],black,0,258,258,258,,,92.70021295547485,92.42092895507812,92.72092199325562,"[[0.15101130736208848, 0.03430561101115234]]",['DejaVu Sans'],[0.9],,,,N006,digit,1,"['6', '7', '8', '9']","['1', '2', '3', '4']",1,2023.2.3,harveydigits,2.1,[],8,0.75,
0,pause,0.4,None,None,None,0,259,259,259,,,,,,,,,,,,N006,digit,1,"['6', '7', '8', '9']","['1', '2', '3', '4']",1,2023.2.3,harveydigits,2.1,[],8,0.75,
1,digit,0.3,['dot'],['big_1'],black,0,260,260,260,,,93.40022897720337,93.12095594406128,93.42094779014587,"[[-0.1696111893343746, 0.04951641084563292]]",['DejaVu Sans'],[0.9],,,,N006,digit,1,"['6', '7', '8', '9']","['1', '2', '3', '4']",1,2023.2.3,harveydigits,2.1,[],8,0.75,
0,pause,0.4,None,None,None,0,261,261,261,,,,,,,,,,,,N006,digit,1,"['6', '7', '8', '9']","['1', '2', '3', '4']",1,2023.2.3,harveydigits,2.1,[],8,0.75,
1,digit,0.3,['dot'],['big_1'],black,0,262,262,262,,,94.10021591186523,93.82092881202698,94.12091994285583,"[[0.048847327307718735, -0.19245238784662505]]",['DejaVu Sans'],[0.9],,,,N006,digit,1,"['6', '7', '8', '9']","['1', '2', '3', '4']",1,2023.2.3,harveydigits,2.1,[],8,0.75,
0,pause,0.4,None,None,None,0,263,263,263,,,,,,,,,,,,N006,digit,1,"['6', '7', '8', '9']","['1', '2', '3', '4']",1,2023.2.3,harveydigits,2.1,[],8,0.75,
20,digit,0.3,['dot'],['big_1'],black,0,264,264,264,,,94.8002119064331,94.5210428237915,94.82103300094604,"[[-0.0795352689070718, -0.12876027932150508]]",['DejaVu Sans'],[0.9],,,,N006,digit,1,"['6', '7', '8', '9']","['1', '2', '3', '4']",1,2023.2.3,harveydigits,2.1,[],8,0.75,
0,pause,0.4,None,None,None,0,265,265,265,,,,,,,,,,,,N006,digit,1,"['6', '7', '8', '9']","['1', '2', '3', '4']",1,2023.2.3,harveydigits,2.1,[],8,0.75,
20,digit,0.3,['dot'],['big_1'],black,0,266,266,266,,,95.50022792816162,95.22103095054626,95.52085185050964,"[[0.05795395116853605, -0.12488105027788973]]",['DejaVu Sans'],[0.9],,,,N006,digit,1,"['6', '7', '8', '9']","['1', '2', '3', '4']",1,2023.2.3,harveydigits,2.1,[],8,0.75,
0,pause,0.4,None,None,None,0,267,267,267,,,,,,,,,,,,N006,digit,1,"['6', '7', '8', '9']","['1', '2', '3', '4']",1,2023.2.3,harveydigits,2.1,[],8,0.75,
20,digit,0.3,['dot'],['big_1'],black,0,268,268,268,,,96.20023393630981,95.92085480690002,96.22083592414856,"[[0.18089232925767487, 0.02145692739013201]]",['DejaVu Sans'],[0.9],,,,N006,digit,1,"['6', '7', '8', '9']","['1', '2', '3', '4']",1,2023.2.3,harveydigits,2.1,[],8,0.75,
0,pause,0.4,None,None,None,0,269,269,269,,,,,,,,,,,,N006,digit,1,"['6', '7', '8', '9']","['1', '2', '3', '4']",1,2023.2.3,harveydigits,2.1,[],8,0.75,
20,digit,0.3,['dot'],['big_1'],black,0,270,270,270,,,96.90022277832031,96.62085294723511,96.92081689834595,"[[-0.041547221146578855, -0.12567002324367477]]",['DejaVu Sans'],[0.9],,,,N006,digit,1,"['6', '7', '8', '9']","['1', '2', '3', '4']",1,2023.2.3,harveydigits,2.1,[],8,0.75,
0,pause,0.4,None,None,None,0,271,271,271,,,,,,,,,,,,N006,digit,1,"['6', '7', '8', '9']","['1', '2', '3', '4']",1,2023.2.3,harveydigits,2.1,[],8,0.75,
20,digit,0.3,['dot'],['big_1'],black,0,272,272,272,,,97.60021376609802,97.32081294059753,97.62080097198486,"[[0.09109427827774139, 0.15386149731359147]]",['DejaVu Sans'],[0.9],,,,N006,digit,1,"['6', '7', '8', '9']","['1', '2', '3', '4']",1,2023.2.3,harveydigits,2.1,[],8,0.75,
0,pause,0.4,None,None,None,0,273,273,273,,,,,,,,,,,,N006,digit,1,"['6', '7', '8', '9']","['1', '2', '3', '4']",1,2023.2.3,harveydigits,2.1,[],8,0.75,
20,digit,0.3,['dot'],['big_1'],black,0,274,274,274,,,98.30022192001343,98.02080297470093,98.3207778930664,"[[-0.038640020335262676, -0.04168318765236009]]",['DejaVu Sans'],[0.9],,,,N006,digit,1,"['6', '7', '8', '9']","['1', '2', '3', '4']",1,2023.2.3,harveydigits,2.1,[],8,0.75,
0,pause,0.4,None,None,None,0,275,275,275,,,,,,,,,,,,N006,digit,1,"['6', '7', '8', '9']","['1', '2', '3', '4']",1,2023.2.3,harveydigits,2.1,[],8,0.75,
20,digit,0.3,['dot'],['big_1'],black,0,276,276,276,,,99.00024080276489,98.720773935318,99.02075386047363,"[[-0.1320051344487523, -0.08250623996884203]]",['DejaVu Sans'],[0.9],,,,N006,digit,1,"['6', '7', '8', '9']","['1', '2', '3', '4']",1,2023.2.3,harveydigits,2.1,[],8,0.75,
0,pause,0.4,None,None,None,0,277,277,277,,,,,,,,,,,,N006,digit,1,"['6', '7', '8', '9']","['1', '2', '3', '4']",1,2023.2.3,harveydigits,2.1,[],8,0.75,
20,digit,0.3,['dot'],['big_1'],black,0,278,278,278,,,99.70021390914917,99.42076396942139,99.72073197364807,"[[-0.15960961796140116, 0.03727376262977189]]",['DejaVu Sans'],[0.9],,,,N006,digit,1,"['6', '7', '8', '9']","['1', '2', '3', '4']",1,2023.2.3,harveydigits,2.1,[],8,0.75,
0,pause,0.4,None,None,None,0,279,279,279,,,,,,,,,,,,N006,digit,1,"['6', '7', '8', '9']","['1', '2', '3', '4']",1,2023.2.3,harveydigits,2.1,[],8,0.75,
20,digit,0.3,['dot'],['big_1'],black,0,280,280,280,,,100.40023899078369,100.12074494361877,100.4207329750061,"[[0.11945664634888989, 0.021332738398286755]]",['DejaVu Sans'],[0.9],,,,N006,digit,1,"['6', '7', '8', '9']","['1', '2', '3', '4']",1,2023.2.3,harveydigits,2.1,[],8,0.75,
0,pause,0.4,None,None,None,0,281,281,281,,,,,,,,,,,,N006,digit,1,"['6', '7', '8', '9']","['1', '2', '3', '4']",1,2023.2.3,harveydigits,2.1,[],8,0.75,
20,digit,0.3,['dot'],['big_1'],black,0,282,282,282,,,101.1002128124237,100.82076692581177,101.12076187133789,"[[-0.04111098032268065, 0.03398037547988056]]",['DejaVu Sans'],[0.9],,,,N006,digit,1,"['6', '7', '8', '9']","['1', '2', '3', '4']",1,2023.2.3,harveydigits,2.1,[],8,0.75,
0,pause,0.4,None,None,None,0,283,283,283,,,,,,,,,,,,N006,digit,1,"['6', '7', '8', '9']","['1', '2', '3', '4']",1,2023.2.3,harveydigits,2.1,[],8,0.75,
20,digit,0.3,['dot'],['big_1'],black,0,284,284,284,,,101.80022096633911,101.52071380615234,101.82070589065552,"[[-0.19162799419777318, -0.04631360490848528]]",['DejaVu Sans'],[0.9],,,,N006,digit,1,"['6', '7', '8', '9']","['1', '2', '3', '4']",1,2023.2.3,harveydigits,2.1,[],8,0.75,
0,pause,0.4,None,None,None,0,285,285,285,,,,,,,,,,,,N006,digit,1,"['6', '7', '8', '9']","['1', '2', '3', '4']",1,2023.2.3,harveydigits,2.1,[],8,0.75,
20,digit,0.3,['dot'],['big_1'],black,0,286,286,286,,,102.50023794174194,102.2207579612732,102.52076387405396,"[[0.12109449927704322, -0.08435543782528218]]",['DejaVu Sans'],[0.9],,,,N006,digit,1,"['6', '7', '8', '9']","['1', '2', '3', '4']",1,2023.2.3,harveydigits,2.1,[],8,0.75,
0,pause,0.4,None,None,None,0,287,287,287,,,,,,,,,,,,N006,digit,1,"['6', '7', '8', '9']","['1', '2', '3', '4']",1,2023.2.3,harveydigits,2.1,[],8,0.75,
20,digit,0.3,['dot'],['big_1'],black,0,288,288,288,,,103.20023989677429,102.92067885398865,103.22066879272461,"[[0.08402228611036258, -0.17652964879378819]]",['DejaVu Sans'],[0.9],,,,N006,digit,1,"['6', '7', '8', '9']","['1', '2', '3', '4']",1,2023.2.3,harveydigits,2.1,[],8,0.75,
0,pause,0.4,None,None,None,0,289,289,289,,,,,,,,,,,,N006,digit,1,"['6', '7', '8', '9']","['1', '2', '3', '4']",1,2023.2.3,harveydigits,2.1,[],8,0.75,
20,digit,0.3,['dot'],['big_1'],black,0,290,290,290,,,103.90022087097168,103.62065887451172,103.92065477371216,"[[-0.08877282605086506, -0.023379333310501238]]",['DejaVu Sans'],[0.9],,,,N006,digit,1,"['6', '7', '8', '9']","['1', '2', '3', '4']",1,2023.2.3,harveydigits,2.1,[],8,0.75,
0,pause,0.4,None,None,None,0,291,291,291,,,,,,,,,,,,N006,digit,1,"['6', '7', '8', '9']","['1', '2', '3', '4']",1,2023.2.3,harveydigits,2.1,[],8,0.75,
20,digit,0.3,['dot'],['big_1'],black,0,292,292,292,,,104.60021686553955,104.32064390182495,104.62062478065491,"[[0.08887882341114642, 0.0856510265991334]]",['DejaVu Sans'],[0.9],,,,N006,digit,1,"['6', '7', '8', '9']","['1', '2', '3', '4']",1,2023.2.3,harveydigits,2.1,[],8,0.75,
0,pause,0.4,None,None,None,0,293,293,293,,,,,,,,,,,,N006,digit,1,"['6', '7', '8', '9']","['1', '2', '3', '4']",1,2023.2.3,harveydigits,2.1,[],8,0.75,
20,digit,0.3,['dot'],['big_1'],black,0,294,294,294,,,105.3002438545227,105.02061796188354,105.32061290740967,"[[0.015526888120572957, -0.15565542219018397]]",['DejaVu Sans'],[0.9],,,,N006,digit,1,"['6', '7', '8', '9']","['1', '2', '3', '4']",1,2023.2.3,harveydigits,2.1,[],8,0.75,
0,pause,0.4,None,None,None,0,295,295,295,,,,,,,,,,,,N006,digit,1,"['6', '7', '8', '9']","['1', '2', '3', '4']",1,2023.2.3,harveydigits,2.1,[],8,0.75,
20,digit,0.3,['dot'],['big_1'],black,0,296,296,296,,,106.00021886825562,105.72060799598694,106.02058982849121,"[[-0.0606252936949018, 0.12787651208580386]]",['DejaVu Sans'],[0.9],,,,N006,digit,1,"['6', '7', '8', '9']","['1', '2', '3', '4']",1,2023.2.3,harveydigits,2.1,[],8,0.75,
0,pause,0.4,None,None,None,0,297,297,297,,,,,,,,,,,,N006,digit,1,"['6', '7', '8', '9']","['1', '2', '3', '4']",1,2023.2.3,harveydigits,2.1,[],8,0.75,
20,digit,0.3,['dot'],['big_1'],black,0,298,298,298,,,106.70021390914917,106.42059588432312,106.7205719947815,"[[-0.009652817866778823, -0.03741625866641468]]",['DejaVu Sans'],[0.9],,,,N006,digit,1,"['6', '7', '8', '9']","['1', '2', '3', '4']",1,2023.2.3,harveydigits,2.1,[],8,0.75,
0,pause,0.4,None,None,None,0,299,299,299,,,,,,,,,,,,N006,digit,1,"['6', '7', '8', '9']","['1', '2', '3', '4']",1,2023.2.3,harveydigits,2.1,[],8,0.75,
20,digit,0.3,['dot'],['big_1'],black,0,300,300,300,,,107.4002377986908,107.12054681777954,107.42054200172424,"[[-0.0057807255364694665, 0.07534258440561334]]",['DejaVu Sans'],[0.9],,,,N006,digit,1,"['6', '7', '8', '9']","['1', '2', '3', '4']",1,2023.2.3,harveydigits,2.1,[],8,0.75,
0,pause,0.4,None,None,None,0,301,301,301,,,,,,,,,,,,N006,digit,1,"['6', '7', '8', '9']","['1', '2', '3', '4']",1,2023.2.3,harveydigits,2.1,[],8,0.75,
20,digit,0.3,['dot'],['big_1'],black,0,302,302,302,,,108.10023379325867,107.82053399085999,108.12052178382874,"[[0.18061664031748018, 0.04523118563201116]]",['DejaVu Sans'],[0.9],,,,N006,digit,1,"['6', '7', '8', '9']","['1', '2', '3', '4']",1,2023.2.3,harveydigits,2.1,[],8,0.75,
0,pause,0.4,None,None,None,0,303,303,303,,,,,,,,,,,,N006,digit,1,"['6', '7', '8', '9']","['1', '2', '3', '4']",1,2023.2.3,harveydigits,2.1,[],8,0.75,
20,digit,0.3,['dot'],['big_1'],black,0,304,304,304,,,108.80024099349976,108.52053189277649,108.8205099105835,"[[-0.04201596909893324, 0.029497993063210298]]",['DejaVu Sans'],[0.9],,,,N006,digit,1,"['6', '7', '8', '9']","['1', '2', '3', '4']",1,2023.2.3,harveydigits,2.1,[],8,0.75,
0,pause,0.4,None,None,None,0,305,305,305,,,,,,,,,,,,N006,digit,1,"['6', '7', '8', '9']","['1', '2', '3', '4']",1,2023.2.3,harveydigits,2.1,[],8,0.75,
20,digit,0.3,['dot'],['big_1'],black,0,306,306,306,,,109.50023889541626,109.22053480148315,109.52052283287048,"[[-0.07284367092642724, 0.0012584040200112334]]",['DejaVu Sans'],[0.9],,,,N006,digit,1,"['6', '7', '8', '9']","['1', '2', '3', '4']",1,2023.2.3,harveydigits,2.1,[],8,0.75,
0,pause,0.4,None,None,None,0,307,307,307,,,,,,,,,,,,N006,digit,1,"['6', '7', '8', '9']","['1', '2', '3', '4']",1,2023.2.3,harveydigits,2.1,[],8,0.75,
20,digit,0.3,['dot'],['big_1'],black,0,308,308,308,,,110.20022797584534,109.9205048084259,110.22049498558044,"[[-0.014196511439337062, -0.17570828490187917]]",['DejaVu Sans'],[0.9],,,,N006,digit,1,"['6', '7', '8', '9']","['1', '2', '3', '4']",1,2023.2.3,harveydigits,2.1,[],8,0.75,
0,pause,0.4,None,None,None,0,309,309,309,,,,,,,,,,,,N006,digit,1,"['6', '7', '8', '9']","['1', '2', '3', '4']",1,2023.2.3,harveydigits,2.1,[],8,0.75,
20,digit,0.3,['dot'],['big_1'],black,0,310,310,310,,,110.90024399757385,110.62054181098938,110.92055177688599,"[[-0.08054448011399055, 0.12871978317339908]]",['DejaVu Sans'],[0.9],,,,N006,digit,1,"['6', '7', '8', '9']","['1', '2', '3', '4']",1,2023.2.3,harveydigits,2.1,[],8,0.75,
0,pause,0.4,None,None,None,0,311,311,311,,,,,,,,,,,,N006,digit,1,"['6', '7', '8', '9']","['1', '2', '3', '4']",1,2023.2.3,harveydigits,2.1,[],8,0.75,
1,digit,0.3,['dot'],['small_1'],black,0,312,312,312,,,111.60022497177124,111.32045292854309,111.62043976783752,"[[-0.2855478839912865, -0.04572305917392813]]",['DejaVu Sans'],[0.6],,,,N006,digit,1,"['6', '7', '8', '9']","['1', '2', '3', '4']",1,2023.2.3,harveydigits,2.1,[],8,0.75,
0,pause,0.4,None,None,None,0,313,313,313,,,,,,,,,,,,N006,digit,1,"['6', '7', '8', '9']","['1', '2', '3', '4']",1,2023.2.3,harveydigits,2.1,[],8,0.75,
1,digit,0.3,['dot'],['small_1'],black,0,314,314,314,,,112.30024480819702,112.02043390274048,112.32043695449829,"[[-0.022325671010368697, 0.06360019661015076]]",['DejaVu Sans'],[0.6],,,,N006,digit,1,"['6', '7', '8', '9']","['1', '2', '3', '4']",1,2023.2.3,harveydigits,2.1,[],8,0.75,
0,pause,0.4,None,None,None,0,315,315,315,,,,,,,,,,,,N006,digit,1,"['6', '7', '8', '9']","['1', '2', '3', '4']",1,2023.2.3,harveydigits,2.1,[],8,0.75,
1,digit,0.3,['dot'],['small_1'],black,0,316,316,316,,,113.00023698806763,112.72043085098267,113.02045488357544,"[[-0.015359836775823088, 0.1845251020178849]]",['DejaVu Sans'],[0.6],,,,N006,digit,1,"['6', '7', '8', '9']","['1', '2', '3', '4']",1,2023.2.3,harveydigits,2.1,[],8,0.75,
0,pause,0.4,None,None,None,0,317,317,317,,,,,,,,,,,,N006,digit,1,"['6', '7', '8', '9']","['1', '2', '3', '4']",1,2023.2.3,harveydigits,2.1,[],8,0.75,
1,digit,0.3,['dot'],['small_1'],black,0,318,318,318,,,113.70022678375244,113.42041087150574,113.72046685218811,"[[-0.33148050789558337, 0.0941589917711461]]",['DejaVu Sans'],[0.6],,,,N006,digit,1,"['6', '7', '8', '9']","['1', '2', '3', '4']",1,2023.2.3,harveydigits,2.1,[],8,0.75,
0,pause,0.4,None,None,None,0,319,319,319,,,,,,,,,,,,N006,digit,1,"['6', '7', '8', '9']","['1', '2', '3', '4']",1,2023.2.3,harveydigits,2.1,[],8,0.75,
1,digit,0.3,['dot'],['small_1'],black,0,320,320,320,,,114.40021681785583,114.12044978141785,114.4203748703003,"[[-0.25644899329852433, -0.04298250507108581]]",['DejaVu Sans'],[0.6],,,,N006,digit,1,"['6', '7', '8', '9']","['1', '2', '3', '4']",1,2023.2.3,harveydigits,2.1,[],8,0.75,
0,pause,0.4,None,None,None,0,321,321,321,,,,,,,,,,,,N006,digit,1,"['6', '7', '8', '9']","['1', '2', '3', '4']",1,2023.2.3,harveydigits,2.1,[],8,0.75,
1,digit,0.3,['dot'],['small_1'],black,0,322,322,322,,,115.10024881362915,114.82036590576172,115.12037181854248,"[[0.041140511229020627, -0.09147842068623813]]",['DejaVu Sans'],[0.6],,,,N006,digit,1,"['6', '7', '8', '9']","['1', '2', '3', '4']",1,2023.2.3,harveydigits,2.1,[],8,0.75,
0,pause,0.4,None,None,None,0,323,323,323,,,,,,,,,,,,N006,digit,1,"['6', '7', '8', '9']","['1', '2', '3', '4']",1,2023.2.3,harveydigits,2.1,[],8,0.75,
2,digit,0.3,['dot'],['small_1'],black,0,324,324,324,,,115.80022287368774,115.52035593986511,115.82034397125244,"[[0.24306468596248865, 0.1955988650224118]]",['DejaVu Sans'],[0.6],,,,N006,digit,1,"['6', '7', '8', '9']","['1', '2', '3', '4']",1,2023.2.3,harveydigits,2.1,[],8,0.75,
0,pause,0.4,None,None,None,0,325,325,325,,,,,,,,,,,,N006,digit,1,"['6', '7', '8', '9']","['1', '2', '3', '4']",1,2023.2.3,harveydigits,2.1,[],8,0.75,
2,digit,0.3,['dot'],['small_1'],black,0,326,326,326,,,116.50022578239441,116.22033786773682,116.52032899856567,"[[0.2422592842750928, 0.0797111540604879]]",['DejaVu Sans'],[0.6],,,,N006,digit,1,"['6', '7', '8', '9']","['1', '2', '3', '4']",1,2023.2.3,harveydigits,2.1,[],8,0.75,
0,pause,0.4,None,None,None,0,327,327,327,,,,,,,,,,,,N006,digit,1,"['6', '7', '8', '9']","['1', '2', '3', '4']",1,2023.2.3,harveydigits,2.1,[],8,0.75,
2,digit,0.3,['dot'],['small_1'],black,0,328,328,328,,,117.20022678375244,116.92038583755493,117.22037982940674,"[[-0.08704399081027825, 0.187723742329594]]",['DejaVu Sans'],[0.6],,,,N006,digit,1,"['6', '7', '8', '9']","['1', '2', '3', '4']",1,2023.2.3,harveydigits,2.1,[],8,0.75,
0,pause,0.4,None,None,None,0,329,329,329,,,,,,,,,,,,N006,digit,1,"['6', '7', '8', '9']","['1', '2', '3', '4']",1,2023.2.3,harveydigits,2.1,[],8,0.75,
2,digit,0.3,['dot'],['small_1'],black,0,330,330,330,,,117.90022897720337,117.62030577659607,117.92030096054077,"[[-0.33361201345748315, 0.012515658909404093]]",['DejaVu Sans'],[0.6],,,,N006,digit,1,"['6', '7', '8', '9']","['1', '2', '3', '4']",1,2023.2.3,harveydigits,2.1,[],8,0.75,
0,pause,0.4,None,None,None,0,331,331,331,,,,,,,,,,,,N006,digit,1,"['6', '7', '8', '9']","['1', '2', '3', '4']",1,2023.2.3,harveydigits,2.1,[],8,0.75,
2,digit,0.3,['dot'],['small_1'],black,0,332,332,332,,,118.60024189949036,118.32028198242188,118.62027382850647,"[[-0.14469331292082332, 0.1273457555097185]]",['DejaVu Sans'],[0.6],,,,N006,digit,1,"['6', '7', '8', '9']","['1', '2', '3', '4']",1,2023.2.3,harveydigits,2.1,[],8,0.75,
0,pause,0.4,None,None,None,0,333,333,333,,,,,,,,,,,,N006,digit,1,"['6', '7', '8', '9']","['1', '2', '3', '4']",1,2023.2.3,harveydigits,2.1,[],8,0.75,
2,digit,0.3,['dot'],['small_1'],black,0,334,334,334,,,119.30022096633911,119.0202739238739,119.32025790214539,"[[0.21131860465418695, -0.18244653645769843]]",['DejaVu Sans'],[0.6],,,,N006,digit,1,"['6', '7', '8', '9']","['1', '2', '3', '4']",1,2023.2.3,harveydigits,2.1,[],8,0.75,
0,pause,0.4,None,None,None,0,335,335,335,,,,,,,,,,,,N006,digit,1,"['6', '7', '8', '9']","['1', '2', '3', '4']",1,2023.2.3,harveydigits,2.1,[],8,0.75,
3,digit,0.3,['dot'],['small_1'],black,0,336,336,336,,,120.00024700164795,119.72024893760681,120.02023196220398,"[[0.06472482738578023, -0.09837080332410711]]",['DejaVu Sans'],[0.6],,,,N006,digit,1,"['6', '7', '8', '9']","['1', '2', '3', '4']",1,2023.2.3,harveydigits,2.1,[],8,0.75,
0,pause,0.4,None,None,None,0,337,337,337,,,,,,,,,,,,N006,digit,1,"['6', '7', '8', '9']","['1', '2', '3', '4']",1,2023.2.3,harveydigits,2.1,[],8,0.75,
3,digit,0.3,['dot'],['small_1'],black,0,338,338,338,,,120.70023393630981,120.42022490501404,120.72020387649536,"[[0.15119872087026254, 0.26651177764165085]]",['DejaVu Sans'],[0.6],,,,N006,digit,1,"['6', '7', '8', '9']","['1', '2', '3', '4']",1,2023.2.3,harveydigits,2.1,[],8,0.75,
0,pause,0.4,None,None,None,0,339,339,339,,,,,,,,,,,,N006,digit,1,"['6', '7', '8', '9']","['1', '2', '3', '4']",1,2023.2.3,harveydigits,2.1,[],8,0.75,
3,digit,0.3,['dot'],['small_1'],black,0,340,340,340,,,121.40023684501648,121.12024593353271,121.42026376724243,"[[-0.14035600479650212, 0.1293919532662678]]",['DejaVu Sans'],[0.6],,,,N006,digit,1,"['6', '7', '8', '9']","['1', '2', '3', '4']",1,2023.2.3,harveydigits,2.1,[],8,0.75,
0,pause,0.4,None,None,None,0,341,341,341,,,,,,,,,,,,N006,digit,1,"['6', '7', '8', '9']","['1', '2', '3', '4']",1,2023.2.3,harveydigits,2.1,[],8,0.75,
3,digit,0.3,['dot'],['small_1'],black,0,342,342,342,,,122.1002368927002,121.82025980949402,122.12025499343872,"[[-0.2520068942887121, -0.039781472307216376]]",['DejaVu Sans'],[0.6],,,,N006,digit,1,"['6', '7', '8', '9']","['1', '2', '3', '4']",1,2023.2.3,harveydigits,2.1,[],8,0.75,
0,pause,0.4,None,None,None,0,343,343,343,,,,,,,,,,,,N006,digit,1,"['6', '7', '8', '9']","['1', '2', '3', '4']",1,2023.2.3,harveydigits,2.1,[],8,0.75,
3,digit,0.3,['dot'],['small_1'],black,0,344,344,344,,,122.80023884773254,122.52018189430237,122.82016181945801,"[[0.10842517217099906, -0.14583548641669472]]",['DejaVu Sans'],[0.6],,,,N006,digit,1,"['6', '7', '8', '9']","['1', '2', '3', '4']",1,2023.2.3,harveydigits,2.1,[],8,0.75,
0,pause,0.4,None,None,None,0,345,345,345,,,,,,,,,,,,N006,digit,1,"['6', '7', '8', '9']","['1', '2', '3', '4']",1,2023.2.3,harveydigits,2.1,[],8,0.75,
3,digit,0.3,['dot'],['small_1'],black,0,346,346,346,,,123.50022292137146,123.22014284133911,123.52014493942261,"[[0.17419163900674184, 0.004832390966783284]]",['DejaVu Sans'],[0.6],,,,N006,digit,1,"['6', '7', '8', '9']","['1', '2', '3', '4']",1,2023.2.3,harveydigits,2.1,[],8,0.75,
0,pause,0.4,None,None,None,0,347,347,347,,,,,,,,,,,,N006,digit,1,"['6', '7', '8', '9']","['1', '2', '3', '4']",1,2023.2.3,harveydigits,2.1,[],8,0.75,
4,digit,0.3,['dot'],['small_1'],black,0,348,348,348,,,124.20022797584534,123.9201409816742,124.22016096115112,"[[-0.17670517550931908, -0.2528915104519551]]",['DejaVu Sans'],[0.6],,,,N006,digit,1,"['6', '7', '8', '9']","['1', '2', '3', '4']",1,2023.2.3,harveydigits,2.1,[],8,0.75,
0,pause,0.4,None,None,None,0,349,349,349,,,,,,,,,,,,N006,digit,1,"['6', '7', '8', '9']","['1', '2', '3', '4']",1,2023.2.3,harveydigits,2.1,[],8,0.75,
4,digit,0.3,['dot'],['small_1'],black,0,350,350,350,,,124.90023183822632,124.62016081809998,124.9201557636261,"[[-0.2629878398404274, -0.02989517055805077]]",['DejaVu Sans'],[0.6],,,,N006,digit,1,"['6', '7', '8', '9']","['1', '2', '3', '4']",1,2023.2.3,harveydigits,2.1,[],8,0.75,
0,pause,0.4,None,None,None,0,351,351,351,,,,,,,,,,,,N006,digit,1,"['6', '7', '8', '9']","['1', '2', '3', '4']",1,2023.2.3,harveydigits,2.1,[],8,0.75,
4,digit,0.3,['dot'],['small_1'],black,0,352,352,352,,,125.60023880004883,125.32010984420776,125.62014293670654,"[[0.2600191000751585, -0.1777110976072367]]",['DejaVu Sans'],[0.6],,,,N006,digit,1,"['6', '7', '8', '9']","['1', '2', '3', '4']",1,2023.2.3,harveydigits,2.1,[],8,0.75,
0,pause,0.4,None,None,None,0,353,353,353,,,,,,,,,,,,N006,digit,1,"['6', '7', '8', '9']","['1', '2', '3', '4']",1,2023.2.3,harveydigits,2.1,[],8,0.75,
4,digit,0.3,['dot'],['small_1'],black,0,354,354,354,,,126.30024290084839,126.02006483078003,126.32026100158691,"[[-0.22368177625211377, 0.14351751217042236]]",['DejaVu Sans'],[0.6],,,,N006,digit,1,"['6', '7', '8', '9']","['1', '2', '3', '4']",1,2023.2.3,harveydigits,2.1,[],8,0.75,
0,pause,0.4,None,None,None,0,355,355,355,,,,,,,,,,,,N006,digit,1,"['6', '7', '8', '9']","['1', '2', '3', '4']",1,2023.2.3,harveydigits,2.1,[],8,0.75,
4,digit,0.3,['dot'],['small_1'],black,0,356,356,356,,,127.00024080276489,126.72022199630737,127.0202248096466,"[[-0.052342816519492574, -0.13962594793016087]]",['DejaVu Sans'],[0.6],,,,N006,digit,1,"['6', '7', '8', '9']","['1', '2', '3', '4']",1,2023.2.3,harveydigits,2.1,[],8,0.75,
0,pause,0.4,None,None,None,0,357,357,357,,,,,,,,,,,,N006,digit,1,"['6', '7', '8', '9']","['1', '2', '3', '4']",1,2023.2.3,harveydigits,2.1,[],8,0.75,
4,digit,0.3,['dot'],['small_1'],black,0,358,358,358,,,127.70024085044861,127.42021894454956,127.72033476829529,"[[0.2861418945528563, 0.044285035397145844]]",['DejaVu Sans'],[0.6],,,,N006,digit,1,"['6', '7', '8', '9']","['1', '2', '3', '4']",1,2023.2.3,harveydigits,2.1,[],8,0.75,
0,pause,0.4,None,None,None,0,359,359,359,,,,,,,,,,,,N006,digit,1,"['6', '7', '8', '9']","['1', '2', '3', '4']",1,2023.2.3,harveydigits,2.1,[],8,0.75,
5,digit,0.3,['dot'],['small_1'],black,0,360,360,360,,,128.40024876594543,128.1200098991394,128.42000079154968,"[[-0.08240980247247287, -0.007119776182734239]]",['DejaVu Sans'],[0.6],,,,N006,digit,1,"['6', '7', '8', '9']","['1', '2', '3', '4']",1,2023.2.3,harveydigits,2.1,[],8,0.75,
0,pause,0.4,None,None,None,0,361,361,361,,,,,,,,,,,,N006,digit,1,"['6', '7', '8', '9']","['1', '2', '3', '4']",1,2023.2.3,harveydigits,2.1,[],8,0.75,
5,digit,0.3,['dot'],['small_1'],black,0,362,362,362,,,129.10021996498108,128.8200089931488,129.12003087997437,"[[-0.14727219571773442, -0.1339427858208908]]",['DejaVu Sans'],[0.6],,,,N006,digit,1,"['6', '7', '8', '9']","['1', '2', '3', '4']",1,2023.2.3,harveydigits,2.1,[],8,0.75,
0,pause,0.4,None,None,None,0,363,363,363,,,,,,,,,,,,N006,digit,1,"['6', '7', '8', '9']","['1', '2', '3', '4']",1,2023.2.3,harveydigits,2.1,[],8,0.75,
5,digit,0.3,['dot'],['small_1'],black,0,364,364,364,,,129.80021977424622,129.5200219154358,129.81997084617615,"[[-0.009033314239765722, -0.06166598911112725]]",['DejaVu Sans'],[0.6],,,,N006,digit,1,"['6', '7', '8', '9']","['1', '2', '3', '4']",1,2023.2.3,harveydigits,2.1,[],8,0.75,
0,pause,0.4,None,None,None,0,365,365,365,,,,,,,,,,,,N006,digit,1,"['6', '7', '8', '9']","['1', '2', '3', '4']",1,2023.2.3,harveydigits,2.1,[],8,0.75,
5,digit,0.3,['dot'],['small_1'],black,0,366,366,366,,,130.5002248287201,130.21998381614685,130.51998281478882,"[[-0.08523625016508135, 0.2372744032701602]]",['DejaVu Sans'],[0.6],,,,N006,digit,1,"['6', '7', '8', '9']","['1', '2', '3', '4']",1,2023.2.3,harveydigits,2.1,[],8,0.75,
0,pause,0.4,None,None,None,0,367,367,367,,,,,,,,,,,,N006,digit,1,"['6', '7', '8', '9']","['1', '2', '3', '4']",1,2023.2.3,harveydigits,2.1,[],8,0.75,
5,digit,0.3,['dot'],['small_1'],black,0,368,368,368,,,131.20021677017212,130.92003083229065,131.22000694274902,"[[0.21517138287507398, 0.1696231129338175]]",['DejaVu Sans'],[0.6],,,,N006,digit,1,"['6', '7', '8', '9']","['1', '2', '3', '4']",1,2023.2.3,harveydigits,2.1,[],8,0.75,
0,pause,0.4,None,None,None,0,369,369,369,,,,,,,,,,,,N006,digit,1,"['6', '7', '8', '9']","['1', '2', '3', '4']",1,2023.2.3,harveydigits,2.1,[],8,0.75,
5,digit,0.3,['dot'],['small_1'],black,0,370,370,370,,,131.90024590492249,131.6199688911438,131.9199469089508,"[[0.1224647519534875, -0.21239769407548487]]",['DejaVu Sans'],[0.6],,,,N006,digit,1,"['6', '7', '8', '9']","['1', '2', '3', '4']",1,2023.2.3,harveydigits,2.1,[],8,0.75,
0,pause,0.4,None,None,None,0,371,371,371,,,,,,,,,,,,N006,digit,1,"['6', '7', '8', '9']","['1', '2', '3', '4']",1,2023.2.3,harveydigits,2.1,[],8,0.75,
6,digit,0.3,['dot'],['small_1'],black,0,372,372,372,,,132.60025191307068,132.31994199752808,132.61993193626404,"[[-0.1148556719798943, -0.14156764992348486]]",['DejaVu Sans'],[0.6],,,,N006,digit,1,"['6', '7', '8', '9']","['1', '2', '3', '4']",1,2023.2.3,harveydigits,2.1,[],8,0.75,
0,pause,0.4,None,None,None,0,373,373,373,,,,,,,,,,,,N006,digit,1,"['6', '7', '8', '9']","['1', '2', '3', '4']",1,2023.2.3,harveydigits,2.1,[],8,0.75,
6,digit,0.3,['dot'],['small_1'],black,0,374,374,374,,,133.3002359867096,133.01992678642273,133.31988286972046,"[[0.3399225053755779, 0.03540181446973148]]",['DejaVu Sans'],[0.6],,,,N006,digit,1,"['6', '7', '8', '9']","['1', '2', '3', '4']",1,2023.2.3,harveydigits,2.1,[],8,0.75,
0,pause,0.4,None,None,None,0,375,375,375,,,,,,,,,,,,N006,digit,1,"['6', '7', '8', '9']","['1', '2', '3', '4']",1,2023.2.3,harveydigits,2.1,[],8,0.75,
6,digit,0.3,['dot'],['small_1'],black,0,376,376,376,,,134.00023794174194,133.71989393234253,134.01987481117249,"[[0.10234301019134778, 0.13177442591570382]]",['DejaVu Sans'],[0.6],,,,N006,digit,1,"['6', '7', '8', '9']","['1', '2', '3', '4']",1,2023.2.3,harveydigits,2.1,[],8,0.75,
0,pause,0.4,None,None,None,0,377,377,377,,,,,,,,,,,,N006,digit,1,"['6', '7', '8', '9']","['1', '2', '3', '4']",1,2023.2.3,harveydigits,2.1,[],8,0.75,
6,digit,0.3,['dot'],['small_1'],black,0,378,378,378,,,134.70022892951965,134.41989088058472,134.71992588043213,"[[0.22713441840173143, -0.18659878148741402]]",['DejaVu Sans'],[0.6],,,,N006,digit,1,"['6', '7', '8', '9']","['1', '2', '3', '4']",1,2023.2.3,harveydigits,2.1,[],8,0.75,
0,pause,0.4,None,None,None,0,379,379,379,,,,,,,,,,,,N006,digit,1,"['6', '7', '8', '9']","['1', '2', '3', '4']",1,2023.2.3,harveydigits,2.1,[],8,0.75,
6,digit,0.3,['dot'],['small_1'],black,0,380,380,380,,,135.40024781227112,135.11994695663452,135.41984677314758,"[[-0.0055714322908072544, -0.14268193923795341]]",['DejaVu Sans'],[0.6],,,,N006,digit,1,"['6', '7', '8', '9']","['1', '2', '3', '4']",1,2023.2.3,harveydigits,2.1,[],8,0.75,
0,pause,0.4,None,None,None,0,381,381,381,,,,,,,,,,,,N006,digit,1,"['6', '7', '8', '9']","['1', '2', '3', '4']",1,2023.2.3,harveydigits,2.1,[],8,0.75,
6,digit,0.3,['dot'],['small_1'],black,0,382,382,382,,,136.10023999214172,135.8200798034668,136.1200728416443,"[[0.1886834447579665, 0.048075249155142497]]",['DejaVu Sans'],[0.6],,,,N006,digit,1,"['6', '7', '8', '9']","['1', '2', '3', '4']",1,2023.2.3,harveydigits,2.1,[],8,0.75,
0,pause,0.4,None,None,None,0,383,383,383,,,,,,,,,,,,N006,digit,1,"['6', '7', '8', '9']","['1', '2', '3', '4']",1,2023.2.3,harveydigits,2.1,[],8,0.75,
7,digit,0.3,['dot'],['small_1'],black,0,384,384,384,,,136.8002347946167,136.5199749469757,136.81986093521118,"[[0.29809786111225467, 0.020671867825810486]]",['DejaVu Sans'],[0.6],,,,N006,digit,1,"['6', '7', '8', '9']","['1', '2', '3', '4']",1,2023.2.3,harveydigits,2.1,[],8,0.75,
0,pause,0.4,None,None,None,0,385,385,385,,,,,,,,,,,,N006,digit,1,"['6', '7', '8', '9']","['1', '2', '3', '4']",1,2023.2.3,harveydigits,2.1,[],8,0.75,
7,digit,0.3,['dot'],['small_1'],black,0,386,386,386,,,137.50022387504578,137.21981477737427,137.51983094215393,"[[-0.2482221087895708, 0.20780691436817447]]",['DejaVu Sans'],[0.6],,,,N006,digit,1,"['6', '7', '8', '9']","['1', '2', '3', '4']",1,2023.2.3,harveydigits,2.1,[],8,0.75,
0,pause,0.4,None,None,None,0,387,387,387,,,,,,,,,,,,N006,digit,1,"['6', '7', '8', '9']","['1', '2', '3', '4']",1,2023.2.3,harveydigits,2.1,[],8,0.75,
7,digit,0.3,['dot'],['small_1'],black,0,388,388,388,,,138.20024585723877,137.91976284980774,138.21974992752075,"[[-0.005763152169246943, 0.09309263027581505]]",['DejaVu Sans'],[0.6],,,,N006,digit,1,"['6', '7', '8', '9']","['1', '2', '3', '4']",1,2023.2.3,harveydigits,2.1,[],8,0.75,
0,pause,0.4,None,None,None,0,389,389,389,,,,,,,,,,,,N006,digit,1,"['6', '7', '8', '9']","['1', '2', '3', '4']",1,2023.2.3,harveydigits,2.1,[],8,0.75,
7,digit,0.3,['dot'],['small_1'],black,0,390,390,390,,,138.9002468585968,138.61974096298218,138.91976594924927,"[[0.05862654435407616, -0.007404627152087895]]",['DejaVu Sans'],[0.6],,,,N006,digit,1,"['6', '7', '8', '9']","['1', '2', '3', '4']",1,2023.2.3,harveydigits,2.1,[],8,0.75,
0,pause,0.4,None,None,None,0,391,391,391,,,,,,,,,,,,N006,digit,1,"['6', '7', '8', '9']","['1', '2', '3', '4']",1,2023.2.3,harveydigits,2.1,[],8,0.75,
7,digit,0.3,['dot'],['small_1'],black,0,392,392,392,,,139.60024094581604,139.31972980499268,139.6197907924652,"[[-0.18961954015541801, 0.2855341466118462]]",['DejaVu Sans'],[0.6],,,,N006,digit,1,"['6', '7', '8', '9']","['1', '2', '3', '4']",1,2023.2.3,harveydigits,2.1,[],8,0.75,
0,pause,0.4,None,None,None,0,393,393,393,,,,,,,,,,,,N006,digit,1,"['6', '7', '8', '9']","['1', '2', '3', '4']",1,2023.2.3,harveydigits,2.1,[],8,0.75,
7,digit,0.3,['dot'],['small_1'],black,0,394,394,394,,,140.30024194717407,140.0197389125824,140.31970286369324,"[[0.2539823657275845, -0.07419615413401393]]",['DejaVu Sans'],[0.6],,,,N006,digit,1,"['6', '7', '8', '9']","['1', '2', '3', '4']",1,2023.2.3,harveydigits,2.1,[],8,0.75,
0,pause,0.4,None,None,None,0,395,395,395,,,,,,,,,,,,N006,digit,1,"['6', '7', '8', '9']","['1', '2', '3', '4']",1,2023.2.3,harveydigits,2.1,[],8,0.75,
8,digit,0.3,['dot'],['small_1'],black,0,396,396,396,,,141.0002248287201,140.71971797943115,141.01969194412231,"[[-0.19320755237308118, -0.23194088954164832]]",['DejaVu Sans'],[0.6],,,,N006,digit,1,"['6', '7', '8', '9']","['1', '2', '3', '4']",1,2023.2.3,harveydigits,2.1,[],8,0.75,
0,pause,0.4,None,None,None,0,397,397,397,,,,,,,,,,,,N006,digit,1,"['6', '7', '8', '9']","['1', '2', '3', '4']",1,2023.2.3,harveydigits,2.1,[],8,0.75,
8,digit,0.3,['dot'],['small_1'],black,0,398,398,398,,,141.7002308368683,141.419695854187,141.71966290473938,"[[-0.04754223444750083, 0.20874620170355213]]",['DejaVu Sans'],[0.6],,,,N006,digit,1,"['6', '7', '8', '9']","['1', '2', '3', '4']",1,2023.2.3,harveydigits,2.1,[],8,0.75,
0,pause,0.4,None,None,None,0,399,399,399,,,,,,,,,,,,N006,digit,1,"['6', '7', '8', '9']","['1', '2', '3', '4']",1,2023.2.3,harveydigits,2.1,[],8,0.75,
8,digit,0.3,['dot'],['small_1'],black,0,400,400,400,,,142.400221824646,142.1196529865265,142.41965889930725,"[[0.33212020036694134, -0.035345147365666504]]",['DejaVu Sans'],[0.6],,,,N006,digit,1,"['6', '7', '8', '9']","['1', '2', '3', '4']",1,2023.2.3,harveydigits,2.1,[],8,0.75,
0,pause,0.4,None,None,None,0,401,401,401,,,,,,,,,,,,N006,digit,1,"['6', '7', '8', '9']","['1', '2', '3', '4']",1,2023.2.3,harveydigits,2.1,[],8,0.75,
8,digit,0.3,['dot'],['small_1'],black,0,402,402,402,,,143.10023093223572,142.81965494155884,143.11962985992432,"[[-0.31964333559680813, -0.0850173757403054]]",['DejaVu Sans'],[0.6],,,,N006,digit,1,"['6', '7', '8', '9']","['1', '2', '3', '4']",1,2023.2.3,harveydigits,2.1,[],8,0.75,
0,pause,0.4,None,None,None,0,403,403,403,,,,,,,,,,,,N006,digit,1,"['6', '7', '8', '9']","['1', '2', '3', '4']",1,2023.2.3,harveydigits,2.1,[],8,0.75,
8,digit,0.3,['dot'],['small_1'],black,0,404,404,404,,,143.8002429008484,143.51978492736816,143.81976985931396,"[[-0.3458803708516464, 0.01545980115796309]]",['DejaVu Sans'],[0.6],,,,N006,digit,1,"['6', '7', '8', '9']","['1', '2', '3', '4']",1,2023.2.3,harveydigits,2.1,[],8,0.75,
0,pause,0.4,None,None,None,0,405,405,405,,,,,,,,,,,,N006,digit,1,"['6', '7', '8', '9']","['1', '2', '3', '4']",1,2023.2.3,harveydigits,2.1,[],8,0.75,
8,digit,0.3,['dot'],['small_1'],black,0,406,406,406,,,144.50023579597473,144.21977186203003,144.51978182792664,"[[-0.06424134816170968, 0.08463674825291229]]",['DejaVu Sans'],[0.6],,,,N006,digit,1,"['6', '7', '8', '9']","['1', '2', '3', '4']",1,2023.2.3,harveydigits,2.1,[],8,0.75,
0,pause,0.4,None,None,None,0,407,407,407,,,,,,,,,,,,N006,digit,1,"['6', '7', '8', '9']","['1', '2', '3', '4']",1,2023.2.3,harveydigits,2.1,[],8,0.75,
9,digit,0.3,['dot'],['small_1'],white,0,408,408,408,,,145.20025086402893,144.91974592208862,145.2196328639984,"[[0.2357771311770348, 0.15556556988721248]]",['DejaVu Sans'],[0.6],,,,N006,digit,1,"['6', '7', '8', '9']","['1', '2', '3', '4']",1,2023.2.3,harveydigits,2.1,[],8,0.75,
0,pause,0.4,None,None,None,0,409,409,409,,,,,,,,,,,,N006,digit,1,"['6', '7', '8', '9']","['1', '2', '3', '4']",1,2023.2.3,harveydigits,2.1,[],8,0.75,
9,digit,0.3,['dot'],['small_1'],white,0,410,410,410,,,145.90029788017273,145.61962389945984,145.9195637702942,"[[-0.07356899803882927, 0.2128077164473396]]",['DejaVu Sans'],[0.6],left,145.2711181640625,odd,N006,digit,1,"['6', '7', '8', '9']","['1', '2', '3', '4']",1,2023.2.3,harveydigits,2.1,[],8,0.75,
0,pause,0.4,None,None,None,0,411,411,411,,,,,,,,,,,,N006,digit,1,"['6', '7', '8', '9']","['1', '2', '3', '4']",1,2023.2.3,harveydigits,2.1,[],8,0.75,
9,digit,0.3,['dot'],['small_1'],white,0,412,412,412,,,146.60028386116028,146.31955885887146,146.6195948123932,"[[-0.07122424987113718, -0.10219113504160685]]",['DejaVu Sans'],[0.6],left,146.27621603012085,odd,N006,digit,1,"['6', '7', '8', '9']","['1', '2', '3', '4']",1,2023.2.3,harveydigits,2.1,[],8,0.75,
0,pause,0.4,None,None,None,0,413,413,413,,,,,,,,,,,,N006,digit,1,"['6', '7', '8', '9']","['1', '2', '3', '4']",1,2023.2.3,harveydigits,2.1,[],8,0.75,
9,digit,0.3,['dot'],['small_1'],white,0,414,414,414,,,147.30025696754456,147.0195438861847,147.3195297718048,"[[0.14018048960025514, -0.191678500970062]]",['DejaVu Sans'],[0.6],left,146.98924493789673,odd,N006,digit,1,"['6', '7', '8', '9']","['1', '2', '3', '4']",1,2023.2.3,harveydigits,2.1,[],8,0.75,
0,pause,0.4,None,None,None,0,415,415,415,,,,,,,,,,,,N006,digit,1,"['6', '7', '8', '9']","['1', '2', '3', '4']",1,2023.2.3,harveydigits,2.1,[],8,0.75,
9,digit,0.3,['dot'],['small_1'],white,0,416,416,416,,,148.000305891037,147.71952390670776,148.01950693130493,"[[-0.019896473928765368, 0.28103944567492317]]",['DejaVu Sans'],[0.6],left,147.69740414619446,odd,N006,digit,1,"['6', '7', '8', '9']","['1', '2', '3', '4']",1,2023.2.3,harveydigits,2.1,[],8,0.75,
0,pause,0.4,None,None,None,0,417,417,417,,,,,,,,,,,,N006,digit,1,"['6', '7', '8', '9']","['1', '2', '3', '4']",1,2023.2.3,harveydigits,2.1,[],8,0.75,
9,digit,0.3,['dot'],['small_1'],white,0,418,418,418,,,148.70028376579285,148.41950488090515,148.71952295303345,"[[0.3490395543723048, 0.005775430671756152]]",['DejaVu Sans'],[0.6],left,148.41551113128662,odd,N006,digit,1,"['6', '7', '8', '9']","['1', '2', '3', '4']",1,2023.2.3,harveydigits,2.1,[],8,0.75,
0,pause,0.4,None,None,None,0,419,419,419,,,,,,,,,,,,N006,digit,1,"['6', '7', '8', '9']","['1', '2', '3', '4']",1,2023.2.3,harveydigits,2.1,[],8,0.75,
20,digit,0.3,['dot'],['small_1'],black,0,420,420,420,,,149.4002537727356,149.11954879760742,149.41949796676636,"[[-0.23807427328423125, 0.06650650837681349]]",['DejaVu Sans'],[0.6],,,,N006,digit,1,"['6', '7', '8', '9']","['1', '2', '3', '4']",1,2023.2.3,harveydigits,2.1,[],8,0.75,
0,pause,0.4,None,None,None,0,421,421,421,,,,,,,,,,,,N006,digit,1,"['6', '7', '8', '9']","['1', '2', '3', '4']",1,2023.2.3,harveydigits,2.1,[],8,0.75,
20,digit,0.3,['dot'],['small_1'],black,0,422,422,422,,,150.1002287864685,149.81950283050537,150.11947083473206,"[[-0.1792810916845691, -0.12329287248365839]]",['DejaVu Sans'],[0.6],,,,N006,digit,1,"['6', '7', '8', '9']","['1', '2', '3', '4']",1,2023.2.3,harveydigits,2.1,[],8,0.75,
0,pause,0.4,None,None,None,0,423,423,423,,,,,,,,,,,,N006,digit,1,"['6', '7', '8', '9']","['1', '2', '3', '4']",1,2023.2.3,harveydigits,2.1,[],8,0.75,
20,digit,0.3,['dot'],['small_1'],black,0,424,424,424,,,150.80024099349976,150.51946997642517,150.8194718360901,"[[-0.17712137566608252, 0.2852289567774897]]",['DejaVu Sans'],[0.6],,,,N006,digit,1,"['6', '7', '8', '9']","['1', '2', '3', '4']",1,2023.2.3,harveydigits,2.1,[],8,0.75,
0,pause,0.4,None,None,None,0,425,425,425,,,,,,,,,,,,N006,digit,1,"['6', '7', '8', '9']","['1', '2', '3', '4']",1,2023.2.3,harveydigits,2.1,[],8,0.75,
20,digit,0.3,['dot'],['small_1'],black,0,426,426,426,,,151.5002408027649,151.21946692466736,151.5195758342743,"[[0.33003617630018256, 0.015751219343397974]]",['DejaVu Sans'],[0.6],,,,N006,digit,1,"['6', '7', '8', '9']","['1', '2', '3', '4']",1,2023.2.3,harveydigits,2.1,[],8,0.75,
0,pause,0.4,None,None,None,0,427,427,427,,,,,,,,,,,,N006,digit,1,"['6', '7', '8', '9']","['1', '2', '3', '4']",1,2023.2.3,harveydigits,2.1,[],8,0.75,
20,digit,0.3,['dot'],['small_1'],black,0,428,428,428,,,152.2002558708191,151.91956496238708,152.21955490112305,"[[-0.3173400562792252, -0.08812794232604693]]",['DejaVu Sans'],[0.6],,,,N006,digit,1,"['6', '7', '8', '9']","['1', '2', '3', '4']",1,2023.2.3,harveydigits,2.1,[],8,0.75,
0,pause,0.4,None,None,None,0,429,429,429,,,,,,,,,,,,N006,digit,1,"['6', '7', '8', '9']","['1', '2', '3', '4']",1,2023.2.3,harveydigits,2.1,[],8,0.75,
20,digit,0.3,['dot'],['small_1'],black,0,430,430,430,,,152.90022778511047,152.61954879760742,152.91938877105713,"[[-0.24310038582272925, -0.0445705934159919]]",['DejaVu Sans'],[0.6],,,,N006,digit,1,"['6', '7', '8', '9']","['1', '2', '3', '4']",1,2023.2.3,harveydigits,2.1,[],8,0.75,
0,pause,0.4,None,None,None,0,431,431,431,,,,,,,,,,,,N006,digit,1,"['6', '7', '8', '9']","['1', '2', '3', '4']",1,2023.2.3,harveydigits,2.1,[],8,0.75,
20,digit,0.3,['dot'],['small_1'],black,0,432,432,432,,,153.60024690628052,153.31937193870544,153.61938786506653,"[[-0.28019023270893173, -0.17979430553426798]]",['DejaVu Sans'],[0.6],,,,N006,digit,1,"['6', '7', '8', '9']","['1', '2', '3', '4']",1,2023.2.3,harveydigits,2.1,[],8,0.75,
0,pause,0.4,None,None,None,0,433,433,433,,,,,,,,,,,,N006,digit,1,"['6', '7', '8', '9']","['1', '2', '3', '4']",1,2023.2.3,harveydigits,2.1,[],8,0.75,
20,digit,0.3,['dot'],['small_1'],black,0,434,434,434,,,154.30023980140686,154.01938676834106,154.3193428516388,"[[-0.046824775021621245, 0.3084345572737538]]",['DejaVu Sans'],[0.6],,,,N006,digit,1,"['6', '7', '8', '9']","['1', '2', '3', '4']",1,2023.2.3,harveydigits,2.1,[],8,0.75,
0,pause,0.4,None,None,None,0,435,435,435,,,,,,,,,,,,N006,digit,1,"['6', '7', '8', '9']","['1', '2', '3', '4']",1,2023.2.3,harveydigits,2.1,[],8,0.75,
20,digit,0.3,['dot'],['small_1'],black,0,436,436,436,,,155.00024390220642,154.7193398475647,155.0193259716034,"[[0.0797640868525441, 0.25282799792266053]]",['DejaVu Sans'],[0.6],,,,N006,digit,1,"['6', '7', '8', '9']","['1', '2', '3', '4']",1,2023.2.3,harveydigits,2.1,[],8,0.75,
0,pause,0.4,None,None,None,0,437,437,437,,,,,,,,,,,,N006,digit,1,"['6', '7', '8', '9']","['1', '2', '3', '4']",1,2023.2.3,harveydigits,2.1,[],8,0.75,
20,digit,0.3,['dot'],['small_1'],black,0,438,438,438,,,155.70023894309998,155.4193398952484,155.7193148136139,"[[0.32844292312543377, 0.1088289740151526]]",['DejaVu Sans'],[0.6],,,,N006,digit,1,"['6', '7', '8', '9']","['1', '2', '3', '4']",1,2023.2.3,harveydigits,2.1,[],8,0.75,
0,pause,0.4,None,None,None,0,439,439,439,,,,,,,,,,,,N006,digit,1,"['6', '7', '8', '9']","['1', '2', '3', '4']",1,2023.2.3,harveydigits,2.1,[],8,0.75,
20,digit,0.3,['dot'],['small_1'],black,0,440,440,440,,,156.4002537727356,156.11947584152222,156.4192819595337,"[[0.023797581967504533, 0.17235873338242852]]",['DejaVu Sans'],[0.6],,,,N006,digit,1,"['6', '7', '8', '9']","['1', '2', '3', '4']",1,2023.2.3,harveydigits,2.1,[],8,0.75,
0,pause,0.4,None,None,None,0,441,441,441,,,,,,,,,,,,N006,digit,1,"['6', '7', '8', '9']","['1', '2', '3', '4']",1,2023.2.3,harveydigits,2.1,[],8,0.75,
20,digit,0.3,['dot'],['small_1'],black,0,442,442,442,,,157.10023188591003,156.81932377815247,157.11930584907532,"[[0.171237406051286, -0.15822688945608385]]",['DejaVu Sans'],[0.6],,,,N006,digit,1,"['6', '7', '8', '9']","['1', '2', '3', '4']",1,2023.2.3,harveydigits,2.1,[],8,0.75,
0,pause,0.4,None,None,None,0,443,443,443,,,,,,,,,,,,N006,digit,1,"['6', '7', '8', '9']","['1', '2', '3', '4']",1,2023.2.3,harveydigits,2.1,[],8,0.75,
20,digit,0.3,['dot'],['small_1'],black,0,444,444,444,,,157.8002359867096,157.51925587654114,157.8192539215088,"[[0.22870220073601943, 0.0629448482846442]]",['DejaVu Sans'],[0.6],,,,N006,digit,1,"['6', '7', '8', '9']","['1', '2', '3', '4']",1,2023.2.3,harveydigits,2.1,[],8,0.75,
0,pause,0.4,None,None,None,0,445,445,445,,,,,,,,,,,,N006,digit,1,"['6', '7', '8', '9']","['1', '2', '3', '4']",1,2023.2.3,harveydigits,2.1,[],8,0.75,
20,digit,0.3,['dot'],['small_1'],black,0,446,446,446,,,158.50022888183594,158.2193148136139,158.51929688453674,"[[0.14291560581764085, 0.1492929861699977]]",['DejaVu Sans'],[0.6],,,,N006,digit,1,"['6', '7', '8', '9']","['1', '2', '3', '4']",1,2023.2.3,harveydigits,2.1,[],8,0.75,
0,pause,0.4,None,None,None,0,447,447,447,,,,,,,,,,,,N006,digit,1,"['6', '7', '8', '9']","['1', '2', '3', '4']",1,2023.2.3,harveydigits,2.1,[],8,0.75,
20,digit,0.3,['dot'],['small_1'],black,0,448,448,448,,,159.20022892951965,158.91933178901672,159.2194287776947,"[[0.2964700282708642, -0.07353112205180755]]",['DejaVu Sans'],[0.6],,,,N006,digit,1,"['6', '7', '8', '9']","['1', '2', '3', '4']",1,2023.2.3,harveydigits,2.1,[],8,0.75,
0,pause,0.4,None,None,None,0,449,449,449,,,,,,,,,,,,N006,digit,1,"['6', '7', '8', '9']","['1', '2', '3', '4']",1,2023.2.3,harveydigits,2.1,[],8,0.75,
20,digit,0.3,['dot'],['small_1'],black,0,450,450,450,,,159.90023183822632,159.61948895454407,159.91945481300354,"[[-0.09388674485119891, 0.15493258831367235]]",['DejaVu Sans'],[0.6],,,,N006,digit,1,"['6', '7', '8', '9']","['1', '2', '3', '4']",1,2023.2.3,harveydigits,2.1,[],8,0.75,
0,pause,0.4,None,None,None,0,451,451,451,,,,,,,,,,,,N006,digit,1,"['6', '7', '8', '9']","['1', '2', '3', '4']",1,2023.2.3,harveydigits,2.1,[],8,0.75,
20,digit,0.3,['dot'],['small_1'],black,0,452,452,452,,,160.60022687911987,160.31945085525513,160.61924195289612,"[[0.17432726388039588, -0.16831346643641285]]",['DejaVu Sans'],[0.6],,,,N006,digit,1,"['6', '7', '8', '9']","['1', '2', '3', '4']",1,2023.2.3,harveydigits,2.1,[],8,0.75,
0,pause,0.4,None,None,None,0,453,453,453,,,,,,,,,,,,N006,digit,1,"['6', '7', '8', '9']","['1', '2', '3', '4']",1,2023.2.3,harveydigits,2.1,[],8,0.75,
20,digit,0.3,['dot'],['small_1'],black,0,454,454,454,,,161.3002278804779,161.01924991607666,161.31917595863342,"[[0.05852608948916238, -0.2396919768243756]]",['DejaVu Sans'],[0.6],,,,N006,digit,1,"['6', '7', '8', '9']","['1', '2', '3', '4']",1,2023.2.3,harveydigits,2.1,[],8,0.75,
0,pause,0.4,None,None,None,0,455,455,455,,,,,,,,,,,,N006,digit,1,"['6', '7', '8', '9']","['1', '2', '3', '4']",1,2023.2.3,harveydigits,2.1,[],8,0.75,
20,digit,0.3,['dot'],['small_1'],black,0,456,456,456,,,162.00024485588074,161.719153881073,162.01918077468872,"[[-0.15221333499111492, -0.26064674639352575]]",['DejaVu Sans'],[0.6],,,,N006,digit,1,"['6', '7', '8', '9']","['1', '2', '3', '4']",1,2023.2.3,harveydigits,2.1,[],8,0.75,
0,pause,0.4,None,None,None,0,457,457,457,,,,,,,,,,,,N006,digit,1,"['6', '7', '8', '9']","['1', '2', '3', '4']",1,2023.2.3,harveydigits,2.1,[],8,0.75,
20,digit,0.3,['dot'],['small_1'],black,0,458,458,458,,,162.70025992393494,162.41917777061462,162.71914887428284,"[[-0.10352021848906881, 0.2388303683288941]]",['DejaVu Sans'],[0.6],,,,N006,digit,1,"['6', '7', '8', '9']","['1', '2', '3', '4']",1,2023.2.3,harveydigits,2.1,[],8,0.75,
0,pause,0.4,None,None,None,0,459,459,459,,,,,,,,,,,,N006,digit,1,"['6', '7', '8', '9']","['1', '2', '3', '4']",1,2023.2.3,harveydigits,2.1,[],8,0.75,
20,digit,0.3,['dot'],['small_1'],black,0,460,460,460,,,163.40025186538696,163.1191508769989,163.41919684410095,"[[0.27932298400261213, -0.07390601158023691]]",['DejaVu Sans'],[0.6],,,,N006,digit,1,"['6', '7', '8', '9']","['1', '2', '3', '4']",1,2023.2.3,harveydigits,2.1,[],8,0.75,
0,pause,0.4,None,None,None,0,461,461,461,,,,,,,,,,,,N006,digit,1,"['6', '7', '8', '9']","['1', '2', '3', '4']",1,2023.2.3,harveydigits,2.1,[],8,0.75,
20,digit,0.3,['dot'],['small_1'],black,0,462,462,462,,,164.1002378463745,163.81911396980286,164.11912393569946,"[[0.297743508354096, -0.06405066749661932]]",['DejaVu Sans'],[0.6],,,,N006,digit,1,"['6', '7', '8', '9']","['1', '2', '3', '4']",1,2023.2.3,harveydigits,2.1,[],8,0.75,
