num,mod,duration,shape,ll_cond,colors,.thisRepN,.thisTrialN,.thisN,.thisIndex,thisRow.t,notes,raw_global_time,t_start,t_stop,pos,fonts,size,button,answer,RT,participant,session,starting_run,left button (match/odd),right button (non-match/even),samples_per_block,psychopy version,expName,offset,audio,number_runs,radius,
1,digit,0.3,['dot'],['big_1'],black,0,0,0,0,,,2.4002161026000977,2.1080729961395264,2.408076047897339,"[[-0.0706663027339294, -0.1175593361730591]]",['DejaVu Sans'],[0.9],,,,N011,digit,5,"['6', '7', '8', '9']","['1', '2', '3', '4']",1,2023.2.3,harveydigits,2.1,[],8,0.75,
0,pause,0.4,None,None,None,0,1,1,1,,,,,,,,,,,,N011,digit,5,"['6', '7', '8', '9']","['1', '2', '3', '4']",1,2023.2.3,harveydigits,2.1,[],8,0.75,
1,digit,0.3,['dot'],['big_1'],black,0,2,2,2,,,3.100203037261963,2.807952880859375,3.10846209526062,"[[-0.13212551333145475, -0.06241304003774391]]",['DejaVu Sans'],[0.9],,,,N011,digit,5,"['6', '7', '8', '9']","['1', '2', '3', '4']",1,2023.2.3,harveydigits,2.1,[],8,0.75,
0,pause,0.4,None,None,None,0,3,3,3,,,,,,,,,,,,N011,digit,5,"['6', '7', '8', '9']","['1', '2', '3', '4']",1,2023.2.3,harveydigits,2.1,[],8,0.75,
1,digit,0.3,['dot'],['big_1'],black,0,4,4,4,,,3.8001949787139893,3.5084750652313232,3.808427095413208,"[[0.11337710616111404, 0.15174960823638023]]",['DejaVu Sans'],[0.9],,,,N011,digit,5,"['6', '7', '8', '9']","['1', '2', '3', '4']",1,2023.2.3,harveydigits,2.1,[],8,0.75,
0,pause,0.4,None,None,None,0,5,5,5,,,,,,,,,,,,N011,digit,5,"['6', '7', '8', '9']","['1', '2', '3', '4']",1,2023.2.3,harveydigits,2.1,[],8,0.75,
1,digit,0.3,['dot'],['big_1'],black,0,6,6,6,,,4.500192880630493,4.20843505859375,4.508404970169067,"[[0.028067391494074778, 0.033093771238600994]]",['DejaVu Sans'],[0.9],,,,N011,digit,5,"['6', '7', '8', '9']","['1', '2', '3', '4']",1,2023.2.3,harveydigits,2.1,[],8,0.75,
0,pause,0.4,None,None,None,0,7,7,7,,,,,,,,,,,,N011,digit,5,"['6', '7', '8', '9']","['1', '2', '3', '4']",1,2023.2.3,harveydigits,2.1,[],8,0.75,
1,digit,0.3,['dot'],['big_1'],black,0,8,8,8,,,5.200201988220215,4.90847110748291,5.208734035491943,"[[-0.045038649795544394, -0.17021328243398692]]",['DejaVu Sans'],[0.9],,,,N011,digit,5,"['6', '7', '8', '9']","['1', '2', '3', '4']",1,2023.2.3,harveydigits,2.1,[],8,0.75,
0,pause,0.4,None,None,None,0,9,9,9,,,,,,,,,,,,N011,digit,5,"['6', '7', '8', '9']","['1', '2', '3', '4']",1,2023.2.3,harveydigits,2.1,[],8,0.75,
1,digit,0.3,['dot'],['big_1'],black,0,10,10,10,,,5.900212049484253,5.6087470054626465,5.91011905670166,"[[0.15640682005345766, 0.08397142441532994]]",['DejaVu Sans'],[0.9],,,,N011,digit,5,"['6', '7', '8', '9']","['1', '2', '3', '4']",1,2023.2.3,harveydigits,2.1,[],8,0.75,
0,pause,0.4,None,None,None,0,11,11,11,,,,,,,,,,,,N011,digit,5,"['6', '7', '8', '9']","['1', '2', '3', '4']",1,2023.2.3,harveydigits,2.1,[],8,0.75,
2,digit,0.3,['dot'],['big_1'],black,0,12,12,12,,,6.600210905075073,6.310125112533569,6.610104084014893,"[[0.14646507165289532, 0.11067207618621186]]",['DejaVu Sans'],[0.9],,,,N011,digit,5,"['6', '7', '8', '9']","['1', '2', '3', '4']",1,2023.2.3,harveydigits,2.1,[],8,0.75,
0,pause,0.4,None,None,None,0,13,13,13,,,,,,,,,,,,N011,digit,5,"['6', '7', '8', '9']","['1', '2', '3', '4']",1,2023.2.3,harveydigits,2.1,[],8,0.75,
2,digit,0.3,['dot'],['big_1'],black,0,14,14,14,,,7.300203084945679,7.010106086730957,7.310117959976196,"[[-0.002001308767971499, 0.13186025226167347]]",['DejaVu Sans'],[0.9],,,,N011,digit,5,"['6', '7', '8', '9']","['1', '2', '3', '4']",1,2023.2.3,harveydigits,2.1,[],8,0.75,
0,pause,0.4,None,None,None,0,15,15,15,,,,,,,,,,,,N011,digit,5,"['6', '7', '8', '9']","['1', '2', '3', '4']",1,2023.2.3,harveydigits,2.1,[],8,0.75,
2,digit,0.3,['dot'],['big_1'],black,0,16,16,16,,,8.000221014022827,7.710086107254028,8.010061979293823,"[[0.19821330024289938, -0.026416604797422857]]",['DejaVu Sans'],[0.9],,,,N011,digit,5,"['6', '7', '8', '9']","['1', '2', '3', '4']",1,2023.2.3,harveydigits,2.1,[],8,0.75,
0,pause,0.4,None,None,None,0,17,17,17,,,,,,,,,,,,N011,digit,5,"['6', '7', '8', '9']","['1', '2', '3', '4']",1,2023.2.3,harveydigits,2.1,[],8,0.75,
2,digit,0.3,['dot'],['big_1'],black,0,18,18,18,,,8.700200080871582,8.410106897354126,8.710083961486816,"[[0.16078138056213834, 0.04208547117170472]]",['DejaVu Sans'],[0.9],,,,N011,digit,5,"['6', '7', '8', '9']","['1', '2', '3', '4']",1,2023.2.3,harveydigits,2.1,[],8,0.75,
0,pause,0.4,None,None,None,0,19,19,19,,,,,,,,,,,,N011,digit,5,"['6', '7', '8', '9']","['1', '2', '3', '4']",1,2023.2.3,harveydigits,2.1,[],8,0.75,
2,digit,0.3,['dot'],['big_1'],black,0,20,20,20,,,9.400199890136719,9.110054969787598,9.411120891571045,"[[-0.15564890258836836, -0.03369395227020722]]",['DejaVu Sans'],[0.9],,,,N011,digit,5,"['6', '7', '8', '9']","['1', '2', '3', '4']",1,2023.2.3,harveydigits,2.1,[],8,0.75,
0,pause,0.4,None,None,None,0,21,21,21,,,,,,,,,,,,N011,digit,5,"['6', '7', '8', '9']","['1', '2', '3', '4']",1,2023.2.3,harveydigits,2.1,[],8,0.75,
2,digit,0.3,['dot'],['big_1'],black,0,22,22,22,,,10.100209951400757,9.81006908416748,10.110168933868408,"[[-0.09534294573831897, 0.1749115340480158]]",['DejaVu Sans'],[0.9],,,,N011,digit,5,"['6', '7', '8', '9']","['1', '2', '3', '4']",1,2023.2.3,harveydigits,2.1,[],8,0.75,
0,pause,0.4,None,None,None,0,23,23,23,,,,,,,,,,,,N011,digit,5,"['6', '7', '8', '9']","['1', '2', '3', '4']",1,2023.2.3,harveydigits,2.1,[],8,0.75,
3,digit,0.3,['dot'],['big_1'],black,0,24,24,24,,,10.800211906433105,10.510168075561523,10.810154914855957,"[[-0.09373070045040763, 0.10694673658271317]]",['DejaVu Sans'],[0.9],,,,N011,digit,5,"['6', '7', '8', '9']","['1', '2', '3', '4']",1,2023.2.3,harveydigits,2.1,[],8,0.75,
0,pause,0.4,None,None,None,0,25,25,25,,,,,,,,,,,,N011,digit,5,"['6', '7', '8', '9']","['1', '2', '3', '4']",1,2023.2.3,harveydigits,2.1,[],8,0.75,
3,digit,0.3,['dot'],['big_1'],black,0,26,26,26,,,11.500207901000977,11.210015058517456,11.51003909111023,"[[0.056073334703728966, -0.13537363567318111]]",['DejaVu Sans'],[0.9],,,,N011,digit,5,"['6', '7', '8', '9']","['1', '2', '3', '4']",1,2023.2.3,harveydigits,2.1,[],8,0.75,
0,pause,0.4,None,None,None,0,27,27,27,,,,,,,,,,,,N011,digit,5,"['6', '7', '8', '9']","['1', '2', '3', '4']",1,2023.2.3,harveydigits,2.1,[],8,0.75,
3,digit,0.3,['dot'],['big_1'],black,0,28,28,28,,,12.200206995010376,11.910033941268921,12.209947109222412,"[[0.14723218140157132, -0.0016520446482491957]]",['DejaVu Sans'],[0.9],,,,N011,digit,5,"['6', '7', '8', '9']","['1', '2', '3', '4']",1,2023.2.3,harveydigits,2.1,[],8,0.75,
0,pause,0.4,None,None,None,0,29,29,29,,,,,,,,,,,,N011,digit,5,"['6', '7', '8', '9']","['1', '2', '3', '4']",1,2023.2.3,harveydigits,2.1,[],8,0.75,
3,digit,0.3,['dot'],['big_1'],black,0,30,30,30,,,12.90021800994873,12.610008955001831,12.909940004348755,"[[-0.017815726472887455, -0.11691646083716929]]",['DejaVu Sans'],[0.9],,,,N011,digit,5,"['6', '7', '8', '9']","['1', '2', '3', '4']",1,2023.2.3,harveydigits,2.1,[],8,0.75,
0,pause,0.4,None,None,None,0,31,31,31,,,,,,,,,,,,N011,digit,5,"['6', '7', '8', '9']","['1', '2', '3', '4']",1,2023.2.3,harveydigits,2.1,[],8,0.75,
3,digit,0.3,['dot'],['big_1'],black,0,32,32,32,,,13.600200891494751,13.309947967529297,13.60988998413086,"[[-0.1299844521229201, -0.12652852564304612]]",['DejaVu Sans'],[0.9],,,,N011,digit,5,"['6', '7', '8', '9']","['1', '2', '3', '4']",1,2023.2.3,harveydigits,2.1,[],8,0.75,
0,pause,0.4,None,None,None,0,33,33,33,,,,,,,,,,,,N011,digit,5,"['6', '7', '8', '9']","['1', '2', '3', '4']",1,2023.2.3,harveydigits,2.1,[],8,0.75,
3,digit,0.3,['dot'],['big_1'],black,0,34,34,34,,,14.300204038619995,14.009959936141968,14.309943914413452,"[[0.15151941335364463, 0.012605295597806376]]",['DejaVu Sans'],[0.9],,,,N011,digit,5,"['6', '7', '8', '9']","['1', '2', '3', '4']",1,2023.2.3,harveydigits,2.1,[],8,0.75,
0,pause,0.4,None,None,None,0,35,35,35,,,,,,,,,,,,N011,digit,5,"['6', '7', '8', '9']","['1', '2', '3', '4']",1,2023.2.3,harveydigits,2.1,[],8,0.75,
4,digit,0.3,['dot'],['big_1'],black,0,36,36,36,,,15.000200986862183,14.709956884384155,15.009921073913574,"[[0.07689329507879725, -0.16045459190584122]]",['DejaVu Sans'],[0.9],,,,N011,digit,5,"['6', '7', '8', '9']","['1', '2', '3', '4']",1,2023.2.3,harveydigits,2.1,[],8,0.75,
0,pause,0.4,None,None,None,0,37,37,37,,,,,,,,,,,,N011,digit,5,"['6', '7', '8', '9']","['1', '2', '3', '4']",1,2023.2.3,harveydigits,2.1,[],8,0.75,
4,digit,0.3,['dot'],['big_1'],black,0,38,38,38,,,15.700212001800537,15.4098539352417,15.709829092025757,"[[-0.18443916938505975, 0.07325455212780073]]",['DejaVu Sans'],[0.9],,,,N011,digit,5,"['6', '7', '8', '9']","['1', '2', '3', '4']",1,2023.2.3,harveydigits,2.1,[],8,0.75,
0,pause,0.4,None,None,None,0,39,39,39,,,,,,,,,,,,N011,digit,5,"['6', '7', '8', '9']","['1', '2', '3', '4']",1,2023.2.3,harveydigits,2.1,[],8,0.75,
4,digit,0.3,['dot'],['big_1'],black,0,40,40,40,,,16.400206089019775,16.109994888305664,16.409990072250366,"[[0.15805848500923228, 0.027333828169201144]]",['DejaVu Sans'],[0.9],,,,N011,digit,5,"['6', '7', '8', '9']","['1', '2', '3', '4']",1,2023.2.3,harveydigits,2.1,[],8,0.75,
0,pause,0.4,None,None,None,0,41,41,41,,,,,,,,,,,,N011,digit,5,"['6', '7', '8', '9']","['1', '2', '3', '4']",1,2023.2.3,harveydigits,2.1,[],8,0.75,
4,digit,0.3,['dot'],['big_1'],black,0,42,42,42,,,17.100213050842285,16.810025930404663,17.109966039657593,"[[0.1686645980162715, -0.047550998303568764]]",['DejaVu Sans'],[0.9],,,,N011,digit,5,"['6', '7', '8', '9']","['1', '2', '3', '4']",1,2023.2.3,harveydigits,2.1,[],8,0.75,
0,pause,0.4,None,None,None,0,43,43,43,,,,,,,,,,,,N011,digit,5,"['6', '7', '8', '9']","['1', '2', '3', '4']",1,2023.2.3,harveydigits,2.1,[],8,0.75,
4,digit,0.3,['dot'],['big_1'],black,0,44,44,44,,,17.800216913223267,17.509963989257812,17.809839010238647,"[[0.10331111167192605, -0.01908751426518579]]",['DejaVu Sans'],[0.9],,,,N011,digit,5,"['6', '7', '8', '9']","['1', '2', '3', '4']",1,2023.2.3,harveydigits,2.1,[],8,0.75,
0,pause,0.4,None,None,None,0,45,45,45,,,,,,,,,,,,N011,digit,5,"['6', '7', '8', '9']","['1', '2', '3', '4']",1,2023.2.3,harveydigits,2.1,[],8,0.75,
4,digit,0.3,['dot'],['big_1'],black,0,46,46,46,,,18.500211000442505,18.209846019744873,18.509857892990112,"[[0.05784353736223466, -0.17138756286097628]]",['DejaVu Sans'],[0.9],,,,N011,digit,5,"['6', '7', '8', '9']","['1', '2', '3', '4']",1,2023.2.3,harveydigits,2.1,[],8,0.75,
0,pause,0.4,None,None,None,0,47,47,47,,,,,,,,,,,,N011,digit,5,"['6', '7', '8', '9']","['1', '2', '3', '4']",1,2023.2.3,harveydigits,2.1,[],8,0.75,
5,digit,0.3,['dot'],['big_1'],black,0,48,48,48,,,19.20020890235901,18.90977191925049,19.209732055664062,"[[0.19339595282512886, 0.00158709258973138]]",['DejaVu Sans'],[0.9],,,,N011,digit,5,"['6', '7', '8', '9']","['1', '2', '3', '4']",1,2023.2.3,harveydigits,2.1,[],8,0.75,
0,pause,0.4,None,None,None,0,49,49,49,,,,,,,,,,,,N011,digit,5,"['6', '7', '8', '9']","['1', '2', '3', '4']",1,2023.2.3,harveydigits,2.1,[],8,0.75,
5,digit,0.3,['dot'],['big_1'],black,0,50,50,50,,,19.900216102600098,19.60975193977356,19.90973711013794,"[[-0.1633206238770926, 0.035015820312009116]]",['DejaVu Sans'],[0.9],,,,N011,digit,5,"['6', '7', '8', '9']","['1', '2', '3', '4']",1,2023.2.3,harveydigits,2.1,[],8,0.75,
0,pause,0.4,None,None,None,0,51,51,51,,,,,,,,,,,,N011,digit,5,"['6', '7', '8', '9']","['1', '2', '3', '4']",1,2023.2.3,harveydigits,2.1,[],8,0.75,
5,digit,0.3,['dot'],['big_1'],black,0,52,52,52,,,20.60020399093628,20.30973792076111,20.60971689224243,"[[0.14554780650833496, 0.09121951720270649]]",['DejaVu Sans'],[0.9],,,,N011,digit,5,"['6', '7', '8', '9']","['1', '2', '3', '4']",1,2023.2.3,harveydigits,2.1,[],8,0.75,
0,pause,0.4,None,None,None,0,53,53,53,,,,,,,,,,,,N011,digit,5,"['6', '7', '8', '9']","['1', '2', '3', '4']",1,2023.2.3,harveydigits,2.1,[],8,0.75,
5,digit,0.3,['dot'],['big_1'],black,0,54,54,54,,,21.300223112106323,21.009702920913696,21.30971598625183,"[[-0.18216585256430684, -0.05651067708187682]]",['DejaVu Sans'],[0.9],,,,N011,digit,5,"['6', '7', '8', '9']","['1', '2', '3', '4']",1,2023.2.3,harveydigits,2.1,[],8,0.75,
0,pause,0.4,None,None,None,0,55,55,55,,,,,,,,,,,,N011,digit,5,"['6', '7', '8', '9']","['1', '2', '3', '4']",1,2023.2.3,harveydigits,2.1,[],8,0.75,
5,digit,0.3,['dot'],['big_1'],black,0,56,56,56,,,22.00020694732666,21.7097270488739,22.00969409942627,"[[-0.10591563318260987, -0.0521517950081227]]",['DejaVu Sans'],[0.9],,,,N011,digit,5,"['6', '7', '8', '9']","['1', '2', '3', '4']",1,2023.2.3,harveydigits,2.1,[],8,0.75,
0,pause,0.4,None,None,None,0,57,57,57,,,,,,,,,,,,N011,digit,5,"['6', '7', '8', '9']","['1', '2', '3', '4']",1,2023.2.3,harveydigits,2.1,[],8,0.75,
5,digit,0.3,['dot'],['big_1'],black,0,58,58,58,,,22.700200080871582,22.409668922424316,22.709917068481445,"[[-0.00834571929935718, 0.04393954886143234]]",['DejaVu Sans'],[0.9],,,,N011,digit,5,"['6', '7', '8', '9']","['1', '2', '3', '4']",1,2023.2.3,harveydigits,2.1,[],8,0.75,
0,pause,0.4,None,None,None,0,59,59,59,,,,,,,,,,,,N011,digit,5,"['6', '7', '8', '9']","['1', '2', '3', '4']",1,2023.2.3,harveydigits,2.1,[],8,0.75,
6,digit,0.3,['dot'],['big_1'],black,0,60,60,60,,,23.40019989013672,23.109966039657593,23.409815073013306,"[[0.1681023336444233, -0.08182313562179866]]",['DejaVu Sans'],[0.9],,,,N011,digit,5,"['6', '7', '8', '9']","['1', '2', '3', '4']",1,2023.2.3,harveydigits,2.1,[],8,0.75,
0,pause,0.4,None,None,None,0,61,61,61,,,,,,,,,,,,N011,digit,5,"['6', '7', '8', '9']","['1', '2', '3', '4']",1,2023.2.3,harveydigits,2.1,[],8,0.75,
6,digit,0.3,['dot'],['big_1'],black,0,62,62,62,,,24.100209951400757,23.809664964675903,24.109803915023804,"[[0.08457820823296178, -0.05475856472547669]]",['DejaVu Sans'],[0.9],,,,N011,digit,5,"['6', '7', '8', '9']","['1', '2', '3', '4']",1,2023.2.3,harveydigits,2.1,[],8,0.75,
0,pause,0.4,None,None,None,0,63,63,63,,,,,,,,,,,,N011,digit,5,"['6', '7', '8', '9']","['1', '2', '3', '4']",1,2023.2.3,harveydigits,2.1,[],8,0.75,
6,digit,0.3,['dot'],['big_1'],black,0,64,64,64,,,24.800206899642944,24.509649991989136,24.80977511405945,"[[0.03645047656360062, 0.18069022352186834]]",['DejaVu Sans'],[0.9],,,,N011,digit,5,"['6', '7', '8', '9']","['1', '2', '3', '4']",1,2023.2.3,harveydigits,2.1,[],8,0.75,
0,pause,0.4,None,None,None,0,65,65,65,,,,,,,,,,,,N011,digit,5,"['6', '7', '8', '9']","['1', '2', '3', '4']",1,2023.2.3,harveydigits,2.1,[],8,0.75,
6,digit,0.3,['dot'],['big_1'],black,0,66,66,66,,,25.50020694732666,25.209614992141724,25.509597063064575,"[[-0.06764224350593709, -0.12383573392766206]]",['DejaVu Sans'],[0.9],,,,N011,digit,5,"['6', '7', '8', '9']","['1', '2', '3', '4']",1,2023.2.3,harveydigits,2.1,[],8,0.75,
0,pause,0.4,None,None,None,0,67,67,67,,,,,,,,,,,,N011,digit,5,"['6', '7', '8', '9']","['1', '2', '3', '4']",1,2023.2.3,harveydigits,2.1,[],8,0.75,
6,digit,0.3,['dot'],['big_1'],black,0,68,68,68,,,26.200212001800537,25.909586906433105,26.209572076797485,"[[-0.06208945641987648, -0.0004258202695435198]]",['DejaVu Sans'],[0.9],,,,N011,digit,5,"['6', '7', '8', '9']","['1', '2', '3', '4']",1,2023.2.3,harveydigits,2.1,[],8,0.75,
0,pause,0.4,None,None,None,0,69,69,69,,,,,,,,,,,,N011,digit,5,"['6', '7', '8', '9']","['1', '2', '3', '4']",1,2023.2.3,harveydigits,2.1,[],8,0.75,
6,digit,0.3,['dot'],['big_1'],black,0,70,70,70,,,26.90022301673889,26.609594106674194,26.90960192680359,"[[0.17079396711441888, 0.05734934113951186]]",['DejaVu Sans'],[0.9],,,,N011,digit,5,"['6', '7', '8', '9']","['1', '2', '3', '4']",1,2023.2.3,harveydigits,2.1,[],8,0.75,
0,pause,0.4,None,None,None,0,71,71,71,,,,,,,,,,,,N011,digit,5,"['6', '7', '8', '9']","['1', '2', '3', '4']",1,2023.2.3,harveydigits,2.1,[],8,0.75,
7,digit,0.3,['dot'],['big_1'],black,0,72,72,72,,,27.60021996498108,27.309575080871582,27.60954999923706,"[[0.1885505305584694, 0.0027183774983247228]]",['DejaVu Sans'],[0.9],,,,N011,digit,5,"['6', '7', '8', '9']","['1', '2', '3', '4']",1,2023.2.3,harveydigits,2.1,[],8,0.75,
0,pause,0.4,None,None,None,0,73,73,73,,,,,,,,,,,,N011,digit,5,"['6', '7', '8', '9']","['1', '2', '3', '4']",1,2023.2.3,harveydigits,2.1,[],8,0.75,
7,digit,0.3,['dot'],['big_1'],black,0,74,74,74,,,28.300213098526,28.009541034698486,28.309497117996216,"[[-0.051608684513541975, 0.12980295660837707]]",['DejaVu Sans'],[0.9],,,,N011,digit,5,"['6', '7', '8', '9']","['1', '2', '3', '4']",1,2023.2.3,harveydigits,2.1,[],8,0.75,
0,pause,0.4,None,None,None,0,75,75,75,,,,,,,,,,,,N011,digit,5,"['6', '7', '8', '9']","['1', '2', '3', '4']",1,2023.2.3,harveydigits,2.1,[],8,0.75,
7,digit,0.3,['dot'],['big_1'],black,0,76,76,76,,,29.000209093093872,28.709683895111084,29.009669065475464,"[[-0.16805719929348303, 0.03632710579786992]]",['DejaVu Sans'],[0.9],,,,N011,digit,5,"['6', '7', '8', '9']","['1', '2', '3', '4']",1,2023.2.3,harveydigits,2.1,[],8,0.75,
0,pause,0.4,None,None,None,0,77,77,77,,,,,,,,,,,,N011,digit,5,"['6', '7', '8', '9']","['1', '2', '3', '4']",1,2023.2.3,harveydigits,2.1,[],8,0.75,
7,digit,0.3,['dot'],['big_1'],black,0,78,78,78,,,29.70022201538086,29.40966796875,29.70964288711548,"[[0.1470685811158551, 0.01678106515178915]]",['DejaVu Sans'],[0.9],,,,N011,digit,5,"['6', '7', '8', '9']","['1', '2', '3', '4']",1,2023.2.3,harveydigits,2.1,[],8,0.75,
0,pause,0.4,None,None,None,0,79,79,79,,,,,,,,,,,,N011,digit,5,"['6', '7', '8', '9']","['1', '2', '3', '4']",1,2023.2.3,harveydigits,2.1,[],8,0.75,
7,digit,0.3,['dot'],['big_1'],black,0,80,80,80,,,30.400219917297363,30.109517097473145,30.409612894058228,"[[0.017028777943279616, -0.10416526652535567]]",['DejaVu Sans'],[0.9],,,,N011,digit,5,"['6', '7', '8', '9']","['1', '2', '3', '4']",1,2023.2.3,harveydigits,2.1,[],8,0.75,
0,pause,0.4,None,None,None,0,81,81,81,,,,,,,,,,,,N011,digit,5,"['6', '7', '8', '9']","['1', '2', '3', '4']",1,2023.2.3,harveydigits,2.1,[],8,0.75,
7,digit,0.3,['dot'],['big_1'],black,0,82,82,82,,,31.100213050842285,30.809627056121826,31.10947608947754,"[[-0.15533027379588343, -0.017932106848677506]]",['DejaVu Sans'],[0.9],,,,N011,digit,5,"['6', '7', '8', '9']","['1', '2', '3', '4']",1,2023.2.3,harveydigits,2.1,[],8,0.75,
0,pause,0.4,None,None,None,0,83,83,83,,,,,,,,,,,,N011,digit,5,"['6', '7', '8', '9']","['1', '2', '3', '4']",1,2023.2.3,harveydigits,2.1,[],8,0.75,
8,digit,0.3,['dot'],['big_1'],black,0,84,84,84,,,31.800205945968628,31.509453058242798,31.80941390991211,"[[0.10888425369697438, -0.16479317217829526]]",['DejaVu Sans'],[0.9],,,,N011,digit,5,"['6', '7', '8', '9']","['1', '2', '3', '4']",1,2023.2.3,harveydigits,2.1,[],8,0.75,
0,pause,0.4,None,None,None,0,85,85,85,,,,,,,,,,,,N011,digit,5,"['6', '7', '8', '9']","['1', '2', '3', '4']",1,2023.2.3,harveydigits,2.1,[],8,0.75,
8,digit,0.3,['dot'],['big_1'],black,0,86,86,86,,,32.500219106674194,32.2094509601593,32.50942897796631,"[[0.11854306992090533, -0.004526581351074088]]",['DejaVu Sans'],[0.9],,,,N011,digit,5,"['6', '7', '8', '9']","['1', '2', '3', '4']",1,2023.2.3,harveydigits,2.1,[],8,0.75,
0,pause,0.4,None,None,None,0,87,87,87,,,,,,,,,,,,N011,digit,5,"['6', '7', '8', '9']","['1', '2', '3', '4']",1,2023.2.3,harveydigits,2.1,[],8,0.75,
8,digit,0.3,['dot'],['big_1'],black,0,88,88,88,,,33.200210094451904,32.90943694114685,33.20942997932434,"[[0.11259893233915255, -0.0727056897474461]]",['DejaVu Sans'],[0.9],,,,N011,digit,5,"['6', '7', '8', '9']","['1', '2', '3', '4']",1,2023.2.3,harveydigits,2.1,[],8,0.75,
0,pause,0.4,None,None,None,0,89,89,89,,,,,,,,,,,,N011,digit,5,"['6', '7', '8', '9']","['1', '2', '3', '4']",1,2023.2.3,harveydigits,2.1,[],8,0.75,
8,digit,0.3,['dot'],['big_1'],black,0,90,90,90,,,33.90021109580994,33.60937190055847,33.909395933151245,"[[0.12698384053742398, -0.10581293597178562]]",['DejaVu Sans'],[0.9],,,,N011,digit,5,"['6', '7', '8', '9']","['1', '2', '3', '4']",1,2023.2.3,harveydigits,2.1,[],8,0.75,
0,pause,0.4,None,None,None,0,91,91,91,,,,,,,,,,,,N011,digit,5,"['6', '7', '8', '9']","['1', '2', '3', '4']",1,2023.2.3,harveydigits,2.1,[],8,0.75,
8,digit,0.3,['dot'],['big_1'],black,0,92,92,92,,,34.60021090507507,34.30944299697876,34.60951209068298,"[[-0.1347275349259965, -0.0763692217521646]]",['DejaVu Sans'],[0.9],,,,N011,digit,5,"['6', '7', '8', '9']","['1', '2', '3', '4']",1,2023.2.3,harveydigits,2.1,[],8,0.75,
0,pause,0.4,None,None,None,0,93,93,93,,,,,,,,,,,,N011,digit,5,"['6', '7', '8', '9']","['1', '2', '3', '4']",1,2023.2.3,harveydigits,2.1,[],8,0.75,
8,digit,0.3,['dot'],['big_1'],black,0,94,94,94,,,35.30022692680359,35.00950789451599,35.309494972229004,"[[0.16309123766046543, 0.04512200306433971]]",['DejaVu Sans'],[0.9],,,,N011,digit,5,"['6', '7', '8', '9']","['1', '2', '3', '4']",1,2023.2.3,harveydigits,2.1,[],8,0.75,
0,pause,0.4,None,None,None,0,95,95,95,,,,,,,,,,,,N011,digit,5,"['6', '7', '8', '9']","['1', '2', '3', '4']",1,2023.2.3,harveydigits,2.1,[],8,0.75,
9,digit,0.3,['dot'],['big_1'],black,0,96,96,96,,,36.00021409988403,35.70950508117676,36.00934195518494,"[[-0.17642105349538162, 0.0858066299089867]]",['DejaVu Sans'],[0.9],,,,N011,digit,5,"['6', '7', '8', '9']","['1', '2', '3', '4']",1,2023.2.3,harveydigits,2.1,[],8,0.75,
0,pause,0.4,None,None,None,0,97,97,97,,,,,,,,,,,,N011,digit,5,"['6', '7', '8', '9']","['1', '2', '3', '4']",1,2023.2.3,harveydigits,2.1,[],8,0.75,
9,digit,0.3,['dot'],['big_1'],black,0,98,98,98,,,36.7002170085907,36.40950393676758,36.70945191383362,"[[0.11186643349588118, 0.023264277729070693]]",['DejaVu Sans'],[0.9],,,,N011,digit,5,"['6', '7', '8', '9']","['1', '2', '3', '4']",1,2023.2.3,harveydigits,2.1,[],8,0.75,
0,pause,0.4,None,None,None,0,99,99,99,,,,,,,,,,,,N011,digit,5,"['6', '7', '8', '9']","['1', '2', '3', '4']",1,2023.2.3,harveydigits,2.1,[],8,0.75,
9,digit,0.3,['dot'],['big_1'],black,0,100,100,100,,,37.400222063064575,37.109281063079834,37.40930891036987,"[[0.1741994962576637, 0.05586569037961586]]",['DejaVu Sans'],[0.9],,,,N011,digit,5,"['6', '7', '8', '9']","['1', '2', '3', '4']",1,2023.2.3,harveydigits,2.1,[],8,0.75,
0,pause,0.4,None,None,None,0,101,101,101,,,,,,,,,,,,N011,digit,5,"['6', '7', '8', '9']","['1', '2', '3', '4']",1,2023.2.3,harveydigits,2.1,[],8,0.75,
9,digit,0.3,['dot'],['big_1'],black,0,102,102,102,,,38.10021996498108,37.809282064437866,38.10924696922302,"[[-0.03664492366194208, -0.11850090937724475]]",['DejaVu Sans'],[0.9],,,,N011,digit,5,"['6', '7', '8', '9']","['1', '2', '3', '4']",1,2023.2.3,harveydigits,2.1,[],8,0.75,
0,pause,0.4,None,None,None,0,103,103,103,,,,,,,,,,,,N011,digit,5,"['6', '7', '8', '9']","['1', '2', '3', '4']",1,2023.2.3,harveydigits,2.1,[],8,0.75,
9,digit,0.3,['dot'],['big_1'],black,0,104,104,104,,,38.80020809173584,38.50928497314453,38.80926704406738,"[[0.03498635444516704, 0.0810010610431123]]",['DejaVu Sans'],[0.9],,,,N011,digit,5,"['6', '7', '8', '9']","['1', '2', '3', '4']",1,2023.2.3,harveydigits,2.1,[],8,0.75,
0,pause,0.4,None,None,None,0,105,105,105,,,,,,,,,,,,N011,digit,5,"['6', '7', '8', '9']","['1', '2', '3', '4']",1,2023.2.3,harveydigits,2.1,[],8,0.75,
9,digit,0.3,['dot'],['big_1'],black,0,106,106,106,,,39.500202894210815,39.20924091339111,39.509227991104126,"[[0.0021516623076462404, 0.11334177036015158]]",['DejaVu Sans'],[0.9],,,,N011,digit,5,"['6', '7', '8', '9']","['1', '2', '3', '4']",1,2023.2.3,harveydigits,2.1,[],8,0.75,
0,pause,0.4,None,None,None,0,107,107,107,,,,,,,,,,,,N011,digit,5,"['6', '7', '8', '9']","['1', '2', '3', '4']",1,2023.2.3,harveydigits,2.1,[],8,0.75,
20,digit,0.3,['dot'],['big_1'],black,0,108,108,108,,,40.2002170085907,39.90921902656555,40.209223985672,"[[0.12455625068561857, -0.01488395068720344]]",['DejaVu Sans'],[0.9],,,,N011,digit,5,"['6', '7', '8', '9']","['1', '2', '3', '4']",1,2023.2.3,harveydigits,2.1,[],8,0.75,
0,pause,0.4,None,None,None,0,109,109,109,,,,,,,,,,,,N011,digit,5,"['6', '7', '8', '9']","['1', '2', '3', '4']",1,2023.2.3,harveydigits,2.1,[],8,0.75,
20,digit,0.3,['dot'],['big_1'],black,0,110,110,110,,,40.90021800994873,40.60937190055847,40.90935301780701,"[[-0.19928528824885036, 0.0023860362431466844]]",['DejaVu Sans'],[0.9],,,,N011,digit,5,"['6', '7', '8', '9']","['1', '2', '3', '4']",1,2023.2.3,harveydigits,2.1,[],8,0.75,
0,pause,0.4,None,None,None,0,111,111,111,,,,,,,,,,,,N011,digit,5,"['6', '7', '8', '9']","['1', '2', '3', '4']",1,2023.2.3,harveydigits,2.1,[],8,0.75,
20,digit,0.3,['dot'],['big_1'],black,0,112,112,112,,,41.600213050842285,41.309359073638916,41.60922288894653,"[[0.11935582486718713, 0.05208343966686757]]",['DejaVu Sans'],[0.9],,,,N011,digit,5,"['6', '7', '8', '9']","['1', '2', '3', '4']",1,2023.2.3,harveydigits,2.1,[],8,0.75,
0,pause,0.4,None,None,None,0,113,113,113,,,,,,,,,,,,N011,digit,5,"['6', '7', '8', '9']","['1', '2', '3', '4']",1,2023.2.3,harveydigits,2.1,[],8,0.75,
20,digit,0.3,['dot'],['big_1'],black,0,114,114,114,,,42.30020093917847,42.0093309879303,42.30920696258545,"[[0.012062546390216061, -0.13311068346669747]]",['DejaVu Sans'],[0.9],,,,N011,digit,5,"['6', '7', '8', '9']","['1', '2', '3', '4']",1,2023.2.3,harveydigits,2.1,[],8,0.75,
0,pause,0.4,None,None,None,0,115,115,115,,,,,,,,,,,,N011,digit,5,"['6', '7', '8', '9']","['1', '2', '3', '4']",1,2023.2.3,harveydigits,2.1,[],8,0.75,
20,digit,0.3,['dot'],['big_1'],black,0,116,116,116,,,43.00021696090698,42.709187030792236,43.00930309295654,"[[-0.1008873983108395, 0.14183063965435522]]",['DejaVu Sans'],[0.9],,,,N011,digit,5,"['6', '7', '8', '9']","['1', '2', '3', '4']",1,2023.2.3,harveydigits,2.1,[],8,0.75,
0,pause,0.4,None,None,None,0,117,117,117,,,,,,,,,,,,N011,digit,5,"['6', '7', '8', '9']","['1', '2', '3', '4']",1,2023.2.3,harveydigits,2.1,[],8,0.75,
20,digit,0.3,['dot'],['big_1'],black,0,118,118,118,,,43.70021605491638,43.4093279838562,43.70930290222168,"[[0.007451729104475724, 0.07481840492759065]]",['DejaVu Sans'],[0.9],,,,N011,digit,5,"['6', '7', '8', '9']","['1', '2', '3', '4']",1,2023.2.3,harveydigits,2.1,[],8,0.75,
0,pause,0.4,None,None,None,0,119,119,119,,,,,,,,,,,,N011,digit,5,"['6', '7', '8', '9']","['1', '2', '3', '4']",1,2023.2.3,harveydigits,2.1,[],8,0.75,
20,digit,0.3,['dot'],['big_1'],black,0,120,120,120,,,44.40022897720337,44.109113931655884,44.409610986709595,"[[-0.058662397813196404, 0.1820582772685258]]",['DejaVu Sans'],[0.9],,,,N011,digit,5,"['6', '7', '8', '9']","['1', '2', '3', '4']",1,2023.2.3,harveydigits,2.1,[],8,0.75,
0,pause,0.4,None,None,None,0,121,121,121,,,,,,,,,,,,N011,digit,5,"['6', '7', '8', '9']","['1', '2', '3', '4']",1,2023.2.3,harveydigits,2.1,[],8,0.75,
20,digit,0.3,['dot'],['big_1'],black,0,122,122,122,,,45.10020303726196,44.80911207199097,45.10909295082092,"[[-0.12911806887152716, -0.0026476125557048646]]",['DejaVu Sans'],[0.9],,,,N011,digit,5,"['6', '7', '8', '9']","['1', '2', '3', '4']",1,2023.2.3,harveydigits,2.1,[],8,0.75,
0,pause,0.4,None,None,None,0,123,123,123,,,,,,,,,,,,N011,digit,5,"['6', '7', '8', '9']","['1', '2', '3', '4']",1,2023.2.3,harveydigits,2.1,[],8,0.75,
20,digit,0.3,['dot'],['big_1'],black,0,124,124,124,,,45.80021405220032,45.50908708572388,45.80907392501831,"[[0.02866734588985098, 0.1525514033604947]]",['DejaVu Sans'],[0.9],,,,N011,digit,5,"['6', '7', '8', '9']","['1', '2', '3', '4']",1,2023.2.3,harveydigits,2.1,[],8,0.75,
0,pause,0.4,None,None,None,0,125,125,125,,,,,,,,,,,,N011,digit,5,"['6', '7', '8', '9']","['1', '2', '3', '4']",1,2023.2.3,harveydigits,2.1,[],8,0.75,
20,digit,0.3,['dot'],['big_1'],black,0,126,126,126,,,46.5002179145813,46.20906090736389,46.50908708572388,"[[0.18446559997867165, 0.05109610530271544]]",['DejaVu Sans'],[0.9],,,,N011,digit,5,"['6', '7', '8', '9']","['1', '2', '3', '4']",1,2023.2.3,harveydigits,2.1,[],8,0.75,
0,pause,0.4,None,None,None,0,127,127,127,,,,,,,,,,,,N011,digit,5,"['6', '7', '8', '9']","['1', '2', '3', '4']",1,2023.2.3,harveydigits,2.1,[],8,0.75,
20,digit,0.3,['dot'],['big_1'],black,0,128,128,128,,,47.20020508766174,46.909148931503296,47.20906710624695,"[[0.12037035355903522, 0.0007833827496705748]]",['DejaVu Sans'],[0.9],,,,N011,digit,5,"['6', '7', '8', '9']","['1', '2', '3', '4']",1,2023.2.3,harveydigits,2.1,[],8,0.75,
0,pause,0.4,None,None,None,0,129,129,129,,,,,,,,,,,,N011,digit,5,"['6', '7', '8', '9']","['1', '2', '3', '4']",1,2023.2.3,harveydigits,2.1,[],8,0.75,
20,digit,0.3,['dot'],['big_1'],black,0,130,130,130,,,47.900227069854736,47.60903191566467,47.909013986587524,"[[-0.07958215564367305, -0.1754070037810939]]",['DejaVu Sans'],[0.9],,,,N011,digit,5,"['6', '7', '8', '9']","['1', '2', '3', '4']",1,2023.2.3,harveydigits,2.1,[],8,0.75,
0,pause,0.4,None,None,None,0,131,131,131,,,,,,,,,,,,N011,digit,5,"['6', '7', '8', '9']","['1', '2', '3', '4']",1,2023.2.3,harveydigits,2.1,[],8,0.75,
20,digit,0.3,['dot'],['big_1'],black,0,132,132,132,,,48.600218057632446,48.309041023254395,48.60899305343628,"[[0.06324288419608795, -0.05727199222304888]]",['DejaVu Sans'],[0.9],,,,N011,digit,5,"['6', '7', '8', '9']","['1', '2', '3', '4']",1,2023.2.3,harveydigits,2.1,[],8,0.75,
0,pause,0.4,None,None,None,0,133,133,133,,,,,,,,,,,,N011,digit,5,"['6', '7', '8', '9']","['1', '2', '3', '4']",1,2023.2.3,harveydigits,2.1,[],8,0.75,
20,digit,0.3,['dot'],['big_1'],black,0,134,134,134,,,49.30021095275879,49.009063959121704,49.3089759349823,"[[-0.15950777066583088, 0.09032911703184424]]",['DejaVu Sans'],[0.9],,,,N011,digit,5,"['6', '7', '8', '9']","['1', '2', '3', '4']",1,2023.2.3,harveydigits,2.1,[],8,0.75,
0,pause,0.4,None,None,None,0,135,135,135,,,,,,,,,,,,N011,digit,5,"['6', '7', '8', '9']","['1', '2', '3', '4']",1,2023.2.3,harveydigits,2.1,[],8,0.75,
20,digit,0.3,['dot'],['big_1'],black,0,136,136,136,,,50.00023102760315,49.708961963653564,50.00902795791626,"[[-0.16010422816431608, 0.032606422374853575]]",['DejaVu Sans'],[0.9],,,,N011,digit,5,"['6', '7', '8', '9']","['1', '2', '3', '4']",1,2023.2.3,harveydigits,2.1,[],8,0.75,
0,pause,0.4,None,None,None,0,137,137,137,,,,,,,,,,,,N011,digit,5,"['6', '7', '8', '9']","['1', '2', '3', '4']",1,2023.2.3,harveydigits,2.1,[],8,0.75,
20,digit,0.3,['dot'],['big_1'],black,0,138,138,138,,,50.700206995010376,50.40896511077881,50.70901703834534,"[[-0.13144721716520905, -0.1150736326573159]]",['DejaVu Sans'],[0.9],,,,N011,digit,5,"['6', '7', '8', '9']","['1', '2', '3', '4']",1,2023.2.3,harveydigits,2.1,[],8,0.75,
0,pause,0.4,None,None,None,0,139,139,139,,,,,,,,,,,,N011,digit,5,"['6', '7', '8', '9']","['1', '2', '3', '4']",1,2023.2.3,harveydigits,2.1,[],8,0.75,
20,digit,0.3,['dot'],['big_1'],black,0,140,140,140,,,51.400224924087524,51.10904407501221,51.4089241027832,"[[0.017806344179368827, -0.0003195423628094829]]",['DejaVu Sans'],[0.9],,,,N011,digit,5,"['6', '7', '8', '9']","['1', '2', '3', '4']",1,2023.2.3,harveydigits,2.1,[],8,0.75,
0,pause,0.4,None,None,None,0,141,141,141,,,,,,,,,,,,N011,digit,5,"['6', '7', '8', '9']","['1', '2', '3', '4']",1,2023.2.3,harveydigits,2.1,[],8,0.75,
20,digit,0.3,['dot'],['big_1'],black,0,142,142,142,,,52.10020899772644,51.80891990661621,52.1089301109314,"[[-0.15156094188814528, 0.020100163880400895]]",['DejaVu Sans'],[0.9],,,,N011,digit,5,"['6', '7', '8', '9']","['1', '2', '3', '4']",1,2023.2.3,harveydigits,2.1,[],8,0.75,
0,pause,0.4,None,None,None,0,143,143,143,,,,,,,,,,,,N011,digit,5,"['6', '7', '8', '9']","['1', '2', '3', '4']",1,2023.2.3,harveydigits,2.1,[],8,0.75,
20,digit,0.3,['dot'],['big_1'],black,0,144,144,144,,,52.80021095275879,52.508928060531616,52.80890488624573,"[[-0.15384572976937616, 0.07306249912753363]]",['DejaVu Sans'],[0.9],,,,N011,digit,5,"['6', '7', '8', '9']","['1', '2', '3', '4']",1,2023.2.3,harveydigits,2.1,[],8,0.75,
0,pause,0.4,None,None,None,0,145,145,145,,,,,,,,,,,,N011,digit,5,"['6', '7', '8', '9']","['1', '2', '3', '4']",1,2023.2.3,harveydigits,2.1,[],8,0.75,
20,digit,0.3,['dot'],['big_1'],black,0,146,146,146,,,53.50021290779114,53.208914041519165,53.50886511802673,"[[0.1412290251639758, 0.03337917337820648]]",['DejaVu Sans'],[0.9],,,,N011,digit,5,"['6', '7', '8', '9']","['1', '2', '3', '4']",1,2023.2.3,harveydigits,2.1,[],8,0.75,
0,pause,0.4,None,None,None,0,147,147,147,,,,,,,,,,,,N011,digit,5,"['6', '7', '8', '9']","['1', '2', '3', '4']",1,2023.2.3,harveydigits,2.1,[],8,0.75,
20,digit,0.3,['dot'],['big_1'],black,0,148,148,148,,,54.20021200180054,53.9089629650116,54.208863973617554,"[[-0.14105280321626879, 0.11918908953476229]]",['DejaVu Sans'],[0.9],,,,N011,digit,5,"['6', '7', '8', '9']","['1', '2', '3', '4']",1,2023.2.3,harveydigits,2.1,[],8,0.75,
0,pause,0.4,None,None,None,0,149,149,149,,,,,,,,,,,,N011,digit,5,"['6', '7', '8', '9']","['1', '2', '3', '4']",1,2023.2.3,harveydigits,2.1,[],8,0.75,
20,digit,0.3,['dot'],['big_1'],black,0,150,150,150,,,54.90021991729736,54.60885500907898,54.90884709358215,"[[-0.09605720375700834, 0.03960954992081123]]",['DejaVu Sans'],[0.9],,,,N011,digit,5,"['6', '7', '8', '9']","['1', '2', '3', '4']",1,2023.2.3,harveydigits,2.1,[],8,0.75,
0,pause,0.4,None,None,None,0,151,151,151,,,,,,,,,,,,N011,digit,5,"['6', '7', '8', '9']","['1', '2', '3', '4']",1,2023.2.3,harveydigits,2.1,[],8,0.75,
20,digit,0.3,['dot'],['big_1'],black,0,152,152,152,,,55.60022592544556,55.30883502960205,55.60889291763306,"[[-0.005036071059202868, -0.10418010469264831]]",['DejaVu Sans'],[0.9],,,,N011,digit,5,"['6', '7', '8', '9']","['1', '2', '3', '4']",1,2023.2.3,harveydigits,2.1,[],8,0.75,
0,pause,0.4,None,None,None,0,153,153,153,,,,,,,,,,,,N011,digit,5,"['6', '7', '8', '9']","['1', '2', '3', '4']",1,2023.2.3,harveydigits,2.1,[],8,0.75,
20,digit,0.3,['dot'],['big_1'],black,0,154,154,154,,,56.30022192001343,56.00881600379944,56.30880093574524,"[[0.016021965441139097, 0.0958440188338929]]",['DejaVu Sans'],[0.9],,,,N011,digit,5,"['6', '7', '8', '9']","['1', '2', '3', '4']",1,2023.2.3,harveydigits,2.1,[],8,0.75,
0,pause,0.4,None,None,None,0,155,155,155,,,,,,,,,,,,N011,digit,5,"['6', '7', '8', '9']","['1', '2', '3', '4']",1,2023.2.3,harveydigits,2.1,[],8,0.75,
9,digit,0.3,['dot'],['big_1'],black,0,156,156,156,,,57.000219106674194,56.708816051483154,57.008785009384155,"[[-0.18639374325250632, 0.009436234817141065]]",['DejaVu Sans'],[0.9],,,,N011,digit,5,"['6', '7', '8', '9']","['1', '2', '3', '4']",1,2023.2.3,harveydigits,2.1,[],8,0.75,
0,pause,0.4,None,None,None,0,157,157,157,,,,,,,,,,,,N011,digit,5,"['6', '7', '8', '9']","['1', '2', '3', '4']",1,2023.2.3,harveydigits,2.1,[],8,0.75,
9,digit,0.3,['dot'],['big_1'],black,0,158,158,158,,,57.70022511482239,57.4087769985199,57.708762884140015,"[[0.03255302457969514, -0.01648127216747461]]",['DejaVu Sans'],[0.9],,,,N011,digit,5,"['6', '7', '8', '9']","['1', '2', '3', '4']",1,2023.2.3,harveydigits,2.1,[],8,0.75,
0,pause,0.4,None,None,None,0,159,159,159,,,,,,,,,,,,N011,digit,5,"['6', '7', '8', '9']","['1', '2', '3', '4']",1,2023.2.3,harveydigits,2.1,[],8,0.75,
9,digit,0.3,['dot'],['big_1'],black,0,160,160,160,,,58.40021896362305,58.10874795913696,58.4087290763855,"[[-0.19163281768819823, -0.008037771946587904]]",['DejaVu Sans'],[0.9],,,,N011,digit,5,"['6', '7', '8', '9']","['1', '2', '3', '4']",1,2023.2.3,harveydigits,2.1,[],8,0.75,
0,pause,0.4,None,None,None,0,161,161,161,,,,,,,,,,,,N011,digit,5,"['6', '7', '8', '9']","['1', '2', '3', '4']",1,2023.2.3,harveydigits,2.1,[],8,0.75,
9,digit,0.3,['dot'],['big_1'],black,0,162,162,162,,,59.100213050842285,58.80872392654419,59.10872292518616,"[[0.017649205420284142, 0.028383665172702577]]",['DejaVu Sans'],[0.9],,,,N011,digit,5,"['6', '7', '8', '9']","['1', '2', '3', '4']",1,2023.2.3,harveydigits,2.1,[],8,0.75,
0,pause,0.4,None,None,None,0,163,163,163,,,,,,,,,,,,N011,digit,5,"['6', '7', '8', '9']","['1', '2', '3', '4']",1,2023.2.3,harveydigits,2.1,[],8,0.75,
9,digit,0.3,['dot'],['big_1'],black,0,164,164,164,,,59.800213098526,59.50871801376343,59.80870199203491,"[[-0.10987964407662315, -0.031132035913976952]]",['DejaVu Sans'],[0.9],,,,N011,digit,5,"['6', '7', '8', '9']","['1', '2', '3', '4']",1,2023.2.3,harveydigits,2.1,[],8,0.75,
0,pause,0.4,None,None,None,0,165,165,165,,,,,,,,,,,,N011,digit,5,"['6', '7', '8', '9']","['1', '2', '3', '4']",1,2023.2.3,harveydigits,2.1,[],8,0.75,
9,digit,0.3,['dot'],['big_1'],black,0,166,166,166,,,60.50020790100098,60.208702087402344,60.508687019348145,"[[-0.08446980209231926, 0.10865017652901363]]",['DejaVu Sans'],[0.9],,,,N011,digit,5,"['6', '7', '8', '9']","['1', '2', '3', '4']",1,2023.2.3,harveydigits,2.1,[],8,0.75,
0,pause,0.4,None,None,None,0,167,167,167,,,,,,,,,,,,N011,digit,5,"['6', '7', '8', '9']","['1', '2', '3', '4']",1,2023.2.3,harveydigits,2.1,[],8,0.75,
8,digit,0.3,['dot'],['big_1'],black,0,168,168,168,,,61.20022010803223,60.908682107925415,61.208658933639526,"[[-0.09839557368084811, -0.1456348561111312]]",['DejaVu Sans'],[0.9],,,,N011,digit,5,"['6', '7', '8', '9']","['1', '2', '3', '4']",1,2023.2.3,harveydigits,2.1,[],8,0.75,
0,pause,0.4,None,None,None,0,169,169,169,,,,,,,,,,,,N011,digit,5,"['6', '7', '8', '9']","['1', '2', '3', '4']",1,2023.2.3,harveydigits,2.1,[],8,0.75,
8,digit,0.3,['dot'],['big_1'],black,0,170,170,170,,,61.9002161026001,61.60869288444519,61.90864706039429,"[[0.1033226375257845, 0.06117455038325553]]",['DejaVu Sans'],[0.9],,,,N011,digit,5,"['6', '7', '8', '9']","['1', '2', '3', '4']",1,2023.2.3,harveydigits,2.1,[],8,0.75,
0,pause,0.4,None,None,None,0,171,171,171,,,,,,,,,,,,N011,digit,5,"['6', '7', '8', '9']","['1', '2', '3', '4']",1,2023.2.3,harveydigits,2.1,[],8,0.75,
8,digit,0.3,['dot'],['big_1'],black,0,172,172,172,,,62.60021710395813,62.30873990058899,62.60862994194031,"[[-0.15062957598745128, 0.017590199271370816]]",['DejaVu Sans'],[0.9],,,,N011,digit,5,"['6', '7', '8', '9']","['1', '2', '3', '4']",1,2023.2.3,harveydigits,2.1,[],8,0.75,
0,pause,0.4,None,None,None,0,173,173,173,,,,,,,,,,,,N011,digit,5,"['6', '7', '8', '9']","['1', '2', '3', '4']",1,2023.2.3,harveydigits,2.1,[],8,0.75,
8,digit,0.3,['dot'],['big_1'],black,0,174,174,174,,,63.300206899642944,63.00863695144653,63.308624029159546,"[[-0.16758216546325055, 0.04640452121395097]]",['DejaVu Sans'],[0.9],,,,N011,digit,5,"['6', '7', '8', '9']","['1', '2', '3', '4']",1,2023.2.3,harveydigits,2.1,[],8,0.75,
0,pause,0.4,None,None,None,0,175,175,175,,,,,,,,,,,,N011,digit,5,"['6', '7', '8', '9']","['1', '2', '3', '4']",1,2023.2.3,harveydigits,2.1,[],8,0.75,
8,digit,0.3,['dot'],['big_1'],black,0,176,176,176,,,64.0002179145813,63.70862293243408,64.00860095024109,"[[0.1990897280802625, 0.011279057972656922]]",['DejaVu Sans'],[0.9],,,,N011,digit,5,"['6', '7', '8', '9']","['1', '2', '3', '4']",1,2023.2.3,harveydigits,2.1,[],8,0.75,
0,pause,0.4,None,None,None,0,177,177,177,,,,,,,,,,,,N011,digit,5,"['6', '7', '8', '9']","['1', '2', '3', '4']",1,2023.2.3,harveydigits,2.1,[],8,0.75,
8,digit,0.3,['dot'],['big_1'],black,0,178,178,178,,,64.7002170085907,64.40861201286316,64.708575963974,"[[0.11616701068603238, 0.06334927904562068]]",['DejaVu Sans'],[0.9],,,,N011,digit,5,"['6', '7', '8', '9']","['1', '2', '3', '4']",1,2023.2.3,harveydigits,2.1,[],8,0.75,
0,pause,0.4,None,None,None,0,179,179,179,,,,,,,,,,,,N011,digit,5,"['6', '7', '8', '9']","['1', '2', '3', '4']",1,2023.2.3,harveydigits,2.1,[],8,0.75,
7,digit,0.3,['dot'],['big_1'],black,0,180,180,180,,,65.40022706985474,65.10863995552063,65.40856194496155,"[[-0.02346364327373532, -0.06951617433971613]]",['DejaVu Sans'],[0.9],,,,N011,digit,5,"['6', '7', '8', '9']","['1', '2', '3', '4']",1,2023.2.3,harveydigits,2.1,[],8,0.75,
0,pause,0.4,None,None,None,0,181,181,181,,,,,,,,,,,,N011,digit,5,"['6', '7', '8', '9']","['1', '2', '3', '4']",1,2023.2.3,harveydigits,2.1,[],8,0.75,
7,digit,0.3,['dot'],['big_1'],black,0,182,182,182,,,66.10023498535156,65.80856704711914,66.10857391357422,"[[-0.19091168513649312, 0.008364369219788864]]",['DejaVu Sans'],[0.9],,,,N011,digit,5,"['6', '7', '8', '9']","['1', '2', '3', '4']",1,2023.2.3,harveydigits,2.1,[],8,0.75,
0,pause,0.4,None,None,None,0,183,183,183,,,,,,,,,,,,N011,digit,5,"['6', '7', '8', '9']","['1', '2', '3', '4']",1,2023.2.3,harveydigits,2.1,[],8,0.75,
7,digit,0.3,['dot'],['big_1'],black,0,184,184,184,,,66.80023288726807,66.50857710838318,66.80869007110596,"[[0.18849902214774092, 0.012225059921150083]]",['DejaVu Sans'],[0.9],,,,N011,digit,5,"['6', '7', '8', '9']","['1', '2', '3', '4']",1,2023.2.3,harveydigits,2.1,[],8,0.75,
0,pause,0.4,None,None,None,0,185,185,185,,,,,,,,,,,,N011,digit,5,"['6', '7', '8', '9']","['1', '2', '3', '4']",1,2023.2.3,harveydigits,2.1,[],8,0.75,
7,digit,0.3,['dot'],['big_1'],black,0,186,186,186,,,67.50020790100098,67.20854711532593,67.50866603851318,"[[0.18474196358230469, 0.019169358833231592]]",['DejaVu Sans'],[0.9],,,,N011,digit,5,"['6', '7', '8', '9']","['1', '2', '3', '4']",1,2023.2.3,harveydigits,2.1,[],8,0.75,
0,pause,0.4,None,None,None,0,187,187,187,,,,,,,,,,,,N011,digit,5,"['6', '7', '8', '9']","['1', '2', '3', '4']",1,2023.2.3,harveydigits,2.1,[],8,0.75,
7,digit,0.3,['dot'],['big_1'],black,0,188,188,188,,,68.20021796226501,67.9085340499878,68.20866107940674,"[[-0.17961945273360733, -0.007986011157943812]]",['DejaVu Sans'],[0.9],,,,N011,digit,5,"['6', '7', '8', '9']","['1', '2', '3', '4']",1,2023.2.3,harveydigits,2.1,[],8,0.75,
0,pause,0.4,None,None,None,0,189,189,189,,,,,,,,,,,,N011,digit,5,"['6', '7', '8', '9']","['1', '2', '3', '4']",1,2023.2.3,harveydigits,2.1,[],8,0.75,
7,digit,0.3,['dot'],['big_1'],black,0,190,190,190,,,68.90020704269409,68.60851502418518,68.90846109390259,"[[0.18398226770900525, 0.009167115052499453]]",['DejaVu Sans'],[0.9],,,,N011,digit,5,"['6', '7', '8', '9']","['1', '2', '3', '4']",1,2023.2.3,harveydigits,2.1,[],8,0.75,
0,pause,0.4,None,None,None,0,191,191,191,,,,,,,,,,,,N011,digit,5,"['6', '7', '8', '9']","['1', '2', '3', '4']",1,2023.2.3,harveydigits,2.1,[],8,0.75,
6,digit,0.3,['dot'],['big_1'],black,0,192,192,192,,,69.60021805763245,69.30846405029297,69.60847306251526,"[[0.13719342601973458, 0.06056362410407881]]",['DejaVu Sans'],[0.9],,,,N011,digit,5,"['6', '7', '8', '9']","['1', '2', '3', '4']",1,2023.2.3,harveydigits,2.1,[],8,0.75,
0,pause,0.4,None,None,None,0,193,193,193,,,,,,,,,,,,N011,digit,5,"['6', '7', '8', '9']","['1', '2', '3', '4']",1,2023.2.3,harveydigits,2.1,[],8,0.75,
6,digit,0.3,['dot'],['big_1'],black,0,194,194,194,,,70.3002290725708,70.00851702690125,70.30843210220337,"[[0.024020640343144217, 0.03932258589592463]]",['DejaVu Sans'],[0.9],,,,N011,digit,5,"['6', '7', '8', '9']","['1', '2', '3', '4']",1,2023.2.3,harveydigits,2.1,[],8,0.75,
0,pause,0.4,None,None,None,0,195,195,195,,,,,,,,,,,,N011,digit,5,"['6', '7', '8', '9']","['1', '2', '3', '4']",1,2023.2.3,harveydigits,2.1,[],8,0.75,
6,digit,0.3,['dot'],['big_1'],black,0,196,196,196,,,71.00021505355835,70.70849204063416,71.00846409797668,"[[0.08202486475821849, -0.11018518069479433]]",['DejaVu Sans'],[0.9],,,,N011,digit,5,"['6', '7', '8', '9']","['1', '2', '3', '4']",1,2023.2.3,harveydigits,2.1,[],8,0.75,
0,pause,0.4,None,None,None,0,197,197,197,,,,,,,,,,,,N011,digit,5,"['6', '7', '8', '9']","['1', '2', '3', '4']",1,2023.2.3,harveydigits,2.1,[],8,0.75,
6,digit,0.3,['dot'],['big_1'],black,0,198,198,198,,,71.7002100944519,71.40842199325562,71.70845699310303,"[[-0.09838322770313307, 0.08119062393862578]]",['DejaVu Sans'],[0.9],,,,N011,digit,5,"['6', '7', '8', '9']","['1', '2', '3', '4']",1,2023.2.3,harveydigits,2.1,[],8,0.75,
0,pause,0.4,None,None,None,0,199,199,199,,,,,,,,,,,,N011,digit,5,"['6', '7', '8', '9']","['1', '2', '3', '4']",1,2023.2.3,harveydigits,2.1,[],8,0.75,
6,digit,0.3,['dot'],['big_1'],black,0,200,200,200,,,72.40023303031921,72.1083869934082,72.40853500366211,"[[-0.15451792477784299, 0.07335303506027152]]",['DejaVu Sans'],[0.9],,,,N011,digit,5,"['6', '7', '8', '9']","['1', '2', '3', '4']",1,2023.2.3,harveydigits,2.1,[],8,0.75,
0,pause,0.4,None,None,None,0,201,201,201,,,,,,,,,,,,N011,digit,5,"['6', '7', '8', '9']","['1', '2', '3', '4']",1,2023.2.3,harveydigits,2.1,[],8,0.75,
6,digit,0.3,['dot'],['big_1'],black,0,202,202,202,,,73.10022211074829,72.80841302871704,73.10852694511414,"[[-0.027849109669864452, 0.12253543156289051]]",['DejaVu Sans'],[0.9],,,,N011,digit,5,"['6', '7', '8', '9']","['1', '2', '3', '4']",1,2023.2.3,harveydigits,2.1,[],8,0.75,
0,pause,0.4,None,None,None,0,203,203,203,,,,,,,,,,,,N011,digit,5,"['6', '7', '8', '9']","['1', '2', '3', '4']",1,2023.2.3,harveydigits,2.1,[],8,0.75,
5,digit,0.3,['dot'],['big_1'],white,0,204,204,204,,,73.80023503303528,73.50837397575378,73.80843091011047,"[[0.13111545190063614, -0.02838024438487448]]",['DejaVu Sans'],[0.9],,,,N011,digit,5,"['6', '7', '8', '9']","['1', '2', '3', '4']",1,2023.2.3,harveydigits,2.1,[],8,0.75,
0,pause,0.4,None,None,None,0,205,205,205,,,,,,,,,,,,N011,digit,5,"['6', '7', '8', '9']","['1', '2', '3', '4']",1,2023.2.3,harveydigits,2.1,[],8,0.75,
5,digit,0.3,['dot'],['big_1'],white,0,206,206,206,,,74.50024390220642,74.20839095115662,74.5084879398346,"[[0.10656260514555835, 0.11441532877588878]]",['DejaVu Sans'],[0.9],left,odd,74.15651893615723,N011,digit,5,"['6', '7', '8', '9']","['1', '2', '3', '4']",1,2023.2.3,harveydigits,2.1,[],8,0.75,
0,pause,0.4,None,None,None,0,207,207,207,,,,,,,,,,,,N011,digit,5,"['6', '7', '8', '9']","['1', '2', '3', '4']",1,2023.2.3,harveydigits,2.1,[],8,0.75,
5,digit,0.3,['dot'],['big_1'],white,0,208,208,208,,,75.20022988319397,74.90834403038025,75.20836806297302,"[[0.11521597753941384, -0.09914694826753533]]",['DejaVu Sans'],[0.9],,,,N011,digit,5,"['6', '7', '8', '9']","['1', '2', '3', '4']",1,2023.2.3,harveydigits,2.1,[],8,0.75,
0,pause,0.4,None,None,None,0,209,209,209,,,,,,,,,,,,N011,digit,5,"['6', '7', '8', '9']","['1', '2', '3', '4']",1,2023.2.3,harveydigits,2.1,[],8,0.75,
5,digit,0.3,['dot'],['big_1'],white,0,210,210,210,,,75.90022706985474,75.60833501815796,75.90829110145569,"[[0.17819557859228516, 0.05361401363730736]]",['DejaVu Sans'],[0.9],,,,N011,digit,5,"['6', '7', '8', '9']","['1', '2', '3', '4']",1,2023.2.3,harveydigits,2.1,[],8,0.75,
0,pause,0.4,None,None,None,0,211,211,211,,,,,,,,,,,,N011,digit,5,"['6', '7', '8', '9']","['1', '2', '3', '4']",1,2023.2.3,harveydigits,2.1,[],8,0.75,
5,digit,0.3,['dot'],['big_1'],white,0,212,212,212,,,76.60021901130676,76.30834197998047,76.60827898979187,"[[0.15495985889587818, -0.056478807964773184]]",['DejaVu Sans'],[0.9],,,,N011,digit,5,"['6', '7', '8', '9']","['1', '2', '3', '4']",1,2023.2.3,harveydigits,2.1,[],8,0.75,
0,pause,0.4,None,None,None,0,213,213,213,,,,,,,,,,,,N011,digit,5,"['6', '7', '8', '9']","['1', '2', '3', '4']",1,2023.2.3,harveydigits,2.1,[],8,0.75,
5,digit,0.3,['dot'],['big_1'],white,0,214,214,214,,,77.30023097991943,77.00830698013306,77.30830907821655,"[[-0.158652846224134, -0.05546939703928121]]",['DejaVu Sans'],[0.9],,,,N011,digit,5,"['6', '7', '8', '9']","['1', '2', '3', '4']",1,2023.2.3,harveydigits,2.1,[],8,0.75,
0,pause,0.4,None,None,None,0,215,215,215,,,,,,,,,,,,N011,digit,5,"['6', '7', '8', '9']","['1', '2', '3', '4']",1,2023.2.3,harveydigits,2.1,[],8,0.75,
4,digit,0.3,['dot'],['big_1'],black,0,216,216,216,,,78.00020694732666,77.70829510688782,78.00832509994507,"[[-0.14612590968530398, 0.07264206990824806]]",['DejaVu Sans'],[0.9],,,,N011,digit,5,"['6', '7', '8', '9']","['1', '2', '3', '4']",1,2023.2.3,harveydigits,2.1,[],8,0.75,
0,pause,0.4,None,None,None,0,217,217,217,,,,,,,,,,,,N011,digit,5,"['6', '7', '8', '9']","['1', '2', '3', '4']",1,2023.2.3,harveydigits,2.1,[],8,0.75,
4,digit,0.3,['dot'],['big_1'],black,0,218,218,218,,,78.70022511482239,78.4082338809967,78.70912098884583,"[[0.17888773874809497, -0.08820624324912163]]",['DejaVu Sans'],[0.9],,,,N011,digit,5,"['6', '7', '8', '9']","['1', '2', '3', '4']",1,2023.2.3,harveydigits,2.1,[],8,0.75,
0,pause,0.4,None,None,None,0,219,219,219,,,,,,,,,,,,N011,digit,5,"['6', '7', '8', '9']","['1', '2', '3', '4']",1,2023.2.3,harveydigits,2.1,[],8,0.75,
4,digit,0.3,['dot'],['big_1'],black,0,220,220,220,,,79.40022897720337,79.10821604728699,79.40822196006775,"[[0.07637438167479879, 0.052012286844358185]]",['DejaVu Sans'],[0.9],,,,N011,digit,5,"['6', '7', '8', '9']","['1', '2', '3', '4']",1,2023.2.3,harveydigits,2.1,[],8,0.75,
0,pause,0.4,None,None,None,0,221,221,221,,,,,,,,,,,,N011,digit,5,"['6', '7', '8', '9']","['1', '2', '3', '4']",1,2023.2.3,harveydigits,2.1,[],8,0.75,
4,digit,0.3,['dot'],['big_1'],black,0,222,222,222,,,80.10021901130676,79.80820298194885,80.108225107193,"[[0.12533896708087525, 0.02263478666675403]]",['DejaVu Sans'],[0.9],,,,N011,digit,5,"['6', '7', '8', '9']","['1', '2', '3', '4']",1,2023.2.3,harveydigits,2.1,[],8,0.75,
0,pause,0.4,None,None,None,0,223,223,223,,,,,,,,,,,,N011,digit,5,"['6', '7', '8', '9']","['1', '2', '3', '4']",1,2023.2.3,harveydigits,2.1,[],8,0.75,
4,digit,0.3,['dot'],['big_1'],black,0,224,224,224,,,80.80021810531616,80.50822710990906,80.80820608139038,"[[-0.007479188153008132, -0.059751579801508053]]",['DejaVu Sans'],[0.9],,,,N011,digit,5,"['6', '7', '8', '9']","['1', '2', '3', '4']",1,2023.2.3,harveydigits,2.1,[],8,0.75,
0,pause,0.4,None,None,None,0,225,225,225,,,,,,,,,,,,N011,digit,5,"['6', '7', '8', '9']","['1', '2', '3', '4']",1,2023.2.3,harveydigits,2.1,[],8,0.75,
4,digit,0.3,['dot'],['big_1'],black,0,226,226,226,,,81.50021696090698,81.2082290649414,81.50821089744568,"[[0.0671448017861431, -0.032693465736192]]",['DejaVu Sans'],[0.9],,,,N011,digit,5,"['6', '7', '8', '9']","['1', '2', '3', '4']",1,2023.2.3,harveydigits,2.1,[],8,0.75,
0,pause,0.4,None,None,None,0,227,227,227,,,,,,,,,,,,N011,digit,5,"['6', '7', '8', '9']","['1', '2', '3', '4']",1,2023.2.3,harveydigits,2.1,[],8,0.75,
3,digit,0.3,['dot'],['big_1'],black,0,228,228,228,,,82.20022010803223,81.90819811820984,82.20812010765076,"[[0.10148325755492224, 0.09039822503008557]]",['DejaVu Sans'],[0.9],,,,N011,digit,5,"['6', '7', '8', '9']","['1', '2', '3', '4']",1,2023.2.3,harveydigits,2.1,[],8,0.75,
0,pause,0.4,None,None,None,0,229,229,229,,,,,,,,,,,,N011,digit,5,"['6', '7', '8', '9']","['1', '2', '3', '4']",1,2023.2.3,harveydigits,2.1,[],8,0.75,
3,digit,0.3,['dot'],['big_1'],black,0,230,230,230,,,82.9002320766449,82.60812497138977,82.9081130027771,"[[0.16919454207158383, 0.022349148320423756]]",['DejaVu Sans'],[0.9],,,,N011,digit,5,"['6', '7', '8', '9']","['1', '2', '3', '4']",1,2023.2.3,harveydigits,2.1,[],8,0.75,
0,pause,0.4,None,None,None,0,231,231,231,,,,,,,,,,,,N011,digit,5,"['6', '7', '8', '9']","['1', '2', '3', '4']",1,2023.2.3,harveydigits,2.1,[],8,0.75,
3,digit,0.3,['dot'],['big_1'],black,0,232,232,232,,,83.60023999214172,83.30810403823853,83.60808992385864,"[[-0.14122597475121124, -0.06457404859657996]]",['DejaVu Sans'],[0.9],,,,N011,digit,5,"['6', '7', '8', '9']","['1', '2', '3', '4']",1,2023.2.3,harveydigits,2.1,[],8,0.75,
0,pause,0.4,None,None,None,0,233,233,233,,,,,,,,,,,,N011,digit,5,"['6', '7', '8', '9']","['1', '2', '3', '4']",1,2023.2.3,harveydigits,2.1,[],8,0.75,
3,digit,0.3,['dot'],['big_1'],black,0,234,234,234,,,84.30022311210632,84.00811004638672,84.30815196037292,"[[-0.003887855405918128, 0.11850888188968389]]",['DejaVu Sans'],[0.9],,,,N011,digit,5,"['6', '7', '8', '9']","['1', '2', '3', '4']",1,2023.2.3,harveydigits,2.1,[],8,0.75,
0,pause,0.4,None,None,None,0,235,235,235,,,,,,,,,,,,N011,digit,5,"['6', '7', '8', '9']","['1', '2', '3', '4']",1,2023.2.3,harveydigits,2.1,[],8,0.75,
3,digit,0.3,['dot'],['big_1'],black,0,236,236,236,,,85.00021505355835,84.70810008049011,85.00809788703918,"[[-0.19216333658193815, -0.044060868804321765]]",['DejaVu Sans'],[0.9],,,,N011,digit,5,"['6', '7', '8', '9']","['1', '2', '3', '4']",1,2023.2.3,harveydigits,2.1,[],8,0.75,
0,pause,0.4,None,None,None,0,237,237,237,,,,,,,,,,,,N011,digit,5,"['6', '7', '8', '9']","['1', '2', '3', '4']",1,2023.2.3,harveydigits,2.1,[],8,0.75,
3,digit,0.3,['dot'],['big_1'],black,0,238,238,238,,,85.70022010803223,85.40811896324158,85.70812392234802,"[[-0.03991021333870659, -0.11739034726566103]]",['DejaVu Sans'],[0.9],,,,N011,digit,5,"['6', '7', '8', '9']","['1', '2', '3', '4']",1,2023.2.3,harveydigits,2.1,[],8,0.75,
0,pause,0.4,None,None,None,0,239,239,239,,,,,,,,,,,,N011,digit,5,"['6', '7', '8', '9']","['1', '2', '3', '4']",1,2023.2.3,harveydigits,2.1,[],8,0.75,
2,digit,0.3,['dot'],['big_1'],black,0,240,240,240,,,86.40022492408752,86.10805296897888,86.40804100036621,"[[-0.07714494372911171, 0.18196251968532637]]",['DejaVu Sans'],[0.9],,,,N011,digit,5,"['6', '7', '8', '9']","['1', '2', '3', '4']",1,2023.2.3,harveydigits,2.1,[],8,0.75,
0,pause,0.4,None,None,None,0,241,241,241,,,,,,,,,,,,N011,digit,5,"['6', '7', '8', '9']","['1', '2', '3', '4']",1,2023.2.3,harveydigits,2.1,[],8,0.75,
2,digit,0.3,['dot'],['big_1'],black,0,242,242,242,,,87.10022211074829,86.8080620765686,87.1080310344696,"[[0.17250681196831416, 0.04361382198176608]]",['DejaVu Sans'],[0.9],,,,N011,digit,5,"['6', '7', '8', '9']","['1', '2', '3', '4']",1,2023.2.3,harveydigits,2.1,[],8,0.75,
0,pause,0.4,None,None,None,0,243,243,243,,,,,,,,,,,,N011,digit,5,"['6', '7', '8', '9']","['1', '2', '3', '4']",1,2023.2.3,harveydigits,2.1,[],8,0.75,
2,digit,0.3,['dot'],['big_1'],black,0,244,244,244,,,87.80023694038391,87.50802206993103,87.80804109573364,"[[0.14359202034839894, 0.12727686686643874]]",['DejaVu Sans'],[0.9],,,,N011,digit,5,"['6', '7', '8', '9']","['1', '2', '3', '4']",1,2023.2.3,harveydigits,2.1,[],8,0.75,
0,pause,0.4,None,None,None,0,245,245,245,,,,,,,,,,,,N011,digit,5,"['6', '7', '8', '9']","['1', '2', '3', '4']",1,2023.2.3,harveydigits,2.1,[],8,0.75,
2,digit,0.3,['dot'],['big_1'],black,0,246,246,246,,,88.50022292137146,88.2080008983612,88.50797200202942,"[[-0.05765485488100311, 0.028616220883130178]]",['DejaVu Sans'],[0.9],,,,N011,digit,5,"['6', '7', '8', '9']","['1', '2', '3', '4']",1,2023.2.3,harveydigits,2.1,[],8,0.75,
0,pause,0.4,None,None,None,0,247,247,247,,,,,,,,,,,,N011,digit,5,"['6', '7', '8', '9']","['1', '2', '3', '4']",1,2023.2.3,harveydigits,2.1,[],8,0.75,
2,digit,0.3,['dot'],['big_1'],black,0,248,248,248,,,89.2002329826355,88.90795588493347,89.2079439163208,"[[-0.11418867342095827, -0.03272892628872279]]",['DejaVu Sans'],[0.9],,,,N011,digit,5,"['6', '7', '8', '9']","['1', '2', '3', '4']",1,2023.2.3,harveydigits,2.1,[],8,0.75,
0,pause,0.4,None,None,None,0,249,249,249,,,,,,,,,,,,N011,digit,5,"['6', '7', '8', '9']","['1', '2', '3', '4']",1,2023.2.3,harveydigits,2.1,[],8,0.75,
2,digit,0.3,['dot'],['big_1'],black,0,250,250,250,,,89.90021896362305,89.60794806480408,89.90795493125916,"[[-0.18466930566839387, 0.03118220347665407]]",['DejaVu Sans'],[0.9],,,,N011,digit,5,"['6', '7', '8', '9']","['1', '2', '3', '4']",1,2023.2.3,harveydigits,2.1,[],8,0.75,
0,pause,0.4,None,None,None,0,251,251,251,,,,,,,,,,,,N011,digit,5,"['6', '7', '8', '9']","['1', '2', '3', '4']",1,2023.2.3,harveydigits,2.1,[],8,0.75,
1,digit,0.3,['dot'],['big_1'],black,0,252,252,252,,,90.60023903846741,90.30796194076538,90.60798501968384,"[[0.13524903966604088, -0.07844864091979548]]",['DejaVu Sans'],[0.9],,,,N011,digit,5,"['6', '7', '8', '9']","['1', '2', '3', '4']",1,2023.2.3,harveydigits,2.1,[],8,0.75,
0,pause,0.4,None,None,None,0,253,253,253,,,,,,,,,,,,N011,digit,5,"['6', '7', '8', '9']","['1', '2', '3', '4']",1,2023.2.3,harveydigits,2.1,[],8,0.75,
1,digit,0.3,['dot'],['big_1'],black,0,254,254,254,,,91.30021405220032,91.00793409347534,91.30791592597961,"[[-0.191228124079975, 0.006251853368030413]]",['DejaVu Sans'],[0.9],,,,N011,digit,5,"['6', '7', '8', '9']","['1', '2', '3', '4']",1,2023.2.3,harveydigits,2.1,[],8,0.75,
0,pause,0.4,None,None,None,0,255,255,255,,,,,,,,,,,,N011,digit,5,"['6', '7', '8', '9']","['1', '2', '3', '4']",1,2023.2.3,harveydigits,2.1,[],8,0.75,
1,digit,0.3,['dot'],['big_1'],black,0,256,256,256,,,92.00022792816162,91.70791506767273,92.0079300403595,"[[0.07161503566690983, 0.04689100641363855]]",['DejaVu Sans'],[0.9],,,,N011,digit,5,"['6', '7', '8', '9']","['1', '2', '3', '4']",1,2023.2.3,harveydigits,2.1,[],8,0.75,
0,pause,0.4,None,None,None,0,257,257,257,,,,,,,,,,,,N011,digit,5,"['6', '7', '8', '9']","['1', '2', '3', '4']",1,2023.2.3,harveydigits,2.1,[],8,0.75,
1,digit,0.3,['dot'],['big_1'],black,0,258,258,258,,,92.70022988319397,92.40789103507996,92.70788788795471,"[[-0.08206399816522425, 0.10817321828448925]]",['DejaVu Sans'],[0.9],,,,N011,digit,5,"['6', '7', '8', '9']","['1', '2', '3', '4']",1,2023.2.3,harveydigits,2.1,[],8,0.75,
0,pause,0.4,None,None,None,0,259,259,259,,,,,,,,,,,,N011,digit,5,"['6', '7', '8', '9']","['1', '2', '3', '4']",1,2023.2.3,harveydigits,2.1,[],8,0.75,
1,digit,0.3,['dot'],['big_1'],black,0,260,260,260,,,93.400230884552,93.10788702964783,93.40799903869629,"[[0.0897283632753639, 0.15771112727080105]]",['DejaVu Sans'],[0.9],,,,N011,digit,5,"['6', '7', '8', '9']","['1', '2', '3', '4']",1,2023.2.3,harveydigits,2.1,[],8,0.75,
0,pause,0.4,None,None,None,0,261,261,261,,,,,,,,,,,,N011,digit,5,"['6', '7', '8', '9']","['1', '2', '3', '4']",1,2023.2.3,harveydigits,2.1,[],8,0.75,
1,digit,0.3,['dot'],['big_1'],black,0,262,262,262,,,94.10021305084229,93.80786991119385,94.1078588962555,"[[-0.1679086243916761, 0.06960864544796465]]",['DejaVu Sans'],[0.9],,,,N011,digit,5,"['6', '7', '8', '9']","['1', '2', '3', '4']",1,2023.2.3,harveydigits,2.1,[],8,0.75,
0,pause,0.4,None,None,None,0,263,263,263,,,,,,,,,,,,N011,digit,5,"['6', '7', '8', '9']","['1', '2', '3', '4']",1,2023.2.3,harveydigits,2.1,[],8,0.75,
20,digit,0.3,['dot'],['big_1'],black,0,264,264,264,,,94.80021691322327,94.50784611701965,94.8079719543457,"[[-0.111651987633665, -0.06268899686053189]]",['DejaVu Sans'],[0.9],,,,N011,digit,5,"['6', '7', '8', '9']","['1', '2', '3', '4']",1,2023.2.3,harveydigits,2.1,[],8,0.75,
0,pause,0.4,None,None,None,0,265,265,265,,,,,,,,,,,,N011,digit,5,"['6', '7', '8', '9']","['1', '2', '3', '4']",1,2023.2.3,harveydigits,2.1,[],8,0.75,
20,digit,0.3,['dot'],['big_1'],black,0,266,266,266,,,95.5002338886261,95.20781803131104,95.50779795646667,"[[0.17843792869764966, 0.06358033623579466]]",['DejaVu Sans'],[0.9],,,,N011,digit,5,"['6', '7', '8', '9']","['1', '2', '3', '4']",1,2023.2.3,harveydigits,2.1,[],8,0.75,
0,pause,0.4,None,None,None,0,267,267,267,,,,,,,,,,,,N011,digit,5,"['6', '7', '8', '9']","['1', '2', '3', '4']",1,2023.2.3,harveydigits,2.1,[],8,0.75,
20,digit,0.3,['dot'],['big_1'],black,0,268,268,268,,,96.20022106170654,95.90783596038818,96.20781898498535,"[[-0.0994656497712138, 0.021728096507226707]]",['DejaVu Sans'],[0.9],,,,N011,digit,5,"['6', '7', '8', '9']","['1', '2', '3', '4']",1,2023.2.3,harveydigits,2.1,[],8,0.75,
0,pause,0.4,None,None,None,0,269,269,269,,,,,,,,,,,,N011,digit,5,"['6', '7', '8', '9']","['1', '2', '3', '4']",1,2023.2.3,harveydigits,2.1,[],8,0.75,
20,digit,0.3,['dot'],['big_1'],black,0,270,270,270,,,96.90023899078369,96.60781002044678,96.90776801109314,"[[0.19458888092365953, 0.017902251922670503]]",['DejaVu Sans'],[0.9],,,,N011,digit,5,"['6', '7', '8', '9']","['1', '2', '3', '4']",1,2023.2.3,harveydigits,2.1,[],8,0.75,
0,pause,0.4,None,None,None,0,271,271,271,,,,,,,,,,,,N011,digit,5,"['6', '7', '8', '9']","['1', '2', '3', '4']",1,2023.2.3,harveydigits,2.1,[],8,0.75,
20,digit,0.3,['dot'],['big_1'],black,0,272,272,272,,,97.60023093223572,97.30774807929993,97.60772705078125,"[[0.007647987959694319, 0.16334864392312956]]",['DejaVu Sans'],[0.9],,,,N011,digit,5,"['6', '7', '8', '9']","['1', '2', '3', '4']",1,2023.2.3,harveydigits,2.1,[],8,0.75,
0,pause,0.4,None,None,None,0,273,273,273,,,,,,,,,,,,N011,digit,5,"['6', '7', '8', '9']","['1', '2', '3', '4']",1,2023.2.3,harveydigits,2.1,[],8,0.75,
20,digit,0.3,['dot'],['big_1'],black,0,274,274,274,,,98.30021595954895,98.00773501396179,98.30974388122559,"[[0.07255541344869423, -0.07851008645586051]]",['DejaVu Sans'],[0.9],,,,N011,digit,5,"['6', '7', '8', '9']","['1', '2', '3', '4']",1,2023.2.3,harveydigits,2.1,[],8,0.75,
0,pause,0.4,None,None,None,0,275,275,275,,,,,,,,,,,,N011,digit,5,"['6', '7', '8', '9']","['1', '2', '3', '4']",1,2023.2.3,harveydigits,2.1,[],8,0.75,
20,digit,0.3,['dot'],['big_1'],white,0,276,276,276,,,99.00021505355835,98.70781993865967,99.00777506828308,"[[-0.10763019041627703, 0.06715062708052458]]",['DejaVu Sans'],[0.9],,,,N011,digit,5,"['6', '7', '8', '9']","['1', '2', '3', '4']",1,2023.2.3,harveydigits,2.1,[],8,0.75,
0,pause,0.4,None,None,None,0,277,277,277,,,,,,,,,,,,N011,digit,5,"['6', '7', '8', '9']","['1', '2', '3', '4']",1,2023.2.3,harveydigits,2.1,[],8,0.75,
20,digit,0.3,['dot'],['big_1'],white,0,278,278,278,,,99.70023107528687,99.40770411491394,99.70769095420837,"[[-0.09683584527330796, -0.03935796406101061]]",['DejaVu Sans'],[0.9],,,,N011,digit,5,"['6', '7', '8', '9']","['1', '2', '3', '4']",1,2023.2.3,harveydigits,2.1,[],8,0.75,
0,pause,0.4,None,None,None,0,279,279,279,,,,,,,,,,,,N011,digit,5,"['6', '7', '8', '9']","['1', '2', '3', '4']",1,2023.2.3,harveydigits,2.1,[],8,0.75,
20,digit,0.3,['dot'],['big_1'],white,0,280,280,280,,,100.40024089813232,100.10769605636597,100.40764808654785,"[[0.08951752236360375, 0.09635367082270743]]",['DejaVu Sans'],[0.9],,,,N011,digit,5,"['6', '7', '8', '9']","['1', '2', '3', '4']",1,2023.2.3,harveydigits,2.1,[],8,0.75,
0,pause,0.4,None,None,None,0,281,281,281,,,,,,,,,,,,N011,digit,5,"['6', '7', '8', '9']","['1', '2', '3', '4']",1,2023.2.3,harveydigits,2.1,[],8,0.75,
20,digit,0.3,['dot'],['big_1'],white,0,282,282,282,,,101.10022401809692,100.80768895149231,101.10780191421509,"[[0.17862514914820524, 0.058422563114348305]]",['DejaVu Sans'],[0.9],,,,N011,digit,5,"['6', '7', '8', '9']","['1', '2', '3', '4']",1,2023.2.3,harveydigits,2.1,[],8,0.75,
0,pause,0.4,None,None,None,0,283,283,283,,,,,,,,,,,,N011,digit,5,"['6', '7', '8', '9']","['1', '2', '3', '4']",1,2023.2.3,harveydigits,2.1,[],8,0.75,
20,digit,0.3,['dot'],['big_1'],white,0,284,284,284,,,101.80021810531616,101.50764489173889,101.8076479434967,"[[-0.15331042740344664, -0.08296932650933998]]",['DejaVu Sans'],[0.9],,,,N011,digit,5,"['6', '7', '8', '9']","['1', '2', '3', '4']",1,2023.2.3,harveydigits,2.1,[],8,0.75,
0,pause,0.4,None,None,None,0,285,285,285,,,,,,,,,,,,N011,digit,5,"['6', '7', '8', '9']","['1', '2', '3', '4']",1,2023.2.3,harveydigits,2.1,[],8,0.75,
20,digit,0.3,['dot'],['big_1'],white,0,286,286,286,,,102.50021195411682,102.20763301849365,102.50766205787659,"[[0.11300377088400657, -0.006251160774929543]]",['DejaVu Sans'],[0.9],,,,N011,digit,5,"['6', '7', '8', '9']","['1', '2', '3', '4']",1,2023.2.3,harveydigits,2.1,[],8,0.75,
0,pause,0.4,None,None,None,0,287,287,287,,,,,,,,,,,,N011,digit,5,"['6', '7', '8', '9']","['1', '2', '3', '4']",1,2023.2.3,harveydigits,2.1,[],8,0.75,
20,digit,0.3,['dot'],['big_1'],black,0,288,288,288,,,103.20024108886719,102.90768098831177,103.20762491226196,"[[0.09322397843144561, 0.037240238270454085]]",['DejaVu Sans'],[0.9],,,,N011,digit,5,"['6', '7', '8', '9']","['1', '2', '3', '4']",1,2023.2.3,harveydigits,2.1,[],8,0.75,
0,pause,0.4,None,None,None,0,289,289,289,,,,,,,,,,,,N011,digit,5,"['6', '7', '8', '9']","['1', '2', '3', '4']",1,2023.2.3,harveydigits,2.1,[],8,0.75,
20,digit,0.3,['dot'],['big_1'],black,0,290,290,290,,,103.900230884552,103.60765600204468,103.907644033432,"[[0.01262014342541437, -0.010169569273309004]]",['DejaVu Sans'],[0.9],,,,N011,digit,5,"['6', '7', '8', '9']","['1', '2', '3', '4']",1,2023.2.3,harveydigits,2.1,[],8,0.75,
0,pause,0.4,None,None,None,0,291,291,291,,,,,,,,,,,,N011,digit,5,"['6', '7', '8', '9']","['1', '2', '3', '4']",1,2023.2.3,harveydigits,2.1,[],8,0.75,
20,digit,0.3,['dot'],['big_1'],black,0,292,292,292,,,104.6002368927002,104.30766010284424,104.60765099525452,"[[-0.14887789491046263, 0.016171311193560106]]",['DejaVu Sans'],[0.9],,,,N011,digit,5,"['6', '7', '8', '9']","['1', '2', '3', '4']",1,2023.2.3,harveydigits,2.1,[],8,0.75,
0,pause,0.4,None,None,None,0,293,293,293,,,,,,,,,,,,N011,digit,5,"['6', '7', '8', '9']","['1', '2', '3', '4']",1,2023.2.3,harveydigits,2.1,[],8,0.75,
20,digit,0.3,['dot'],['big_1'],black,0,294,294,294,,,105.30021500587463,105.00756502151489,105.30754399299622,"[[0.08804568764352003, 0.14187008872009357]]",['DejaVu Sans'],[0.9],,,,N011,digit,5,"['6', '7', '8', '9']","['1', '2', '3', '4']",1,2023.2.3,harveydigits,2.1,[],8,0.75,
0,pause,0.4,None,None,None,0,295,295,295,,,,,,,,,,,,N011,digit,5,"['6', '7', '8', '9']","['1', '2', '3', '4']",1,2023.2.3,harveydigits,2.1,[],8,0.75,
20,digit,0.3,['dot'],['big_1'],black,0,296,296,296,,,106.00023698806763,105.70756101608276,106.00757694244385,"[[-0.03910397969807247, 0.1427978404377693]]",['DejaVu Sans'],[0.9],,,,N011,digit,5,"['6', '7', '8', '9']","['1', '2', '3', '4']",1,2023.2.3,harveydigits,2.1,[],8,0.75,
0,pause,0.4,None,None,None,0,297,297,297,,,,,,,,,,,,N011,digit,5,"['6', '7', '8', '9']","['1', '2', '3', '4']",1,2023.2.3,harveydigits,2.1,[],8,0.75,
20,digit,0.3,['dot'],['big_1'],black,0,298,298,298,,,106.70023202896118,106.40751695632935,106.70768809318542,"[[-0.012841379124356317, 0.1581055910038556]]",['DejaVu Sans'],[0.9],,,,N011,digit,5,"['6', '7', '8', '9']","['1', '2', '3', '4']",1,2023.2.3,harveydigits,2.1,[],8,0.75,
0,pause,0.4,None,None,None,0,299,299,299,,,,,,,,,,,,N011,digit,5,"['6', '7', '8', '9']","['1', '2', '3', '4']",1,2023.2.3,harveydigits,2.1,[],8,0.75,
20,digit,0.3,['dot'],['big_1'],black,0,300,300,300,,,107.4002161026001,107.10751509666443,107.4075219631195,"[[-0.18348964673901902, 0.017364011983009936]]",['DejaVu Sans'],[0.9],,,,N011,digit,5,"['6', '7', '8', '9']","['1', '2', '3', '4']",1,2023.2.3,harveydigits,2.1,[],8,0.75,
0,pause,0.4,None,None,None,0,301,301,301,,,,,,,,,,,,N011,digit,5,"['6', '7', '8', '9']","['1', '2', '3', '4']",1,2023.2.3,harveydigits,2.1,[],8,0.75,
20,digit,0.3,['dot'],['big_1'],black,0,302,302,302,,,108.10023498535156,107.80749607086182,108.10753297805786,"[[0.01608212563839606, 0.07333189531723902]]",['DejaVu Sans'],[0.9],,,,N011,digit,5,"['6', '7', '8', '9']","['1', '2', '3', '4']",1,2023.2.3,harveydigits,2.1,[],8,0.75,
0,pause,0.4,None,None,None,0,303,303,303,,,,,,,,,,,,N011,digit,5,"['6', '7', '8', '9']","['1', '2', '3', '4']",1,2023.2.3,harveydigits,2.1,[],8,0.75,
20,digit,0.3,['dot'],['big_1'],black,0,304,304,304,,,108.80024194717407,108.50748705863953,108.80760908126831,"[[-0.04520719542215329, -0.10775949954349362]]",['DejaVu Sans'],[0.9],,,,N011,digit,5,"['6', '7', '8', '9']","['1', '2', '3', '4']",1,2023.2.3,harveydigits,2.1,[],8,0.75,
0,pause,0.4,None,None,None,0,305,305,305,,,,,,,,,,,,N011,digit,5,"['6', '7', '8', '9']","['1', '2', '3', '4']",1,2023.2.3,harveydigits,2.1,[],8,0.75,
20,digit,0.3,['dot'],['big_1'],black,0,306,306,306,,,109.50022101402283,109.20744204521179,109.5074679851532,"[[-0.14949008304941802, -0.02346293188298834]]",['DejaVu Sans'],[0.9],,,,N011,digit,5,"['6', '7', '8', '9']","['1', '2', '3', '4']",1,2023.2.3,harveydigits,2.1,[],8,0.75,
0,pause,0.4,None,None,None,0,307,307,307,,,,,,,,,,,,N011,digit,5,"['6', '7', '8', '9']","['1', '2', '3', '4']",1,2023.2.3,harveydigits,2.1,[],8,0.75,
20,digit,0.3,['dot'],['big_1'],black,0,308,308,308,,,110.20023798942566,109.90742802619934,110.20741200447083,"[[0.10722023233801617, -0.16816266375499775]]",['DejaVu Sans'],[0.9],,,,N011,digit,5,"['6', '7', '8', '9']","['1', '2', '3', '4']",1,2023.2.3,harveydigits,2.1,[],8,0.75,
0,pause,0.4,None,None,None,0,309,309,309,,,,,,,,,,,,N011,digit,5,"['6', '7', '8', '9']","['1', '2', '3', '4']",1,2023.2.3,harveydigits,2.1,[],8,0.75,
20,digit,0.3,['dot'],['big_1'],black,0,310,310,310,,,110.9002149105072,110.60740303993225,110.90744090080261,"[[0.09621335166729786, -0.021477604391460847]]",['DejaVu Sans'],[0.9],,,,N011,digit,5,"['6', '7', '8', '9']","['1', '2', '3', '4']",1,2023.2.3,harveydigits,2.1,[],8,0.75,
0,pause,0.4,None,None,None,0,311,311,311,,,,,,,,,,,,N011,digit,5,"['6', '7', '8', '9']","['1', '2', '3', '4']",1,2023.2.3,harveydigits,2.1,[],8,0.75,
1,digit,0.3,['dot'],['small_1'],white,0,312,312,312,,,111.60024499893188,111.3073799610138,111.60737800598145,"[[-0.11324358202107193, -0.13654553380072826]]",['DejaVu Sans'],[0.6],,,,N011,digit,5,"['6', '7', '8', '9']","['1', '2', '3', '4']",1,2023.2.3,harveydigits,2.1,[],8,0.75,
0,pause,0.4,None,None,None,0,313,313,313,,,,,,,,,,,,N011,digit,5,"['6', '7', '8', '9']","['1', '2', '3', '4']",1,2023.2.3,harveydigits,2.1,[],8,0.75,
1,digit,0.3,['dot'],['small_1'],white,0,314,314,314,,,112.30026197433472,112.0073618888855,112.30727100372314,"[[-0.028036516108594256, 0.24984867378201353]]",['DejaVu Sans'],[0.6],left,odd,112.08633685112,N011,digit,5,"['6', '7', '8', '9']","['1', '2', '3', '4']",1,2023.2.3,harveydigits,2.1,[],8,0.75,
0,pause,0.4,None,None,None,0,315,315,315,,,,,,,,,,,,N011,digit,5,"['6', '7', '8', '9']","['1', '2', '3', '4']",1,2023.2.3,harveydigits,2.1,[],8,0.75,
1,digit,0.3,['dot'],['small_1'],white,0,316,316,316,,,113.00022101402283,112.7073769569397,113.00750088691711,"[[-0.021712577732909855, -0.2066604864654169]]",['DejaVu Sans'],[0.6],,,,N011,digit,5,"['6', '7', '8', '9']","['1', '2', '3', '4']",1,2023.2.3,harveydigits,2.1,[],8,0.75,
0,pause,0.4,None,None,None,0,317,317,317,,,,,,,,,,,,N011,digit,5,"['6', '7', '8', '9']","['1', '2', '3', '4']",1,2023.2.3,harveydigits,2.1,[],8,0.75,
1,digit,0.3,['dot'],['small_1'],white,0,318,318,318,,,113.70022392272949,113.40735411643982,113.70734691619873,"[[0.15520407001284675, 0.010730376379555984]]",['DejaVu Sans'],[0.6],,,,N011,digit,5,"['6', '7', '8', '9']","['1', '2', '3', '4']",1,2023.2.3,harveydigits,2.1,[],8,0.75,
0,pause,0.4,None,None,None,0,319,319,319,,,,,,,,,,,,N011,digit,5,"['6', '7', '8', '9']","['1', '2', '3', '4']",1,2023.2.3,harveydigits,2.1,[],8,0.75,
1,digit,0.3,['dot'],['small_1'],white,0,320,320,320,,,114.4002161026001,114.10732507705688,114.4073588848114,"[[-0.13193363802662542, 0.10827985393727585]]",['DejaVu Sans'],[0.6],,,,N011,digit,5,"['6', '7', '8', '9']","['1', '2', '3', '4']",1,2023.2.3,harveydigits,2.1,[],8,0.75,
0,pause,0.4,None,None,None,0,321,321,321,,,,,,,,,,,,N011,digit,5,"['6', '7', '8', '9']","['1', '2', '3', '4']",1,2023.2.3,harveydigits,2.1,[],8,0.75,
1,digit,0.3,['dot'],['small_1'],white,0,322,322,322,,,115.10022497177124,114.8074541091919,115.10727405548096,"[[-0.1972283359656925, 0.2884908544572538]]",['DejaVu Sans'],[0.6],,,,N011,digit,5,"['6', '7', '8', '9']","['1', '2', '3', '4']",1,2023.2.3,harveydigits,2.1,[],8,0.75,
0,pause,0.4,None,None,None,0,323,323,323,,,,,,,,,,,,N011,digit,5,"['6', '7', '8', '9']","['1', '2', '3', '4']",1,2023.2.3,harveydigits,2.1,[],8,0.75,
2,digit,0.3,['dot'],['small_1'],black,0,324,324,324,,,115.80023503303528,115.50727391242981,115.82398104667664,"[[0.1283032035394353, -0.06361148250162507]]",['DejaVu Sans'],[0.6],,,,N011,digit,5,"['6', '7', '8', '9']","['1', '2', '3', '4']",1,2023.2.3,harveydigits,2.1,[],8,0.75,
0,pause,0.4,None,None,None,0,325,325,325,,,,,,,,,,,,N011,digit,5,"['6', '7', '8', '9']","['1', '2', '3', '4']",1,2023.2.3,harveydigits,2.1,[],8,0.75,
2,digit,0.3,['dot'],['small_1'],black,0,326,326,326,,,116.50024890899658,116.20725798606873,116.5239200592041,"[[-0.18601743141910584, -0.13428776970851344]]",['DejaVu Sans'],[0.6],,,,N011,digit,5,"['6', '7', '8', '9']","['1', '2', '3', '4']",1,2023.2.3,harveydigits,2.1,[],8,0.75,
0,pause,0.4,None,None,None,0,327,327,327,,,,,,,,,,,,N011,digit,5,"['6', '7', '8', '9']","['1', '2', '3', '4']",1,2023.2.3,harveydigits,2.1,[],8,0.75,
2,digit,0.3,['dot'],['small_1'],black,0,328,328,328,,,117.20022106170654,116.90724205970764,117.20725989341736,"[[-0.06197799243182189, 0.09054526067766067]]",['DejaVu Sans'],[0.6],,,,N011,digit,5,"['6', '7', '8', '9']","['1', '2', '3', '4']",1,2023.2.3,harveydigits,2.1,[],8,0.75,
0,pause,0.4,None,None,None,0,329,329,329,,,,,,,,,,,,N011,digit,5,"['6', '7', '8', '9']","['1', '2', '3', '4']",1,2023.2.3,harveydigits,2.1,[],8,0.75,
2,digit,0.3,['dot'],['small_1'],black,0,330,330,330,,,117.90024304389954,117.60722398757935,117.90714693069458,"[[-0.11837658829876319, 0.15870766272029607]]",['DejaVu Sans'],[0.6],,,,N011,digit,5,"['6', '7', '8', '9']","['1', '2', '3', '4']",1,2023.2.3,harveydigits,2.1,[],8,0.75,
0,pause,0.4,None,None,None,0,331,331,331,,,,,,,,,,,,N011,digit,5,"['6', '7', '8', '9']","['1', '2', '3', '4']",1,2023.2.3,harveydigits,2.1,[],8,0.75,
2,digit,0.3,['dot'],['small_1'],black,0,332,332,332,,,118.60022211074829,118.30719804763794,118.60711002349854,"[[0.13420626744430852, 0.19245630443338035]]",['DejaVu Sans'],[0.6],,,,N011,digit,5,"['6', '7', '8', '9']","['1', '2', '3', '4']",1,2023.2.3,harveydigits,2.1,[],8,0.75,
0,pause,0.4,None,None,None,0,333,333,333,,,,,,,,,,,,N011,digit,5,"['6', '7', '8', '9']","['1', '2', '3', '4']",1,2023.2.3,harveydigits,2.1,[],8,0.75,
2,digit,0.3,['dot'],['small_1'],black,0,334,334,334,,,119.30022501945496,119.00720310211182,119.3071060180664,"[[0.06252982557909226, -0.29268586477258146]]",['DejaVu Sans'],[0.6],,,,N011,digit,5,"['6', '7', '8', '9']","['1', '2', '3', '4']",1,2023.2.3,harveydigits,2.1,[],8,0.75,
0,pause,0.4,None,None,None,0,335,335,335,,,,,,,,,,,,N011,digit,5,"['6', '7', '8', '9']","['1', '2', '3', '4']",1,2023.2.3,harveydigits,2.1,[],8,0.75,
3,digit,0.3,['dot'],['small_1'],black,0,336,336,336,,,120.00023698806763,119.70735502243042,120.00735402107239,"[[-0.17861993712577323, -0.0422099388756933]]",['DejaVu Sans'],[0.6],,,,N011,digit,5,"['6', '7', '8', '9']","['1', '2', '3', '4']",1,2023.2.3,harveydigits,2.1,[],8,0.75,
0,pause,0.4,None,None,None,0,337,337,337,,,,,,,,,,,,N011,digit,5,"['6', '7', '8', '9']","['1', '2', '3', '4']",1,2023.2.3,harveydigits,2.1,[],8,0.75,
3,digit,0.3,['dot'],['small_1'],black,0,338,338,338,,,120.70024704933167,120.40734004974365,120.70719194412231,"[[-0.15353973517331954, -0.2753209954350537]]",['DejaVu Sans'],[0.6],,,,N011,digit,5,"['6', '7', '8', '9']","['1', '2', '3', '4']",1,2023.2.3,harveydigits,2.1,[],8,0.75,
0,pause,0.4,None,None,None,0,339,339,339,,,,,,,,,,,,N011,digit,5,"['6', '7', '8', '9']","['1', '2', '3', '4']",1,2023.2.3,harveydigits,2.1,[],8,0.75,
3,digit,0.3,['dot'],['small_1'],black,0,340,340,340,,,121.40023803710938,121.10720205307007,121.40705895423889,"[[0.27076150484232353, -0.17642807876033434]]",['DejaVu Sans'],[0.6],,,,N011,digit,5,"['6', '7', '8', '9']","['1', '2', '3', '4']",1,2023.2.3,harveydigits,2.1,[],8,0.75,
0,pause,0.4,None,None,None,0,341,341,341,,,,,,,,,,,,N011,digit,5,"['6', '7', '8', '9']","['1', '2', '3', '4']",1,2023.2.3,harveydigits,2.1,[],8,0.75,
3,digit,0.3,['dot'],['small_1'],black,0,342,342,342,,,122.10024309158325,121.8072760105133,122.12376093864441,"[[-0.3064709961880187, -0.009160987909159618]]",['DejaVu Sans'],[0.6],,,,N011,digit,5,"['6', '7', '8', '9']","['1', '2', '3', '4']",1,2023.2.3,harveydigits,2.1,[],8,0.75,
0,pause,0.4,None,None,None,0,343,343,343,,,,,,,,,,,,N011,digit,5,"['6', '7', '8', '9']","['1', '2', '3', '4']",1,2023.2.3,harveydigits,2.1,[],8,0.75,
3,digit,0.3,['dot'],['small_1'],black,0,344,344,344,,,122.80022597312927,122.50709795951843,122.82374906539917,"[[-0.20633335311134698, -0.27671141454115783]]",['DejaVu Sans'],[0.6],,,,N011,digit,5,"['6', '7', '8', '9']","['1', '2', '3', '4']",1,2023.2.3,harveydigits,2.1,[],8,0.75,
0,pause,0.4,None,None,None,0,345,345,345,,,,,,,,,,,,N011,digit,5,"['6', '7', '8', '9']","['1', '2', '3', '4']",1,2023.2.3,harveydigits,2.1,[],8,0.75,
3,digit,0.3,['dot'],['small_1'],black,0,346,346,346,,,123.50022101402283,123.20707392692566,123.50935006141663,"[[0.2634973020835817, 0.04407932713178497]]",['DejaVu Sans'],[0.6],,,,N011,digit,5,"['6', '7', '8', '9']","['1', '2', '3', '4']",1,2023.2.3,harveydigits,2.1,[],8,0.75,
0,pause,0.4,None,None,None,0,347,347,347,,,,,,,,,,,,N011,digit,5,"['6', '7', '8', '9']","['1', '2', '3', '4']",1,2023.2.3,harveydigits,2.1,[],8,0.75,
4,digit,0.3,['dot'],['small_1'],white,0,348,348,348,,,124.20024991035461,123.9070520401001,124.2090470790863,"[[0.10940302035968891, 0.06402157747167592]]",['DejaVu Sans'],[0.6],,,,N011,digit,5,"['6', '7', '8', '9']","['1', '2', '3', '4']",1,2023.2.3,harveydigits,2.1,[],8,0.75,
0,pause,0.4,None,None,None,0,349,349,349,,,,,,,,,1,,124.43368601799011,N011,digit,5,"['6', '7', '8', '9']","['1', '2', '3', '4']",1,2023.2.3,harveydigits,2.1,[],8,0.75,
4,digit,0.3,['dot'],['small_1'],white,0,350,350,350,,,124.90023803710938,124.60703802108765,124.92370200157166,"[[-0.12448909727553564, 0.13856608008644916]]",['DejaVu Sans'],[0.6],,,,N011,digit,5,"['6', '7', '8', '9']","['1', '2', '3', '4']",1,2023.2.3,harveydigits,2.1,[],8,0.75,
0,pause,0.4,None,None,None,0,351,351,351,,,,,,,,,,,,N011,digit,5,"['6', '7', '8', '9']","['1', '2', '3', '4']",1,2023.2.3,harveydigits,2.1,[],8,0.75,
4,digit,0.3,['dot'],['small_1'],white,0,352,352,352,,,125.60023498535156,125.30702090263367,125.60711908340454,"[[0.32348922744480935, -0.10476676640762933]]",['DejaVu Sans'],[0.6],,,,N011,digit,5,"['6', '7', '8', '9']","['1', '2', '3', '4']",1,2023.2.3,harveydigits,2.1,[],8,0.75,
0,pause,0.4,None,None,None,0,353,353,353,,,,,,,,,,,,N011,digit,5,"['6', '7', '8', '9']","['1', '2', '3', '4']",1,2023.2.3,harveydigits,2.1,[],8,0.75,
4,digit,0.3,['dot'],['small_1'],white,0,354,354,354,,,126.30022406578064,126.007169008255,126.30707788467407,"[[-0.29407805888147587, 0.07398678795027297]]",['DejaVu Sans'],[0.6],,,,N011,digit,5,"['6', '7', '8', '9']","['1', '2', '3', '4']",1,2023.2.3,harveydigits,2.1,[],8,0.75,
0,pause,0.4,None,None,None,0,355,355,355,,,,,,,,,,,,N011,digit,5,"['6', '7', '8', '9']","['1', '2', '3', '4']",1,2023.2.3,harveydigits,2.1,[],8,0.75,
4,digit,0.3,['dot'],['small_1'],white,0,356,356,356,,,127.00023603439331,126.7070209980011,127.02389907836914,"[[0.317368684493352, 0.08196030830805273]]",['DejaVu Sans'],[0.6],,,,N011,digit,5,"['6', '7', '8', '9']","['1', '2', '3', '4']",1,2023.2.3,harveydigits,2.1,[],8,0.75,
0,pause,0.4,None,None,None,0,357,357,357,,,,,,,,,,,,N011,digit,5,"['6', '7', '8', '9']","['1', '2', '3', '4']",1,2023.2.3,harveydigits,2.1,[],8,0.75,
4,digit,0.3,['dot'],['small_1'],white,0,358,358,358,,,127.70023107528687,127.40699601173401,127.70707106590271,"[[0.08754774952558914, 0.27574016887525604]]",['DejaVu Sans'],[0.6],,,,N011,digit,5,"['6', '7', '8', '9']","['1', '2', '3', '4']",1,2023.2.3,harveydigits,2.1,[],8,0.75,
0,pause,0.4,None,None,None,0,359,359,359,,,,,,,,,,,,N011,digit,5,"['6', '7', '8', '9']","['1', '2', '3', '4']",1,2023.2.3,harveydigits,2.1,[],8,0.75,
5,digit,0.3,['dot'],['small_1'],black,0,360,360,360,,,128.40023589134216,128.1069769859314,128.42363500595093,"[[-0.030014540437090398, -0.14508136223496523]]",['DejaVu Sans'],[0.6],,,,N011,digit,5,"['6', '7', '8', '9']","['1', '2', '3', '4']",1,2023.2.3,harveydigits,2.1,[],8,0.75,
0,pause,0.4,None,None,None,0,361,361,361,,,,,,,,,,,,N011,digit,5,"['6', '7', '8', '9']","['1', '2', '3', '4']",1,2023.2.3,harveydigits,2.1,[],8,0.75,
5,digit,0.3,['dot'],['small_1'],black,0,362,362,362,,,129.10024905204773,128.80692505836487,129.12365889549255,"[[0.3415354296801405, 0.05689231774750547]]",['DejaVu Sans'],[0.6],,,,N011,digit,5,"['6', '7', '8', '9']","['1', '2', '3', '4']",1,2023.2.3,harveydigits,2.1,[],8,0.75,
0,pause,0.4,None,None,None,0,363,363,363,,,,,,,,,,,,N011,digit,5,"['6', '7', '8', '9']","['1', '2', '3', '4']",1,2023.2.3,harveydigits,2.1,[],8,0.75,
5,digit,0.3,['dot'],['small_1'],black,0,364,364,364,,,129.8002200126648,129.50696992874146,129.8235640525818,"[[-0.03217169439633527, -0.09063243983811298]]",['DejaVu Sans'],[0.6],,,,N011,digit,5,"['6', '7', '8', '9']","['1', '2', '3', '4']",1,2023.2.3,harveydigits,2.1,[],8,0.75,
0,pause,0.4,None,None,None,0,365,365,365,,,,,,,,,,,,N011,digit,5,"['6', '7', '8', '9']","['1', '2', '3', '4']",1,2023.2.3,harveydigits,2.1,[],8,0.75,
5,digit,0.3,['dot'],['small_1'],black,0,366,366,366,,,130.50022506713867,130.20692491531372,130.52357411384583,"[[-0.3269219033099522, -0.08336154817649369]]",['DejaVu Sans'],[0.6],,,,N011,digit,5,"['6', '7', '8', '9']","['1', '2', '3', '4']",1,2023.2.3,harveydigits,2.1,[],8,0.75,
0,pause,0.4,None,None,None,0,367,367,367,,,,,,,,,,,,N011,digit,5,"['6', '7', '8', '9']","['1', '2', '3', '4']",1,2023.2.3,harveydigits,2.1,[],8,0.75,
5,digit,0.3,['dot'],['small_1'],black,0,368,368,368,,,131.20023393630981,130.90687489509583,131.2235300540924,"[[0.20241877277204312, -0.04221332921171614]]",['DejaVu Sans'],[0.6],,,,N011,digit,5,"['6', '7', '8', '9']","['1', '2', '3', '4']",1,2023.2.3,harveydigits,2.1,[],8,0.75,
0,pause,0.4,None,None,None,0,369,369,369,,,,,,,,,,,,N011,digit,5,"['6', '7', '8', '9']","['1', '2', '3', '4']",1,2023.2.3,harveydigits,2.1,[],8,0.75,
5,digit,0.3,['dot'],['small_1'],black,0,370,370,370,,,131.90021896362305,131.60685992240906,131.92350888252258,"[[0.1833068069638275, 0.010886998631996436]]",['DejaVu Sans'],[0.6],,,,N011,digit,5,"['6', '7', '8', '9']","['1', '2', '3', '4']",1,2023.2.3,harveydigits,2.1,[],8,0.75,
0,pause,0.4,None,None,None,0,371,371,371,,,,,,,,,,,,N011,digit,5,"['6', '7', '8', '9']","['1', '2', '3', '4']",1,2023.2.3,harveydigits,2.1,[],8,0.75,
6,digit,0.3,['dot'],['small_1'],black,0,372,372,372,,,132.60023403167725,132.30683207511902,132.62348198890686,"[[0.12031823082761195, 0.023995211757573964]]",['DejaVu Sans'],[0.6],,,,N011,digit,5,"['6', '7', '8', '9']","['1', '2', '3', '4']",1,2023.2.3,harveydigits,2.1,[],8,0.75,
0,pause,0.4,None,None,None,0,373,373,373,,,,,,,,,,,,N011,digit,5,"['6', '7', '8', '9']","['1', '2', '3', '4']",1,2023.2.3,harveydigits,2.1,[],8,0.75,
6,digit,0.3,['dot'],['small_1'],black,0,374,374,374,,,133.30024003982544,133.00683307647705,133.32365107536316,"[[0.1972914591975241, -0.2480907162884452]]",['DejaVu Sans'],[0.6],,,,N011,digit,5,"['6', '7', '8', '9']","['1', '2', '3', '4']",1,2023.2.3,harveydigits,2.1,[],8,0.75,
0,pause,0.4,None,None,None,0,375,375,375,,,,,,,,,,,,N011,digit,5,"['6', '7', '8', '9']","['1', '2', '3', '4']",1,2023.2.3,harveydigits,2.1,[],8,0.75,
6,digit,0.3,['dot'],['small_1'],black,0,376,376,376,,,134.00024604797363,133.70681405067444,134.02344608306885,"[[0.21027207950375115, 0.14848463103652715]]",['DejaVu Sans'],[0.6],,,,N011,digit,5,"['6', '7', '8', '9']","['1', '2', '3', '4']",1,2023.2.3,harveydigits,2.1,[],8,0.75,
0,pause,0.4,None,None,None,0,377,377,377,,,,,,,,,,,,N011,digit,5,"['6', '7', '8', '9']","['1', '2', '3', '4']",1,2023.2.3,harveydigits,2.1,[],8,0.75,
6,digit,0.3,['dot'],['small_1'],black,0,378,378,378,,,134.70024704933167,134.40682196617126,134.72345089912415,"[[-0.2621105702106028, 0.020188408525841472]]",['DejaVu Sans'],[0.6],,,,N011,digit,5,"['6', '7', '8', '9']","['1', '2', '3', '4']",1,2023.2.3,harveydigits,2.1,[],8,0.75,
0,pause,0.4,None,None,None,0,379,379,379,,,,,,,,,,,,N011,digit,5,"['6', '7', '8', '9']","['1', '2', '3', '4']",1,2023.2.3,harveydigits,2.1,[],8,0.75,
6,digit,0.3,['dot'],['small_1'],black,0,380,380,380,,,135.40023589134216,135.10680508613586,135.423593044281,"[[-0.027165642387577404, 0.3013732504162139]]",['DejaVu Sans'],[0.6],,,,N011,digit,5,"['6', '7', '8', '9']","['1', '2', '3', '4']",1,2023.2.3,harveydigits,2.1,[],8,0.75,
0,pause,0.4,None,None,None,0,381,381,381,,,,,,,,,,,,N011,digit,5,"['6', '7', '8', '9']","['1', '2', '3', '4']",1,2023.2.3,harveydigits,2.1,[],8,0.75,
6,digit,0.3,['dot'],['small_1'],black,0,382,382,382,,,136.10022592544556,135.80678701400757,136.12343311309814,"[[-0.13265395349495174, 0.1966530530898658]]",['DejaVu Sans'],[0.6],,,,N011,digit,5,"['6', '7', '8', '9']","['1', '2', '3', '4']",1,2023.2.3,harveydigits,2.1,[],8,0.75,
0,pause,0.4,None,None,None,0,383,383,383,,,,,,,,,,,,N011,digit,5,"['6', '7', '8', '9']","['1', '2', '3', '4']",1,2023.2.3,harveydigits,2.1,[],8,0.75,
7,digit,0.3,['dot'],['small_1'],black,0,384,384,384,,,136.8002359867096,136.50677394866943,136.82338190078735,"[[0.20778425338215822, 0.22275103400814267]]",['DejaVu Sans'],[0.6],,,,N011,digit,5,"['6', '7', '8', '9']","['1', '2', '3', '4']",1,2023.2.3,harveydigits,2.1,[],8,0.75,
0,pause,0.4,None,None,None,0,385,385,385,,,,,,,,,,,,N011,digit,5,"['6', '7', '8', '9']","['1', '2', '3', '4']",1,2023.2.3,harveydigits,2.1,[],8,0.75,
7,digit,0.3,['dot'],['small_1'],black,0,386,386,386,,,137.50024795532227,137.20680904388428,137.52344489097595,"[[0.08238126761188747, -0.17909239227704288]]",['DejaVu Sans'],[0.6],,,,N011,digit,5,"['6', '7', '8', '9']","['1', '2', '3', '4']",1,2023.2.3,harveydigits,2.1,[],8,0.75,
0,pause,0.4,None,None,None,0,387,387,387,,,,,,,,,,,,N011,digit,5,"['6', '7', '8', '9']","['1', '2', '3', '4']",1,2023.2.3,harveydigits,2.1,[],8,0.75,
7,digit,0.3,['dot'],['small_1'],black,0,388,388,388,,,138.20022106170654,137.9067509174347,138.22334909439087,"[[-0.12682535065967976, -0.04657611379723248]]",['DejaVu Sans'],[0.6],,,,N011,digit,5,"['6', '7', '8', '9']","['1', '2', '3', '4']",1,2023.2.3,harveydigits,2.1,[],8,0.75,
0,pause,0.4,None,None,None,0,389,389,389,,,,,,,,,,,,N011,digit,5,"['6', '7', '8', '9']","['1', '2', '3', '4']",1,2023.2.3,harveydigits,2.1,[],8,0.75,
7,digit,0.3,['dot'],['small_1'],black,0,390,390,390,,,138.90023589134216,138.60669994354248,138.92334699630737,"[[0.02438291462086295, 0.18597029943275956]]",['DejaVu Sans'],[0.6],,,,N011,digit,5,"['6', '7', '8', '9']","['1', '2', '3', '4']",1,2023.2.3,harveydigits,2.1,[],8,0.75,
0,pause,0.4,None,None,None,0,391,391,391,,,,,,,,,,,,N011,digit,5,"['6', '7', '8', '9']","['1', '2', '3', '4']",1,2023.2.3,harveydigits,2.1,[],8,0.75,
7,digit,0.3,['dot'],['small_1'],black,0,392,392,392,,,139.60025000572205,139.3066680431366,139.62333011627197,"[[0.0712645318356524, -0.23765804682291441]]",['DejaVu Sans'],[0.6],,,,N011,digit,5,"['6', '7', '8', '9']","['1', '2', '3', '4']",1,2023.2.3,harveydigits,2.1,[],8,0.75,
0,pause,0.4,None,None,None,0,393,393,393,,,,,,,,,,,,N011,digit,5,"['6', '7', '8', '9']","['1', '2', '3', '4']",1,2023.2.3,harveydigits,2.1,[],8,0.75,
7,digit,0.3,['dot'],['small_1'],black,0,394,394,394,,,140.30024695396423,140.00672698020935,140.32337093353271,"[[-0.28397592511022096, -0.12958188863569942]]",['DejaVu Sans'],[0.6],,,,N011,digit,5,"['6', '7', '8', '9']","['1', '2', '3', '4']",1,2023.2.3,harveydigits,2.1,[],8,0.75,
0,pause,0.4,None,None,None,0,395,395,395,,,,,,,,,,,,N011,digit,5,"['6', '7', '8', '9']","['1', '2', '3', '4']",1,2023.2.3,harveydigits,2.1,[],8,0.75,
8,digit,0.3,['dot'],['small_1'],black,0,396,396,396,,,141.00023198127747,140.70666694641113,141.02328896522522,"[[0.2576791781656431, -0.12129316080197869]]",['DejaVu Sans'],[0.6],,,,N011,digit,5,"['6', '7', '8', '9']","['1', '2', '3', '4']",1,2023.2.3,harveydigits,2.1,[],8,0.75,
0,pause,0.4,None,None,None,0,397,397,397,,,,,,,,,,,,N011,digit,5,"['6', '7', '8', '9']","['1', '2', '3', '4']",1,2023.2.3,harveydigits,2.1,[],8,0.75,
8,digit,0.3,['dot'],['small_1'],black,0,398,398,398,,,141.70022201538086,141.4065990447998,141.72328400611877,"[[0.10247762620358869, 0.3337317853123394]]",['DejaVu Sans'],[0.6],,,,N011,digit,5,"['6', '7', '8', '9']","['1', '2', '3', '4']",1,2023.2.3,harveydigits,2.1,[],8,0.75,
0,pause,0.4,None,None,None,0,399,399,399,,,,,,,,,,,,N011,digit,5,"['6', '7', '8', '9']","['1', '2', '3', '4']",1,2023.2.3,harveydigits,2.1,[],8,0.75,
8,digit,0.3,['dot'],['small_1'],black,0,400,400,400,,,142.40022206306458,142.10658502578735,142.42324304580688,"[[-0.11523057433306869, 0.16079998972712917]]",['DejaVu Sans'],[0.6],,,,N011,digit,5,"['6', '7', '8', '9']","['1', '2', '3', '4']",1,2023.2.3,harveydigits,2.1,[],8,0.75,
0,pause,0.4,None,None,None,0,401,401,401,,,,,,,,,,,,N011,digit,5,"['6', '7', '8', '9']","['1', '2', '3', '4']",1,2023.2.3,harveydigits,2.1,[],8,0.75,
8,digit,0.3,['dot'],['small_1'],black,0,402,402,402,,,143.10024404525757,142.80656599998474,143.12328600883484,"[[-0.12118908485343274, -0.11190290611142484]]",['DejaVu Sans'],[0.6],,,,N011,digit,5,"['6', '7', '8', '9']","['1', '2', '3', '4']",1,2023.2.3,harveydigits,2.1,[],8,0.75,
0,pause,0.4,None,None,None,0,403,403,403,,,,,,,,,,,,N011,digit,5,"['6', '7', '8', '9']","['1', '2', '3', '4']",1,2023.2.3,harveydigits,2.1,[],8,0.75,
8,digit,0.3,['dot'],['small_1'],black,0,404,404,404,,,143.80024695396423,143.5067310333252,143.82337307929993,"[[-0.10408442277602903, -0.07257289709336662]]",['DejaVu Sans'],[0.6],,,,N011,digit,5,"['6', '7', '8', '9']","['1', '2', '3', '4']",1,2023.2.3,harveydigits,2.1,[],8,0.75,
0,pause,0.4,None,None,None,0,405,405,405,,,,,,,,,,,,N011,digit,5,"['6', '7', '8', '9']","['1', '2', '3', '4']",1,2023.2.3,harveydigits,2.1,[],8,0.75,
8,digit,0.3,['dot'],['small_1'],black,0,406,406,406,,,144.500226020813,144.2065989971161,144.5232470035553,"[[0.3047593720745688, -0.07632766872204276]]",['DejaVu Sans'],[0.6],,,,N011,digit,5,"['6', '7', '8', '9']","['1', '2', '3', '4']",1,2023.2.3,harveydigits,2.1,[],8,0.75,
0,pause,0.4,None,None,None,0,407,407,407,,,,,,,,,,,,N011,digit,5,"['6', '7', '8', '9']","['1', '2', '3', '4']",1,2023.2.3,harveydigits,2.1,[],8,0.75,
9,digit,0.3,['dot'],['small_1'],black,0,408,408,408,,,145.2002260684967,144.9065489768982,145.22320699691772,"[[0.04751674298125641, -0.13147517328002292]]",['DejaVu Sans'],[0.6],,,,N011,digit,5,"['6', '7', '8', '9']","['1', '2', '3', '4']",1,2023.2.3,harveydigits,2.1,[],8,0.75,
0,pause,0.4,None,None,None,0,409,409,409,,,,,,,,,,,,N011,digit,5,"['6', '7', '8', '9']","['1', '2', '3', '4']",1,2023.2.3,harveydigits,2.1,[],8,0.75,
9,digit,0.3,['dot'],['small_1'],black,0,410,410,410,,,145.90024399757385,145.6065390110016,145.9231789112091,"[[-0.1552765561694916, -0.17997896678752875]]",['DejaVu Sans'],[0.6],,,,N011,digit,5,"['6', '7', '8', '9']","['1', '2', '3', '4']",1,2023.2.3,harveydigits,2.1,[],8,0.75,
0,pause,0.4,None,None,None,0,411,411,411,,,,,,,,,,,,N011,digit,5,"['6', '7', '8', '9']","['1', '2', '3', '4']",1,2023.2.3,harveydigits,2.1,[],8,0.75,
9,digit,0.3,['dot'],['small_1'],black,0,412,412,412,,,146.60024094581604,146.30651807785034,146.6231610774994,"[[0.27150883834402983, 0.054164075880976825]]",['DejaVu Sans'],[0.6],,,,N011,digit,5,"['6', '7', '8', '9']","['1', '2', '3', '4']",1,2023.2.3,harveydigits,2.1,[],8,0.75,
0,pause,0.4,None,None,None,0,413,413,413,,,,,,,,,,,,N011,digit,5,"['6', '7', '8', '9']","['1', '2', '3', '4']",1,2023.2.3,harveydigits,2.1,[],8,0.75,
9,digit,0.3,['dot'],['small_1'],black,0,414,414,414,,,147.30023002624512,147.00650191307068,147.32315397262573,"[[0.2301270087244912, -0.050967634591425254]]",['DejaVu Sans'],[0.6],,,,N011,digit,5,"['6', '7', '8', '9']","['1', '2', '3', '4']",1,2023.2.3,harveydigits,2.1,[],8,0.75,
0,pause,0.4,None,None,None,0,415,415,415,,,,,,,,,,,,N011,digit,5,"['6', '7', '8', '9']","['1', '2', '3', '4']",1,2023.2.3,harveydigits,2.1,[],8,0.75,
9,digit,0.3,['dot'],['small_1'],black,0,416,416,416,,,148.00024890899658,147.70648288726807,148.02312588691711,"[[0.3428055745853983, -0.01290049433522527]]",['DejaVu Sans'],[0.6],,,,N011,digit,5,"['6', '7', '8', '9']","['1', '2', '3', '4']",1,2023.2.3,harveydigits,2.1,[],8,0.75,
0,pause,0.4,None,None,None,0,417,417,417,,,,,,,,,,,,N011,digit,5,"['6', '7', '8', '9']","['1', '2', '3', '4']",1,2023.2.3,harveydigits,2.1,[],8,0.75,
9,digit,0.3,['dot'],['small_1'],black,0,418,418,418,,,148.70021891593933,148.4064679145813,148.72310709953308,"[[0.22835275609604566, 0.1331829038945594]]",['DejaVu Sans'],[0.6],,,,N011,digit,5,"['6', '7', '8', '9']","['1', '2', '3', '4']",1,2023.2.3,harveydigits,2.1,[],8,0.75,
0,pause,0.4,None,None,None,0,419,419,419,,,,,,,,,,,,N011,digit,5,"['6', '7', '8', '9']","['1', '2', '3', '4']",1,2023.2.3,harveydigits,2.1,[],8,0.75,
20,digit,0.3,['dot'],['small_1'],black,0,420,420,420,,,149.40024089813232,149.1065731048584,149.42321610450745,"[[-0.28541732823302196, -0.17968355905727706]]",['DejaVu Sans'],[0.6],,,,N011,digit,5,"['6', '7', '8', '9']","['1', '2', '3', '4']",1,2023.2.3,harveydigits,2.1,[],8,0.75,
0,pause,0.4,None,None,None,0,421,421,421,,,,,,,,,,,,N011,digit,5,"['6', '7', '8', '9']","['1', '2', '3', '4']",1,2023.2.3,harveydigits,2.1,[],8,0.75,
20,digit,0.3,['dot'],['small_1'],black,0,422,422,422,,,150.10023498535156,149.80655789375305,150.1230480670929,"[[0.13801996414995404, -0.2781856523741112]]",['DejaVu Sans'],[0.6],,,,N011,digit,5,"['6', '7', '8', '9']","['1', '2', '3', '4']",1,2023.2.3,harveydigits,2.1,[],8,0.75,
0,pause,0.4,None,None,None,0,423,423,423,,,,,,,,,,,,N011,digit,5,"['6', '7', '8', '9']","['1', '2', '3', '4']",1,2023.2.3,harveydigits,2.1,[],8,0.75,
20,digit,0.3,['dot'],['small_1'],black,0,424,424,424,,,150.80023288726807,150.50652408599854,150.8230640888214,"[[0.16823817958888332, -0.0671116211233003]]",['DejaVu Sans'],[0.6],,,,N011,digit,5,"['6', '7', '8', '9']","['1', '2', '3', '4']",1,2023.2.3,harveydigits,2.1,[],8,0.75,
0,pause,0.4,None,None,None,0,425,425,425,,,,,,,,,,,,N011,digit,5,"['6', '7', '8', '9']","['1', '2', '3', '4']",1,2023.2.3,harveydigits,2.1,[],8,0.75,
20,digit,0.3,['dot'],['small_1'],black,0,426,426,426,,,151.5002429485321,151.2064070701599,151.52305507659912,"[[0.038669946325316396, 0.32727955213753107]]",['DejaVu Sans'],[0.6],,,,N011,digit,5,"['6', '7', '8', '9']","['1', '2', '3', '4']",1,2023.2.3,harveydigits,2.1,[],8,0.75,
0,pause,0.4,None,None,None,0,427,427,427,,,,,,,,,,,,N011,digit,5,"['6', '7', '8', '9']","['1', '2', '3', '4']",1,2023.2.3,harveydigits,2.1,[],8,0.75,
20,digit,0.3,['dot'],['small_1'],black,0,428,428,428,,,152.2002398967743,151.9063880443573,152.22303295135498,"[[-0.2335611766778184, 0.10412278080389642]]",['DejaVu Sans'],[0.6],,,,N011,digit,5,"['6', '7', '8', '9']","['1', '2', '3', '4']",1,2023.2.3,harveydigits,2.1,[],8,0.75,
0,pause,0.4,None,None,None,0,429,429,429,,,,,,,,,,,,N011,digit,5,"['6', '7', '8', '9']","['1', '2', '3', '4']",1,2023.2.3,harveydigits,2.1,[],8,0.75,
20,digit,0.3,['dot'],['small_1'],black,0,430,430,430,,,152.90022993087769,152.6063449382782,152.92297792434692,"[[0.25061076178809705, -0.1778231442959975]]",['DejaVu Sans'],[0.6],,,,N011,digit,5,"['6', '7', '8', '9']","['1', '2', '3', '4']",1,2023.2.3,harveydigits,2.1,[],8,0.75,
0,pause,0.4,None,None,None,0,431,431,431,,,,,,,,,,,,N011,digit,5,"['6', '7', '8', '9']","['1', '2', '3', '4']",1,2023.2.3,harveydigits,2.1,[],8,0.75,
20,digit,0.3,['dot'],['small_1'],black,0,432,432,432,,,153.60023188591003,153.30637788772583,153.6230170726776,"[[0.2646841106762666, -0.05045085341590322]]",['DejaVu Sans'],[0.6],,,,N011,digit,5,"['6', '7', '8', '9']","['1', '2', '3', '4']",1,2023.2.3,harveydigits,2.1,[],8,0.75,
0,pause,0.4,None,None,None,0,433,433,433,,,,,,,,,,,,N011,digit,5,"['6', '7', '8', '9']","['1', '2', '3', '4']",1,2023.2.3,harveydigits,2.1,[],8,0.75,
20,digit,0.3,['dot'],['small_1'],black,0,434,434,434,,,154.30023288726807,154.00628209114075,154.3229479789734,"[[0.17868283596991885, -0.044331871732737116]]",['DejaVu Sans'],[0.6],,,,N011,digit,5,"['6', '7', '8', '9']","['1', '2', '3', '4']",1,2023.2.3,harveydigits,2.1,[],8,0.75,
0,pause,0.4,None,None,None,0,435,435,435,,,,,,,,,,,,N011,digit,5,"['6', '7', '8', '9']","['1', '2', '3', '4']",1,2023.2.3,harveydigits,2.1,[],8,0.75,
20,digit,0.3,['dot'],['small_1'],black,0,436,436,436,,,155.00023102760315,154.70626091957092,155.02291893959045,"[[0.24531589449939384, -0.2375451034398542]]",['DejaVu Sans'],[0.6],,,,N011,digit,5,"['6', '7', '8', '9']","['1', '2', '3', '4']",1,2023.2.3,harveydigits,2.1,[],8,0.75,
0,pause,0.4,None,None,None,0,437,437,437,,,,,,,,,,,,N011,digit,5,"['6', '7', '8', '9']","['1', '2', '3', '4']",1,2023.2.3,harveydigits,2.1,[],8,0.75,
20,digit,0.3,['dot'],['small_1'],black,0,438,438,438,,,155.70024609565735,155.40632891654968,155.7231640815735,"[[0.0767088315033036, -0.10855091012194551]]",['DejaVu Sans'],[0.6],,,,N011,digit,5,"['6', '7', '8', '9']","['1', '2', '3', '4']",1,2023.2.3,harveydigits,2.1,[],8,0.75,
0,pause,0.4,None,None,None,0,439,439,439,,,,,,,,,,,,N011,digit,5,"['6', '7', '8', '9']","['1', '2', '3', '4']",1,2023.2.3,harveydigits,2.1,[],8,0.75,
20,digit,0.3,['dot'],['small_1'],black,0,440,440,440,,,156.4002320766449,156.10639309883118,156.4229118824005,"[[-0.135568290837937, 0.20126171571304063]]",['DejaVu Sans'],[0.6],,,,N011,digit,5,"['6', '7', '8', '9']","['1', '2', '3', '4']",1,2023.2.3,harveydigits,2.1,[],8,0.75,
0,pause,0.4,None,None,None,0,441,441,441,,,,,,,,,,,,N011,digit,5,"['6', '7', '8', '9']","['1', '2', '3', '4']",1,2023.2.3,harveydigits,2.1,[],8,0.75,
20,digit,0.3,['dot'],['small_1'],black,0,442,442,442,,,157.10025000572205,156.80639600753784,157.12303495407104,"[[0.252421138724932, 0.02311283410497475]]",['DejaVu Sans'],[0.6],,,,N011,digit,5,"['6', '7', '8', '9']","['1', '2', '3', '4']",1,2023.2.3,harveydigits,2.1,[],8,0.75,
0,pause,0.4,None,None,None,0,443,443,443,,,,,,,,,,,,N011,digit,5,"['6', '7', '8', '9']","['1', '2', '3', '4']",1,2023.2.3,harveydigits,2.1,[],8,0.75,
20,digit,0.3,['dot'],['small_1'],black,0,444,444,444,,,157.80023407936096,157.50626397132874,157.82290291786194,"[[-0.18601828592545439, -0.17513279057054704]]",['DejaVu Sans'],[0.6],,,,N011,digit,5,"['6', '7', '8', '9']","['1', '2', '3', '4']",1,2023.2.3,harveydigits,2.1,[],8,0.75,
0,pause,0.4,None,None,None,0,445,445,445,,,,,,,,,,,,N011,digit,5,"['6', '7', '8', '9']","['1', '2', '3', '4']",1,2023.2.3,harveydigits,2.1,[],8,0.75,
20,digit,0.3,['dot'],['small_1'],black,0,446,446,446,,,158.500226020813,158.20638489723206,158.52302193641663,"[[0.1806782786743143, 0.0345775443795423]]",['DejaVu Sans'],[0.6],,,,N011,digit,5,"['6', '7', '8', '9']","['1', '2', '3', '4']",1,2023.2.3,harveydigits,2.1,[],8,0.75,
0,pause,0.4,None,None,None,0,447,447,447,,,,,,,,,,,,N011,digit,5,"['6', '7', '8', '9']","['1', '2', '3', '4']",1,2023.2.3,harveydigits,2.1,[],8,0.75,
20,digit,0.3,['dot'],['small_1'],black,0,448,448,448,,,159.20024609565735,158.90619492530823,159.2230360507965,"[[-0.24098947916895908, -0.1194481028535708]]",['DejaVu Sans'],[0.6],,,,N011,digit,5,"['6', '7', '8', '9']","['1', '2', '3', '4']",1,2023.2.3,harveydigits,2.1,[],8,0.75,
0,pause,0.4,None,None,None,0,449,449,449,,,,,,,,,,,,N011,digit,5,"['6', '7', '8', '9']","['1', '2', '3', '4']",1,2023.2.3,harveydigits,2.1,[],8,0.75,
20,digit,0.3,['dot'],['small_1'],black,0,450,450,450,,,159.9002389907837,159.60630202293396,159.92282891273499,"[[0.008180081221623225, -0.19611933001271556]]",['DejaVu Sans'],[0.6],,,,N011,digit,5,"['6', '7', '8', '9']","['1', '2', '3', '4']",1,2023.2.3,harveydigits,2.1,[],8,0.75,
0,pause,0.4,None,None,None,0,451,451,451,,,,,,,,,,,,N011,digit,5,"['6', '7', '8', '9']","['1', '2', '3', '4']",1,2023.2.3,harveydigits,2.1,[],8,0.75,
20,digit,0.3,['dot'],['small_1'],black,0,452,452,452,,,160.60024499893188,160.30615091323853,160.62279105186462,"[[0.2163356866243311, 0.1547717982726779]]",['DejaVu Sans'],[0.6],,,,N011,digit,5,"['6', '7', '8', '9']","['1', '2', '3', '4']",1,2023.2.3,harveydigits,2.1,[],8,0.75,
0,pause,0.4,None,None,None,0,453,453,453,,,,,,,,,,,,N011,digit,5,"['6', '7', '8', '9']","['1', '2', '3', '4']",1,2023.2.3,harveydigits,2.1,[],8,0.75,
20,digit,0.3,['dot'],['small_1'],black,0,454,454,454,,,161.30025100708008,161.0061240196228,161.3227779865265,"[[0.16706712538556023, 0.09944180941272429]]",['DejaVu Sans'],[0.6],,,,N011,digit,5,"['6', '7', '8', '9']","['1', '2', '3', '4']",1,2023.2.3,harveydigits,2.1,[],8,0.75,
0,pause,0.4,None,None,None,0,455,455,455,,,,,,,,,,,,N011,digit,5,"['6', '7', '8', '9']","['1', '2', '3', '4']",1,2023.2.3,harveydigits,2.1,[],8,0.75,
20,digit,0.3,['dot'],['small_1'],black,0,456,456,456,,,162.0002520084381,161.70610094070435,162.02275800704956,"[[0.01949808372180839, -0.31983868120246184]]",['DejaVu Sans'],[0.6],,,,N011,digit,5,"['6', '7', '8', '9']","['1', '2', '3', '4']",1,2023.2.3,harveydigits,2.1,[],8,0.75,
0,pause,0.4,None,None,None,0,457,457,457,,,,,,,,,,,,N011,digit,5,"['6', '7', '8', '9']","['1', '2', '3', '4']",1,2023.2.3,harveydigits,2.1,[],8,0.75,
20,digit,0.3,['dot'],['small_1'],black,0,458,458,458,,,162.70025396347046,162.40614295005798,162.7227339744568,"[[0.13748746183287897, -0.07961654753478298]]",['DejaVu Sans'],[0.6],,,,N011,digit,5,"['6', '7', '8', '9']","['1', '2', '3', '4']",1,2023.2.3,harveydigits,2.1,[],8,0.75,
0,pause,0.4,None,None,None,0,459,459,459,,,,,,,,,,,,N011,digit,5,"['6', '7', '8', '9']","['1', '2', '3', '4']",1,2023.2.3,harveydigits,2.1,[],8,0.75,
20,digit,0.3,['dot'],['small_1'],black,0,460,460,460,,,163.40025401115417,163.10606598854065,163.42377305030823,"[[-0.32924976725794614, -0.04113423137737554]]",['DejaVu Sans'],[0.6],,,,N011,digit,5,"['6', '7', '8', '9']","['1', '2', '3', '4']",1,2023.2.3,harveydigits,2.1,[],8,0.75,
0,pause,0.4,None,None,None,0,461,461,461,,,,,,,,,,,,N011,digit,5,"['6', '7', '8', '9']","['1', '2', '3', '4']",1,2023.2.3,harveydigits,2.1,[],8,0.75,
20,digit,0.3,['dot'],['small_1'],black,0,462,462,462,,,164.1002540588379,163.8062460422516,164.12284588813782,"[[0.2735512870517779, 0.06415634480581489]]",['DejaVu Sans'],[0.6],,,,N011,digit,5,"['6', '7', '8', '9']","['1', '2', '3', '4']",1,2023.2.3,harveydigits,2.1,[],8,0.75,
0,pause,0.4,None,None,None,0,463,463,463,,,,,,,,,,,,N011,digit,5,"['6', '7', '8', '9']","['1', '2', '3', '4']",1,2023.2.3,harveydigits,2.1,[],8,0.75,
20,digit,0.3,['dot'],['small_1'],black,0,464,464,464,,,164.8002529144287,164.5062539577484,164.82283091545105,"[[0.03555825041414101, 0.3341399819219959]]",['DejaVu Sans'],[0.6],,,,N011,digit,5,"['6', '7', '8', '9']","['1', '2', '3', '4']",1,2023.2.3,harveydigits,2.1,[],8,0.75,
