num,mod,duration,shape,ll_cond,colors,.thisRepN,.thisTrialN,.thisN,.thisIndex,thisRow.t,notes,raw_global_time,t_start,t_stop,shapes,size,pos,cond,color,button,RT,participant,session,starting_run,left button (match/odd),right button (non-match/even),samples_per_block,psychopy version,expName,offset,audio,number_runs,radius,
1,dot,0.3,['dot'],['density'],black,0,0,0,0,,,2.4001870155334473,2.100466012954712,2.4170639514923096,dot,[0.08],"[0.39967490259390637, -0.2576437183111264]",density,black,,,D002,visual,1,[],"['1', '2', '3', '4']",1,2023.2.3,harveyvisual,2.1,[],8,0.75,
0,pause,0.4,None,None,None,0,1,1,1,,,,,,,,,,,,,D002,visual,1,[],"['1', '2', '3', '4']",1,2023.2.3,harveyvisual,2.1,[],8,0.75,
1,dot,0.3,['dot'],['density'],black,0,2,2,2,,,3.1002109050750732,2.8004069328308105,3.1175389289855957,dot,[0.08],"[0.5286010678554951, -0.2554598500704326]",density,black,,,D002,visual,1,[],"['1', '2', '3', '4']",1,2023.2.3,harveyvisual,2.1,[],8,0.75,
0,pause,0.4,None,None,None,0,3,3,3,,,,,,,,,,,,,D002,visual,1,[],"['1', '2', '3', '4']",1,2023.2.3,harveyvisual,2.1,[],8,0.75,
1,dot,0.3,['dot'],['density'],black,0,4,4,4,,,3.800201892852783,3.500870943069458,3.8177309036254883,dot,[0.1],"[-0.43105706563061386, -0.18359692062194616]",density,black,,,D002,visual,1,[],"['1', '2', '3', '4']",1,2023.2.3,harveyvisual,2.1,[],8,0.75,
0,pause,0.4,None,None,None,0,5,5,5,,,,,,,,,,,,,D002,visual,1,[],"['1', '2', '3', '4']",1,2023.2.3,harveyvisual,2.1,[],8,0.75,
1,dot,0.3,['dot'],['density'],white,0,6,6,6,,,4.500185966491699,4.201004981994629,4.517496824264526,dot,[0.08],"[0.14557363600905707, -0.03994760510263185]",density,white,,,D002,visual,1,[],"['1', '2', '3', '4']",1,2023.2.3,harveyvisual,2.1,[],8,0.75,
0,pause,0.4,None,None,None,0,7,7,7,,,,,,,,,,,1,4.556243896484375,D002,visual,1,[],"['1', '2', '3', '4']",1,2023.2.3,harveyvisual,2.1,[],8,0.75,
1,dot,0.3,['dot'],['density'],black,0,8,8,8,,,5.200207948684692,4.900830984115601,5.217477798461914,dot,[0.1],"[-0.4519365434524677, 0.22287683068434597]",density,black,,,D002,visual,1,[],"['1', '2', '3', '4']",1,2023.2.3,harveyvisual,2.1,[],8,0.75,
0,pause,0.4,None,None,None,0,9,9,9,,,,,,,,,,,,,D002,visual,1,[],"['1', '2', '3', '4']",1,2023.2.3,harveyvisual,2.1,[],8,0.75,
1,dot,0.3,['dot'],['density'],black,0,10,10,10,,,5.900193929672241,5.600811004638672,5.919355869293213,dot,[0.1],"[-0.4519365434524677, 0.22287683068434597]",density,black,,,D002,visual,1,[],"['1', '2', '3', '4']",1,2023.2.3,harveyvisual,2.1,[],8,0.75,
0,pause,0.4,None,None,None,0,11,11,11,,,,,,,,,,,,,D002,visual,1,[],"['1', '2', '3', '4']",1,2023.2.3,harveyvisual,2.1,[],8,0.75,
2,dot,0.3,['dot'],['density'],black,0,12,12,12,,,6.60019588470459,6.319398880004883,6.619333982467651,dot,"[0.08, 0.08]","[[0.3054529246123127, 0.4455278178545299], [0.3548458028228903, 0.2510588499170468]]",density,black,,,D002,visual,1,[],"['1', '2', '3', '4']",1,2023.2.3,harveyvisual,2.1,[],8,0.75,
0,pause,0.4,None,None,None,0,13,13,13,,,,,,,,,,,,,D002,visual,1,[],"['1', '2', '3', '4']",1,2023.2.3,harveyvisual,2.1,[],8,0.75,
2,dot,0.3,['dot'],['density'],black,0,14,14,14,,,7.300191879272461,7.019336938858032,7.319415807723999,dot,"[0.1, 0.1]","[[-0.20887660672828282, 0.3399455197969581], [-0.34272369919491674, 0.19089688818271272]]",density,black,,,D002,visual,1,[],"['1', '2', '3', '4']",1,2023.2.3,harveyvisual,2.1,[],8,0.75,
0,pause,0.4,None,None,None,0,15,15,15,,,,,,,,,,,,,D002,visual,1,[],"['1', '2', '3', '4']",1,2023.2.3,harveyvisual,2.1,[],8,0.75,
2,dot,0.3,['dot'],['density'],black,0,16,16,16,,,8.000195980072021,7.7193098068237305,8.019293785095215,dot,"[0.06, 0.06]","[[-0.3970652553054307, 0.36151140161898554], [-0.22306532646831484, 0.26288994227005946]]",density,black,,,D002,visual,1,[],"['1', '2', '3', '4']",1,2023.2.3,harveyvisual,2.1,[],8,0.75,
0,pause,0.4,None,None,None,0,17,17,17,,,,,,,,,,,,,D002,visual,1,[],"['1', '2', '3', '4']",1,2023.2.3,harveyvisual,2.1,[],8,0.75,
2,dot,0.3,['dot'],['density'],white,0,18,18,18,,,8.700208902359009,8.419307947158813,8.719278812408447,dot,"[0.1, 0.1]","[[0.002249876020969301, 0.20442088447143333], [-0.056293345030126195, 0.39599742374220376]]",density,white,,,D002,visual,1,[],"['1', '2', '3', '4']",1,2023.2.3,harveyvisual,2.1,[],8,0.75,
0,pause,0.4,None,None,None,0,19,19,19,,,,,,,,,,,1,8.853766918182373,D002,visual,1,[],"['1', '2', '3', '4']",1,2023.2.3,harveyvisual,2.1,[],8,0.75,
2,dot,0.3,['dot'],['density'],black,0,20,20,20,,,9.400194883346558,9.11927080154419,9.41928482055664,dot,"[0.06, 0.08]","[[0.21195259569903124, -0.4986433684978455], [0.023877440871594643, -0.42921284787985464]]",density,black,,,D002,visual,1,[],"['1', '2', '3', '4']",1,2023.2.3,harveyvisual,2.1,[],8,0.75,
0,pause,0.4,None,None,None,0,21,21,21,,,,,,,,,,,,,D002,visual,1,[],"['1', '2', '3', '4']",1,2023.2.3,harveyvisual,2.1,[],8,0.75,
2,dot,0.3,['dot'],['density'],black,0,22,22,22,,,10.10018801689148,9.819254875183105,10.119240999221802,dot,"[0.06, 0.1]","[[0.075840462383643, -0.21806900392302264], [0.2761252679018853, -0.22101292055433702]]",density,black,,,D002,visual,1,[],"['1', '2', '3', '4']",1,2023.2.3,harveyvisual,2.1,[],8,0.75,
0,pause,0.4,None,None,None,0,23,23,23,,,,,,,,,,,,,D002,visual,1,[],"['1', '2', '3', '4']",1,2023.2.3,harveyvisual,2.1,[],8,0.75,
3,dot,0.3,['dot'],['density'],black,0,24,24,24,,,10.80019998550415,10.519245862960815,10.8192138671875,dot,"[0.08, 0.06, 0.08]","[[-0.32624451712468355, -0.43854848545497693], [-0.39409142490376414, -0.22516425170789148], [-0.152352104904091, -0.33204091051628687]]",density,black,,,D002,visual,1,[],"['1', '2', '3', '4']",1,2023.2.3,harveyvisual,2.1,[],8,0.75,
0,pause,0.4,None,None,None,0,25,25,25,,,,,,,,,,,,,D002,visual,1,[],"['1', '2', '3', '4']",1,2023.2.3,harveyvisual,2.1,[],8,0.75,
3,dot,0.3,['dot'],['density'],black,0,26,26,26,,,11.500200986862183,11.219260931015015,11.519194841384888,dot,"[0.08, 0.06, 0.06]","[[-0.3082868261871679, -0.3137599619928766], [-0.14816041357862977, -0.19371393562593295], [-0.35304767783039576, -0.10610354059871957]]",density,black,,,D002,visual,1,[],"['1', '2', '3', '4']",1,2023.2.3,harveyvisual,2.1,[],8,0.75,
0,pause,0.4,None,None,None,0,27,27,27,,,,,,,,,,,,,D002,visual,1,[],"['1', '2', '3', '4']",1,2023.2.3,harveyvisual,2.1,[],8,0.75,
3,dot,0.3,['dot'],['density'],black,0,28,28,28,,,12.20019793510437,11.91918396949768,12.219193935394287,dot,"[0.08, 0.08, 0.08]","[[-0.36641147837046456, 0.28339849123565264], [-0.19108570342652328, 0.4628134959899303], [-0.16564092668537764, 0.24926372681875647]]",density,black,,,D002,visual,1,[],"['1', '2', '3', '4']",1,2023.2.3,harveyvisual,2.1,[],8,0.75,
0,pause,0.4,None,None,None,0,29,29,29,,,,,,,,,,,,,D002,visual,1,[],"['1', '2', '3', '4']",1,2023.2.3,harveyvisual,2.1,[],8,0.75,
3,dot,0.3,['dot'],['density'],black,0,30,30,30,,,12.900199890136719,12.619212865829468,12.919181823730469,dot,"[0.06, 0.1, 0.1]","[[0.1555504186016049, 0.15532406847092056], [-0.0680535881648269, 0.26220909641571793], [0.08533315121688807, 0.39122308779032533]]",density,black,,,D002,visual,1,[],"['1', '2', '3', '4']",1,2023.2.3,harveyvisual,2.1,[],8,0.75,
0,pause,0.4,None,None,None,0,31,31,31,,,,,,,,,,,,,D002,visual,1,[],"['1', '2', '3', '4']",1,2023.2.3,harveyvisual,2.1,[],8,0.75,
3,dot,0.3,['dot'],['density'],black,0,32,32,32,,,13.60018801689148,13.319169998168945,13.619210958480835,dot,"[0.08, 0.06, 0.1]","[[0.041215869578383385, -0.00689674906403758], [0.17500875751152645, 0.21459232562634095], [-0.03632281132631849, 0.2012994076415249]]",density,black,,,D002,visual,1,[],"['1', '2', '3', '4']",1,2023.2.3,harveyvisual,2.1,[],8,0.75,
0,pause,0.4,None,None,None,0,33,33,33,,,,,,,,,,,,,D002,visual,1,[],"['1', '2', '3', '4']",1,2023.2.3,harveyvisual,2.1,[],8,0.75,
3,dot,0.3,['dot'],['density'],black,0,34,34,34,,,14.300205945968628,14.019136905670166,14.319134950637817,dot,"[0.1, 0.08, 0.06]","[[0.16698284004709638, 0.14340522813657522], [0.014382160343152013, -0.0120418799203457], [0.17626274868444566, -0.13037823744598942]]",density,black,,,D002,visual,1,[],"['1', '2', '3', '4']",1,2023.2.3,harveyvisual,2.1,[],8,0.75,
0,pause,0.4,None,None,None,0,35,35,35,,,,,,,,,,,,,D002,visual,1,[],"['1', '2', '3', '4']",1,2023.2.3,harveyvisual,2.1,[],8,0.75,
4,dot,0.3,['dot'],['density'],black,0,36,36,36,,,15.000213861465454,14.719123840332031,15.019117832183838,dot,"[0.06, 0.08, 0.06, 0.06]","[[0.1665887267295909, 0.08389582001604734], [0.4584359263982055, 0.26405512465689546], [0.4157764543415929, 0.03513878013061779], [0.2392225064082761, 0.29777239984320175]]",density,black,,,D002,visual,1,[],"['1', '2', '3', '4']",1,2023.2.3,harveyvisual,2.1,[],8,0.75,
0,pause,0.4,None,None,None,0,37,37,37,,,,,,,,,,,,,D002,visual,1,[],"['1', '2', '3', '4']",1,2023.2.3,harveyvisual,2.1,[],8,0.75,
4,dot,0.3,['dot'],['density'],black,0,38,38,38,,,15.700195789337158,15.419108867645264,15.719087839126587,dot,"[0.08, 0.08, 0.1, 0.06]","[[-0.47693618450386616, -0.1525114564248906], [-0.12413069550496705, 0.03327587270375396], [-0.32964510574757994, -0.012304557788591533], [-0.22851041427491325, -0.22018408257550984]]",density,black,,,D002,visual,1,[],"['1', '2', '3', '4']",1,2023.2.3,harveyvisual,2.1,[],8,0.75,
0,pause,0.4,None,None,None,0,39,39,39,,,,,,,,,,,,,D002,visual,1,[],"['1', '2', '3', '4']",1,2023.2.3,harveyvisual,2.1,[],8,0.75,
4,dot,0.3,['dot'],['density'],white,0,40,40,40,,,16.400206804275513,16.11910581588745,16.419083833694458,dot,"[0.08, 0.06, 0.06, 0.1]","[[-0.24231220575667195, -0.22966258239168486], [-0.5136420973432148, -0.13696856920477488], [-0.4300726721285167, 0.13088957628356482], [-0.3148289313469241, -0.03851715211982174]]",density,white,,,D002,visual,1,[],"['1', '2', '3', '4']",1,2023.2.3,harveyvisual,2.1,[],8,0.75,
0,pause,0.4,None,None,None,0,41,41,41,,,,,,,,,,,1,16.536756992340088,D002,visual,1,[],"['1', '2', '3', '4']",1,2023.2.3,harveyvisual,2.1,[],8,0.75,
4,dot,0.3,['dot'],['density'],black,0,42,42,42,,,17.1002140045166,16.819058895111084,17.11907696723938,dot,"[0.06, 0.06, 0.1, 0.1]","[[-0.22711054503220823, -0.5144049053218714], [-0.016307770745122817, -0.5558659767831347], [-0.26432457165568224, -0.2824025039497699], [-0.026303944553407815, -0.34464361634901186]]",density,black,,,D002,visual,1,[],"['1', '2', '3', '4']",1,2023.2.3,harveyvisual,2.1,[],8,0.75,
0,pause,0.4,None,None,None,0,43,43,43,,,,,,,,,,,,,D002,visual,1,[],"['1', '2', '3', '4']",1,2023.2.3,harveyvisual,2.1,[],8,0.75,
4,dot,0.3,['dot'],['density'],black,0,44,44,44,,,17.80019783973694,17.519083976745605,17.819098949432373,dot,"[0.08, 0.08, 0.1, 0.08]","[[-0.5372831058023291, 0.07679305146548565], [-0.47746952625478134, -0.11455356156484316], [-0.2888199447118168, 0.02804534169422597], [-0.3317661241759115, -0.2533775510137967]]",density,black,,,D002,visual,1,[],"['1', '2', '3', '4']",1,2023.2.3,harveyvisual,2.1,[],8,0.75,
0,pause,0.4,None,None,None,0,45,45,45,,,,,,,,,,,,,D002,visual,1,[],"['1', '2', '3', '4']",1,2023.2.3,harveyvisual,2.1,[],8,0.75,
4,dot,0.3,['dot'],['density'],white,0,46,46,46,,,18.500194787979126,18.219090938568115,18.519078969955444,dot,"[0.06, 0.1, 0.06, 0.08]","[[-0.43942495523079517, -0.22401056498097033], [-0.009260832099230759, -0.1633376679159051], [-0.21598309108097546, -0.10172603009605206], [-0.2278206133413005, -0.33154874685782076]]",density,white,,,D002,visual,1,[],"['1', '2', '3', '4']",1,2023.2.3,harveyvisual,2.1,[],8,0.75,
0,pause,0.4,None,None,None,0,47,47,47,,,,,,,,,,,1,18.651951789855957,D002,visual,1,[],"['1', '2', '3', '4']",1,2023.2.3,harveyvisual,2.1,[],8,0.75,
5,dot,0.3,['dot'],['density'],black,0,48,48,48,,,19.200212001800537,18.91903591156006,19.21902298927307,dot,"[0.08, 0.08, 0.08, 0.1, 0.1]","[[-0.3632963637400461, -0.33792544526642676], [-0.48189922448633543, -0.036156829306921726], [-0.2958020468624338, 0.07292024124872273], [-0.10639492237515816, -0.0008972940205680791], [-0.20818262001932955, -0.17666930306052683]]",density,black,,,D002,visual,1,[],"['1', '2', '3', '4']",1,2023.2.3,harveyvisual,2.1,[],8,0.75,
0,pause,0.4,None,None,None,0,49,49,49,,,,,,,,,,,,,D002,visual,1,[],"['1', '2', '3', '4']",1,2023.2.3,harveyvisual,2.1,[],8,0.75,
5,dot,0.3,['dot'],['density'],white,0,50,50,50,,,19.900194883346558,19.619025945663452,19.91901183128357,dot,"[0.1, 0.08, 0.08, 0.1, 0.1]","[[-0.26965218803342234, -0.06061691990321757], [-0.44412238708790114, -0.1605793459593267], [-0.2738608688716076, -0.33598391440877745], [-0.06160694910013377, -0.19463283807086704], [-0.16469008497891707, 0.13324638745272324]]",density,white,,,D002,visual,1,[],"['1', '2', '3', '4']",1,2023.2.3,harveyvisual,2.1,[],8,0.75,
0,pause,0.4,None,None,None,0,51,51,51,,,,,,,,,,,1,19.983152866363525,D002,visual,1,[],"['1', '2', '3', '4']",1,2023.2.3,harveyvisual,2.1,[],8,0.75,
5,dot,0.3,['dot'],['density'],black,0,52,52,52,,,20.600207805633545,20.3189959526062,20.618984937667847,dot,"[0.08, 0.06, 0.1, 0.08, 0.06]","[[-0.2338402938730933, 0.15846616122991625], [-0.3229678957369872, -0.0901175890533356], [-0.5034912146055804, 0.021834460539281654], [-0.23914892391179104, -0.28496604153387733], [-0.10132718886958789, -0.1172648190903725]]",density,black,,,D002,visual,1,[],"['1', '2', '3', '4']",1,2023.2.3,harveyvisual,2.1,[],8,0.75,
0,pause,0.4,None,None,None,0,53,53,53,,,,,,,,,,,,,D002,visual,1,[],"['1', '2', '3', '4']",1,2023.2.3,harveyvisual,2.1,[],8,0.75,
5,dot,0.3,['dot'],['density'],black,0,54,54,54,,,21.300193786621094,21.0189847946167,21.318964958190918,dot,"[0.08, 0.1, 0.06, 0.08, 0.08]","[[0.34746533592570195, 0.16118282603596082], [0.14457128296481445, 0.28865621170929245], [0.4549189851861922, 0.34228556952890804], [0.008483415068308318, 0.44103246018778014], [0.27150044131742485, 0.4621652121832405]]",density,black,,,D002,visual,1,[],"['1', '2', '3', '4']",1,2023.2.3,harveyvisual,2.1,[],8,0.75,
0,pause,0.4,None,None,None,0,55,55,55,,,,,,,,,,,,,D002,visual,1,[],"['1', '2', '3', '4']",1,2023.2.3,harveyvisual,2.1,[],8,0.75,
5,dot,0.3,['dot'],['density'],black,0,56,56,56,,,22.0002019405365,21.71896195411682,22.018927812576294,dot,"[0.08, 0.08, 0.06, 0.1, 0.06]","[[-0.3593586909609717, -0.014123405231526708], [-0.016214713675271986, 0.25764317450247104], [-0.14180258575993823, 0.0328893580167688], [-0.4739301778776912, 0.15719809156630632], [-0.2718601341595813, 0.23222304362681612]]",density,black,,,D002,visual,1,[],"['1', '2', '3', '4']",1,2023.2.3,harveyvisual,2.1,[],8,0.75,
0,pause,0.4,None,None,None,0,57,57,57,,,,,,,,,,,,,D002,visual,1,[],"['1', '2', '3', '4']",1,2023.2.3,harveyvisual,2.1,[],8,0.75,
5,dot,0.3,['dot'],['density'],black,0,58,58,58,,,22.700209856033325,22.418922901153564,22.718931913375854,dot,"[0.06, 0.08, 0.1, 0.06, 0.08]","[[0.45108699871130137, 0.12052648913612102], [0.3120839015871755, -0.055344110322042436], [0.5361186937318446, -0.08608482415671545], [0.24926945818158194, 0.15209517992691748], [0.3855135356736719, -0.25840400127360613]]",density,black,,,D002,visual,1,[],"['1', '2', '3', '4']",1,2023.2.3,harveyvisual,2.1,[],8,0.75,
0,pause,0.4,None,None,None,0,59,59,59,,,,,,,,,,,,,D002,visual,1,[],"['1', '2', '3', '4']",1,2023.2.3,harveyvisual,2.1,[],8,0.75,
6,dot,0.3,['dot'],['density'],black,0,60,60,60,,,23.40019392967224,23.119062900543213,23.418911933898926,dot,"[0.1, 0.06, 0.08, 0.08, 0.08, 0.1]","[[0.26568550625605564, -0.48823100126060537], [0.030589778490880962, -0.34307155488476027], [0.2920158589989485, -0.005481777194348812], [0.4969139129819881, -0.3034402107212153], [0.2924968692334099, -0.2393606426967254], [0.09404279540557291, -0.1505005030192783]]",density,black,,,D002,visual,1,[],"['1', '2', '3', '4']",1,2023.2.3,harveyvisual,2.1,[],8,0.75,
0,pause,0.4,None,None,None,0,61,61,61,,,,,,,,,,,,,D002,visual,1,[],"['1', '2', '3', '4']",1,2023.2.3,harveyvisual,2.1,[],8,0.75,
6,dot,0.3,['dot'],['density'],black,0,62,62,62,,,24.100207805633545,23.81891679763794,24.11888098716736,dot,"[0.06, 0.1, 0.08, 0.08, 0.06, 0.06]","[[-0.5416753121247185, 0.020803147184574915], [-0.3232269173664433, -0.07161231053200118], [-0.3008479376061402, -0.286480119217458], [-0.22299540496279888, 0.12470258063391813], [-0.10776740766186912, -0.19554033341247495], [-0.5165544979209102, -0.21376225914528924]]",density,black,,,D002,visual,1,[],"['1', '2', '3', '4']",1,2023.2.3,harveyvisual,2.1,[],8,0.75,
0,pause,0.4,None,None,None,0,63,63,63,,,,,,,,,,,,,D002,visual,1,[],"['1', '2', '3', '4']",1,2023.2.3,harveyvisual,2.1,[],8,0.75,
6,dot,0.3,['dot'],['density'],black,0,64,64,64,,,24.800195932388306,24.518887996673584,24.818907976150513,dot,"[0.08, 0.06, 0.08, 0.08, 0.08, 0.06]","[[0.4249538099490167, -0.025354946498656116], [0.305005901383002, 0.397829445973664], [0.04954868862097969, 0.09819418046919175], [0.452299537631068, 0.2574679639516015], [0.21081936584905453, -0.08903757916275208], [0.27954488569289765, 0.14103100078867375]]",density,black,,,D002,visual,1,[],"['1', '2', '3', '4']",1,2023.2.3,harveyvisual,2.1,[],8,0.75,
0,pause,0.4,None,None,None,0,65,65,65,,,,,,,,,,,,,D002,visual,1,[],"['1', '2', '3', '4']",1,2023.2.3,harveyvisual,2.1,[],8,0.75,
6,dot,0.3,['dot'],['density'],black,0,66,66,66,,,25.500194787979126,25.218904972076416,25.518876791000366,dot,"[0.1, 0.06, 0.08, 0.06, 0.06, 0.1]","[[-0.5416753121247185, 0.020803147184574915], [-0.3232269173664433, -0.07161231053200118], [-0.3008479376061402, -0.286480119217458], [-0.22299540496279888, 0.12470258063391813], [-0.10776740766186912, -0.19554033341247495], [-0.5165544979209102, -0.21376225914528924]]",density,black,,,D002,visual,1,[],"['1', '2', '3', '4']",1,2023.2.3,harveyvisual,2.1,[],8,0.75,
0,pause,0.4,None,None,None,0,67,67,67,,,,,,,,,,,,,D002,visual,1,[],"['1', '2', '3', '4']",1,2023.2.3,harveyvisual,2.1,[],8,0.75,
6,dot,0.3,['dot'],['density'],black,0,68,68,68,,,26.200198888778687,25.918991804122925,26.218971014022827,dot,"[0.06, 0.1, 0.08, 0.08, 0.1, 0.1]","[[-0.560843418842529, -0.11752527585456686], [-0.31277608783648175, 0.04003545118838376], [-0.18207900664359264, -0.3652956678781814], [-0.41442909117718774, -0.4038021739217259], [-0.14446849917993246, -0.07035639226176245], [-0.3420415871796019, -0.1631057353810994]]",density,black,,,D002,visual,1,[],"['1', '2', '3', '4']",1,2023.2.3,harveyvisual,2.1,[],8,0.75,
0,pause,0.4,None,None,None,0,69,69,69,,,,,,,,,,,,,D002,visual,1,[],"['1', '2', '3', '4']",1,2023.2.3,harveyvisual,2.1,[],8,0.75,
6,dot,0.3,['dot'],['density'],black,0,70,70,70,,,26.900198936462402,26.61888289451599,26.91885781288147,dot,"[0.06, 0.06, 0.06, 0.1, 0.08, 0.06]","[[-0.37443702985748106, 0.32648296684105377], [-0.5461381080049402, 0.20900463425646473], [-0.03667792491240075, 0.12745261621840673], [-0.13670974087354773, 0.4115775839407936], [-0.3800981804337871, 0.05314619565530939], [-0.23016292349935943, 0.18714801531232822]]",density,black,,,D002,visual,1,[],"['1', '2', '3', '4']",1,2023.2.3,harveyvisual,2.1,[],8,0.75,
0,pause,0.4,None,None,None,0,71,71,71,,,,,,,,,,,,,D002,visual,1,[],"['1', '2', '3', '4']",1,2023.2.3,harveyvisual,2.1,[],8,0.75,
7,dot,0.3,['dot'],['density'],black,0,72,72,72,,,27.600215911865234,27.318825006484985,27.61882495880127,dot,"[0.1, 0.08, 0.06, 0.06, 0.06, 0.08, 0.06]","[[-0.27819289690075527, 0.2483046813246476], [-0.5592260237138849, -0.07980801324287977], [-0.026637344717372308, -0.10521889364121585], [-0.16909952645659185, 0.05101222878256789], [-0.21868546305501066, -0.16482274839932262], [-0.3689572500107929, 0.03738969849335829], [-0.49227831811218986, 0.2063327632277477]]",density,black,,,D002,visual,1,[],"['1', '2', '3', '4']",1,2023.2.3,harveyvisual,2.1,[],8,0.75,
0,pause,0.4,None,None,None,0,73,73,73,,,,,,,,,,,,,D002,visual,1,[],"['1', '2', '3', '4']",1,2023.2.3,harveyvisual,2.1,[],8,0.75,
7,dot,0.3,['dot'],['density'],black,0,74,74,74,,,28.300216913223267,28.018807888031006,28.318808794021606,dot,"[0.06, 0.08, 0.08, 0.08, 0.1, 0.1, 0.06]","[[-0.39883248072855915, 0.30823732592088265], [-0.041341486549100435, 0.2390478988097413], [-0.013495537319202725, 0.5211111720540192], [-0.2415889716500472, 0.10795059447242317], [-0.023803066389735523, 0.02076064871433158], [0.14387498046506175, 0.3548008600093999], [-0.24331877599120405, 0.46521846842164205]]",density,black,,,D002,visual,1,[],"['1', '2', '3', '4']",1,2023.2.3,harveyvisual,2.1,[],8,0.75,
0,pause,0.4,None,None,None,0,75,75,75,,,,,,,,,,,,,D002,visual,1,[],"['1', '2', '3', '4']",1,2023.2.3,harveyvisual,2.1,[],8,0.75,
7,dot,0.3,['dot'],['density'],white,0,76,76,76,,,29.000194787979126,28.71875286102295,29.019689798355103,dot,"[0.08, 0.06, 0.1, 0.08, 0.08, 0.08, 0.08]","[[-0.2822174821233986, 0.002117056236134186], [-0.10673242512413421, 0.4781556216085482], [-0.18432519539246728, 0.19072201575640843], [-0.4524596318479574, 0.13966285650530724], [0.06907010423411483, 0.2912708813513049], [-0.07412436007020941, -0.021022205933558278], [-0.3208835015251209, 0.3986768431743725]]",density,white,,,D002,visual,1,[],"['1', '2', '3', '4']",1,2023.2.3,harveyvisual,2.1,[],8,0.75,
0,pause,0.4,None,None,None,0,77,77,77,,,,,,,,,,,1,29.105300903320312,D002,visual,1,[],"['1', '2', '3', '4']",1,2023.2.3,harveyvisual,2.1,[],8,0.75,
7,dot,0.3,['dot'],['density'],black,0,78,78,78,,,29.700199842453003,29.418885946273804,29.718870878219604,dot,"[0.08, 0.08, 0.1, 0.1, 0.1, 0.08, 0.1]","[[-0.23022292756182125, -0.05768485575552839], [-0.3970021412728509, -0.1722837668104814], [-0.2989980436724142, -0.5015189566068301], [-0.1887121522124618, -0.3052937986494308], [-0.001193606839323686, -0.45187687349833133], [-0.45251418858811787, -0.367940027934103], [0.11213422846620591, -0.19711986939188722]]",density,black,,,D002,visual,1,[],"['1', '2', '3', '4']",1,2023.2.3,harveyvisual,2.1,[],8,0.75,
0,pause,0.4,None,None,None,0,79,79,79,,,,,,,,,,,,,D002,visual,1,[],"['1', '2', '3', '4']",1,2023.2.3,harveyvisual,2.1,[],8,0.75,
7,dot,0.3,['dot'],['density'],black,0,80,80,80,,,30.400200843811035,30.118780851364136,30.418749809265137,dot,"[0.08, 0.1, 0.06, 0.1, 0.06, 0.06, 0.06]","[[-0.2314520007693297, 0.33838000150240727], [-0.18132207761103206, 0.5552670473927488], [0.017458222085991553, 0.32213086183097556], [0.10538257653630445, 0.5364165263315271], [-0.32661765694444117, 0.13553859080651098], [0.2001110614088519, 0.2352342526365964], [-0.07707990285528175, 0.1388757586163816]]",density,black,,,D002,visual,1,[],"['1', '2', '3', '4']",1,2023.2.3,harveyvisual,2.1,[],8,0.75,
0,pause,0.4,None,None,None,0,81,81,81,,,,,,,,,,,,,D002,visual,1,[],"['1', '2', '3', '4']",1,2023.2.3,harveyvisual,2.1,[],8,0.75,
7,dot,0.3,['dot'],['density'],black,0,82,82,82,,,31.100214958190918,30.81874990463257,31.118716955184937,dot,"[0.1, 0.08, 0.08, 0.1, 0.06, 0.08, 0.08]","[[-0.2877807563129739, -0.2392998172879968], [-0.4930284393840153, 0.02918626900802282], [-0.13307942101536208, -0.4135874564509098], [-0.1727922191076213, -0.04289663127052677], [-0.3943840059764042, -0.4351600913800347], [-0.03321109949484203, -0.21096883087625085], [-0.5418728138863746, -0.1990057631286019]]",density,black,,,D002,visual,1,[],"['1', '2', '3', '4']",1,2023.2.3,harveyvisual,2.1,[],8,0.75,
0,pause,0.4,None,None,None,0,83,83,83,,,,,,,,,,,,,D002,visual,1,[],"['1', '2', '3', '4']",1,2023.2.3,harveyvisual,2.1,[],8,0.75,
8,dot,0.3,['dot'],['density'],black,0,84,84,84,,,31.800216913223267,31.518690824508667,31.818692922592163,dot,"[0.06, 0.06, 0.06, 0.06, 0.08, 0.06, 0.1, 0.06]","[[-0.16499387414028463, -0.418455346753131], [0.031011941373623824, -0.006148034068666969], [-0.4150712424924157, -0.28668557629476243], [-0.199054958380199, -0.21375968732837633], [-0.4870789535587041, 0.00515905815181239], [-0.198479811208303, 0.006815000109153054], [-0.3273741662815474, 0.19008037141614484], [0.04340096687518584, -0.25044408321713213]]",density,black,,,D002,visual,1,[],"['1', '2', '3', '4']",1,2023.2.3,harveyvisual,2.1,[],8,0.75,
0,pause,0.4,None,None,None,0,85,85,85,,,,,,,,,,,,,D002,visual,1,[],"['1', '2', '3', '4']",1,2023.2.3,harveyvisual,2.1,[],8,0.75,
8,dot,0.3,['dot'],['density'],black,0,86,86,86,,,32.50020384788513,32.21868181228638,32.518656969070435,dot,"[0.08, 0.1, 0.08, 0.06, 0.06, 0.1, 0.1, 0.06]","[[0.2715518471235014, -0.4245138665073026], [0.03602391524707561, -0.40638782213015096], [0.4828297141312073, -0.09119901312376678], [0.02835794216237903, 0.028275321652194735], [-0.0895445032969687, -0.19822740391127236], [0.3178997883629752, 0.08245100984997318], [0.21920060966397442, -0.22342839817001514], [0.46807969757011175, -0.32427319705723295]]",density,black,,,D002,visual,1,[],"['1', '2', '3', '4']",1,2023.2.3,harveyvisual,2.1,[],8,0.75,
0,pause,0.4,None,None,None,0,87,87,87,,,,,,,,,,,,,D002,visual,1,[],"['1', '2', '3', '4']",1,2023.2.3,harveyvisual,2.1,[],8,0.75,
8,dot,0.3,['dot'],['density'],black,0,88,88,88,,,33.200201988220215,32.91882085800171,33.21879196166992,dot,"[0.06, 0.1, 0.08, 0.06, 0.1, 0.1, 0.08, 0.06]","[[-0.20800618360187478, -0.297823595680997], [0.0208603014005115, -0.46570844314230314], [-0.33947416747489917, -0.46414587466331364], [-0.2657502487478435, -0.0024929956194721667], [-0.07971030345085922, -0.1368829558420488], [0.12327021606192319, -0.12614842517591618], [-0.10944837079043952, 0.12795643756026515], [-0.4050023469846894, -0.16101207847090707]]",density,black,,,D002,visual,1,[],"['1', '2', '3', '4']",1,2023.2.3,harveyvisual,2.1,[],8,0.75,
0,pause,0.4,None,None,None,0,89,89,89,,,,,,,,,,,,,D002,visual,1,[],"['1', '2', '3', '4']",1,2023.2.3,harveyvisual,2.1,[],8,0.75,
8,dot,0.3,['dot'],['density'],black,0,90,90,90,,,33.90020394325256,33.618674993515015,33.918635845184326,dot,"[0.06, 0.06, 0.06, 0.1, 0.08, 0.1, 0.1, 0.08]","[[-0.3265204970111284, 0.22652760434067618], [0.11129643684023392, 0.07926950251467085], [0.07893474341784651, 0.4315681374945237], [-0.2000017914838315, -0.08445279674287073], [-0.29956068591909263, 0.4664910923320479], [-0.09828291121522204, 0.1483319570086381], [0.07400994184747142, -0.11883630301138211], [-0.12650192453358844, 0.35264367728062257]]",density,black,,,D002,visual,1,[],"['1', '2', '3', '4']",1,2023.2.3,harveyvisual,2.1,[],8,0.75,
0,pause,0.4,None,None,None,0,91,91,91,,,,,,,,,,,,,D002,visual,1,[],"['1', '2', '3', '4']",1,2023.2.3,harveyvisual,2.1,[],8,0.75,
8,dot,0.3,['dot'],['density'],black,0,92,92,92,,,34.60019779205322,34.31863188743591,34.61861300468445,dot,"[0.1, 0.1, 0.08, 0.06, 0.06, 0.08, 0.06, 0.06]","[[0.17295790489511154, -0.46037743866749825], [0.1416591427765588, 0.05421051799673566], [0.21994266958916148, -0.13656690113679631], [0.3639906379971415, 0.0627265571221228], [0.015481321741344221, -0.13916897583717935], [0.440802488837635, -0.2883976186876931], [0.5157567705321767, -0.08800602901884749], [0.24768837887357187, 0.24424825162618136]]",density,black,,,D002,visual,1,[],"['1', '2', '3', '4']",1,2023.2.3,harveyvisual,2.1,[],8,0.75,
0,pause,0.4,None,None,None,0,93,93,93,,,,,,,,,,,,,D002,visual,1,[],"['1', '2', '3', '4']",1,2023.2.3,harveyvisual,2.1,[],8,0.75,
8,dot,0.3,['dot'],['density'],black,0,94,94,94,,,35.3002028465271,35.01860499382019,35.31862187385559,dot,"[0.06, 0.06, 0.1, 0.08, 0.08, 0.06, 0.06, 0.08]","[[0.2695774744445919, -0.006239189610034271], [0.562582848369008, 0.10338967896652898], [0.24075709842543627, 0.2415297589697605], [0.16944247952526825, 0.43473569867318385], [0.009973801462114143, 0.2622623098226203], [0.4378981685404615, 0.30984992123658367], [0.345623627049791, -0.19390063473497438], [0.01218861403819752, 6.35764658527089e-05]]",density,black,,,D002,visual,1,[],"['1', '2', '3', '4']",1,2023.2.3,harveyvisual,2.1,[],8,0.75,
0,pause,0.4,None,None,None,0,95,95,95,,,,,,,,,,,,,D002,visual,1,[],"['1', '2', '3', '4']",1,2023.2.3,harveyvisual,2.1,[],8,0.75,
9,dot,0.3,['dot'],['density'],black,0,96,96,96,,,36.00021696090698,35.71859788894653,36.018574953079224,dot,"[0.06, 0.1, 0.1, 0.06, 0.08, 0.1, 0.08, 0.1, 0.08]","[[-0.08858128315591524, -0.3480052213079807], [0.37291707470974605, -0.0809562497479422], [-0.04311872097798103, 0.23152249840731254], [0.1734412630875083, -0.16491363602164627], [-0.024044713080900382, -0.04824256513196188], [0.126438571592319, 0.09122014985587756], [-0.2168202887682383, 0.11190421567656858], [-0.23215605484234547, -0.20356583507002532], [0.291417597339289, 0.24351333182926893]]",density,black,,,D002,visual,1,[],"['1', '2', '3', '4']",1,2023.2.3,harveyvisual,2.1,[],8,0.75,
0,pause,0.4,None,None,None,0,97,97,97,,,,,,,,,,,,,D002,visual,1,[],"['1', '2', '3', '4']",1,2023.2.3,harveyvisual,2.1,[],8,0.75,
9,dot,0.3,['dot'],['density'],black,0,98,98,98,,,36.700206995010376,36.418586015701294,36.71869492530823,dot,"[0.1, 0.08, 0.08, 0.1, 0.06, 0.08, 0.06, 0.06, 0.1]","[[-0.4219467838066047, -0.18114019941065054], [-0.2081543488995217, -0.4860059455967178], [-0.008274735502094755, -0.3457533902190916], [0.02376323820852766, -0.0891001390581758], [-0.4116277839025775, 0.058108040724694845], [-0.18144554169200455, -0.05292133149533743], [0.21944315682242976, -0.26450239569476724], [0.11466821484809545, 0.13327019789913197], [-0.2288148866166432, -0.2599929378926301]]",density,black,,,D002,visual,1,[],"['1', '2', '3', '4']",1,2023.2.3,harveyvisual,2.1,[],8,0.75,
0,pause,0.4,None,None,None,0,99,99,99,,,,,,,,,,,,,D002,visual,1,[],"['1', '2', '3', '4']",1,2023.2.3,harveyvisual,2.1,[],8,0.75,
9,dot,0.3,['dot'],['density'],black,0,100,100,100,,,37.4001989364624,37.11870288848877,37.4185688495636,dot,"[0.1, 0.06, 0.08, 0.08, 0.06, 0.1, 0.1, 0.08, 0.06]","[[0.15603996265512696, -0.0872053538661942], [-0.29211765964195757, -0.04110002513656992], [-0.071087909845803, -0.33174387981618686], [-0.13011395490928096, 0.2584597801106329], [-0.08364541374476576, -0.0980664528631432], [-0.26669569773039664, -0.25481833902542456], [-0.35582819085755485, -0.4494505046102014], [-0.1269674344078877, -0.5566175884613933], [0.011820482989003244, 0.07934247632600783]]",density,black,,,D002,visual,1,[],"['1', '2', '3', '4']",1,2023.2.3,harveyvisual,2.1,[],8,0.75,
0,pause,0.4,None,None,None,0,101,101,101,,,,,,,,,,,,,D002,visual,1,[],"['1', '2', '3', '4']",1,2023.2.3,harveyvisual,2.1,[],8,0.75,
9,dot,0.3,['dot'],['density'],black,0,102,102,102,,,38.10020995140076,37.81850600242615,38.118480920791626,dot,"[0.1, 0.06, 0.08, 0.1, 0.08, 0.08, 0.08, 0.06, 0.06]","[[-0.5242180236495622, 0.2097960018926228], [-0.2671382220306689, 0.3003190330968159], [-0.06183693718886379, 0.22592490829479475], [-0.2001015593906042, -0.14641750634996328], [-0.09246193223873551, 0.43765994221656135], [-0.29330373087767303, 0.05285487614136386], [0.007094383220706952, 0.008748553761596398], [0.1465325421295601, 0.294910430799518], [0.04425292235957525, -0.2230758375085622]]",density,black,,,D002,visual,1,[],"['1', '2', '3', '4']",1,2023.2.3,harveyvisual,2.1,[],8,0.75,
0,pause,0.4,None,None,None,0,103,103,103,,,,,,,,,,,,,D002,visual,1,[],"['1', '2', '3', '4']",1,2023.2.3,harveyvisual,2.1,[],8,0.75,
9,dot,0.3,['dot'],['density'],black,0,104,104,104,,,38.8002028465271,38.5185170173645,38.81850600242615,dot,"[0.06, 0.08, 0.06, 0.1, 0.08, 0.1, 0.1, 0.08, 0.1]","[[0.11766436913102363, -0.04327704920019282], [0.17973489876850246, -0.2957558932143311], [0.4322853556796634, 0.1292829237047714], [-0.0348924626991882, -0.2091692004054023], [0.511593351462966, -0.2715393032181878], [0.39631341359825684, -0.10388811790353111], [0.1759041025424718, 0.35783279634564974], [-0.11077337801993212, 0.08002505665429639], [0.1915495233696259, 0.15329463501335125]]",density,black,,,D002,visual,1,[],"['1', '2', '3', '4']",1,2023.2.3,harveyvisual,2.1,[],8,0.75,
0,pause,0.4,None,None,None,0,105,105,105,,,,,,,,,,,,,D002,visual,1,[],"['1', '2', '3', '4']",1,2023.2.3,harveyvisual,2.1,[],8,0.75,
9,dot,0.3,['dot'],['density'],white,0,106,106,106,,,39.50020980834961,39.21850895881653,39.51847982406616,dot,"[0.06, 0.06, 0.08, 0.06, 0.1, 0.1, 0.08, 0.1, 0.1]","[[-0.3143165991636532, -0.4594448536910345], [-0.2552048841139852, -0.06866208597721758], [-0.4539914907372049, -0.019462523532982], [-0.0016330512078212595, -0.20036737320767878], [-0.1856154264835833, -0.2915493351998931], [-0.41369389823818076, -0.2734186166626005], [0.2388286227728169, -0.07063581723838416], [0.0412368179136257, 0.05808754956878123], [-0.37802967984412894, 0.19285536194211775]]",density,white,,,D002,visual,1,[],"['1', '2', '3', '4']",1,2023.2.3,harveyvisual,2.1,[],8,0.75,
0,pause,0.4,None,None,None,0,107,107,107,,,,,,,,,,,1,39.71958589553833,D002,visual,1,[],"['1', '2', '3', '4']",1,2023.2.3,harveyvisual,2.1,[],8,0.75,
20,dot,0.3,['dot'],['density'],black,0,108,108,108,,,40.20020294189453,39.91848182678223,40.218464851379395,dot,"[0.1, 0.1, 0.06, 0.1, 0.08, 0.06, 0.08, 0.08, 0.06, 0.06, 0.06, 0.1, 0.1, 0.08, 0.06, 0.06, 0.08, 0.1, 0.1, 0.08]","[[0.24190097866386506, -0.5493107276835923], [0.11628355256803857, 0.31596289914163267], [0.4071283418171755, -0.03222385822580609], [-0.5698554921682539, -0.15617936545560918], [-0.05385066977423658, -0.23523783089232847], [-0.3690093741974332, 0.40822958643746987], [0.09048758418825276, -0.433791212036144], [-0.3650066352591337, 0.10023962573534262], [0.5435969766616578, 0.12171540146957821], [-0.1649859993099138, 0.25272710948545574], [-0.04365248469919647, 0.008543340065023886], [-0.23371659596627198, -0.3484023848044625], [-0.25212052934032664, -0.05695921995064046], [0.3306199832950024, -0.31097008350803235], [-0.42761035424806026, -0.3206619672669319], [0.3415669035680844, 0.3589397205799057], [-0.5388577533460537, 0.20032017657839213], [-0.015629936487029372, 0.5796966877443746], [0.20682414133733673, 0.5223045271288985], [0.5634498931223931, -0.18368280835265222]]",density,black,,,D002,visual,1,[],"['1', '2', '3', '4']",1,2023.2.3,harveyvisual,2.1,[],8,0.75,
0,pause,0.4,None,None,None,0,109,109,109,,,,,,,,,,,,,D002,visual,1,[],"['1', '2', '3', '4']",1,2023.2.3,harveyvisual,2.1,[],8,0.75,
20,dot,0.3,['dot'],['density'],black,0,110,110,110,,,40.900205850601196,40.61864495277405,40.91844582557678,dot,"[0.1, 0.08, 0.08, 0.06, 0.06, 0.06, 0.06, 0.08, 0.1, 0.08, 0.08, 0.08, 0.08, 0.08, 0.08, 0.1, 0.1, 0.06, 0.1, 0.06]","[[0.4861627499818756, -0.3497205949760887], [0.49210535195231764, 0.16112279816488545], [-0.19664114442129316, -0.28119905485672064], [-0.46029999557010115, 0.2680828410161663], [-0.34009705826422976, 0.49795514237670724], [0.027590264127474784, -0.3098882632643643], [0.2344928274125493, 0.39467805333462636], [0.0911239670121663, -0.5889209043038316], [-0.1840971216289058, 0.20988081881328868], [0.22920519685206497, -0.13861930409956957], [-0.46626557027145354, -0.2844902537281797], [-0.520686045122042, -0.000764218471204392], [0.5785134100489163, -0.14264785405933275], [0.2634138434684786, -0.38686369560696365], [-0.19790241000196968, 0.008471362040728847], [-0.09731695308368216, 0.46152194456307083], [-0.031080901867596822, -0.08154003442645308], [-0.2992127270650734, -0.48197545841900935], [-0.09769721335893589, -0.4650003454028985], [0.21976498512185394, 0.1680280211750257]]",density,black,,,D002,visual,1,[],"['1', '2', '3', '4']",1,2023.2.3,harveyvisual,2.1,[],8,0.75,
0,pause,0.4,None,None,None,0,111,111,111,,,,,,,,,,,,,D002,visual,1,[],"['1', '2', '3', '4']",1,2023.2.3,harveyvisual,2.1,[],8,0.75,
20,dot,0.3,['dot'],['density'],white,0,112,112,112,,,41.600202798843384,41.3185818195343,41.61842083930969,dot,"[0.06, 0.06, 0.1, 0.1, 0.06, 0.06, 0.06, 0.1, 0.06, 0.06, 0.1, 0.1, 0.1, 0.08, 0.06, 0.08, 0.06, 0.06, 0.06, 0.1]","[[0.27710683228229993, -0.09170886526006866], [0.5034185496649733, -0.32121345013678326], [0.25076990257134035, -0.28742306595699624], [-0.03214933406041187, -0.5037703299118402], [-0.09482660781674979, 0.2864526828730536], [-0.510910561774805, -0.053229322222034636], [-0.11047444754987573, -0.13091963543560386], [-0.41510348212352094, 0.40937131339456295], [-0.3256801796386474, -0.4554914309343337], [0.35116501746881124, 0.274705820020623], [0.43282275194126185, 0.07819543177620242], [0.22288116335518882, 0.10239435696417531], [0.2558171976771486, 0.5134855696350802], [-0.24193138252720053, 0.10924259196427055], [0.5752850250755849, -0.14541941309085646], [-0.06800316476097934, 0.5583605641678886], [-0.3213040676267241, -0.23324254276487988], [0.16265830642383716, -0.4624891119899946], [-0.430797033973482, 0.13425425138394703], [0.3588751613026895, -0.4604597927457334]]",density,white,,,D002,visual,1,[],"['1', '2', '3', '4']",1,2023.2.3,harveyvisual,2.1,[],8,0.75,
0,pause,0.4,None,None,None,0,113,113,113,,,,,,,,,,,1,41.76781177520752,D002,visual,1,[],"['1', '2', '3', '4']",1,2023.2.3,harveyvisual,2.1,[],8,0.75,
20,dot,0.3,['dot'],['density'],black,0,114,114,114,,,42.30021286010742,42.018409967422485,42.31840181350708,dot,"[0.1, 0.08, 0.06, 0.06, 0.08, 0.08, 0.1, 0.08, 0.06, 0.1, 0.1, 0.08, 0.1, 0.06, 0.1, 0.1, 0.1, 0.06, 0.08, 0.08]","[[0.003914508528379601, 0.3353996998922374], [0.41744499345911856, 0.37218324008014864], [0.1130229076975704, -0.0193270126775813], [-0.5196959876069374, 0.2222454567562489], [-0.15980787936629315, 0.53300565921011], [0.33437912722798235, -0.20533296133148754], [-0.5454455146126318, -0.05062719899899368], [0.2567857559588681, 0.49618916968962523], [0.014171055396501209, -0.5377147618903378], [-0.41785655020996315, -0.312012770723314], [0.5641102603925995, -0.16416604577830302], [0.32748827403785286, 0.07691997654387628], [-0.0796019967499415, -0.1949456728067941], [-0.31852980316159707, -0.10726718981607325], [-0.018496378324527774, 0.12811875964553032], [0.3488700813719371, -0.46905151307461784], [0.05379187028409449, 0.5745253992629284], [0.20443928855315852, 0.24974636760826696], [-0.3151991866771801, 0.3287302974420748], [-0.35935763281223954, 0.1072323943437477]]",density,black,,,D002,visual,1,[],"['1', '2', '3', '4']",1,2023.2.3,harveyvisual,2.1,[],8,0.75,
0,pause,0.4,None,None,None,0,115,115,115,,,,,,,,,,,,,D002,visual,1,[],"['1', '2', '3', '4']",1,2023.2.3,harveyvisual,2.1,[],8,0.75,
20,dot,0.3,['dot'],['density'],black,0,116,116,116,,,43.00021696090698,42.71840190887451,43.01838397979736,dot,"[0.1, 0.06, 0.1, 0.06, 0.1, 0.06, 0.1, 0.1, 0.06, 0.1, 0.1, 0.08, 0.08, 0.1, 0.08, 0.06, 0.1, 0.06, 0.08, 0.08]","[[0.38036682655250065, 0.45505046060867], [0.20760630524296908, 0.5423902682148156], [-0.23147832745550395, 0.43267228261612656], [-0.567920449470966, -0.1928400292903863], [0.3684172729473779, 0.18975574715978005], [0.23704144779524772, 0.045805765839346924], [-0.07809379844112352, 0.3161076449540954], [-0.16694233921062757, 0.046724630097995434], [0.07473177864149894, -0.13759089081956521], [0.27766741098786607, -0.42095594944472736], [-0.569857652756026, 0.1775860289842893], [0.5062954560320497, -0.0027868371834262606], [0.05838140513460732, 0.18255608058187134], [-0.35741022495903174, -0.21900831036486923], [-0.46964283683284247, 0.34928801953206584], [-0.29888396459241207, -0.5096939424050765], [-0.4139590277041371, -0.015737660658940666], [0.08945710353960001, -0.5419866644484623], [0.10356411202692184, -0.3414210868797176], [-0.08975842486726349, -0.3535665998091408]]",density,black,,,D002,visual,1,[],"['1', '2', '3', '4']",1,2023.2.3,harveyvisual,2.1,[],8,0.75,
0,pause,0.4,None,None,None,0,117,117,117,,,,,,,,,,,,,D002,visual,1,[],"['1', '2', '3', '4']",1,2023.2.3,harveyvisual,2.1,[],8,0.75,
20,dot,0.3,['dot'],['density'],black,0,118,118,118,,,43.70021891593933,43.41837000846863,43.718344926834106,dot,"[0.06, 0.1, 0.08, 0.1, 0.06, 0.08, 0.06, 0.06, 0.1, 0.1, 0.06, 0.08, 0.1, 0.1, 0.08, 0.08, 0.08, 0.06, 0.1, 0.1]","[[-0.488492028033473, -0.31089639739797825], [-0.16699787259116855, 0.09025720313197272], [0.3911167984155408, -0.37367823993787785], [0.0876793286122719, 0.2626366176404549], [0.1946678457099812, 0.5233932294089416], [0.17471827553158303, 0.03793165560008982], [-0.39143602347444123, 0.2889673999329675], [0.5591585222565897, -0.0525368329141051], [0.1529054488352991, -0.5250957335842236], [-0.16610463802681041, 0.5473722068621573], [-0.0659175851507604, -0.24018068429954054], [-0.5999558726648039, 0.03936679002840522], [-0.2847241631278479, -0.49681316041857604], [0.330475352769375, 0.3421952440289955], [0.11487282528018372, -0.1650498288874025], [0.5332071043698231, 0.18806619991327556], [-0.07520084633976787, -0.43803043745528714], [-0.3381739920510652, -0.12335803799278489], [0.3536947652889242, -0.041269657608965504], [-0.1630704623314288, 0.35310976317497234]]",density,black,,,D002,visual,1,[],"['1', '2', '3', '4']",1,2023.2.3,harveyvisual,2.1,[],8,0.75,
0,pause,0.4,None,None,None,0,119,119,119,,,,,,,,,,,,,D002,visual,1,[],"['1', '2', '3', '4']",1,2023.2.3,harveyvisual,2.1,[],8,0.75,
20,dot,0.3,['dot'],['density'],black,0,120,120,120,,,44.400216817855835,44.11837100982666,44.41832995414734,dot,"[0.06, 0.1, 0.1, 0.1, 0.08, 0.08, 0.06, 0.1, 0.1, 0.06, 0.06, 0.06, 0.06, 0.1, 0.06, 0.06, 0.08, 0.08, 0.06, 0.08]","[[0.3732027496391651, 0.4442850460038678], [-0.2508779553823228, -0.14668239781099895], [0.4542745087636305, 0.19973496865653312], [0.40718036684067027, -0.19134165825048316], [-0.4523130021990638, 0.1378692939396018], [0.21603287725633025, -0.08523835928234064], [0.5588337424631055, -0.01747610221450721], [-0.15575336050779875, 0.5349164062141001], [-0.5476466455423881, -0.13604881736100513], [-0.038079241897587046, -0.44156610259729323], [-0.0436527994900594, 0.32564591545704946], [0.12732657930581903, 0.4943035641852712], [0.21560627004466937, 0.1947051203837511], [0.19376325714847775, -0.47349140150779384], [-0.4112252959590855, 0.3357114473725057], [0.00894212082502488, 0.06798814312162382], [0.41214639620972104, -0.44116176330681967], [-0.20511359942213792, 0.10126250863178887], [-0.34029394032790977, -0.39834835737709345], [-0.06528976065641878, -0.21683482442356344]]",density,black,,,D002,visual,1,[],"['1', '2', '3', '4']",1,2023.2.3,harveyvisual,2.1,[],8,0.75,
0,pause,0.4,None,None,None,0,121,121,121,,,,,,,,,,,,,D002,visual,1,[],"['1', '2', '3', '4']",1,2023.2.3,harveyvisual,2.1,[],8,0.75,
20,dot,0.3,['dot'],['density'],black,0,122,122,122,,,45.10020899772644,44.81835198402405,45.11839985847473,dot,"[0.06, 0.08, 0.08, 0.08, 0.1, 0.08, 0.08, 0.1, 0.08, 0.1, 0.06, 0.08, 0.06, 0.1, 0.06, 0.08, 0.1, 0.08, 0.1, 0.1]","[[0.41986745049192387, 0.20109958527859412], [-0.12128644105868569, -0.5010693261012352], [0.14479509937484192, 0.11797266003895213], [-0.312255435917935, -0.2283282249541938], [-0.11382178071211174, 0.4785493458158412], [-0.09775106621739738, -0.11018217862830337], [-0.5961143576748285, 0.0626563403172159], [0.504051168583464, -0.009478575816432133], [0.5562622023139582, -0.19376538040332927], [0.4548740795513252, 0.39135042365976364], [-0.3408825606378427, 0.15501019136638472], [-0.5195668709035743, 0.29476484039913137], [0.18395966513346396, 0.3704431122972932], [0.21925085661247512, -0.4187412216574888], [-0.5303381785048304, -0.23405363756119846], [0.22061266642514588, -0.17206794286278537], [0.07914335574193887, 0.5426414991170359], [-0.0764506077803101, -0.30111525634286107], [-0.3576611361241858, 0.420594324236007], [-0.06055497915730612, 0.1830486285142725]]",density,black,,,D002,visual,1,[],"['1', '2', '3', '4']",1,2023.2.3,harveyvisual,2.1,[],8,0.75,
0,pause,0.4,None,None,None,0,123,123,123,,,,,,,,,,,,,D002,visual,1,[],"['1', '2', '3', '4']",1,2023.2.3,harveyvisual,2.1,[],8,0.75,
20,dot,0.3,['dot'],['density'],black,0,124,124,124,,,45.80020093917847,45.51831388473511,45.81829285621643,dot,"[0.1, 0.08, 0.06, 0.08, 0.1, 0.1, 0.1, 0.08, 0.08, 0.08, 0.1, 0.08, 0.08, 0.1, 0.08, 0.06, 0.1, 0.1, 0.08, 0.08]","[[-0.31241600033824246, -0.022216359122404605], [-0.27714006747752945, 0.41060428263693016], [0.31478333042341256, 0.21475321776208034], [0.14551979663672043, -0.15556132218461405], [-0.5169238216036686, -0.2655155646692658], [-0.5408970604882923, -0.054541796678082316], [0.5017065992240305, 0.1570089339633971], [0.05188151223370929, 0.5104841078233815], [-0.4763861831674005, 0.27140052617459426], [0.34533403668958906, -0.12670728665582176], [-0.06071248334542434, -0.4344007753183424], [0.5201398872220567, -0.30855773270198317], [-0.1624145118296763, 0.25704107550730704], [0.17306040538334289, -0.5103634848112156], [0.2775726892162379, -0.3271088826465033], [0.17053926497253769, 0.09129343048114225], [0.5355993329671883, -0.06376253769844592], [-0.2851266714185249, -0.3098095202841774], [-0.07086469013817787, -0.2309197657965365], [0.39006225610131096, 0.45874087640724465]]",density,black,,,D002,visual,1,[],"['1', '2', '3', '4']",1,2023.2.3,harveyvisual,2.1,[],8,0.75,
0,pause,0.4,None,None,None,0,125,125,125,,,,,,,,,,,,,D002,visual,1,[],"['1', '2', '3', '4']",1,2023.2.3,harveyvisual,2.1,[],8,0.75,
20,dot,0.3,['dot'],['density'],black,0,126,126,126,,,46.50020480155945,46.218291997909546,46.51827597618103,dot,"[0.1, 0.1, 0.1, 0.06, 0.1, 0.06, 0.06, 0.08, 0.06, 0.06, 0.08, 0.08, 0.08, 0.08, 0.08, 0.08, 0.06, 0.06, 0.08, 0.06]","[[0.48014992211120944, -0.08062746839691143], [-0.593680790309952, 0.06577035791647125], [0.5586225398615491, 0.23175130557165274], [0.1693692610678822, 0.3569073870189947], [-0.4662796722436731, -0.20196903870091568], [0.03149826581818316, -0.5037858649787657], [-0.38058964384592975, 0.1107730577940641], [0.30666010632682583, 0.14580271145750567], [-0.4992418864045102, 0.3408964959688962], [-0.13381300756632225, -0.17097325897914223], [0.32740856814948993, -0.4455947172350489], [0.008870360056949966, 0.581334893406103], [-0.30165084953171106, -0.3310567444259571], [0.09336208385233036, -0.24189551250058117], [0.25601290966328205, -0.08442492535090101], [-0.23058437335916127, 0.2828421571370714], [-0.03818421403078298, 0.3515941685489812], [0.4108089066828614, 0.434661356862285], [-0.29436618375834184, 0.5108472954328228], [-0.15614867209159217, 0.043789560780731596]]",density,black,,,D002,visual,1,[],"['1', '2', '3', '4']",1,2023.2.3,harveyvisual,2.1,[],8,0.75,
0,pause,0.4,None,None,None,0,127,127,127,,,,,,,,,,,,,D002,visual,1,[],"['1', '2', '3', '4']",1,2023.2.3,harveyvisual,2.1,[],8,0.75,
20,dot,0.3,['dot'],['density'],black,0,128,128,128,,,47.20020794868469,46.91827392578125,47.218257904052734,dot,"[0.08, 0.06, 0.1, 0.1, 0.1, 0.08, 0.06, 0.08, 0.1, 0.08, 0.06, 0.1, 0.1, 0.06, 0.06, 0.06, 0.06, 0.1, 0.1, 0.08]","[[0.5007698009257892, -0.2778508072991627], [-0.10872284562417, -0.514221704447563], [-0.13571371599581045, -0.05060751477023806], [0.11818025333041515, 0.5340494265715228], [-0.5447841054460614, -0.2450925779704841], [-0.2889640808821329, -0.31565458455417217], [0.313363992933676, -0.11612380441818626], [-0.04330459886965676, 0.42662563960608735], [0.32542439774076504, 0.28613504315985105], [-0.4298336327346328, 0.34651893120478633], [-0.3801047034241811, 0.013807748457808411], [-0.515406942026696, 0.17230445031039449], [0.1672093194496207, 0.007952223296293526], [-0.6030153983842184, -0.03081136836770963], [0.12710951739916876, -0.5715748623585101], [0.021522415386081684, -0.32157334197570714], [0.5162446338936565, 0.04935779271909291], [0.05088831101345537, 0.23543801995819558], [-0.1765059188064973, 0.16449427996891086], [-0.2545102041217136, 0.4235915908098805]]",density,black,,,D002,visual,1,[],"['1', '2', '3', '4']",1,2023.2.3,harveyvisual,2.1,[],8,0.75,
0,pause,0.4,None,None,None,0,129,129,129,,,,,,,,,,,,,D002,visual,1,[],"['1', '2', '3', '4']",1,2023.2.3,harveyvisual,2.1,[],8,0.75,
20,dot,0.3,['dot'],['density'],black,0,130,130,130,,,47.90020680427551,47.618263959884644,47.91822695732117,dot,"[0.06, 0.06, 0.1, 0.06, 0.08, 0.08, 0.08, 0.08, 0.06, 0.08, 0.08, 0.06, 0.06, 0.1, 0.06, 0.1, 0.08, 0.1, 0.1, 0.06]","[[0.5299877083744099, -0.2605205466290649], [0.3724899989317233, -0.46710589229757077], [-0.10894869439162153, -0.01605589167728161], [0.3633209890133794, 0.13741881547185825], [-0.5696024348012597, 0.1637930592079697], [-0.3436976489357723, -0.22071030053142915], [-0.4759949686914118, -0.0631796780380201], [0.301394251299717, -0.17092873413424647], [0.0878171645876119, -0.20479117402358354], [-0.16453828606157112, -0.3991314668224669], [0.08754778608222569, -0.47555555056972326], [-0.3733106952533479, 0.11927988570377501], [-0.2876924491941918, 0.4669329153828522], [0.5955258547046433, 0.05846957364033782], [0.07857865485836557, 0.03282843737991348], [0.3507181669157253, 0.33294591800037904], [-0.004858224056054183, 0.5691311427944022], [0.5362690230318438, 0.2786756181756929], [0.2352001152939125, 0.5190401614526635], [0.11327075995210778, 0.3426386298222641]]",density,black,,,D002,visual,1,[],"['1', '2', '3', '4']",1,2023.2.3,harveyvisual,2.1,[],8,0.75,
0,pause,0.4,None,None,None,0,131,131,131,,,,,,,,,,,,,D002,visual,1,[],"['1', '2', '3', '4']",1,2023.2.3,harveyvisual,2.1,[],8,0.75,
20,dot,0.3,['dot'],['density'],black,0,132,132,132,,,48.60020089149475,48.318248987197876,48.618265867233276,dot,"[0.08, 0.08, 0.08, 0.08, 0.1, 0.08, 0.06, 0.08, 0.08, 0.1, 0.1, 0.06, 0.1, 0.1, 0.06, 0.08, 0.08, 0.1, 0.08, 0.08]","[[-0.4106517135880101, -0.3351392285814592], [0.47459756703505185, -0.04603077277322043], [0.26439452496869753, 0.19922021472128548], [0.04554900382674931, 0.16510315475012438], [0.47109888105015674, -0.3268285990336919], [-0.4494200378788272, 0.26048711759405446], [0.21310291801962988, -0.2898341069828025], [0.13326116786179198, -0.5091924518886596], [-0.14207561844402206, 0.015740057920992423], [-0.04353128426791175, -0.3219344167915358], [0.06120633796722419, -0.12017203788235642], [-0.17109456553075636, 0.2944996910079608], [-0.28282493179659285, -0.12214120445476229], [-0.09406553381777927, 0.5365067278928184], [-0.5549070503415852, -0.16200767509643865], [0.0944219726277018, 0.4823534623526474], [-0.4873023544395467, 0.05417147532692551], [0.47054005516615394, 0.27067169896704013], [-0.15752774504067596, -0.5827710891467041], [-0.38528011723537625, 0.44510126043179155]]",density,black,,,D002,visual,1,[],"['1', '2', '3', '4']",1,2023.2.3,harveyvisual,2.1,[],8,0.75,
0,pause,0.4,None,None,None,0,133,133,133,,,,,,,,,,,,,D002,visual,1,[],"['1', '2', '3', '4']",1,2023.2.3,harveyvisual,2.1,[],8,0.75,
20,dot,0.3,['dot'],['density'],black,0,134,134,134,,,49.3002188205719,49.01821994781494,49.3182008266449,dot,"[0.1, 0.08, 0.06, 0.06, 0.06, 0.1, 0.06, 0.08, 0.1, 0.1, 0.1, 0.1, 0.1, 0.1, 0.06, 0.08, 0.06, 0.06, 0.06, 0.06]","[[0.575043719711256, -0.07824902507189284], [-0.23814599759644633, 0.27878463576329693], [-0.40432585593532894, -0.20022833830485665], [-0.4980775491178844, 0.016488704514672936], [0.3908582154188043, 0.3496292131316633], [0.0619814964253208, -0.31678799282932196], [-0.16235453536914524, -0.1197277442182883], [0.12908471522079124, -0.06238643105888364], [0.1741562931457753, 0.3695955235443211], [0.27487732289760414, -0.21916284644614398], [-0.14311381359018377, 0.5296560772624259], [0.24902448698115287, -0.4544042897310719], [-0.15555246351499213, 0.09450462395902348], [-0.416506511126902, -0.4187011978449727], [0.006633641746324748, -0.5911227868624993], [0.24283774145067705, 0.1778545588615389], [0.3476392118700167, -0.02149973924014964], [-0.447552128961862, 0.25914697140543425], [-0.20096380916456102, -0.3724938598268954], [-0.36834535996448425, 0.4731241191525132]]",density,black,,,D002,visual,1,[],"['1', '2', '3', '4']",1,2023.2.3,harveyvisual,2.1,[],8,0.75,
0,pause,0.4,None,None,None,0,135,135,135,,,,,,,,,,,,,D002,visual,1,[],"['1', '2', '3', '4']",1,2023.2.3,harveyvisual,2.1,[],8,0.75,
20,dot,0.3,['dot'],['density'],black,0,136,136,136,,,50.0002179145813,49.71819090843201,50.01817584037781,dot,"[0.1, 0.08, 0.1, 0.1, 0.06, 0.06, 0.1, 0.1, 0.06, 0.08, 0.08, 0.06, 0.06, 0.1, 0.08, 0.1, 0.06, 0.08, 0.1, 0.1]","[[0.127229341880986, -0.4086684334223751], [-0.46478771332171814, -0.12644455786244574], [-0.3871016990332406, 0.17281690508957886], [0.5123050172222857, 0.20943330837455643], [-0.3419134108461534, -0.39847572455063035], [0.20330831175466002, -0.09253051558828312], [0.48870049842094454, -0.22499406089554658], [-0.2640709289894444, -0.09118333209849772], [0.17295656289641903, 0.2523549994115303], [-0.08737956450452689, 0.4631961203797169], [-0.2114306511053613, -0.5358296460081977], [0.5364946327385808, 0.01449569216865948], [0.34080443793873516, 0.4214563541296864], [-0.13037889736349184, 0.0818716197355942], [-0.5919405735056499, 0.0366033724177455], [-0.10806124358043162, -0.21529074214901095], [0.17310178710419433, 0.574905007465565], [-0.3605246974438331, 0.4637913970460644], [0.32710900839025137, -0.47073961202997594], [0.05489002314493818, 0.02802308056766123]]",density,black,,,D002,visual,1,[],"['1', '2', '3', '4']",1,2023.2.3,harveyvisual,2.1,[],8,0.75,
0,pause,0.4,None,None,None,0,137,137,137,,,,,,,,,,,,,D002,visual,1,[],"['1', '2', '3', '4']",1,2023.2.3,harveyvisual,2.1,[],8,0.75,
20,dot,0.3,['dot'],['density'],black,0,138,138,138,,,50.70021295547485,50.41818189620972,50.71927285194397,dot,"[0.1, 0.06, 0.1, 0.1, 0.08, 0.1, 0.1, 0.08, 0.06, 0.08, 0.08, 0.08, 0.1, 0.06, 0.06, 0.1, 0.08, 0.06, 0.1, 0.1]","[[0.09658966819033776, 0.26695091299620977], [-0.27601553384010785, -0.07183700687996553], [-0.5641251025625134, 0.018045227862352686], [-0.2453029412337644, -0.26589888732144473], [0.09035240762998176, -0.07851065656960288], [-0.3475585860024767, 0.3490443301085913], [0.012860718505270707, -0.5252480762408029], [0.5746882578314788, 0.07405807436065798], [0.3888436826003816, -0.0559943197752375], [0.4677917697774706, 0.2872085153619807], [-0.3918751262295226, 0.10118740408201315], [0.06472393228058493, 0.4584403729107912], [0.25074246340467454, -0.36999240730686345], [0.4863212990582685, -0.33186697611625654], [-0.48727928993353126, -0.20242289046191303], [-0.1520083063839266, 0.5462694092929693], [-0.5226111982896053, 0.2626446281951588], [0.26682822269230755, 0.45120027023600906], [0.264353864394683, 0.17074880609674925], [-0.03992608299468903, -0.22357821429620522]]",density,black,,,D002,visual,1,[],"['1', '2', '3', '4']",1,2023.2.3,harveyvisual,2.1,[],8,0.75,
0,pause,0.4,None,None,None,0,139,139,139,,,,,,,,,,,,,D002,visual,1,[],"['1', '2', '3', '4']",1,2023.2.3,harveyvisual,2.1,[],8,0.75,
20,dot,0.3,['dot'],['density'],black,0,140,140,140,,,51.40021991729736,51.11817193031311,51.41815900802612,dot,"[0.1, 0.06, 0.08, 0.06, 0.06, 0.1, 0.06, 0.06, 0.08, 0.1, 0.1, 0.1, 0.1, 0.08, 0.1, 0.06, 0.1, 0.1, 0.1, 0.08]","[[-0.3742370007212411, -0.4305124884028714], [0.007549848851001961, -0.0999159867372581], [-0.024359603788310924, 0.4781895623443363], [-0.07804433132005206, 0.13294977124998653], [-0.04901781754904233, -0.4481535434231676], [0.15724907424473566, -0.42585984463287463], [0.284618580961707, 0.26081588078457074], [0.37147994086450087, -0.2452844285230698], [-0.25115313481016965, 0.3457394199100794], [0.6033105419781079, 0.018858749325360455], [-0.31125963111927407, -0.08729259502126807], [-0.4418090298943391, 0.11763782641660026], [0.09548872804211361, 0.32450324567007416], [-0.5102895881143604, -0.10914736754983978], [0.37415913338654294, -0.457060985697698], [0.31398542635620075, 0.4754281053908874], [0.211100866506422, 0.016808417692958377], [0.5573758491179527, 0.21441058067957236], [-0.19950943069120608, -0.29042419734804953], [0.1502678250011268, -0.22966885191597525]]",density,black,,,D002,visual,1,[],"['1', '2', '3', '4']",1,2023.2.3,harveyvisual,2.1,[],8,0.75,
0,pause,0.4,None,None,None,0,141,141,141,,,,,,,,,,,,,D002,visual,1,[],"['1', '2', '3', '4']",1,2023.2.3,harveyvisual,2.1,[],8,0.75,
20,dot,0.3,['dot'],['density'],black,0,142,142,142,,,52.10020399093628,51.81813979148865,52.118122816085815,dot,"[0.08, 0.06, 0.1, 0.08, 0.06, 0.1, 0.08, 0.1, 0.1, 0.08, 0.06, 0.1, 0.1, 0.06, 0.06, 0.06, 0.08, 0.08, 0.1, 0.1]","[[-0.591060524114772, 0.017965529915655448], [-0.16400755074798845, 0.268064710193619], [-0.15944184979085835, -0.33125400174132197], [-0.4471564745146459, 0.38215107580693125], [0.3096854864316857, 0.4099635828293897], [0.22946244365454682, -0.08206271110336039], [0.41015620937011443, -0.17414187734932413], [-0.4020239612431423, -0.3919631828928935], [-0.34984072103235664, -0.15745180526697128], [-0.0741917982874628, 0.5250882615397936], [0.4525569941151669, 0.06440252771390931], [0.5166360285099308, 0.29187816570560177], [0.04331327441361421, -0.4826753418417315], [0.18186272529981373, -0.30645949618392965], [0.023475694943995484, 0.11641859115093878], [-0.07740076839556431, -0.05193362245113553], [0.1245241847017694, 0.5181938647384594], [0.44901114848991674, -0.3803404769605651], [-0.5263235829875718, -0.24190011568686365], [0.24597093994234642, 0.1107587090492016]]",density,black,,,D002,visual,1,[],"['1', '2', '3', '4']",1,2023.2.3,harveyvisual,2.1,[],8,0.75,
0,pause,0.4,None,None,None,0,143,143,143,,,,,,,,,,,,,D002,visual,1,[],"['1', '2', '3', '4']",1,2023.2.3,harveyvisual,2.1,[],8,0.75,
20,dot,0.3,['dot'],['density'],black,0,144,144,144,,,52.800198793411255,52.518099784851074,52.81810283660889,dot,"[0.06, 0.1, 0.06, 0.06, 0.06, 0.06, 0.06, 0.08, 0.1, 0.1, 0.1, 0.1, 0.1, 0.06, 0.08, 0.08, 0.1, 0.06, 0.1, 0.08]","[[-0.4608227021360645, 0.3259990662177676], [0.05585276563027364, -0.3284486624002664], [-0.11397754700436336, 0.2033483344387178], [-0.47490714944514967, -0.15999602461437656], [0.2633552344387604, -0.2763035597009724], [0.4990624335883741, 0.1994262716136223], [-0.2907305420317582, -0.4968887822319217], [0.2647068331693372, -0.08041870362363529], [0.023866651412880135, -0.5165015208761871], [-0.1958646802635915, -0.14719134759128377], [-0.2787662225506861, 0.5030359902761615], [0.1329111513221949, 0.3802064472782303], [0.5531954798887103, -0.17207471415945289], [-0.5595408774760093, 0.1570194596048299], [0.30982556576604847, 0.4607554514526264], [0.1069571608357408, 0.06335225188877291], [-0.10358552084570172, 0.4172194093888848], [0.44498088454507945, -0.3420811575453131], [0.12121422468163379, 0.5883646961889231], [-0.15322547905330952, -0.3434986172562896]]",density,black,,,D002,visual,1,[],"['1', '2', '3', '4']",1,2023.2.3,harveyvisual,2.1,[],8,0.75,
0,pause,0.4,None,None,None,0,145,145,145,,,,,,,,,,,,,D002,visual,1,[],"['1', '2', '3', '4']",1,2023.2.3,harveyvisual,2.1,[],8,0.75,
20,dot,0.3,['dot'],['density'],black,0,146,146,146,,,53.500216007232666,53.21809387207031,53.51806879043579,dot,"[0.08, 0.08, 0.06, 0.08, 0.06, 0.06, 0.08, 0.06, 0.1, 0.06, 0.1, 0.08, 0.1, 0.08, 0.06, 0.08, 0.06, 0.1, 0.08, 0.06]","[[-0.09002999128189526, -0.5361691311313846], [-0.020205397746467457, 0.4502643473001484], [-0.32899943076704624, 0.07668810089920519], [0.45385838691809866, -0.34543512550650773], [-0.46279735524958704, -0.319932818970116], [0.36744556301785414, 0.21820783214282768], [0.14775764762823762, -0.4220005325954626], [0.011111006783253385, -0.0455396419619728], [0.4286038470549801, -0.019919308618749687], [-0.09241694851734095, -0.30139945446854], [-0.3657690047255054, 0.3295105148087352], [-0.5891101462509292, -0.10801414330570047], [0.09208292425145237, 0.15466835149548164], [0.22823088351136067, -0.11575226020994589], [0.5830937103449977, 0.14459062797801572], [0.3464135182042287, 0.46685990794766313], [-0.5416570546336034, 0.14953988640824234], [-0.0910476243049334, 0.20515800743197543], [-0.3216259403886985, -0.4946381586942522], [0.17023922272973413, 0.5475934452248044]]",density,black,,,D002,visual,1,[],"['1', '2', '3', '4']",1,2023.2.3,harveyvisual,2.1,[],8,0.75,
0,pause,0.4,None,None,None,0,147,147,147,,,,,,,,,,,,,D002,visual,1,[],"['1', '2', '3', '4']",1,2023.2.3,harveyvisual,2.1,[],8,0.75,
20,dot,0.3,['dot'],['density'],black,0,148,148,148,,,54.20019888877869,53.918078899383545,54.21804881095886,dot,"[0.08, 0.1, 0.1, 0.06, 0.06, 0.08, 0.06, 0.08, 0.1, 0.1, 0.08, 0.1, 0.08, 0.06, 0.1, 0.1, 0.1, 0.08, 0.1, 0.06]","[[-0.23830246307504244, -0.1988324601521982], [0.47734237771794585, 0.005083925534261291], [0.041367652185325676, -0.5967987382134086], [0.45709802098246655, 0.363042307783689], [0.15374427527970225, 0.4561418118042436], [-0.5689816541374687, -0.15827338301675087], [0.30517346570266735, -0.3070936971435938], [0.0897239809047401, 0.022506766863446548], [-0.357473215275275, 0.006282944548455294], [-0.34799492078113003, -0.40634984967558063], [-0.5480093903697965, 0.11993903903932163], [-0.16614057723162146, -0.4696005370255667], [-0.21362129285019277, 0.4303077149591733], [-0.010191283797924888, -0.24661776952791853], [-0.020528153827141904, 0.26452058105501575], [-0.3228915048312704, 0.2738396654284152], [-0.1685559717817719, 0.04670635437626769], [0.304409277607646, -0.07732940260029925], [0.18655099606868797, 0.20702554361957481], [0.1493905525676711, -0.43440727559189923]]",density,black,,,D002,visual,1,[],"['1', '2', '3', '4']",1,2023.2.3,harveyvisual,2.1,[],8,0.75,
0,pause,0.4,None,None,None,0,149,149,149,,,,,,,,,,,,,D002,visual,1,[],"['1', '2', '3', '4']",1,2023.2.3,harveyvisual,2.1,[],8,0.75,
20,dot,0.3,['dot'],['density'],black,0,150,150,150,,,54.90020990371704,54.61821389198303,54.91820287704468,dot,"[0.1, 0.1, 0.06, 0.08, 0.1, 0.1, 0.1, 0.06, 0.06, 0.08, 0.1, 0.08, 0.1, 0.1, 0.06, 0.06, 0.1, 0.1, 0.06, 0.1]","[[0.3165124671691164, 0.37876567649214066], [-0.013794463718357908, -0.3327536309034372], [-0.26245669937731086, -0.45484431086019544], [-0.1791898610099693, 0.3751834408535737], [0.41402528752030354, -0.08177018837022465], [-0.2839360568744615, 0.055027378084730016], [-0.45367126251156353, 0.26628835336681334], [0.1974290702551802, -0.07693114233575449], [0.1493268567572419, 0.47029835887901417], [0.36504140362144566, 0.17094366180546944], [0.5320160273162403, 0.28422948242579715], [-0.4252333283775239, -0.2588025095278681], [-0.5801843467552759, 0.051369976882273544], [0.015511180393092738, 0.002654823564119946], [0.5264149632811138, -0.2822267839832221], [0.1604407820418018, -0.46972442846942214], [-0.07367248028973372, -0.5805476740065206], [0.2201486684867917, -0.2871623605412428], [-0.23646592973564012, -0.2204382749118795], [-0.11431375283818557, 0.5879235629983823]]",density,black,,,D002,visual,1,[],"['1', '2', '3', '4']",1,2023.2.3,harveyvisual,2.1,[],8,0.75,
0,pause,0.4,None,None,None,0,151,151,151,,,,,,,,,,,,,D002,visual,1,[],"['1', '2', '3', '4']",1,2023.2.3,harveyvisual,2.1,[],8,0.75,
20,dot,0.3,['dot'],['density'],black,0,152,152,152,,,55.60021781921387,55.31808590888977,55.61806797981262,dot,"[0.06, 0.1, 0.06, 0.08, 0.06, 0.06, 0.06, 0.1, 0.1, 0.06, 0.1, 0.08, 0.06, 0.06, 0.1, 0.1, 0.1, 0.06, 0.06, 0.08]","[[-0.31241600033824246, -0.022216359122404605], [-0.27714006747752945, 0.41060428263693016], [0.31478333042341256, 0.21475321776208034], [0.14551979663672043, -0.15556132218461405], [-0.5169238216036686, -0.2655155646692658], [-0.5408970604882923, -0.054541796678082316], [0.5017065992240305, 0.1570089339633971], [0.05188151223370929, 0.5104841078233815], [-0.4763861831674005, 0.27140052617459426], [0.34533403668958906, -0.12670728665582176], [-0.06071248334542434, -0.4344007753183424], [0.5201398872220567, -0.30855773270198317], [-0.1624145118296763, 0.25704107550730704], [0.17306040538334289, -0.5103634848112156], [0.2775726892162379, -0.3271088826465033], [0.17053926497253769, 0.09129343048114225], [0.5355993329671883, -0.06376253769844592], [-0.2851266714185249, -0.3098095202841774], [-0.07086469013817787, -0.2309197657965365], [0.39006225610131096, 0.45874087640724465]]",density,black,,,D002,visual,1,[],"['1', '2', '3', '4']",1,2023.2.3,harveyvisual,2.1,[],8,0.75,
0,pause,0.4,None,None,None,0,153,153,153,,,,,,,,,,,,,D002,visual,1,[],"['1', '2', '3', '4']",1,2023.2.3,harveyvisual,2.1,[],8,0.75,
20,dot,0.3,['dot'],['density'],black,0,154,154,154,,,56.30020189285278,56.01808285713196,56.31806182861328,dot,"[0.1, 0.1, 0.08, 0.1, 0.1, 0.08, 0.06, 0.06, 0.1, 0.08, 0.06, 0.08, 0.1, 0.08, 0.06, 0.1, 0.1, 0.06, 0.08, 0.08]","[[0.11953557442209295, 0.040145127667976954], [-0.35461567450665077, 0.4551717592112577], [-0.4322802159929685, 0.18529369431543857], [-0.6026372374688025, -0.03980339764913339], [-0.14347132160040127, 0.29157786820336506], [0.5360349162915733, -0.2528945031346911], [0.2821774172128223, 0.4588705758476651], [0.5286625901306888, -0.04732891654362273], [-0.2550081237304521, -0.1935695301063618], [0.2841780267908589, -0.44360137868237115], [-0.4939653707007538, -0.2941268469729622], [0.4157881117708929, 0.2543256776340476], [-0.07611886813639601, -0.26322822177090294], [-0.11538030110558839, -0.4836386350224577], [0.19639855294662, -0.2642625136536685], [-0.13808459390015848, 0.5117353845884305], [0.11323627075983955, -0.573228256974735], [0.2918583670158177, -0.08687603946269035], [-0.24673129454879356, 0.05526738924111829], [0.10731276543607038, 0.26526218934101775]]",density,black,,,D002,visual,1,[],"['1', '2', '3', '4']",1,2023.2.3,harveyvisual,2.1,[],8,0.75,
0,pause,0.4,None,None,None,0,155,155,155,,,,,,,,,,,,,D002,visual,1,[],"['1', '2', '3', '4']",1,2023.2.3,harveyvisual,2.1,[],8,0.75,
9,dot,0.3,['dot'],['density'],white,0,156,156,156,,,57.000197887420654,56.718047857284546,57.01801681518555,dot,"[0.06, 0.1, 0.06, 0.06, 0.08, 0.08, 0.06, 0.08, 0.1]","[[-0.03971785412685378, -0.013307253576883936], [-0.1795931736998084, 0.3973594317450326], [-0.3834375522639881, 0.20263766925149762], [-0.17272229141218848, -0.19949677387464254], [-0.5360333538572699, -0.009032368777402771], [-0.28286279854376034, -0.008232758075431683], [0.17411699897949384, -0.08382665075843401], [-0.16068367208365952, 0.1786486522774764], [0.029814794500374706, 0.34001547930781484]]",density,white,,,D002,visual,1,[],"['1', '2', '3', '4']",1,2023.2.3,harveyvisual,2.1,[],8,0.75,
0,pause,0.4,None,None,None,0,157,157,157,,,,,,,,,,,1,57.186678886413574,D002,visual,1,[],"['1', '2', '3', '4']",1,2023.2.3,harveyvisual,2.1,[],8,0.75,
9,dot,0.3,['dot'],['density'],black,0,158,158,158,,,57.70020794868469,57.41796684265137,57.717965841293335,dot,"[0.08, 0.1, 0.08, 0.08, 0.06, 0.08, 0.1, 0.08, 0.06]","[[0.5610971552988853, -0.17060184332349634], [0.41375718760989944, -0.015869013459887487], [0.10524493337967332, -0.4151143617417518], [0.33762937987512565, -0.21166948995529247], [0.31978246251342735, -0.42403070142702926], [0.14918584865882126, 0.054317793641313596], [-0.13687229080136074, -0.3544767643123256], [-0.14284940328496695, -0.15361328447573858], [0.09035025664413378, -0.16809195260635462]]",density,black,,,D002,visual,1,[],"['1', '2', '3', '4']",1,2023.2.3,harveyvisual,2.1,[],8,0.75,
0,pause,0.4,None,None,None,0,159,159,159,,,,,,,,,,,,,D002,visual,1,[],"['1', '2', '3', '4']",1,2023.2.3,harveyvisual,2.1,[],8,0.75,
9,dot,0.3,['dot'],['density'],black,0,160,160,160,,,58.40021896362305,58.11801791191101,58.41810393333435,dot,"[0.06, 0.1, 0.06, 0.1, 0.06, 0.1, 0.08, 0.1, 0.1]","[[0.16751238249231654, 0.5577961240465925], [-0.27296145406993233, 0.4862198967380745], [-0.029185467938656964, 0.15062746822878756], [-0.0646201772689005, 0.5687739076077192], [0.1739328392933146, 0.3418730943321047], [-0.141244529573345, 0.32572795328380527], [-0.5161698704605421, 0.1834233825743511], [0.21727962056556488, 0.12903401361548372], [-0.23724269532595021, 0.10991409904419316]]",density,black,,,D002,visual,1,[],"['1', '2', '3', '4']",1,2023.2.3,harveyvisual,2.1,[],8,0.75,
0,pause,0.4,None,None,None,0,161,161,161,,,,,,,,,,,,,D002,visual,1,[],"['1', '2', '3', '4']",1,2023.2.3,harveyvisual,2.1,[],8,0.75,
9,dot,0.3,['dot'],['density'],black,0,162,162,162,,,59.10020399093628,58.818007946014404,59.11802387237549,dot,"[0.1, 0.1, 0.06, 0.06, 0.1, 0.06, 0.08, 0.1, 0.1]","[[0.16751238249231654, 0.5577961240465925], [-0.27296145406993233, 0.4862198967380745], [-0.029185467938656964, 0.15062746822878756], [-0.0646201772689005, 0.5687739076077192], [0.1739328392933146, 0.3418730943321047], [-0.141244529573345, 0.32572795328380527], [-0.5161698704605421, 0.1834233825743511], [0.21727962056556488, 0.12903401361548372], [-0.23724269532595021, 0.10991409904419316]]",density,black,,,D002,visual,1,[],"['1', '2', '3', '4']",1,2023.2.3,harveyvisual,2.1,[],8,0.75,
0,pause,0.4,None,None,None,0,163,163,163,,,,,,,,,,,,,D002,visual,1,[],"['1', '2', '3', '4']",1,2023.2.3,harveyvisual,2.1,[],8,0.75,
9,dot,0.3,['dot'],['density'],black,0,164,164,164,,,59.80019688606262,59.51800584793091,59.81797194480896,dot,"[0.06, 0.1, 0.06, 0.1, 0.06, 0.06, 0.06, 0.1, 0.06]","[[-0.05049485011715354, 0.3013521193238899], [0.15354596755057998, 0.36785015051376163], [0.22995749783639982, 0.07309138415424772], [0.13460311710395165, -0.18603378415368982], [0.33097739113381164, -0.13822260855557728], [-0.16464148731134703, 0.07190493829483618], [0.521154897315396, -0.007803673430992942], [0.02684304494395013, 0.0018704401699241912], [-0.15545279255173522, -0.15329938800760382]]",density,black,,,D002,visual,1,[],"['1', '2', '3', '4']",1,2023.2.3,harveyvisual,2.1,[],8,0.75,
0,pause,0.4,None,None,None,0,165,165,165,,,,,,,,,,,,,D002,visual,1,[],"['1', '2', '3', '4']",1,2023.2.3,harveyvisual,2.1,[],8,0.75,
9,dot,0.3,['dot'],['density'],black,0,166,166,166,,,60.500223875045776,60.2179229259491,60.51794481277466,dot,"[0.06, 0.1, 0.08, 0.1, 0.1, 0.08, 0.06, 0.1, 0.06]","[[0.5633060189111645, -0.020447411670609934], [0.24486306384976717, 0.44476630120442473], [0.18428866344346043, -0.051083701103786204], [0.30165572131442664, 0.2239114093385097], [-0.0017431279865323516, 0.11759053127645673], [0.36864926730470376, 0.029118730319846676], [0.08307425003498874, 0.31712463906399285], [0.26393370779995823, -0.24286541122091637], [0.5109425385251136, 0.2557989077594731]]",density,black,,,D002,visual,1,[],"['1', '2', '3', '4']",1,2023.2.3,harveyvisual,2.1,[],8,0.75,
0,pause,0.4,None,None,None,0,167,167,167,,,,,,,,,,,,,D002,visual,1,[],"['1', '2', '3', '4']",1,2023.2.3,harveyvisual,2.1,[],8,0.75,
8,dot,0.3,['dot'],['density'],black,0,168,168,168,,,61.200196981430054,60.91789698600769,61.217864990234375,dot,"[0.06, 0.06, 0.06, 0.08, 0.1, 0.06, 0.1, 0.1]","[[-0.21605400050023119, -0.36806604112140096], [-0.4331556331222778, 0.1336594927324191], [-0.3157474098875971, -0.1371073420352747], [-0.10064365538588134, -0.10053754910436148], [0.10862445751928086, -0.04115753002163663], [-0.19663983546434133, 0.09424647547905109], [-0.5379272585723496, -0.06117038891009633], [0.023355790718173546, -0.2955553217846553]]",density,black,,,D002,visual,1,[],"['1', '2', '3', '4']",1,2023.2.3,harveyvisual,2.1,[],8,0.75,
0,pause,0.4,None,None,None,0,169,169,169,,,,,,,,,,,,,D002,visual,1,[],"['1', '2', '3', '4']",1,2023.2.3,harveyvisual,2.1,[],8,0.75,
8,dot,0.3,['dot'],['density'],black,0,170,170,170,,,61.9001989364624,61.61805200576782,61.918041944503784,dot,"[0.08, 0.06, 0.1, 0.08, 0.08, 0.06, 0.06, 0.1]","[[0.4107983822504989, -0.04783789354839145], [-0.06954892783911702, 0.20421019801840873], [0.19287329246680035, -0.23674413065931216], [-0.04658255687897442, -0.27568538913083557], [0.19478566210173015, -0.00965484605936359], [-0.04069516991009335, -0.04900998707948758], [0.17921022995035232, 0.2044367826380957], [-0.22871454517575843, 0.05025111546696341]]",density,black,,,D002,visual,1,[],"['1', '2', '3', '4']",1,2023.2.3,harveyvisual,2.1,[],8,0.75,
0,pause,0.4,None,None,None,0,171,171,171,,,,,,,,,,,,,D002,visual,1,[],"['1', '2', '3', '4']",1,2023.2.3,harveyvisual,2.1,[],8,0.75,
8,dot,0.3,['dot'],['density'],black,0,172,172,172,,,62.60021901130676,62.317943811416626,62.618013858795166,dot,"[0.08, 0.06, 0.1, 0.1, 0.08, 0.08, 0.1, 0.1]","[[-0.0012777187897950197, 0.3966007492927722], [-0.28447363834021117, 0.3159852715582059], [0.19942587273623266, 0.5530929527666414], [0.21318140018031628, 0.35154814550636243], [0.2022184519229619, 0.1402347591191321], [-0.03399167273692697, 0.18426518172063944], [0.09045107803968953, -0.0428478536761596], [-0.13826990130262626, -0.021750669296841257]]",density,black,,,D002,visual,1,[],"['1', '2', '3', '4']",1,2023.2.3,harveyvisual,2.1,[],8,0.75,
0,pause,0.4,None,None,None,0,173,173,173,,,,,,,,,,,,,D002,visual,1,[],"['1', '2', '3', '4']",1,2023.2.3,harveyvisual,2.1,[],8,0.75,
8,dot,0.3,['dot'],['density'],black,0,174,174,174,,,63.30022192001343,63.01785087585449,63.31784987449646,dot,"[0.08, 0.06, 0.06, 0.06, 0.1, 0.08, 0.08, 0.08]","[[-0.503192831713878, 0.2818759502405315], [-0.1851508851951268, 0.5121570681976513], [-0.3428391331654375, 0.06336275884690255], [-0.2620893383019587, 0.2653373399092269], [-0.09201493982796581, 0.138249408295409], [-0.14188251758679749, -0.08598668861617832], [-0.5391716430792404, 0.01870596234549803], [-0.2779852747659758, -0.23950462846526258]]",density,black,,,D002,visual,1,[],"['1', '2', '3', '4']",1,2023.2.3,harveyvisual,2.1,[],8,0.75,
0,pause,0.4,None,None,None,0,175,175,175,,,,,,,,,,,,,D002,visual,1,[],"['1', '2', '3', '4']",1,2023.2.3,harveyvisual,2.1,[],8,0.75,
8,dot,0.3,['dot'],['density'],white,0,176,176,176,,,64.00020384788513,63.717849016189575,64.0178530216217,dot,"[0.08, 0.08, 0.08, 0.06, 0.06, 0.1, 0.06, 0.08]","[[-0.19469543066458847, -0.326291241472255], [0.30343637985980976, -0.10925869102227477], [-0.1969922581528186, -0.11664339975312436], [0.2570255161168456, -0.3247060146943647], [0.10684135558856425, -0.18174565546534566], [0.03482742583321104, -0.4893606045609451], [-0.015658395544436696, -0.0001692298399926468], [0.11980560642279467, 0.15585563517441894]]",density,white,,,D002,visual,1,[],"['1', '2', '3', '4']",1,2023.2.3,harveyvisual,2.1,[],8,0.75,
0,pause,0.4,None,None,None,0,177,177,177,,,,,,,,,,,1,64.14256381988525,D002,visual,1,[],"['1', '2', '3', '4']",1,2023.2.3,harveyvisual,2.1,[],8,0.75,
8,dot,0.3,['dot'],['density'],black,0,178,178,178,,,64.70021486282349,64.41785883903503,64.71783494949341,dot,"[0.1, 0.1, 0.1, 0.08, 0.06, 0.08, 0.06, 0.06]","[[0.5011924336457421, -0.024432440978935197], [0.2806328112604475, -0.04317330297599672], [0.4832514634589159, 0.31109822070486504], [0.16408111659662816, 0.42847901077729456], [0.23688927214560462, 0.23559820796421724], [0.07772697954394367, 0.06196890701796274], [0.10192126774068293, -0.18867749580812243], [-0.012619648351882298, 0.24997239668137242]]",density,black,,,D002,visual,1,[],"['1', '2', '3', '4']",1,2023.2.3,harveyvisual,2.1,[],8,0.75,
0,pause,0.4,None,None,None,0,179,179,179,,,,,,,,,,,,,D002,visual,1,[],"['1', '2', '3', '4']",1,2023.2.3,harveyvisual,2.1,[],8,0.75,
7,dot,0.3,['dot'],['density'],black,0,180,180,180,,,65.40020394325256,65.11793494224548,65.41793298721313,dot,"[0.08, 0.08, 0.06, 0.08, 0.08, 0.06, 0.08]","[[-0.27882252076513336, 0.33055409005240166], [-0.4957633793454142, -0.06140876275196145], [-0.0066404743852866415, -0.09326226909207957], [-0.0437417051997281, 0.24568157295930956], [-0.4653499650939929, 0.1386387143322748], [-0.23664853702636232, 0.07695828400639043], [-0.2650254833014284, -0.12289079349875774]]",density,black,,,D002,visual,1,[],"['1', '2', '3', '4']",1,2023.2.3,harveyvisual,2.1,[],8,0.75,
0,pause,0.4,None,None,None,0,181,181,181,,,,,,,,,,,,,D002,visual,1,[],"['1', '2', '3', '4']",1,2023.2.3,harveyvisual,2.1,[],8,0.75,
7,dot,0.3,['dot'],['density'],black,0,182,182,182,,,66.10021686553955,65.81794381141663,66.11773681640625,dot,"[0.06, 0.08, 0.08, 0.1, 0.08, 0.06, 0.06]","[[-0.2877807563129739, -0.2392998172879968], [-0.4930284393840153, 0.02918626900802282], [-0.13307942101536208, -0.4135874564509098], [-0.1727922191076213, -0.04289663127052677], [-0.3943840059764042, -0.4351600913800347], [-0.03321109949484203, -0.21096883087625085], [-0.5418728138863746, -0.1990057631286019]]",density,black,,,D002,visual,1,[],"['1', '2', '3', '4']",1,2023.2.3,harveyvisual,2.1,[],8,0.75,
0,pause,0.4,None,None,None,0,183,183,183,,,,,,,,,,,,,D002,visual,1,[],"['1', '2', '3', '4']",1,2023.2.3,harveyvisual,2.1,[],8,0.75,
7,dot,0.3,['dot'],['density'],black,0,184,184,184,,,66.80020380020142,66.51776790618896,66.81797099113464,dot,"[0.1, 0.06, 0.08, 0.1, 0.06, 0.06, 0.1]","[[-0.39883248072855915, 0.30823732592088265], [-0.041341486549100435, 0.2390478988097413], [-0.013495537319202725, 0.5211111720540192], [-0.2415889716500472, 0.10795059447242317], [-0.023803066389735523, 0.02076064871433158], [0.14387498046506175, 0.3548008600093999], [-0.24331877599120405, 0.46521846842164205]]",density,black,,,D002,visual,1,[],"['1', '2', '3', '4']",1,2023.2.3,harveyvisual,2.1,[],8,0.75,
0,pause,0.4,None,None,None,0,185,185,185,,,,,,,,,,,,,D002,visual,1,[],"['1', '2', '3', '4']",1,2023.2.3,harveyvisual,2.1,[],8,0.75,
7,dot,0.3,['dot'],['density'],black,0,186,186,186,,,67.50020480155945,67.21771597862244,67.51770186424255,dot,"[0.08, 0.1, 0.06, 0.06, 0.08, 0.06, 0.06]","[[0.1318978468379982, 0.48780960721302624], [-0.15530952210580917, 0.2429536962773128], [0.21675324185561073, 0.09111206147250148], [0.13033099328542835, 0.28547066376201063], [0.3859901392997328, 0.20497483482614012], [0.014590257841440182, 0.0970646397970693], [0.1730960121663288, -0.1180805096677859]]",density,black,,,D002,visual,1,[],"['1', '2', '3', '4']",1,2023.2.3,harveyvisual,2.1,[],8,0.75,
0,pause,0.4,None,None,None,0,187,187,187,,,,,,,,,,,,,D002,visual,1,[],"['1', '2', '3', '4']",1,2023.2.3,harveyvisual,2.1,[],8,0.75,
7,dot,0.3,['dot'],['density'],black,0,188,188,188,,,68.20021796226501,67.91770195960999,68.2176718711853,dot,"[0.06, 0.06, 0.1, 0.06, 0.08, 0.1, 0.08]","[[-0.4260259763687212, 0.0015611622021723967], [-0.003169876971998007, 0.13415651360788267], [-0.2586764037849864, 0.4417783913692737], [-0.4397986643511286, 0.306274470342183], [-0.0069778791964768315, 0.3653924841843964], [-0.25662591460159173, 0.21046748777052526], [-0.17930648864359452, 0.007725268650954965]]",density,black,,,D002,visual,1,[],"['1', '2', '3', '4']",1,2023.2.3,harveyvisual,2.1,[],8,0.75,
0,pause,0.4,None,None,None,0,189,189,189,,,,,,,,,,,,,D002,visual,1,[],"['1', '2', '3', '4']",1,2023.2.3,harveyvisual,2.1,[],8,0.75,
7,dot,0.3,['dot'],['density'],black,0,190,190,190,,,68.9002149105072,68.62127995491028,68.91785001754761,dot,"[0.06, 0.06, 0.1, 0.06, 0.1, 0.08, 0.1]","[[0.3350011905151264, 0.09255159473130091], [-0.07424962927914175, -0.2643067362759337], [-0.0068732696698998825, 0.04948606721470151], [0.12855319879406235, -0.3381192636220083], [0.11551090787938859, 0.24000211478775196], [0.3415900712266813, -0.1269386107563701], [0.14228147320501944, -0.08533637750285226]]",density,black,,,D002,visual,1,[],"['1', '2', '3', '4']",1,2023.2.3,harveyvisual,2.1,[],8,0.75,
0,pause,0.4,None,None,None,0,191,191,191,,,,,,,,,,,,,D002,visual,1,[],"['1', '2', '3', '4']",1,2023.2.3,harveyvisual,2.1,[],8,0.75,
6,dot,0.3,['dot'],['density'],black,0,192,192,192,,,69.60020589828491,69.31784796714783,69.61782598495483,dot,"[0.06, 0.06, 0.06, 0.06, 0.06, 0.08]","[[-0.11553075830627273, 0.47698778124428043], [-0.1112787518129194, 0.10456141670764223], [-0.48855705683845824, 0.21494657582805063], [-0.2538299919008863, 0.2532006538804931], [-0.3271837865365474, 0.4662148945367939], [0.006792750312598743, 0.27345996435494924]]",density,black,,,D002,visual,1,[],"['1', '2', '3', '4']",1,2023.2.3,harveyvisual,2.1,[],8,0.75,
0,pause,0.4,None,None,None,0,193,193,193,,,,,,,,,,,,,D002,visual,1,[],"['1', '2', '3', '4']",1,2023.2.3,harveyvisual,2.1,[],8,0.75,
6,dot,0.3,['dot'],['density'],white,0,194,194,194,,,70.30020093917847,70.01782393455505,70.3176498413086,dot,"[0.08, 0.06, 0.08, 0.06, 0.06, 0.08]","[[-0.060066269329224556, -0.3459973645598818], [-0.2267112282887438, -0.46433083725857055], [-0.03368736353914721, -0.0592740518520544], [0.1129416353875032, -0.20466059509733167], [0.13908697530976044, -0.42386339769443276], [-0.2931789080149146, -0.2669036372638095]]",density,white,,,D002,visual,1,[],"['1', '2', '3', '4']",1,2023.2.3,harveyvisual,2.1,[],8,0.75,
0,pause,0.4,None,None,None,0,195,195,195,,,,,,,,,,,1,70.53832793235779,D002,visual,1,[],"['1', '2', '3', '4']",1,2023.2.3,harveyvisual,2.1,[],8,0.75,
6,dot,0.3,['dot'],['density'],black,0,196,196,196,,,71.0002019405365,70.71765899658203,71.01763486862183,dot,"[0.08, 0.1, 0.08, 0.06, 0.1, 0.06]","[[-0.24492162854676555, 0.16704436901929823], [-0.3861886513150086, 0.35601694661450933], [-0.48514013682315105, 0.15596888098880124], [-0.5451465436738104, -0.12931683943359434], [-0.11772959853104834, 0.007676420150436517], [-0.35755989064212684, -0.03355234579502648]]",density,black,,,D002,visual,1,[],"['1', '2', '3', '4']",1,2023.2.3,harveyvisual,2.1,[],8,0.75,
0,pause,0.4,None,None,None,0,197,197,197,,,,,,,,,,,,,D002,visual,1,[],"['1', '2', '3', '4']",1,2023.2.3,harveyvisual,2.1,[],8,0.75,
6,dot,0.3,['dot'],['density'],black,0,198,198,198,,,71.70022201538086,71.41764092445374,71.71759796142578,dot,"[0.08, 0.08, 0.06, 0.06, 0.1, 0.06]","[[-0.21871154593458392, 0.523205648483303], [-0.10311842393244862, 0.3355489225101837], [0.008055670172287269, 0.5366903261171385], [0.1303263863168633, 0.3782575370349718], [0.03185769749340688, 0.17145177849191712], [-0.2810167974491763, 0.15418865533644557]]",density,black,,,D002,visual,1,[],"['1', '2', '3', '4']",1,2023.2.3,harveyvisual,2.1,[],8,0.75,
0,pause,0.4,None,None,None,0,199,199,199,,,,,,,,,,,,,D002,visual,1,[],"['1', '2', '3', '4']",1,2023.2.3,harveyvisual,2.1,[],8,0.75,
6,dot,0.3,['dot'],['density'],black,0,200,200,200,,,72.40022587776184,72.11758399009705,72.41755890846252,dot,"[0.1, 0.1, 0.06, 0.06, 0.08, 0.1]","[[-0.24492162854676555, 0.16704436901929823], [-0.3861886513150086, 0.35601694661450933], [-0.48514013682315105, 0.15596888098880124], [-0.5451465436738104, -0.12931683943359434], [-0.11772959853104834, 0.007676420150436517], [-0.35755989064212684, -0.03355234579502648]]",density,black,,,D002,visual,1,[],"['1', '2', '3', '4']",1,2023.2.3,harveyvisual,2.1,[],8,0.75,
0,pause,0.4,None,None,None,0,201,201,201,,,,,,,,,,,,,D002,visual,1,[],"['1', '2', '3', '4']",1,2023.2.3,harveyvisual,2.1,[],8,0.75,
6,dot,0.3,['dot'],['density'],black,0,202,202,202,,,73.10020279884338,72.81758093833923,73.11757397651672,dot,"[0.1, 0.06, 0.08, 0.06, 0.08, 0.08]","[[-0.36954580940820725, 0.05815165478813925], [-0.28534481837461456, -0.12375618373579561], [-0.26428406214372846, 0.28010711109252995], [-0.5657182147315603, -0.11096589427743007], [-0.1492704575467133, 0.06899119969773035], [-0.5584105255039638, 0.13196562846102936]]",density,black,,,D002,visual,1,[],"['1', '2', '3', '4']",1,2023.2.3,harveyvisual,2.1,[],8,0.75,
0,pause,0.4,None,None,None,0,203,203,203,,,,,,,,,,,,,D002,visual,1,[],"['1', '2', '3', '4']",1,2023.2.3,harveyvisual,2.1,[],8,0.75,
5,dot,0.3,['dot'],['density'],black,0,204,204,204,,,73.80022978782654,73.51755690574646,73.81759786605835,dot,"[0.1, 0.1, 0.06, 0.1, 0.1]","[[-0.053215572458232586, 0.27221330895143253], [0.10089702531331296, 0.1334794413224796], [0.12897289155288158, 0.4002796015157326], [0.3022660506716914, 0.02685289149411272], [0.2804295634962893, 0.24950018434757285]]",density,black,,,D002,visual,1,[],"['1', '2', '3', '4']",1,2023.2.3,harveyvisual,2.1,[],8,0.75,
0,pause,0.4,None,None,None,0,205,205,205,,,,,,,,,,,,,D002,visual,1,[],"['1', '2', '3', '4']",1,2023.2.3,harveyvisual,2.1,[],8,0.75,
5,dot,0.3,['dot'],['density'],black,0,206,206,206,,,74.5002179145813,74.21755981445312,74.51752996444702,dot,"[0.1, 0.08, 0.1, 0.1, 0.06]","[[-0.08906257038347729, 0.3326351968500321], [0.2173987091792188, 0.026220721131276364], [0.07996259445097068, 0.4821024141609844], [0.14345365083950706, 0.2501481494916038], [-0.03323208063638199, 0.08804517681276208]]",density,black,,,D002,visual,1,[],"['1', '2', '3', '4']",1,2023.2.3,harveyvisual,2.1,[],8,0.75,
0,pause,0.4,None,None,None,0,207,207,207,,,,,,,,,,,,,D002,visual,1,[],"['1', '2', '3', '4']",1,2023.2.3,harveyvisual,2.1,[],8,0.75,
5,dot,0.3,['dot'],['density'],black,0,208,208,208,,,75.20020389556885,74.91754388809204,75.21756386756897,dot,"[0.1, 0.08, 0.08, 0.08, 0.1]","[[0.2075830250205083, 0.5448960418430373], [0.010600229768786232, 0.45420498888786176], [-0.10187712889758427, 0.28364076042242115], [0.1691377395635631, 0.293820614486451], [-0.2596336492265815, 0.40815120909286945]]",density,black,,,D002,visual,1,[],"['1', '2', '3', '4']",1,2023.2.3,harveyvisual,2.1,[],8,0.75,
0,pause,0.4,None,None,None,0,209,209,209,,,,,,,,,,,,,D002,visual,1,[],"['1', '2', '3', '4']",1,2023.2.3,harveyvisual,2.1,[],8,0.75,
5,dot,0.3,['dot'],['density'],black,0,210,210,210,,,75.90020298957825,75.61748790740967,75.91753482818604,dot,"[0.06, 0.08, 0.1, 0.06, 0.1]","[[0.45108699871130137, 0.12052648913612102], [0.3120839015871755, -0.055344110322042436], [0.5361186937318446, -0.08608482415671545], [0.24926945818158194, 0.15209517992691748], [0.3855135356736719, -0.25840400127360613]]",density,black,,,D002,visual,1,[],"['1', '2', '3', '4']",1,2023.2.3,harveyvisual,2.1,[],8,0.75,
0,pause,0.4,None,None,None,0,211,211,211,,,,,,,,,,,,,D002,visual,1,[],"['1', '2', '3', '4']",1,2023.2.3,harveyvisual,2.1,[],8,0.75,
5,dot,0.3,['dot'],['density'],black,0,212,212,212,,,76.60020899772644,76.31752896308899,76.61763191223145,dot,"[0.06, 0.1, 0.1, 0.08, 0.06]","[[-0.3593586909609717, -0.014123405231526708], [-0.016214713675271986, 0.25764317450247104], [-0.14180258575993823, 0.0328893580167688], [-0.4739301778776912, 0.15719809156630632], [-0.2718601341595813, 0.23222304362681612]]",density,black,,,D002,visual,1,[],"['1', '2', '3', '4']",1,2023.2.3,harveyvisual,2.1,[],8,0.75,
0,pause,0.4,None,None,None,0,213,213,213,,,,,,,,,,,,,D002,visual,1,[],"['1', '2', '3', '4']",1,2023.2.3,harveyvisual,2.1,[],8,0.75,
5,dot,0.3,['dot'],['density'],black,0,214,214,214,,,77.30019879341125,77.01761198043823,77.31752896308899,dot,"[0.1, 0.1, 0.06, 0.08, 0.06]","[[0.2075830250205083, 0.5448960418430373], [0.010600229768786232, 0.45420498888786176], [-0.10187712889758427, 0.28364076042242115], [0.1691377395635631, 0.293820614486451], [-0.2596336492265815, 0.40815120909286945]]",density,black,,,D002,visual,1,[],"['1', '2', '3', '4']",1,2023.2.3,harveyvisual,2.1,[],8,0.75,
0,pause,0.4,None,None,None,0,215,215,215,,,,,,,,,,,,,D002,visual,1,[],"['1', '2', '3', '4']",1,2023.2.3,harveyvisual,2.1,[],8,0.75,
4,dot,0.3,['dot'],['density'],black,0,216,216,216,,,78.00020098686218,77.71750593185425,78.0174880027771,dot,"[0.06, 0.1, 0.08, 0.06]","[[0.1665887267295909, 0.08389582001604734], [0.4584359263982055, 0.26405512465689546], [0.4157764543415929, 0.03513878013061779], [0.2392225064082761, 0.29777239984320175]]",density,black,,,D002,visual,1,[],"['1', '2', '3', '4']",1,2023.2.3,harveyvisual,2.1,[],8,0.75,
0,pause,0.4,None,None,None,0,217,217,217,,,,,,,,,,,,,D002,visual,1,[],"['1', '2', '3', '4']",1,2023.2.3,harveyvisual,2.1,[],8,0.75,
4,dot,0.3,['dot'],['density'],black,0,218,218,218,,,78.70022296905518,78.41746401786804,78.71743297576904,dot,"[0.06, 0.06, 0.06, 0.06]","[[-0.2516773625496151, -0.30151264897341506], [-0.16747001932966935, -0.11477707456203952], [0.007305472957725734, -0.4586877449884055], [0.017540980065453668, -0.20354321808263612]]",density,black,,,D002,visual,1,[],"['1', '2', '3', '4']",1,2023.2.3,harveyvisual,2.1,[],8,0.75,
0,pause,0.4,None,None,None,0,219,219,219,,,,,,,,,,,,,D002,visual,1,[],"['1', '2', '3', '4']",1,2023.2.3,harveyvisual,2.1,[],8,0.75,
4,dot,0.3,['dot'],['density'],black,0,220,220,220,,,79.40021181106567,79.1174578666687,79.41739583015442,dot,"[0.06, 0.08, 0.1, 0.08]","[[0.3225849294362846, -0.13157286681700714], [0.2615083713376798, -0.38790318245483907], [0.48399895238698887, -0.2981397300552969], [0.514252162939949, -0.043630752066028525]]",density,black,,,D002,visual,1,[],"['1', '2', '3', '4']",1,2023.2.3,harveyvisual,2.1,[],8,0.75,
0,pause,0.4,None,None,None,0,221,221,221,,,,,,,,,,,,,D002,visual,1,[],"['1', '2', '3', '4']",1,2023.2.3,harveyvisual,2.1,[],8,0.75,
4,dot,0.3,['dot'],['density'],black,0,222,222,222,,,80.10022592544556,79.81739282608032,80.11740589141846,dot,"[0.08, 0.08, 0.08, 0.06]","[[-0.1266132934267609, -0.4419116806690939], [0.09906976576587005, -0.33923851916676484], [0.1053941350115203, -0.5768907290059295], [0.29145715672269834, -0.49787884973145785]]",density,black,,,D002,visual,1,[],"['1', '2', '3', '4']",1,2023.2.3,harveyvisual,2.1,[],8,0.75,
0,pause,0.4,None,None,None,0,223,223,223,,,,,,,,,,,,,D002,visual,1,[],"['1', '2', '3', '4']",1,2023.2.3,harveyvisual,2.1,[],8,0.75,
4,dot,0.3,['dot'],['density'],black,0,224,224,224,,,80.80021381378174,80.51737785339355,80.81750798225403,dot,"[0.06, 0.1, 0.06, 0.06]","[[0.3510671072586959, 0.39105757673094776], [0.13754249634966464, 0.24690230999823115], [0.2791454519284172, 0.028997379515453933], [0.42442503262497266, 0.18132357243737673]]",density,black,,,D002,visual,1,[],"['1', '2', '3', '4']",1,2023.2.3,harveyvisual,2.1,[],8,0.75,
0,pause,0.4,None,None,None,0,225,225,225,,,,,,,,,,,,,D002,visual,1,[],"['1', '2', '3', '4']",1,2023.2.3,harveyvisual,2.1,[],8,0.75,
4,dot,0.3,['dot'],['density'],black,0,226,226,226,,,81.50021600723267,81.21738481521606,81.51737594604492,dot,"[0.1, 0.08, 0.08, 0.06]","[[0.107131415583101, 0.03171316484874249], [0.3330877778846877, 0.14211400081541528], [0.23058747141838212, -0.24340322486593785], [0.3173726134345681, -0.05921806988573682]]",density,black,,,D002,visual,1,[],"['1', '2', '3', '4']",1,2023.2.3,harveyvisual,2.1,[],8,0.75,
0,pause,0.4,None,None,None,0,227,227,227,,,,,,,,,,,,,D002,visual,1,[],"['1', '2', '3', '4']",1,2023.2.3,harveyvisual,2.1,[],8,0.75,
3,dot,0.3,['dot'],['density'],black,0,228,228,228,,,82.20022702217102,81.91733598709106,82.21735286712646,dot,"[0.06, 0.1, 0.08]","[[0.11213305146232053, -0.07893917948794166], [0.05639720131197772, -0.2966044022377523], [-0.1031859716129837, -0.13437008874356654]]",density,black,,,D002,visual,1,[],"['1', '2', '3', '4']",1,2023.2.3,harveyvisual,2.1,[],8,0.75,
0,pause,0.4,None,None,None,0,229,229,229,,,,,,,,,,,,,D002,visual,1,[],"['1', '2', '3', '4']",1,2023.2.3,harveyvisual,2.1,[],8,0.75,
3,dot,0.3,['dot'],['density'],white,0,230,230,230,,,82.90020489692688,82.61736583709717,82.91735982894897,dot,"[0.06, 0.1, 0.06]","[[-0.15674404860239688, -0.25078459247658497], [0.006578924124220241, -0.41324131210186005], [0.06959682433872849, -0.20549031443856539]]",density,white,,,D002,visual,1,[],"['1', '2', '3', '4']",1,2023.2.3,harveyvisual,2.1,[],8,0.75,
0,pause,0.4,None,None,None,0,231,231,231,,,,,,,,,,,1,83.06589794158936,D002,visual,1,[],"['1', '2', '3', '4']",1,2023.2.3,harveyvisual,2.1,[],8,0.75,
3,dot,0.3,['dot'],['density'],black,0,232,232,232,,,83.6002128124237,83.31734800338745,83.61733388900757,dot,"[0.06, 0.08, 0.06]","[[0.4995185571857965, 0.14229679706320136], [0.2944600495073675, 0.23335097983198633], [0.330752226915583, 0.0299241169750933]]",density,black,,,D002,visual,1,[],"['1', '2', '3', '4']",1,2023.2.3,harveyvisual,2.1,[],8,0.75,
0,pause,0.4,None,None,None,0,233,233,233,,,,,,,,,,,,,D002,visual,1,[],"['1', '2', '3', '4']",1,2023.2.3,harveyvisual,2.1,[],8,0.75,
3,dot,0.3,['dot'],['density'],black,0,234,234,234,,,84.30021286010742,84.01731181144714,84.31727981567383,dot,"[0.1, 0.1, 0.1]","[[-0.021384933427115945, -0.26055744462645497], [0.16478637362895734, -0.404980755917603], [-0.025077849445719256, -0.48190209473619267]]",density,black,,,D002,visual,1,[],"['1', '2', '3', '4']",1,2023.2.3,harveyvisual,2.1,[],8,0.75,
0,pause,0.4,None,None,None,0,235,235,235,,,,,,,,,,,,,D002,visual,1,[],"['1', '2', '3', '4']",1,2023.2.3,harveyvisual,2.1,[],8,0.75,
3,dot,0.3,['dot'],['density'],black,0,236,236,236,,,85.00022602081299,84.7172749042511,85.01728391647339,dot,"[0.08, 0.06, 0.06]","[[-0.476501853024302, 0.3110516410681161], [-0.26865065753742645, 0.4732574608261889], [-0.2772428868380306, 0.2516539537451065]]",density,black,,,D002,visual,1,[],"['1', '2', '3', '4']",1,2023.2.3,harveyvisual,2.1,[],8,0.75,
0,pause,0.4,None,None,None,0,237,237,237,,,,,,,,,,,,,D002,visual,1,[],"['1', '2', '3', '4']",1,2023.2.3,harveyvisual,2.1,[],8,0.75,
3,dot,0.3,['dot'],['density'],black,0,238,238,238,,,85.70020699501038,85.41724586486816,85.71721887588501,dot,"[0.1, 0.06, 0.1]","[[0.03752440580708033, 0.5298990797186869], [-0.14535247226304113, 0.44143535861080874], [0.07857889528852925, 0.30774558950641073]]",density,black,,,D002,visual,1,[],"['1', '2', '3', '4']",1,2023.2.3,harveyvisual,2.1,[],8,0.75,
0,pause,0.4,None,None,None,0,239,239,239,,,,,,,,,,,,,D002,visual,1,[],"['1', '2', '3', '4']",1,2023.2.3,harveyvisual,2.1,[],8,0.75,
2,dot,0.3,['dot'],['density'],black,0,240,240,240,,,86.40021991729736,86.11721801757812,86.41721487045288,dot,"[0.06, 0.1]","[[-0.15489633838679245, 0.20775043904852977], [-0.02477214636975436, 0.05468251249351026]]",density,black,,,D002,visual,1,[],"['1', '2', '3', '4']",1,2023.2.3,harveyvisual,2.1,[],8,0.75,
0,pause,0.4,None,None,None,0,241,241,241,,,,,,,,,,,,,D002,visual,1,[],"['1', '2', '3', '4']",1,2023.2.3,harveyvisual,2.1,[],8,0.75,
2,dot,0.3,['dot'],['density'],black,0,242,242,242,,,87.10022687911987,86.81720685958862,87.11718678474426,dot,"[0.1, 0.1]","[[0.11437717294043931, -0.408092871188616], [0.012734947149558614, -0.23578585574018435]]",density,black,,,D002,visual,1,[],"['1', '2', '3', '4']",1,2023.2.3,harveyvisual,2.1,[],8,0.75,
0,pause,0.4,None,None,None,0,243,243,243,,,,,,,,,,,,,D002,visual,1,[],"['1', '2', '3', '4']",1,2023.2.3,harveyvisual,2.1,[],8,0.75,
2,dot,0.3,['dot'],['density'],black,0,244,244,244,,,87.80022883415222,87.5171868801117,87.8171718120575,dot,"[0.06, 0.06]","[[0.02987007740145294, 0.4330921892138179], [-0.1698845640653836, 0.4119973540264252]]",density,black,,,D002,visual,1,[],"['1', '2', '3', '4']",1,2023.2.3,harveyvisual,2.1,[],8,0.75,
0,pause,0.4,None,None,None,0,245,245,245,,,,,,,,,,,,,D002,visual,1,[],"['1', '2', '3', '4']",1,2023.2.3,harveyvisual,2.1,[],8,0.75,
2,dot,0.3,['dot'],['density'],black,0,246,246,246,,,88.50020384788513,88.21717095375061,88.51716184616089,dot,"[0.06, 0.08]","[[0.5590929928249944, 0.05901985638302875], [0.5065513741473344, -0.13409141480534237]]",density,black,,,D002,visual,1,[],"['1', '2', '3', '4']",1,2023.2.3,harveyvisual,2.1,[],8,0.75,
0,pause,0.4,None,None,None,0,247,247,247,,,,,,,,,,,,,D002,visual,1,[],"['1', '2', '3', '4']",1,2023.2.3,harveyvisual,2.1,[],8,0.75,
2,dot,0.3,['dot'],['density'],black,0,248,248,248,,,89.20020389556885,88.91716694831848,89.21718692779541,dot,"[0.06, 0.08]","[[0.1652621768884792, -0.40183218801656556], [-0.03337249546828684, -0.4281924369736378]]",density,black,,,D002,visual,1,[],"['1', '2', '3', '4']",1,2023.2.3,harveyvisual,2.1,[],8,0.75,
0,pause,0.4,None,None,None,0,249,249,249,,,,,,,,,,,,,D002,visual,1,[],"['1', '2', '3', '4']",1,2023.2.3,harveyvisual,2.1,[],8,0.75,
2,dot,0.3,['dot'],['density'],black,0,250,250,250,,,89.90022587776184,89.61713981628418,89.91711282730103,dot,"[0.1, 0.06]","[[-0.020654750029313704, 0.3891656546739414], [-0.0007759068931318763, 0.19000611836641118]]",density,black,,,D002,visual,1,[],"['1', '2', '3', '4']",1,2023.2.3,harveyvisual,2.1,[],8,0.75,
0,pause,0.4,None,None,None,0,251,251,251,,,,,,,,,,,,,D002,visual,1,[],"['1', '2', '3', '4']",1,2023.2.3,harveyvisual,2.1,[],8,0.75,
1,dot,0.3,['dot'],['density'],black,0,252,252,252,,,90.60021901130676,90.31710696220398,90.61708498001099,dot,[0.08],"[0.19623115665255414, 0.1676894875529279]",density,black,,,D002,visual,1,[],"['1', '2', '3', '4']",1,2023.2.3,harveyvisual,2.1,[],8,0.75,
0,pause,0.4,None,None,None,0,253,253,253,,,,,,,,,,,,,D002,visual,1,[],"['1', '2', '3', '4']",1,2023.2.3,harveyvisual,2.1,[],8,0.75,
1,dot,0.3,['dot'],['density'],black,0,254,254,254,,,91.30020499229431,91.01708388328552,91.3170838356018,dot,[0.08],"[0.1600937909388646, -0.5041032805904762]",density,black,,,D002,visual,1,[],"['1', '2', '3', '4']",1,2023.2.3,harveyvisual,2.1,[],8,0.75,
0,pause,0.4,None,None,None,0,255,255,255,,,,,,,,,,,,,D002,visual,1,[],"['1', '2', '3', '4']",1,2023.2.3,harveyvisual,2.1,[],8,0.75,
1,dot,0.3,['dot'],['density'],black,0,256,256,256,,,92.0002179145813,91.71707391738892,92.01706886291504,dot,[0.06],"[0.4420174282329864, -0.3383815273201445]",density,black,,,D002,visual,1,[],"['1', '2', '3', '4']",1,2023.2.3,harveyvisual,2.1,[],8,0.75,
0,pause,0.4,None,None,None,0,257,257,257,,,,,,,,,,,,,D002,visual,1,[],"['1', '2', '3', '4']",1,2023.2.3,harveyvisual,2.1,[],8,0.75,
1,dot,0.3,['dot'],['density'],black,0,258,258,258,,,92.70021486282349,92.41705083847046,92.71707487106323,dot,[0.1],"[0.075024325262877, 0.28946834799837856]",density,black,,,D002,visual,1,[],"['1', '2', '3', '4']",1,2023.2.3,harveyvisual,2.1,[],8,0.75,
0,pause,0.4,None,None,None,0,259,259,259,,,,,,,,,,,,,D002,visual,1,[],"['1', '2', '3', '4']",1,2023.2.3,harveyvisual,2.1,[],8,0.75,
1,dot,0.3,['dot'],['density'],black,0,260,260,260,,,93.40020179748535,93.11711502075195,93.41703987121582,dot,[0.1],"[0.2830289625583117, -0.03026882548871228]",density,black,,,D002,visual,1,[],"['1', '2', '3', '4']",1,2023.2.3,harveyvisual,2.1,[],8,0.75,
0,pause,0.4,None,None,None,0,261,261,261,,,,,,,,,,,,,D002,visual,1,[],"['1', '2', '3', '4']",1,2023.2.3,harveyvisual,2.1,[],8,0.75,
1,dot,0.3,['dot'],['density'],black,0,262,262,262,,,94.10022497177124,93.81706285476685,94.11704897880554,dot,[0.08],"[-0.43105706563061386, -0.18359692062194616]",density,black,,,D002,visual,1,[],"['1', '2', '3', '4']",1,2023.2.3,harveyvisual,2.1,[],8,0.75,
0,pause,0.4,None,None,None,0,263,263,263,,,,,,,,,,,,,D002,visual,1,[],"['1', '2', '3', '4']",1,2023.2.3,harveyvisual,2.1,[],8,0.75,
20,dot,0.3,['dot'],['density'],white,0,264,264,264,,,94.80021286010742,94.51704502105713,94.81697487831116,dot,"[0.08, 0.06, 0.06, 0.1, 0.1, 0.06, 0.06, 0.06, 0.1, 0.1, 0.08, 0.06, 0.06, 0.06, 0.1, 0.08, 0.06, 0.06, 0.1, 0.1]","[[0.04433430435461061, -0.12225567156092881], [0.27599627082834444, -0.2543978715960953], [0.09973922212879616, -0.5342405600015578], [0.4739708477319432, 0.12102858696439128], [-0.4595035351296011, -0.1840682118500505], [-0.19362252937210783, 0.523011160796451], [0.21783545293036433, -0.008610960191025918], [0.061887925409673694, -0.3120621304848021], [0.3083680959199502, 0.512187055171756], [-0.5808551873017953, 0.10305137108998488], [-0.3464209926535809, -0.35963804907618113], [0.2871069116710543, -0.4766660220627819], [-0.42519287969897246, 0.3951208539292968], [0.5717170357355078, -0.06420395886667102], [-0.10993128729747653, -0.470472944290114], [-0.11031065089738562, 0.3141867849852138], [0.12206373878550214, 0.2808451547601969], [-0.31101853865864776, -0.001311763436486424], [-0.031197616837237763, 0.08538303972532091], [0.11411957021537777, 0.5630496297841346]]",density,white,,,D002,visual,1,[],"['1', '2', '3', '4']",1,2023.2.3,harveyvisual,2.1,[],8,0.75,
0,pause,0.4,None,None,None,0,265,265,265,,,,,,,,,,,1,94.88232183456421,D002,visual,1,[],"['1', '2', '3', '4']",1,2023.2.3,harveyvisual,2.1,[],8,0.75,
20,dot,0.3,['dot'],['density'],black,0,266,266,266,,,95.50022101402283,95.21695590019226,95.51697897911072,dot,"[0.1, 0.06, 0.08, 0.06, 0.06, 0.08, 0.06, 0.06, 0.06, 0.06, 0.08, 0.08, 0.06, 0.06, 0.1, 0.06, 0.06, 0.06, 0.1, 0.08]","[[0.06336543136361406, -0.36814989664533637], [-0.1931737955064502, 0.41082911453384463], [0.5966172386733471, 0.06343541518390564], [0.3239276399710814, -0.1511854724639337], [0.35468749598832183, -0.41208267865672765], [0.49176481380655634, 0.2379642681244668], [0.13458766182882997, 0.2894852997597024], [-0.37405791251027787, 0.26273749696823695], [-0.2814729850723335, -0.02854233364149461], [-0.2815497023852372, -0.42480474918609085], [0.23922492742114754, 0.545692487642739], [-0.5952890288501939, 0.037500959994827596], [-0.4654368278669605, -0.1528518855465061], [0.07556036469645266, 0.07090259494898055], [-0.48030912430007, -0.36504346503955754], [-0.04592404046439036, -0.5736570751175312], [0.294041700122166, 0.10718994534984316], [-0.06574557483721688, 0.20486677390884878], [0.02562622506906309, 0.5252796617886089], [0.5241783258060765, -0.2672758060241653]]",density,black,,,D002,visual,1,[],"['1', '2', '3', '4']",1,2023.2.3,harveyvisual,2.1,[],8,0.75,
0,pause,0.4,None,None,None,0,267,267,267,,,,,,,,,,,,,D002,visual,1,[],"['1', '2', '3', '4']",1,2023.2.3,harveyvisual,2.1,[],8,0.75,
