num,mod,duration,shape,ll_cond,colors,.thisRepN,.thisTrialN,.thisN,.thisIndex,thisRow.t,notes,raw_global_time,t_start,t_stop,shapes,size,pos,cond,color,button,RT,participant,session,starting_run,left button (match/odd),right button (non-match/even),samples_per_block,psychopy version,expName,offset,audio,number_runs,radius,
1,dot,0.3,['dot'],['density'],black,0,0,0,0,,,2.4002139568328857,2.108247995376587,2.4081809520721436,dot,[0.08],"[0.15956500649880873, 0.2640393008039057]",density,black,,,D002,visual,1,[],"['1', '2', '3', '4']",1,2023.2.3,harveyvisual,2.1,[],8,0.75,
0,pause,0.4,None,None,None,0,1,1,1,,,,,,,,,,,,,D002,visual,1,[],"['1', '2', '3', '4']",1,2023.2.3,harveyvisual,2.1,[],8,0.75,
1,dot,0.3,['dot'],['density'],black,0,2,2,2,,,3.100203037261963,2.8082070350646973,3.109027147293091,dot,[0.1],"[0.0038807231877187303, -0.2777732366953785]",density,black,,,D002,visual,1,[],"['1', '2', '3', '4']",1,2023.2.3,harveyvisual,2.1,[],8,0.75,
0,pause,0.4,None,None,None,0,3,3,3,,,,,,,,,,,,,D002,visual,1,[],"['1', '2', '3', '4']",1,2023.2.3,harveyvisual,2.1,[],8,0.75,
1,dot,0.3,['dot'],['density'],black,0,4,4,4,,,3.80021595954895,3.5089380741119385,3.8086540699005127,dot,[0.08],"[-0.22356924330877379, 0.41145231278245986]",density,black,,,D002,visual,1,[],"['1', '2', '3', '4']",1,2023.2.3,harveyvisual,2.1,[],8,0.75,
0,pause,0.4,None,None,None,0,5,5,5,,,,,,,,,,,,,D002,visual,1,[],"['1', '2', '3', '4']",1,2023.2.3,harveyvisual,2.1,[],8,0.75,
1,dot,0.3,['dot'],['density'],black,0,6,6,6,,,4.500202178955078,4.208664178848267,4.508721113204956,dot,[0.06],"[0.19623115665255414, 0.1676894875529279]",density,black,,,D002,visual,1,[],"['1', '2', '3', '4']",1,2023.2.3,harveyvisual,2.1,[],8,0.75,
0,pause,0.4,None,None,None,0,7,7,7,,,,,,,,,,,,,D002,visual,1,[],"['1', '2', '3', '4']",1,2023.2.3,harveyvisual,2.1,[],8,0.75,
1,dot,0.3,['dot'],['density'],black,0,8,8,8,,,5.200209140777588,4.908645153045654,5.208702087402344,dot,[0.1],"[-0.4519365434524677, 0.22287683068434597]",density,black,,,D002,visual,1,[],"['1', '2', '3', '4']",1,2023.2.3,harveyvisual,2.1,[],8,0.75,
0,pause,0.4,None,None,None,0,9,9,9,,,,,,,,,,,,,D002,visual,1,[],"['1', '2', '3', '4']",1,2023.2.3,harveyvisual,2.1,[],8,0.75,
1,dot,0.3,['dot'],['density'],black,0,10,10,10,,,5.900201082229614,5.6105310916900635,5.91050910949707,dot,[0.06],"[0.31457923939875737, -0.4122609730770665]",density,black,,,D002,visual,1,[],"['1', '2', '3', '4']",1,2023.2.3,harveyvisual,2.1,[],8,0.75,
0,pause,0.4,None,None,None,0,11,11,11,,,,,,,,,,,,,D002,visual,1,[],"['1', '2', '3', '4']",1,2023.2.3,harveyvisual,2.1,[],8,0.75,
2,dot,0.3,['dot'],['density'],black,0,12,12,12,,,6.600212097167969,6.310477018356323,6.610506057739258,dot,"[0.06, 0.08]","[[0.21195259569903124, -0.4986433684978455], [0.023877440871594643, -0.42921284787985464]]",density,black,,,D002,visual,1,[],"['1', '2', '3', '4']",1,2023.2.3,harveyvisual,2.1,[],8,0.75,
0,pause,0.4,None,None,None,0,13,13,13,,,,,,,,,,,,,D002,visual,1,[],"['1', '2', '3', '4']",1,2023.2.3,harveyvisual,2.1,[],8,0.75,
2,dot,0.3,['dot'],['density'],black,0,14,14,14,,,7.300212144851685,7.0104639530181885,7.310456991195679,dot,"[0.06, 0.08]","[[-0.15001882639889116, 0.48719053997247297], [-0.1736568080125972, 0.28835755901726084]]",density,black,,,D002,visual,1,[],"['1', '2', '3', '4']",1,2023.2.3,harveyvisual,2.1,[],8,0.75,
0,pause,0.4,None,None,None,0,15,15,15,,,,,,,,,,,,,D002,visual,1,[],"['1', '2', '3', '4']",1,2023.2.3,harveyvisual,2.1,[],8,0.75,
2,dot,0.3,['dot'],['density'],black,0,16,16,16,,,8.00021505355835,7.710440158843994,8.010425090789795,dot,"[0.06, 0.06]","[[-0.15001882639889116, 0.48719053997247297], [-0.1736568080125972, 0.28835755901726084]]",density,black,,,D002,visual,1,[],"['1', '2', '3', '4']",1,2023.2.3,harveyvisual,2.1,[],8,0.75,
0,pause,0.4,None,None,None,0,17,17,17,,,,,,,,,,,,,D002,visual,1,[],"['1', '2', '3', '4']",1,2023.2.3,harveyvisual,2.1,[],8,0.75,
2,dot,0.3,['dot'],['density'],black,0,18,18,18,,,8.70020604133606,8.410424947738647,8.71042013168335,dot,"[0.08, 0.06]","[[-0.03288134563171543, -0.4238564918242606], [-0.10611641736664675, -0.2370354775439666]]",density,black,,,D002,visual,1,[],"['1', '2', '3', '4']",1,2023.2.3,harveyvisual,2.1,[],8,0.75,
0,pause,0.4,None,None,None,0,19,19,19,,,,,,,,,,,,,D002,visual,1,[],"['1', '2', '3', '4']",1,2023.2.3,harveyvisual,2.1,[],8,0.75,
2,dot,0.3,['dot'],['density'],black,0,20,20,20,,,9.400205135345459,9.110419034957886,9.410386085510254,dot,"[0.1, 0.06]","[[-0.15489633838679245, 0.20775043904852977], [-0.02477214636975436, 0.05468251249351026]]",density,black,,,D002,visual,1,[],"['1', '2', '3', '4']",1,2023.2.3,harveyvisual,2.1,[],8,0.75,
0,pause,0.4,None,None,None,0,21,21,21,,,,,,,,,,,,,D002,visual,1,[],"['1', '2', '3', '4']",1,2023.2.3,harveyvisual,2.1,[],8,0.75,
2,dot,0.3,['dot'],['density'],black,0,22,22,22,,,10.100212097167969,9.810392141342163,10.110380172729492,dot,"[0.08, 0.08]","[[0.19540278997321237, -0.319457995891214], [0.34462774624387493, -0.4544903302695001]]",density,black,,,D002,visual,1,[],"['1', '2', '3', '4']",1,2023.2.3,harveyvisual,2.1,[],8,0.75,
0,pause,0.4,None,None,None,0,23,23,23,,,,,,,,,,,,,D002,visual,1,[],"['1', '2', '3', '4']",1,2023.2.3,harveyvisual,2.1,[],8,0.75,
3,dot,0.3,['dot'],['density'],black,0,24,24,24,,,10.800220012664795,10.510494947433472,10.810492038726807,dot,"[0.1, 0.06, 0.08]","[[0.348550694073714, -0.26372109460002424], [0.5073713069625243, -0.14206826334288786], [0.3419709386041379, 0.005891602819957491]]",density,black,,,D002,visual,1,[],"['1', '2', '3', '4']",1,2023.2.3,harveyvisual,2.1,[],8,0.75,
0,pause,0.4,None,None,None,0,25,25,25,,,,,,,,,,,,,D002,visual,1,[],"['1', '2', '3', '4']",1,2023.2.3,harveyvisual,2.1,[],8,0.75,
3,dot,0.3,['dot'],['density'],black,0,26,26,26,,,11.500209093093872,11.210545063018799,11.510491132736206,dot,"[0.08, 0.08, 0.06]","[[-0.17592395544936776, 0.40510565415719324], [-0.30566154612550034, 0.21848422264492345], [-0.39822260978708685, 0.43144058222919995]]",density,black,,,D002,visual,1,[],"['1', '2', '3', '4']",1,2023.2.3,harveyvisual,2.1,[],8,0.75,
0,pause,0.4,None,None,None,0,27,27,27,,,,,,,,,,,,,D002,visual,1,[],"['1', '2', '3', '4']",1,2023.2.3,harveyvisual,2.1,[],8,0.75,
3,dot,0.3,['dot'],['density'],black,0,28,28,28,,,12.200210094451904,11.910340070724487,12.210494041442871,dot,"[0.1, 0.1, 0.08]","[[-0.18534860244577742, 0.5145019772121514], [0.05660586421610542, 0.42456432010350276], [-0.11463700911578348, 0.31489985189225056]]",density,black,,,D002,visual,1,[],"['1', '2', '3', '4']",1,2023.2.3,harveyvisual,2.1,[],8,0.75,
0,pause,0.4,None,None,None,0,29,29,29,,,,,,,,,,,,,D002,visual,1,[],"['1', '2', '3', '4']",1,2023.2.3,harveyvisual,2.1,[],8,0.75,
3,dot,0.3,['dot'],['density'],black,0,30,30,30,,,12.900196075439453,12.610511064529419,12.91050910949707,dot,"[0.06, 0.08, 0.1]","[[0.07700183490032705, -0.35627018624379625], [-0.11838355721398923, -0.41989981358322065], [0.04553884901650391, -0.5822363694770394]]",density,black,,,D002,visual,1,[],"['1', '2', '3', '4']",1,2023.2.3,harveyvisual,2.1,[],8,0.75,
0,pause,0.4,None,None,None,0,31,31,31,,,,,,,,,,,,,D002,visual,1,[],"['1', '2', '3', '4']",1,2023.2.3,harveyvisual,2.1,[],8,0.75,
3,dot,0.3,['dot'],['density'],black,0,32,32,32,,,13.600222110748291,13.310528993606567,13.610527992248535,dot,"[0.06, 0.06, 0.06]","[[-0.36641147837046456, 0.28339849123565264], [-0.19108570342652328, 0.4628134959899303], [-0.16564092668537764, 0.24926372681875647]]",density,black,,,D002,visual,1,[],"['1', '2', '3', '4']",1,2023.2.3,harveyvisual,2.1,[],8,0.75,
0,pause,0.4,None,None,None,0,33,33,33,,,,,,,,,,,,,D002,visual,1,[],"['1', '2', '3', '4']",1,2023.2.3,harveyvisual,2.1,[],8,0.75,
3,dot,0.3,['dot'],['density'],black,0,34,34,34,,,14.300207138061523,14.010300159454346,14.310417175292969,dot,"[0.08, 0.08, 0.08]","[[-0.31319101668702665, 0.019781348947723338], [-0.5473895760332308, 0.024991247927059115], [-0.4494119348059314, -0.1602141851013313]]",density,black,,,D002,visual,1,[],"['1', '2', '3', '4']",1,2023.2.3,harveyvisual,2.1,[],8,0.75,
0,pause,0.4,None,None,None,0,35,35,35,,,,,,,,,,,,,D002,visual,1,[],"['1', '2', '3', '4']",1,2023.2.3,harveyvisual,2.1,[],8,0.75,
4,dot,0.3,['dot'],['density'],black,0,36,36,36,,,15.000216007232666,14.710422039031982,15.01038908958435,dot,"[0.06, 0.06, 0.06, 0.08]","[[-0.46485289602757673, 0.3603628353310837], [-0.30733625211232357, 0.21626236973196436], [-0.38991578213366157, 0.024479253410336757], [-0.570234662048439, 0.14093512067028166]]",density,black,,,D002,visual,1,[],"['1', '2', '3', '4']",1,2023.2.3,harveyvisual,2.1,[],8,0.75,
0,pause,0.4,None,None,None,0,37,37,37,,,,,,,,,,,,,D002,visual,1,[],"['1', '2', '3', '4']",1,2023.2.3,harveyvisual,2.1,[],8,0.75,
4,dot,0.3,['dot'],['density'],white,0,38,38,38,,,15.700205087661743,15.410380125045776,15.710391998291016,dot,"[0.08, 0.08, 0.1, 0.06]","[[0.2593869086993074, -0.26887741013308497], [0.09674879007849839, -0.39609983087723066], [-0.011093693993988496, -0.14004324908426333], [0.28630805459639813, -0.4681830009867555]]",density,white,,,D002,visual,1,[],"['1', '2', '3', '4']",1,2023.2.3,harveyvisual,2.1,[],8,0.75,
0,pause,0.4,None,None,None,0,39,39,39,,,,,,,,,,,,,D002,visual,1,[],"['1', '2', '3', '4']",1,2023.2.3,harveyvisual,2.1,[],8,0.75,
4,dot,0.3,['dot'],['density'],black,0,40,40,40,,,16.40021300315857,16.11043405532837,16.410222053527832,dot,"[0.1, 0.1, 0.08, 0.08]","[[0.17852470546651972, -0.2012438881607824], [-0.031034799765910746, -0.12466087783573923], [0.008996399474264666, -0.3229379719524122], [0.15114343287780646, 0.03986859122442722]]",density,black,,,D002,visual,1,[],"['1', '2', '3', '4']",1,2023.2.3,harveyvisual,2.1,[],8,0.75,
0,pause,0.4,None,None,None,0,41,41,41,,,,,,,,,,,,,D002,visual,1,[],"['1', '2', '3', '4']",1,2023.2.3,harveyvisual,2.1,[],8,0.75,
4,dot,0.3,['dot'],['density'],black,0,42,42,42,,,17.100218057632446,16.81040596961975,17.110198974609375,dot,"[0.06, 0.06, 0.08, 0.06]","[[-0.035956560563939345, -0.32709283091503677], [-0.2190429995428959, -0.2035699502326352], [-0.06992348234594314, -0.5664776463754845], [-0.220471277594294, -0.41208836036752056]]",density,black,,,D002,visual,1,[],"['1', '2', '3', '4']",1,2023.2.3,harveyvisual,2.1,[],8,0.75,
0,pause,0.4,None,None,None,0,43,43,43,,,,,,,,,,,,,D002,visual,1,[],"['1', '2', '3', '4']",1,2023.2.3,harveyvisual,2.1,[],8,0.75,
4,dot,0.3,['dot'],['density'],white,0,44,44,44,,,17.800223112106323,17.5101900100708,17.81016707420349,dot,"[0.1, 0.1, 0.08, 0.08]","[[-0.045256114861740894, 0.2798656300268403], [-0.02131053084637037, 0.4849425601475732], [0.17666180860848907, 0.34430389164600056], [0.0747630441556118, 0.10387908342824508]]",density,white,,,D002,visual,1,[],"['1', '2', '3', '4']",1,2023.2.3,harveyvisual,2.1,[],8,0.75,
0,pause,0.4,None,None,None,0,45,45,45,,,,,,,,,,,1,17.84687089920044,D002,visual,1,[],"['1', '2', '3', '4']",1,2023.2.3,harveyvisual,2.1,[],8,0.75,
4,dot,0.3,['dot'],['density'],black,0,46,46,46,,,18.500214099884033,18.210180044174194,18.5102801322937,dot,"[0.06, 0.1, 0.08, 0.08]","[[0.1665887267295909, 0.08389582001604734], [0.4584359263982055, 0.26405512465689546], [0.4157764543415929, 0.03513878013061779], [0.2392225064082761, 0.29777239984320175]]",density,black,,,D002,visual,1,[],"['1', '2', '3', '4']",1,2023.2.3,harveyvisual,2.1,[],8,0.75,
0,pause,0.4,None,None,None,0,47,47,47,,,,,,,,,,,,,D002,visual,1,[],"['1', '2', '3', '4']",1,2023.2.3,harveyvisual,2.1,[],8,0.75,
5,dot,0.3,['dot'],['density'],black,0,48,48,48,,,19.200221061706543,18.910129070281982,19.210289001464844,dot,"[0.06, 0.08, 0.1, 0.1, 0.06]","[[0.10558973120531606, -0.20428866875977839], [-0.0893225412758366, 0.16524926947551877], [-0.05793580974794309, -0.07826743033729393], [0.11130747138107101, 0.10875249109580729], [0.28035132100960686, -0.09064984251937742]]",density,black,,,D002,visual,1,[],"['1', '2', '3', '4']",1,2023.2.3,harveyvisual,2.1,[],8,0.75,
0,pause,0.4,None,None,None,0,49,49,49,,,,,,,,,,,,,D002,visual,1,[],"['1', '2', '3', '4']",1,2023.2.3,harveyvisual,2.1,[],8,0.75,
5,dot,0.3,['dot'],['density'],black,0,50,50,50,,,19.900218963623047,19.61028003692627,19.910117149353027,dot,"[0.1, 0.08, 0.06, 0.08, 0.08]","[[-0.053215572458232586, 0.27221330895143253], [0.10089702531331296, 0.1334794413224796], [0.12897289155288158, 0.4002796015157326], [0.3022660506716914, 0.02685289149411272], [0.2804295634962893, 0.24950018434757285]]",density,black,,,D002,visual,1,[],"['1', '2', '3', '4']",1,2023.2.3,harveyvisual,2.1,[],8,0.75,
0,pause,0.4,None,None,None,0,51,51,51,,,,,,,,,,,,,D002,visual,1,[],"['1', '2', '3', '4']",1,2023.2.3,harveyvisual,2.1,[],8,0.75,
5,dot,0.3,['dot'],['density'],black,0,52,52,52,,,20.600218057632446,20.310134172439575,20.61023998260498,dot,"[0.08, 0.08, 0.1, 0.06, 0.06]","[[0.45108699871130137, 0.12052648913612102], [0.3120839015871755, -0.055344110322042436], [0.5361186937318446, -0.08608482415671545], [0.24926945818158194, 0.15209517992691748], [0.3855135356736719, -0.25840400127360613]]",density,black,,,D002,visual,1,[],"['1', '2', '3', '4']",1,2023.2.3,harveyvisual,2.1,[],8,0.75,
0,pause,0.4,None,None,None,0,53,53,53,,,,,,,,,,,,,D002,visual,1,[],"['1', '2', '3', '4']",1,2023.2.3,harveyvisual,2.1,[],8,0.75,
5,dot,0.3,['dot'],['density'],black,0,54,54,54,,,21.300214052200317,21.010086059570312,21.31022810935974,dot,"[0.08, 0.06, 0.08, 0.08, 0.08]","[[0.26736814946294957, 0.039639821311179], [0.3007085492035367, 0.3262250213434343], [0.4353907115448318, -0.11778011175670104], [0.4521497692138949, 0.1289853794543976], [0.1485908728023605, -0.12275462689891227]]",density,black,,,D002,visual,1,[],"['1', '2', '3', '4']",1,2023.2.3,harveyvisual,2.1,[],8,0.75,
0,pause,0.4,None,None,None,0,55,55,55,,,,,,,,,,,,,D002,visual,1,[],"['1', '2', '3', '4']",1,2023.2.3,harveyvisual,2.1,[],8,0.75,
5,dot,0.3,['dot'],['density'],black,0,56,56,56,,,22.000216960906982,21.71021294593811,22.01019811630249,dot,"[0.06, 0.08, 0.06, 0.08, 0.08]","[[0.21791283729510122, -0.3451859720731072], [0.5246150578842218, -0.1749209719782184], [0.23417080448362212, 0.06149420791510773], [0.21628546435715315, -0.14179681516434317], [0.46094971099473236, 0.03541120369123469]]",density,black,,,D002,visual,1,[],"['1', '2', '3', '4']",1,2023.2.3,harveyvisual,2.1,[],8,0.75,
0,pause,0.4,None,None,None,0,57,57,57,,,,,,,,,,,,,D002,visual,1,[],"['1', '2', '3', '4']",1,2023.2.3,harveyvisual,2.1,[],8,0.75,
5,dot,0.3,['dot'],['density'],black,0,58,58,58,,,22.700221061706543,22.410207986831665,22.710052013397217,dot,"[0.1, 0.06, 0.06, 0.06, 0.08]","[[-0.16893136043895146, -0.20127892763881453], [-0.5727216740452047, -0.07682091551650742], [-0.343702592036276, -0.060533526953518955], [-0.5038383983260774, 0.15268268748871192], [-0.379488354443274, -0.2704310218069364]]",density,black,,,D002,visual,1,[],"['1', '2', '3', '4']",1,2023.2.3,harveyvisual,2.1,[],8,0.75,
0,pause,0.4,None,None,None,0,59,59,59,,,,,,,,,,,,,D002,visual,1,[],"['1', '2', '3', '4']",1,2023.2.3,harveyvisual,2.1,[],8,0.75,
6,dot,0.3,['dot'],['density'],black,0,60,60,60,,,23.40022110939026,23.11017107963562,23.41016697883606,dot,"[0.1, 0.1, 0.08, 0.1, 0.1, 0.08]","[[0.0015484977009578463, -0.37153509484940705], [-0.24631791352898516, -0.16063896847060222], [-0.21037316856202723, -0.37491302730087106], [-0.14520134419833938, 0.05228402714841561], [-0.41979900021501537, -0.27073368115662844], [-0.020720382871846178, -0.14076137757070492]]",density,black,,,D002,visual,1,[],"['1', '2', '3', '4']",1,2023.2.3,harveyvisual,2.1,[],8,0.75,
0,pause,0.4,None,None,None,0,61,61,61,,,,,,,,,,,,,D002,visual,1,[],"['1', '2', '3', '4']",1,2023.2.3,harveyvisual,2.1,[],8,0.75,
6,dot,0.3,['dot'],['density'],white,0,62,62,62,,,24.100218057632446,23.810166120529175,24.11015510559082,dot,"[0.1, 0.08, 0.1, 0.1, 0.08, 0.1]","[[-0.060066269329224556, -0.3459973645598818], [-0.2267112282887438, -0.46433083725857055], [-0.03368736353914721, -0.0592740518520544], [0.1129416353875032, -0.20466059509733167], [0.13908697530976044, -0.42386339769443276], [-0.2931789080149146, -0.2669036372638095]]",density,white,,,D002,visual,1,[],"['1', '2', '3', '4']",1,2023.2.3,harveyvisual,2.1,[],8,0.75,
0,pause,0.4,None,None,None,0,63,63,63,,,,,,,,,,,1,24.181658029556274,D002,visual,1,[],"['1', '2', '3', '4']",1,2023.2.3,harveyvisual,2.1,[],8,0.75,
6,dot,0.3,['dot'],['density'],black,0,64,64,64,,,24.800212144851685,24.51001501083374,24.81002712249756,dot,"[0.08, 0.06, 0.06, 0.06, 0.06, 0.1]","[[0.1643264729387965, -0.2471077239796436], [-0.22534804549937193, -0.4918728234310363], [-0.026166131246113146, -0.09278119687647148], [-0.24451989516519138, -0.21339523607155425], [0.11868454116144263, -0.4574197693624388], [-0.058907778787058426, -0.30919141315076737]]",density,black,,,D002,visual,1,[],"['1', '2', '3', '4']",1,2023.2.3,harveyvisual,2.1,[],8,0.75,
0,pause,0.4,None,None,None,0,65,65,65,,,,,,,,,,,,,D002,visual,1,[],"['1', '2', '3', '4']",1,2023.2.3,harveyvisual,2.1,[],8,0.75,
6,dot,0.3,['dot'],['density'],black,0,66,66,66,,,25.50021195411682,25.209983110427856,25.509982109069824,dot,"[0.1, 0.08, 0.1, 0.1, 0.08, 0.08]","[[-0.37443702985748106, 0.32648296684105377], [-0.5461381080049402, 0.20900463425646473], [-0.03667792491240075, 0.12745261621840673], [-0.13670974087354773, 0.4115775839407936], [-0.3800981804337871, 0.05314619565530939], [-0.23016292349935943, 0.18714801531232822]]",density,black,,,D002,visual,1,[],"['1', '2', '3', '4']",1,2023.2.3,harveyvisual,2.1,[],8,0.75,
0,pause,0.4,None,None,None,0,67,67,67,,,,,,,,,,,,,D002,visual,1,[],"['1', '2', '3', '4']",1,2023.2.3,harveyvisual,2.1,[],8,0.75,
6,dot,0.3,['dot'],['density'],black,0,68,68,68,,,26.200222969055176,25.90996503829956,26.20999503135681,dot,"[0.08, 0.1, 0.06, 0.06, 0.1, 0.06]","[[-0.2715212558254698, 0.2586056842756752], [-0.41011716394998093, -0.23288273174477314], [-0.4259032553852052, 0.02963770343160952], [-0.037696467485790364, -0.07921729390734374], [-0.19058944014171011, 0.07565381115733183], [-0.22931220879523878, -0.14417898787482208]]",density,black,,,D002,visual,1,[],"['1', '2', '3', '4']",1,2023.2.3,harveyvisual,2.1,[],8,0.75,
0,pause,0.4,None,None,None,0,69,69,69,,,,,,,,,,,,,D002,visual,1,[],"['1', '2', '3', '4']",1,2023.2.3,harveyvisual,2.1,[],8,0.75,
6,dot,0.3,['dot'],['density'],black,0,70,70,70,,,26.900207996368408,26.609925985336304,26.909911155700684,dot,"[0.08, 0.06, 0.06, 0.08, 0.1, 0.1]","[[-0.3622751979984162, 0.41275935807220604], [-0.5464806003183257, 0.06358334875023645], [-0.15518785678585886, 0.34969079698534317], [-0.3231370338359737, -0.02193421190541931], [-0.3473470749510941, 0.19885557425221048], [-0.12382976466594668, 0.04156566071734393]]",density,black,,,D002,visual,1,[],"['1', '2', '3', '4']",1,2023.2.3,harveyvisual,2.1,[],8,0.75,
0,pause,0.4,None,None,None,0,71,71,71,,,,,,,,,,,,,D002,visual,1,[],"['1', '2', '3', '4']",1,2023.2.3,harveyvisual,2.1,[],8,0.75,
7,dot,0.3,['dot'],['density'],black,0,72,72,72,,,27.600221157073975,27.309937000274658,27.609950065612793,dot,"[0.08, 0.1, 0.06, 0.1, 0.08, 0.06, 0.08]","[[-0.1639205104410485, 0.5375336320852997], [0.13665370749938832, 0.21910895384688228], [-0.33778978147358674, 0.04597826141406851], [-0.2268593015261854, 0.22000868921510455], [-0.39586497221419475, 0.3389169711393182], [-0.023188047053822363, 0.08417042442854547], [-0.025005414605345992, 0.38521147685537843]]",density,black,,,D002,visual,1,[],"['1', '2', '3', '4']",1,2023.2.3,harveyvisual,2.1,[],8,0.75,
0,pause,0.4,None,None,None,0,73,73,73,,,,,,,,,,,,,D002,visual,1,[],"['1', '2', '3', '4']",1,2023.2.3,harveyvisual,2.1,[],8,0.75,
7,dot,0.3,['dot'],['density'],black,0,74,74,74,,,28.300225973129272,28.009886026382446,28.30987811088562,dot,"[0.08, 0.08, 0.06, 0.08, 0.06, 0.1, 0.06]","[[-0.1635229753841098, 0.12186382262109141], [0.03437657187081179, 0.5178389267683822], [0.324184412335695, 0.17931743601205324], [0.08929018524031027, 0.11005745596178185], [-0.1318259817332877, 0.4026967659136047], [-0.053046683696667, -0.06058584598870606], [0.042745683665752716, 0.304616966822181]]",density,black,,,D002,visual,1,[],"['1', '2', '3', '4']",1,2023.2.3,harveyvisual,2.1,[],8,0.75,
0,pause,0.4,None,None,None,0,75,75,75,,,,,,,,,,,,,D002,visual,1,[],"['1', '2', '3', '4']",1,2023.2.3,harveyvisual,2.1,[],8,0.75,
7,dot,0.3,['dot'],['density'],black,0,76,76,76,,,29.000221967697144,28.70987296104431,29.009859085083008,dot,"[0.1, 0.1, 0.1, 0.1, 0.06, 0.08, 0.06]","[[0.3032073476866497, 0.39528308644852606], [0.12977480624643314, 0.5338553612741447], [-0.07830532742558233, 0.5277294273979773], [0.000705909343175084, 0.04538848857330666], [-0.11442247498636825, 0.3203087976624053], [0.11424952152856681, 0.31372813630522095], [0.2743618672110132, 0.19233036806743029]]",density,black,,,D002,visual,1,[],"['1', '2', '3', '4']",1,2023.2.3,harveyvisual,2.1,[],8,0.75,
0,pause,0.4,None,None,None,0,77,77,77,,,,,,,,,,,,,D002,visual,1,[],"['1', '2', '3', '4']",1,2023.2.3,harveyvisual,2.1,[],8,0.75,
7,dot,0.3,['dot'],['density'],black,0,78,78,78,,,29.700217962265015,29.409892082214355,29.709886074066162,dot,"[0.06, 0.1, 0.08, 0.1, 0.1, 0.06, 0.1]","[[0.3350011905151264, 0.09255159473130091], [-0.07424962927914175, -0.2643067362759337], [-0.0068732696698998825, 0.04948606721470151], [0.12855319879406235, -0.3381192636220083], [0.11551090787938859, 0.24000211478775196], [0.3415900712266813, -0.1269386107563701], [0.14228147320501944, -0.08533637750285226]]",density,black,,,D002,visual,1,[],"['1', '2', '3', '4']",1,2023.2.3,harveyvisual,2.1,[],8,0.75,
0,pause,0.4,None,None,None,0,79,79,79,,,,,,,,,,,,,D002,visual,1,[],"['1', '2', '3', '4']",1,2023.2.3,harveyvisual,2.1,[],8,0.75,
7,dot,0.3,['dot'],['density'],black,0,80,80,80,,,30.40019917488098,30.10985517501831,30.409845113754272,dot,"[0.08, 0.1, 0.06, 0.06, 0.06, 0.1, 0.08]","[[-0.3616029487054454, 0.4456424486886853], [-0.1496406170718537, 0.08450683720449656], [-0.4229793897960434, 0.19545916586121675], [-0.050735401720141765, 0.4582308035931027], [-0.23416009772798219, 0.28880413379285297], [0.00916417092529717, 0.20866532064640267], [0.0895043828575618, 0.020292244516940467]]",density,black,,,D002,visual,1,[],"['1', '2', '3', '4']",1,2023.2.3,harveyvisual,2.1,[],8,0.75,
0,pause,0.4,None,None,None,0,81,81,81,,,,,,,,,,,,,D002,visual,1,[],"['1', '2', '3', '4']",1,2023.2.3,harveyvisual,2.1,[],8,0.75,
7,dot,0.3,['dot'],['density'],black,0,82,82,82,,,31.100226163864136,30.809858083724976,31.10984706878662,dot,"[0.1, 0.1, 0.08, 0.06, 0.1, 0.08, 0.06]","[[0.23608374802607182, -0.42864299173344095], [-0.09209027036414452, -0.12416238309953632], [0.2788105912293623, 0.0033410667889120396], [0.04539289310230788, 0.08875296613859053], [0.036272769320452085, -0.32980830156280494], [-0.23317126701056543, -0.2895908304292693], [0.15392952834370008, -0.16140965755482034]]",density,black,,,D002,visual,1,[],"['1', '2', '3', '4']",1,2023.2.3,harveyvisual,2.1,[],8,0.75,
0,pause,0.4,None,None,None,0,83,83,83,,,,,,,,,,,,,D002,visual,1,[],"['1', '2', '3', '4']",1,2023.2.3,harveyvisual,2.1,[],8,0.75,
8,dot,0.3,['dot'],['density'],black,0,84,84,84,,,31.800205945968628,31.50984001159668,31.80982208251953,dot,"[0.08, 0.08, 0.1, 0.06, 0.1, 0.06, 0.06, 0.08]","[[-0.19469543066458847, -0.326291241472255], [0.30343637985980976, -0.10925869102227477], [-0.1969922581528186, -0.11664339975312436], [0.2570255161168456, -0.3247060146943647], [0.10684135558856425, -0.18174565546534566], [0.03482742583321104, -0.4893606045609451], [-0.015658395544436696, -0.0001692298399926468], [0.11980560642279467, 0.15585563517441894]]",density,black,,,D002,visual,1,[],"['1', '2', '3', '4']",1,2023.2.3,harveyvisual,2.1,[],8,0.75,
0,pause,0.4,None,None,None,0,85,85,85,,,,,,,,,,,,,D002,visual,1,[],"['1', '2', '3', '4']",1,2023.2.3,harveyvisual,2.1,[],8,0.75,
8,dot,0.3,['dot'],['density'],white,0,86,86,86,,,32.50020408630371,32.20982217788696,32.50980305671692,dot,"[0.08, 0.1, 0.06, 0.1, 0.1, 0.08, 0.08, 0.1]","[[-0.4462313073918426, 0.10595449025715867], [0.022923871415176152, 0.06290918987699953], [-0.12461589820496316, 0.4830175517012745], [-0.29730306390741434, 0.2752084497958106], [-0.2195410516364439, 0.056871795648565045], [0.008916049516666445, 0.2907399105306955], [-0.08256048209355603, -0.11638226771844133], [-0.4106304257826301, -0.09222594144079917]]",density,white,,,D002,visual,1,[],"['1', '2', '3', '4']",1,2023.2.3,harveyvisual,2.1,[],8,0.75,
0,pause,0.4,None,None,None,0,87,87,87,,,,,,,,,,,1,32.54652190208435,D002,visual,1,[],"['1', '2', '3', '4']",1,2023.2.3,harveyvisual,2.1,[],8,0.75,
8,dot,0.3,['dot'],['density'],black,0,88,88,88,,,33.200215101242065,32.90982007980347,33.20976209640503,dot,"[0.08, 0.08, 0.08, 0.06, 0.06, 0.06, 0.1, 0.06]","[[0.5011924336457421, -0.024432440978935197], [0.2806328112604475, -0.04317330297599672], [0.4832514634589159, 0.31109822070486504], [0.16408111659662816, 0.42847901077729456], [0.23688927214560462, 0.23559820796421724], [0.07772697954394367, 0.06196890701796274], [0.10192126774068293, -0.18867749580812243], [-0.012619648351882298, 0.24997239668137242]]",density,black,,,D002,visual,1,[],"['1', '2', '3', '4']",1,2023.2.3,harveyvisual,2.1,[],8,0.75,
0,pause,0.4,None,None,None,0,89,89,89,,,,,,,,,,,,,D002,visual,1,[],"['1', '2', '3', '4']",1,2023.2.3,harveyvisual,2.1,[],8,0.75,
8,dot,0.3,['dot'],['density'],black,0,90,90,90,,,33.90022110939026,33.60973596572876,33.90973711013794,dot,"[0.1, 0.08, 0.06, 0.1, 0.1, 0.08, 0.1, 0.06]","[[-0.30918623351354413, -0.2762980118811315], [0.03442122464869854, -0.32944299641312663], [0.20656618624830034, -0.4515266663928406], [0.20458815773351877, -0.002924552385479317], [-0.054765695239429084, -0.14491701700869716], [-0.0008776159608741382, 0.05441634750414142], [0.19975410704164612, -0.21252729673777132], [-0.19330391669800595, 0.14377227853430027]]",density,black,,,D002,visual,1,[],"['1', '2', '3', '4']",1,2023.2.3,harveyvisual,2.1,[],8,0.75,
0,pause,0.4,None,None,None,0,91,91,91,,,,,,,,,,,,,D002,visual,1,[],"['1', '2', '3', '4']",1,2023.2.3,harveyvisual,2.1,[],8,0.75,
8,dot,0.3,['dot'],['density'],white,0,92,92,92,,,34.60021901130676,34.3099319934845,34.60994815826416,dot,"[0.1, 0.08, 0.06, 0.06, 0.06, 0.1, 0.08, 0.08]","[[0.4578461037593053, -0.0425280984807614], [0.3105081462658962, -0.253400778181943], [0.5107466611240274, 0.18303335057259504], [0.05013881804369301, 0.21472050036076742], [0.11913774150617627, -0.046477809882714556], [0.3069987493408211, 0.11186211070896974], [0.10261508471656716, -0.25482825738733483], [-0.08881417545548334, 0.035709595317019026]]",density,white,,,D002,visual,1,[],"['1', '2', '3', '4']",1,2023.2.3,harveyvisual,2.1,[],8,0.75,
0,pause,0.4,None,None,None,0,93,93,93,,,,,,,,,,,1,34.67099094390869,D002,visual,1,[],"['1', '2', '3', '4']",1,2023.2.3,harveyvisual,2.1,[],8,0.75,
8,dot,0.3,['dot'],['density'],black,0,94,94,94,,,35.30020809173584,35.009756088256836,35.30989909172058,dot,"[0.1, 0.08, 0.06, 0.06, 0.06, 0.1, 0.08, 0.1]","[[0.29210958841889567, 0.026991922891258572], [0.03093533645276146, 0.3258936230244337], [-0.13014708308220477, 0.20110385145229231], [0.463805327987396, 0.2670013362689149], [0.17887675575806267, 0.48912385903522404], [0.2495142025194702, 0.28253247413027655], [0.03200252102949923, -0.1932501096446728], [0.04457092617056691, 0.07668709382136672]]",density,black,,,D002,visual,1,[],"['1', '2', '3', '4']",1,2023.2.3,harveyvisual,2.1,[],8,0.75,
0,pause,0.4,None,None,None,0,95,95,95,,,,,,,,,,,,,D002,visual,1,[],"['1', '2', '3', '4']",1,2023.2.3,harveyvisual,2.1,[],8,0.75,
9,dot,0.3,['dot'],['density'],black,0,96,96,96,,,36.0002281665802,35.709733963012695,36.009706020355225,dot,"[0.06, 0.08, 0.08, 0.08, 0.06, 0.08, 0.06, 0.1, 0.06]","[[-0.15654783233563613, 0.5456880468186037], [-0.24757731968740795, 0.34117179271889175], [0.237608115185398, 0.5379153628426676], [0.0469559873873498, 0.0609843963705915], [0.17872629641391088, 0.30721368784738284], [-0.014663874177430473, 0.385293302856951], [-0.1034840675008618, 0.1993866575147459], [0.37552485507684036, 0.26074226948317425], [-0.1631567374159006, -0.0021534685146951615]]",density,black,,,D002,visual,1,[],"['1', '2', '3', '4']",1,2023.2.3,harveyvisual,2.1,[],8,0.75,
0,pause,0.4,None,None,None,0,97,97,97,,,,,,,,,,,,,D002,visual,1,[],"['1', '2', '3', '4']",1,2023.2.3,harveyvisual,2.1,[],8,0.75,
9,dot,0.3,['dot'],['density'],black,0,98,98,98,,,36.70022010803223,36.409850120544434,36.709840059280396,dot,"[0.06, 0.06, 0.06, 0.08, 0.08, 0.06, 0.06, 0.1, 0.08]","[[-0.5586095828397086, -0.08452232608263664], [-0.5120381862419278, 0.15370428824398014], [-0.08562135647518901, 0.024493186907675612], [-0.3204263364507457, 0.2397592637991136], [-0.21279117965626912, -0.18999926927512983], [-0.34615304282718484, -0.002506468551820401], [-0.32642794983948487, 0.4412976810435594], [-0.12278716272436474, 0.3390467791696382], [0.05505897535061007, 0.17426903254619158]]",density,black,,,D002,visual,1,[],"['1', '2', '3', '4']",1,2023.2.3,harveyvisual,2.1,[],8,0.75,
0,pause,0.4,None,None,None,0,99,99,99,,,,,,,,,,,,,D002,visual,1,[],"['1', '2', '3', '4']",1,2023.2.3,harveyvisual,2.1,[],8,0.75,
9,dot,0.3,['dot'],['density'],black,0,100,100,100,,,37.40020799636841,37.109694957733154,37.409687995910645,dot,"[0.08, 0.06, 0.1, 0.06, 0.08, 0.06, 0.08, 0.08, 0.08]","[[0.21556792455118703, 0.37642033042102185], [0.14366510572844648, -0.18651452926789283], [0.49642287684820396, -0.0794158383055628], [-0.04770628609247857, -0.12519201939426747], [0.20310136493979325, 0.154094551714378], [-0.004065485174475974, 0.09100382633055243], [-0.018053901421587658, 0.34918523294118026], [0.29624623666919286, -0.053344657000752645], [-0.2018857737562037, 0.01971770186205045]]",density,black,,,D002,visual,1,[],"['1', '2', '3', '4']",1,2023.2.3,harveyvisual,2.1,[],8,0.75,
0,pause,0.4,None,None,None,0,101,101,101,,,,,,,,,,,,,D002,visual,1,[],"['1', '2', '3', '4']",1,2023.2.3,harveyvisual,2.1,[],8,0.75,
9,dot,0.3,['dot'],['density'],black,0,102,102,102,,,38.10021495819092,37.809813022613525,38.10982894897461,dot,"[0.06, 0.08, 0.1, 0.1, 0.06, 0.06, 0.06, 0.1, 0.1]","[[-0.1410632352740557, -0.317905811010377], [-0.01624442214728049, 0.1794094022286925], [0.09468404279643694, -0.24727132108451297], [-0.2758455249254349, -0.14491344886434532], [-0.07397021974914944, -0.09933967896750957], [-0.3580751224104431, 0.12641846535160695], [0.3672464474339042, -0.09947208873420914], [0.14679994141956812, -0.049441009882571184], [0.20049431506903384, 0.1443691092520585]]",density,black,,,D002,visual,1,[],"['1', '2', '3', '4']",1,2023.2.3,harveyvisual,2.1,[],8,0.75,
0,pause,0.4,None,None,None,0,103,103,103,,,,,,,,,,,,,D002,visual,1,[],"['1', '2', '3', '4']",1,2023.2.3,harveyvisual,2.1,[],8,0.75,
9,dot,0.3,['dot'],['density'],black,0,104,104,104,,,38.800215005874634,38.50968599319458,38.80965614318848,dot,"[0.08, 0.1, 0.1, 0.1, 0.08, 0.1, 0.08, 0.06, 0.06]","[[-0.08858128315591524, -0.3480052213079807], [0.37291707470974605, -0.0809562497479422], [-0.04311872097798103, 0.23152249840731254], [0.1734412630875083, -0.16491363602164627], [-0.024044713080900382, -0.04824256513196188], [0.126438571592319, 0.09122014985587756], [-0.2168202887682383, 0.11190421567656858], [-0.23215605484234547, -0.20356583507002532], [0.291417597339289, 0.24351333182926893]]",density,black,,,D002,visual,1,[],"['1', '2', '3', '4']",1,2023.2.3,harveyvisual,2.1,[],8,0.75,
0,pause,0.4,None,None,None,0,105,105,105,,,,,,,,,,,,,D002,visual,1,[],"['1', '2', '3', '4']",1,2023.2.3,harveyvisual,2.1,[],8,0.75,
9,dot,0.3,['dot'],['density'],black,0,106,106,106,,,39.500211000442505,39.20978808403015,39.509780168533325,dot,"[0.08, 0.06, 0.06, 0.06, 0.06, 0.06, 0.06, 0.08, 0.08]","[[-0.3974741157875733, -0.3691322615124248], [0.01813275331019438, -0.041305186939584786], [-0.297817964195003, 0.1404435238036691], [-0.24996212712231053, -0.10674501212047392], [-0.45607543705465475, -0.10954340680539053], [-0.5097726394514722, 0.08872958744943038], [-0.16376728557074105, -0.3354799619734228], [-0.07115584905184995, 0.17737469530672276], [-0.4529869372404742, 0.29851616761646654]]",density,black,,,D002,visual,1,[],"['1', '2', '3', '4']",1,2023.2.3,harveyvisual,2.1,[],8,0.75,
0,pause,0.4,None,None,None,0,107,107,107,,,,,,,,,,,,,D002,visual,1,[],"['1', '2', '3', '4']",1,2023.2.3,harveyvisual,2.1,[],8,0.75,
20,dot,0.3,['dot'],['density'],black,0,108,108,108,,,40.20022702217102,39.92636203765869,40.209787130355835,dot,"[0.1, 0.1, 0.08, 0.1, 0.1, 0.1, 0.1, 0.1, 0.08, 0.06, 0.1, 0.1, 0.1, 0.06, 0.1, 0.08, 0.06, 0.08, 0.08, 0.1]","[[0.21498088794209058, 0.3781005080413333], [0.41848301380606123, 0.09189046408121043], [0.36018219650607974, -0.3946064722364898], [0.14717939760734922, 0.5670754880300711], [0.03275152447315188, -0.3438667130354616], [-0.5013446382455132, 0.19484182563917718], [-0.27242877251995423, 0.3572791122389928], [0.22669037936406922, -0.20977491030890005], [-0.15787224385588777, 0.5539426585821953], [-0.3901387041193596, -0.4469969373940281], [-0.5874201110858153, 0.0219423572167457], [0.48468328978140673, 0.3481767904945794], [0.5513030523170009, -0.0969248808321416], [0.04943116727658148, -0.0511399296820898], [0.21566608368998252, 0.06286141641447274], [-0.05823814299185415, 0.2984225105852033], [0.13787062320399146, -0.5140105254392896], [-0.2554191933366903, 0.012859816346250996], [-0.397472790752897, -0.12083568686859508], [-0.21647514144128283, -0.23236003601719413]]",density,black,,,D002,visual,1,[],"['1', '2', '3', '4']",1,2023.2.3,harveyvisual,2.1,[],8,0.75,
0,pause,0.4,None,None,None,0,109,109,109,,,,,,,,,,,,,D002,visual,1,[],"['1', '2', '3', '4']",1,2023.2.3,harveyvisual,2.1,[],8,0.75,
20,dot,0.3,['dot'],['density'],black,0,110,110,110,,,40.90021300315857,40.60972809791565,40.90978717803955,dot,"[0.08, 0.1, 0.1, 0.08, 0.08, 0.08, 0.08, 0.06, 0.08, 0.1, 0.1, 0.08, 0.06, 0.1, 0.06, 0.08, 0.06, 0.08, 0.06, 0.1]","[[0.31075129145770786, -0.09044903975364116], [-0.26713419544409106, 0.51423962404032], [-0.31432681753926484, -0.04250796564846887], [0.2195917354154029, 0.45480736662326804], [0.5325783687929916, -0.19190960110783206], [0.303789634538414, 0.22303706564036474], [0.2537153143178307, -0.3353951887788666], [-0.29635161621933226, 0.21653550154408574], [0.26009652331481226, -0.5465074267444912], [-0.5145700048714188, 0.3110715647287257], [-0.5983361893228388, 0.0262889203992102], [-0.10991263842935783, -0.22901378432154262], [0.020384880679248818, 0.48010482749709993], [-0.46793196113166347, -0.28527075660689166], [0.10770762456654415, 0.00681731848788103], [0.5537687718447329, 0.10932249437701813], [-0.11139056248191614, 0.15650884999103276], [-0.3018427270154309, -0.454676135664672], [0.036094521979550875, -0.5745931996398634], [0.026765746933734458, -0.38446758404091796]]",density,black,,,D002,visual,1,[],"['1', '2', '3', '4']",1,2023.2.3,harveyvisual,2.1,[],8,0.75,
0,pause,0.4,None,None,None,0,111,111,111,,,,,,,,,,,,,D002,visual,1,[],"['1', '2', '3', '4']",1,2023.2.3,harveyvisual,2.1,[],8,0.75,
20,dot,0.3,['dot'],['density'],black,0,112,112,112,,,41.60021209716797,41.309744119644165,41.609785079956055,dot,"[0.08, 0.06, 0.06, 0.1, 0.1, 0.06, 0.1, 0.06, 0.1, 0.08, 0.1, 0.06, 0.06, 0.08, 0.1, 0.1, 0.08, 0.08, 0.08, 0.08]","[[0.0799792242024645, -0.3843276446354811], [0.061836903752273464, 0.10460730274247576], [0.20546727219743277, -0.18521633830900858], [-0.38964920532806313, 0.35526768328826996], [0.3540838028036075, 0.37333591582276715], [-0.324089934557427, -0.17811192729457598], [0.2610058048563094, 0.0007594816799620929], [0.44899168556775215, -0.12222983910014218], [-0.5270288794293023, -0.20766911904079416], [-0.2615322010983429, 0.07985324600653765], [0.18496720639404607, -0.5646727314566944], [0.06827906059242606, 0.5439651909843709], [0.5523746573035723, 0.06347521192918282], [0.08006014034406927, 0.3293307076157529], [-0.5901796745613086, 0.003972466606113806], [-0.10709443341686115, -0.45938711280638533], [-0.14329900807253443, -0.24084820657460154], [-0.3160181135229233, -0.3935385177073635], [0.4123946207947412, -0.3507161533429696], [-0.09652134187032868, 0.23163631488998737]]",density,black,,,D002,visual,1,[],"['1', '2', '3', '4']",1,2023.2.3,harveyvisual,2.1,[],8,0.75,
0,pause,0.4,None,None,None,0,113,113,113,,,,,,,,,,,,,D002,visual,1,[],"['1', '2', '3', '4']",1,2023.2.3,harveyvisual,2.1,[],8,0.75,
20,dot,0.3,['dot'],['density'],black,0,114,114,114,,,42.3002290725708,42.02623796463013,42.30969214439392,dot,"[0.1, 0.06, 0.1, 0.1, 0.1, 0.1, 0.08, 0.06, 0.06, 0.1, 0.06, 0.06, 0.1, 0.08, 0.06, 0.06, 0.08, 0.08, 0.1, 0.08]","[[-0.005087899977975874, 0.07007455288364939], [-0.1352014348190841, -0.1758688894691809], [0.43271888466220443, 0.16827075741650865], [0.4675523463226766, 0.37109045071736535], [-0.5553128074235556, 0.14627189278902894], [0.18857933545027605, 0.2538237568547338], [0.3101278037619777, -0.26715831710927646], [0.20657758589854547, 0.5021609763358313], [-0.24343711468772028, 0.4692299037130854], [-0.2218985273318393, -0.42946411059013045], [-0.49989989237001753, -0.28226263351883396], [0.1074762755848967, -0.47564197841054723], [0.11624130510929465, -0.15740071699564212], [-0.44331863092368506, -0.07164849687818825], [0.26715843868604905, -0.022314975675933213], [-0.2041336987400893, 0.1608793208907069], [0.5753105534206276, -0.003294389654367458], [-0.4351796580258051, 0.3981556990457928], [-0.04047562072208055, -0.34012978880882677], [-0.016374973160958817, 0.39578149098280035]]",density,black,,,D002,visual,1,[],"['1', '2', '3', '4']",1,2023.2.3,harveyvisual,2.1,[],8,0.75,
0,pause,0.4,None,None,None,0,115,115,115,,,,,,,,,,,,,D002,visual,1,[],"['1', '2', '3', '4']",1,2023.2.3,harveyvisual,2.1,[],8,0.75,
20,dot,0.3,['dot'],['density'],black,0,116,116,116,,,43.00020909309387,42.726359128952026,43.00966715812683,dot,"[0.1, 0.06, 0.1, 0.1, 0.1, 0.08, 0.1, 0.08, 0.1, 0.08, 0.08, 0.08, 0.1, 0.06, 0.06, 0.06, 0.06, 0.1, 0.1, 0.1]","[[0.4431798589271728, 0.3190316659659848], [-0.51223767004108, -0.013575894553174928], [-0.47723304670152256, -0.29906444624462725], [-0.17100944361796888, 0.0893758202639342], [-0.26507486400606267, 0.29597528596983624], [0.38860057700215334, -0.2721728819554743], [0.2705904719041743, 0.07149565518307566], [-0.46463772827876293, 0.28839279092796977], [0.07107081583313057, -0.09775210224141984], [0.17515795218391328, -0.3784936975115142], [0.3115069988917709, 0.516004445122519], [-0.14165323602380347, -0.46098967563097115], [-0.15442553667276876, -0.2541310301637338], [0.5693803747892151, -0.01064739549664967], [0.050966045680963856, 0.1582466257848577], [-0.0374510105747321, 0.5393039898333652], [-0.34965384220609, -0.4931507077815203], [0.3565872027372181, -0.478170336882883], [-0.054153178015765246, 0.3411647381467964], [-0.3144904601989527, 0.5041946858954521]]",density,black,,,D002,visual,1,[],"['1', '2', '3', '4']",1,2023.2.3,harveyvisual,2.1,[],8,0.75,
0,pause,0.4,None,None,None,0,117,117,117,,,,,,,,,,,,,D002,visual,1,[],"['1', '2', '3', '4']",1,2023.2.3,harveyvisual,2.1,[],8,0.75,
20,dot,0.3,['dot'],['density'],black,0,118,118,118,,,43.70020508766174,43.42633414268494,43.70965504646301,dot,"[0.1, 0.08, 0.1, 0.08, 0.06, 0.08, 0.1, 0.06, 0.06, 0.08, 0.06, 0.08, 0.1, 0.1, 0.08, 0.1, 0.06, 0.06, 0.08, 0.1]","[[-0.25672727646848115, 0.16511141812887165], [-0.027529434842940237, -0.4834410836708552], [0.25161107944717853, -0.16770934537748694], [0.6016771847291972, 0.025425567854955422], [-0.02453533769801519, 0.11167985104147382], [-0.41877565212980694, -0.16477174834386432], [0.32963253926901037, -0.34456618584724863], [-0.13065016413547043, 0.38981617396287627], [0.21022112087963618, -0.512970626777656], [0.506741500795694, -0.25493232903308977], [-0.24479781331373401, -0.47488300645796083], [-0.5262762726525185, 0.1505270831326258], [-0.2844444278525563, 0.5227261901220062], [0.5482315095860962, 0.22886032003775464], [0.2636763687831134, 0.15169971081537237], [-0.037338788763663144, 0.5887557867802904], [0.2930333278301299, 0.518150228326448], [0.02562761769381816, -0.2733965207787721], [-0.2134344856069742, -0.09345375025592517], [-0.44440641485663535, -0.36976080883558]]",density,black,,,D002,visual,1,[],"['1', '2', '3', '4']",1,2023.2.3,harveyvisual,2.1,[],8,0.75,
0,pause,0.4,None,None,None,0,119,119,119,,,,,,,,,,,,,D002,visual,1,[],"['1', '2', '3', '4']",1,2023.2.3,harveyvisual,2.1,[],8,0.75,
20,dot,0.3,['dot'],['density'],black,0,120,120,120,,,44.40021109580994,44.126305103302,44.40950798988342,dot,"[0.06, 0.06, 0.1, 0.08, 0.1, 0.08, 0.06, 0.08, 0.06, 0.1, 0.08, 0.08, 0.06, 0.08, 0.1, 0.06, 0.08, 0.06, 0.06, 0.08]","[[-0.26875866351954364, 0.20133868132779187], [-0.20048545635811538, -0.425585590334456], [-0.42389131971862404, -0.13219960300668748], [0.34235242018952616, -0.049530091276906274], [-0.31866338359458024, 0.40944356199671594], [0.19691657631391768, 0.5651114056396376], [-0.06931822633474782, -0.269203066283028], [-0.5786976297112661, 0.10928057098506846], [0.24196962233381558, 0.34618376163389997], [0.3111782883644644, -0.3959225504152233], [0.4883386571507452, 0.22557481586912004], [0.4275436790016772, 0.42634069401206465], [0.12678884882859698, -0.036391958630898946], [0.5902838278826427, -0.09164341968301273], [0.113558125347621, -0.4312270761596855], [0.49902433329030893, -0.2779813025845811], [-0.042101393315595925, 0.30745434469736066], [-0.10602024109263725, -0.5951714689539079], [-0.07555998144788245, 0.590554292253611], [-0.20307500294315184, -0.09447426652199437]]",density,black,,,D002,visual,1,[],"['1', '2', '3', '4']",1,2023.2.3,harveyvisual,2.1,[],8,0.75,
0,pause,0.4,None,None,None,0,121,121,121,,,,,,,,,,,,,D002,visual,1,[],"['1', '2', '3', '4']",1,2023.2.3,harveyvisual,2.1,[],8,0.75,
20,dot,0.3,['dot'],['density'],black,0,122,122,122,,,45.10021996498108,44.826215982437134,45.10950803756714,dot,"[0.1, 0.08, 0.1, 0.08, 0.08, 0.08, 0.08, 0.1, 0.1, 0.06, 0.08, 0.1, 0.08, 0.06, 0.08, 0.1, 0.06, 0.08, 0.06, 0.08]","[[0.30204543648272586, 0.09983827538670753], [-0.6003660444713588, 0.0693441777599105], [0.016554020009609816, -0.16350101235072262], [-0.5044754026320741, -0.11490518328642968], [0.5941570586547192, -0.06837252257420864], [0.38959898318639063, -0.13315727357986878], [-0.41090386998491135, 0.16163977853556888], [0.42933922353436726, -0.3389652741944616], [0.32903252335651656, 0.4632389793343268], [-0.35546440485061076, -0.4006835231892775], [0.5348213232358784, 0.1430342427499361], [-0.32533602161177455, 0.36092231096581484], [-0.28299786368704394, -0.098036637352168], [-0.06731580685402982, 0.42543799088913326], [-0.21275603487942063, 0.1330597470404803], [-0.1458164687718725, -0.36274736552259385], [0.13102483087077021, -0.35434010579581526], [0.12921418595997536, 0.5884410783052283], [0.08456878998548245, 0.22621737854925972], [-0.03477251215716237, 0.03871819780458219]]",density,black,,,D002,visual,1,[],"['1', '2', '3', '4']",1,2023.2.3,harveyvisual,2.1,[],8,0.75,
0,pause,0.4,None,None,None,0,123,123,123,,,,,,,,,,,,,D002,visual,1,[],"['1', '2', '3', '4']",1,2023.2.3,harveyvisual,2.1,[],8,0.75,
20,dot,0.3,['dot'],['density'],black,0,124,124,124,,,45.800204038619995,45.526196002960205,45.809481143951416,dot,"[0.08, 0.06, 0.08, 0.08, 0.06, 0.06, 0.08, 0.08, 0.08, 0.08, 0.08, 0.06, 0.08, 0.08, 0.08, 0.08, 0.1, 0.06, 0.06, 0.1]","[[0.5329215470129199, -0.030457328377049064], [0.175488096487879, 0.2905280028117545], [-0.16114448309115648, -0.12801315575684596], [0.4349949036876578, 0.3312408219555333], [0.35334915824227553, -0.35868754480672405], [-0.360505438647429, 0.19912615890248642], [-0.14109095638666397, -0.34633812425085575], [-0.3556450610326818, -0.03115395530845816], [0.18203531970821074, -0.021839807086355467], [-0.13260654100477726, 0.31294036814513326], [0.5195365751576574, -0.26593390497638575], [0.10712239204887175, -0.24525529608284413], [-0.508317694076418, -0.3231119009210533], [0.10425661534495512, -0.5219674208499083], [0.029112801394277077, 0.41907708855200254], [-0.5521724057000216, -0.10777038720788884], [-0.13533815190913012, -0.5817904175471599], [-0.5654293272916368, 0.190821050175401], [-0.3164896991273788, 0.4703404555486982], [0.5716444162411835, 0.15502392069858506]]",density,black,,,D002,visual,1,[],"['1', '2', '3', '4']",1,2023.2.3,harveyvisual,2.1,[],8,0.75,
0,pause,0.4,None,None,None,0,125,125,125,,,,,,,,,,,,,D002,visual,1,[],"['1', '2', '3', '4']",1,2023.2.3,harveyvisual,2.1,[],8,0.75,
20,dot,0.3,['dot'],['density'],black,0,126,126,126,,,46.50022506713867,46.226277112960815,46.509443044662476,dot,"[0.08, 0.06, 0.1, 0.1, 0.06, 0.08, 0.1, 0.06, 0.06, 0.1, 0.06, 0.06, 0.06, 0.1, 0.1, 0.1, 0.08, 0.06, 0.08, 0.1]","[[0.2847492762383248, -0.48991047115743125], [-0.038862732671002265, 0.3365461517209979], [0.22825857888300982, -0.07541780434254175], [0.08289271795928432, 0.5402557797098866], [0.06962789472039066, -0.28796755401556207], [0.39382346576494964, 0.4290419664759423], [-0.1154209036439427, -0.5376676080147217], [0.5843387590929233, 0.08894950068022536], [-0.18801524218852794, 0.053599907507726585], [-0.5187623363707753, 0.037024817397123544], [-0.2756658987059867, -0.2687770790770923], [-0.5149202616175782, -0.18018267843511093], [-0.4216070426549817, 0.28108625728449294], [0.5375097656844204, -0.16185050572844567], [-0.2610137913758007, 0.47402109828057293], [-0.05913364751808803, -0.1271018319500672], [-0.4330552928662953, -0.40006800905968765], [0.2684428411876477, 0.15580384050031082], [0.07256411809876151, 0.16604531295142477], [0.22164754744200366, 0.3490155365035753]]",density,black,,,D002,visual,1,[],"['1', '2', '3', '4']",1,2023.2.3,harveyvisual,2.1,[],8,0.75,
0,pause,0.4,None,None,None,0,127,127,127,,,,,,,,,,,,,D002,visual,1,[],"['1', '2', '3', '4']",1,2023.2.3,harveyvisual,2.1,[],8,0.75,
20,dot,0.3,['dot'],['density'],black,0,128,128,128,,,47.20020604133606,46.92628598213196,47.20960307121277,dot,"[0.06, 0.06, 0.1, 0.1, 0.08, 0.08, 0.08, 0.06, 0.08, 0.06, 0.1, 0.06, 0.08, 0.06, 0.06, 0.08, 0.1, 0.08, 0.08, 0.08]","[[-0.3656936527041973, 0.1817389443116713], [0.588147295846822, -0.1402361491529319], [0.027719494428628866, 0.4251101559366979], [-0.34086870948405035, 0.4998881628714391], [0.1034351456244077, -0.06537488380888357], [-0.40643567204429026, -0.434206675046751], [0.34598478786785536, -0.4407134426640492], [-0.2214023868673874, 0.335256782235166], [0.5390735934635017, 0.08114322981511196], [-0.4236737110510265, -0.063993562503384], [-0.5442226222721526, -0.25349338912759045], [-0.11384498758866446, -0.5177092319036285], [0.3543160818421288, -0.21654672792507057], [-0.0971458247539917, -0.20181767169578846], [-0.5853171361709831, 0.1307809724962001], [-0.05437973384472361, 0.24325206263953314], [0.13636426401709223, -0.4802629181173389], [0.2600051270575745, 0.39280546036469255], [0.30374749246446564, 0.08023641166695117], [-0.1403902749078918, 0.07375617756138064]]",density,black,,,D002,visual,1,[],"['1', '2', '3', '4']",1,2023.2.3,harveyvisual,2.1,[],8,0.75,
0,pause,0.4,None,None,None,0,129,129,129,,,,,,,,,,,,,D002,visual,1,[],"['1', '2', '3', '4']",1,2023.2.3,harveyvisual,2.1,[],8,0.75,
20,dot,0.3,['dot'],['density'],black,0,130,130,130,,,47.900227069854736,47.626070976257324,47.90941405296326,dot,"[0.06, 0.06, 0.06, 0.06, 0.06, 0.1, 0.08, 0.1, 0.06, 0.06, 0.1, 0.06, 0.08, 0.1, 0.06, 0.08, 0.08, 0.08, 0.08, 0.08]","[[-0.2429441762236057, -0.5464070916477264], [-0.2443991420768828, 0.3035135073078292], [-0.05409537775678608, 0.2668309192841485], [0.5050726139926976, 0.2838197194609951], [-0.5365258775266387, -0.07005330706615348], [-0.08355964854328701, -0.3627742466261209], [-0.3463788323021986, -0.2437657410954593], [0.2269717492151342, 0.12389905379108979], [0.4384527472604186, 0.03522730233319854], [0.501754876746685, -0.2886789928767999], [-0.09236069545688064, -0.04625123909934048], [0.21229142848862248, -0.08082235916095187], [-0.20543508423222195, 0.49264667702785314], [0.24411547254579613, -0.31844704306648636], [0.5925782913718148, -0.07671899036609303], [0.12963954964991087, -0.47070887065394423], [-0.3138455816296509, 0.1206896228713471], [0.14873172873888374, 0.5443339803773306], [0.2974372787196937, 0.350500530448154], [-0.027488938215952774, -0.5768207846506261]]",density,black,,,D002,visual,1,[],"['1', '2', '3', '4']",1,2023.2.3,harveyvisual,2.1,[],8,0.75,
0,pause,0.4,None,None,None,0,131,131,131,,,,,,,,,,,,,D002,visual,1,[],"['1', '2', '3', '4']",1,2023.2.3,harveyvisual,2.1,[],8,0.75,
20,dot,0.3,['dot'],['density'],black,0,132,132,132,,,48.60022497177124,48.326202154159546,48.60950303077698,dot,"[0.1, 0.1, 0.06, 0.1, 0.06, 0.1, 0.08, 0.08, 0.08, 0.1, 0.06, 0.06, 0.06, 0.06, 0.06, 0.08, 0.06, 0.06, 0.1, 0.08]","[[-0.4751755405672653, 0.32167195165713847], [-0.1624203087522293, -0.327148030844698], [-0.22377889285215824, 0.3970467519708276], [0.2793475634208743, 0.24713828078920053], [-0.4196173502541598, -0.12419131055686994], [0.5878474338685672, 0.0476557402593667], [-0.14687566186274942, -0.5400743117990693], [-0.03729031376782921, -0.08575988007277646], [-0.2386183923191718, 0.1924843868939885], [-0.6034653240578686, -0.03848652345370686], [0.3205076943586499, -0.05604439331935973], [0.37818455308117904, -0.40865721429728635], [-0.352925457432631, -0.35037514977952383], [-0.03642777302305744, 0.1906437603065484], [0.40911840179657266, 0.395063211543877], [0.07577797912112005, 0.42223866668728116], [0.56579360414215, -0.19601268966484858], [0.20278548818159892, -0.20465228981119277], [0.466313650646888, 0.21210024636126046], [0.14649757695069598, -0.5357164092210391]]",density,black,,,D002,visual,1,[],"['1', '2', '3', '4']",1,2023.2.3,harveyvisual,2.1,[],8,0.75,
0,pause,0.4,None,None,None,0,133,133,133,,,,,,,,,,,,,D002,visual,1,[],"['1', '2', '3', '4']",1,2023.2.3,harveyvisual,2.1,[],8,0.75,
20,dot,0.3,['dot'],['density'],black,0,134,134,134,,,49.30021405220032,49.02618598937988,49.309499979019165,dot,"[0.08, 0.1, 0.1, 0.06, 0.06, 0.08, 0.08, 0.1, 0.1, 0.08, 0.08, 0.06, 0.08, 0.08, 0.08, 0.08, 0.08, 0.1, 0.06, 0.1]","[[0.47184288174877487, -0.3329747903497817], [0.20447707486108269, -0.2619369287524531], [-0.35342397451500507, -0.020751371114777706], [0.4277870625356771, 0.32566172088593154], [0.2589655279044102, 0.008010927211822727], [0.5904733379375077, -0.1084123014237439], [-0.020894542183931164, -0.41914696165483945], [-0.367333668772644, 0.25721691007502556], [-0.47139714546934053, -0.20062680682524248], [0.12775988693928608, 0.365344163229279], [-0.0950369397908758, -0.12042160039804828], [0.04489988904815423, 0.06456475067628442], [-0.6005713311409986, 0.05465846162463664], [-0.3237604713707723, -0.4520646143522824], [0.23709837085395358, 0.5506379774388007], [0.22736571745525824, -0.46659078702664175], [-0.10942634368759119, 0.17761623147938144], [0.5655762788822439, 0.10969901807116411], [-0.18186769840949085, 0.43356475331737876], [-0.021586981359282276, 0.5633746748551819]]",density,black,,,D002,visual,1,[],"['1', '2', '3', '4']",1,2023.2.3,harveyvisual,2.1,[],8,0.75,
0,pause,0.4,None,None,None,0,135,135,135,,,,,,,,,,,,,D002,visual,1,[],"['1', '2', '3', '4']",1,2023.2.3,harveyvisual,2.1,[],8,0.75,
20,dot,0.3,['dot'],['density'],black,0,136,136,136,,,50.000231981277466,49.72616100311279,50.00934195518494,dot,"[0.08, 0.06, 0.1, 0.06, 0.1, 0.06, 0.1, 0.08, 0.08, 0.1, 0.08, 0.1, 0.08, 0.1, 0.06, 0.08, 0.1, 0.06, 0.1, 0.1]","[[0.45971210475826363, -0.31969635421420106], [0.012669694911354057, 0.019159481241168064], [-0.3539905557145175, 0.04600130534814234], [0.48775724729363035, 0.3264613332304176], [0.4024776553649744, -0.01951210905596462], [-0.03305498085822767, -0.5439199961804397], [-0.20576424071797755, -0.19266406025458194], [-0.5437808742626059, -0.10786032395347192], [-0.5856957474819195, 0.14360309806008723], [0.004613969262315609, 0.3556334961571923], [0.16265381063527107, -0.3819533619048794], [0.6040991572288316, -0.029149538009146395], [-0.020859148571612196, 0.5703257540110744], [-0.2632951352044977, -0.5343364861452408], [0.19085936972407114, 0.0849036820719119], [0.3227799889575228, -0.49227929085750355], [-0.36515145141582783, 0.309039062599674], [-0.22373748759442852, 0.49889447237204776], [-0.49368388760049525, -0.31515541117959467], [0.33357207806104594, 0.4611103127602707]]",density,black,,,D002,visual,1,[],"['1', '2', '3', '4']",1,2023.2.3,harveyvisual,2.1,[],8,0.75,
0,pause,0.4,None,None,None,0,137,137,137,,,,,,,,,,,,,D002,visual,1,[],"['1', '2', '3', '4']",1,2023.2.3,harveyvisual,2.1,[],8,0.75,
20,dot,0.3,['dot'],['density'],black,0,138,138,138,,,50.700210094451904,50.42613697052002,50.709336042404175,dot,"[0.08, 0.06, 0.06, 0.1, 0.08, 0.1, 0.08, 0.06, 0.08, 0.06, 0.1, 0.06, 0.1, 0.1, 0.1, 0.08, 0.1, 0.1, 0.1, 0.06]","[[-0.07171891626774751, 0.1219292415962111], [0.16205026676610557, 0.5237185437987634], [0.19052808632998308, -0.12732383048516632], [-0.532461944884129, 0.133339092508311], [-0.29528309200459324, 0.20911526040676998], [-0.4658972315828816, -0.3299457675306778], [0.5304601673408186, 0.23398081122660946], [0.006802162947890267, -0.39569417473127466], [-0.058021994318068204, 0.47596963898733824], [0.325114399652941, 0.40459965369116424], [-0.37599382651665314, -0.007911205123394494], [0.3963008977091592, -0.3131504872464198], [-0.1826183688613482, -0.10697245010057599], [0.08225414674327092, 0.3356724480215042], [-0.3133869531414452, 0.43122349576298435], [0.5856701564707579, -0.07560197602871817], [-0.2721431142537603, -0.3421579958890929], [-0.5416158053951793, -0.12690826655566206], [0.34135971796141706, 0.08908300985800827], [0.13030151648344057, 0.1118196723083017]]",density,black,,,D002,visual,1,[],"['1', '2', '3', '4']",1,2023.2.3,harveyvisual,2.1,[],8,0.75,
0,pause,0.4,None,None,None,0,139,139,139,,,,,,,,,,,,,D002,visual,1,[],"['1', '2', '3', '4']",1,2023.2.3,harveyvisual,2.1,[],8,0.75,
20,dot,0.3,['dot'],['density'],black,0,140,140,140,,,51.40022015571594,51.12613010406494,51.40949010848999,dot,"[0.08, 0.08, 0.06, 0.06, 0.1, 0.1, 0.06, 0.1, 0.06, 0.08, 0.06, 0.1, 0.08, 0.06, 0.1, 0.06, 0.1, 0.06, 0.08, 0.08]","[[-0.3998872625521931, 0.1379801163782779], [-0.2640192686037221, 0.3271567548247917], [0.4415318427007312, -0.19287737469028168], [0.23131897692714887, -0.3507265590232826], [-0.24839671412755976, -0.06949344685553432], [-0.003819443227070285, 0.34722123240246183], [-0.10129751452798896, 0.5850525575170074], [-0.48854258318685556, -0.13313943585294424], [0.2963632875348944, 0.2772011413469174], [0.4916161880453126, 0.3433811923131585], [-0.33902248722162137, -0.4658144431971996], [-0.4414374465811748, 0.40920447747465083], [-0.2265309087793041, -0.2660647418746002], [0.0103593042024831, -0.47474149243774744], [0.5664286970497702, 0.04131629489252009], [-0.5995525226732278, 0.06681153606481816], [0.22818206088907012, -0.5592064079350335], [0.30513018916695234, -0.04500548915812541], [0.08250509428882613, 0.5378764599558769], [0.044487479084970305, -0.16022868167475218]]",density,black,,,D002,visual,1,[],"['1', '2', '3', '4']",1,2023.2.3,harveyvisual,2.1,[],8,0.75,
0,pause,0.4,None,None,None,0,141,141,141,,,,,,,,,,,,,D002,visual,1,[],"['1', '2', '3', '4']",1,2023.2.3,harveyvisual,2.1,[],8,0.75,
20,dot,0.3,['dot'],['density'],black,0,142,142,142,,,52.1002299785614,51.826109170913696,52.10928416252136,dot,"[0.08, 0.08, 0.06, 0.06, 0.06, 0.06, 0.06, 0.1, 0.08, 0.06, 0.08, 0.08, 0.1, 0.06, 0.06, 0.08, 0.06, 0.06, 0.1, 0.1]","[[-0.3459282764813099, -0.15955567755966527], [-0.1731080685382263, 0.45550656428423886], [-0.2918703261336323, -0.45440046127144834], [0.09978934041102827, 0.5764450799255165], [0.09284557363729551, 0.046929460375936705], [0.46114711223876126, 0.06440263947620678], [-0.3849285260101209, 0.1549233703421447], [0.1431799921231005, 0.2693588919008296], [0.05615269292155067, -0.47982962436572296], [0.44940029197815157, 0.3792284026424809], [-0.5296470949819692, -0.22395637843133434], [0.2644376023979015, 0.439918549234949], [-0.5781062064109995, 0.12888995842142845], [0.5491930516071494, -0.20542779202478087], [-0.09435032386823483, 0.21150428851968073], [-0.4815748371767851, 0.34901439086982067], [-0.2530278512705818, 0.013019330587472733], [-0.07514467852891638, -0.25666279115992907], [-0.11826189352189648, -0.5923632244192653], [0.30179921628151607, -0.2935562363898195]]",density,black,,,D002,visual,1,[],"['1', '2', '3', '4']",1,2023.2.3,harveyvisual,2.1,[],8,0.75,
0,pause,0.4,None,None,None,0,143,143,143,,,,,,,,,,,,,D002,visual,1,[],"['1', '2', '3', '4']",1,2023.2.3,harveyvisual,2.1,[],8,0.75,
20,dot,0.3,['dot'],['density'],black,0,144,144,144,,,52.8002290725708,52.52591109275818,52.80929613113403,dot,"[0.06, 0.06, 0.06, 0.08, 0.08, 0.08, 0.06, 0.1, 0.1, 0.1, 0.1, 0.06, 0.1, 0.08, 0.1, 0.06, 0.06, 0.06, 0.08, 0.08]","[[-0.13250822518249533, -0.03143084933151463], [-0.0705847143813032, 0.3338424175421888], [-0.5181435250051585, 0.12913670553476403], [0.38398487534208614, -0.35746702864704893], [-0.2714964310219922, 0.1877126461925367], [-0.12902212922137657, -0.3307293532495177], [0.13897988126978356, -0.5880018552938406], [0.11167726416183898, 0.15581222729781163], [-0.07968390142768778, -0.5420263378650625], [-0.3650277153199633, 0.4206158141577747], [-0.42408923389664743, -0.30496791108856697], [0.20365583197787918, -0.08543859690597416], [0.3099191658987356, 0.1665726245315614], [0.42730109781476944, 0.011827906403312771], [0.5843150506955895, 0.12412814204645661], [0.06560086525363007, -0.30593450473412603], [0.4977825560200838, -0.1641178611439929], [0.24457466101052194, 0.45762047538706674], [-0.4998959359114509, -0.13072647986367092], [0.4469316357665697, 0.4015881185719787]]",density,black,,,D002,visual,1,[],"['1', '2', '3', '4']",1,2023.2.3,harveyvisual,2.1,[],8,0.75,
0,pause,0.4,None,None,None,0,145,145,145,,,,,,,,,,,,,D002,visual,1,[],"['1', '2', '3', '4']",1,2023.2.3,harveyvisual,2.1,[],8,0.75,
20,dot,0.3,['dot'],['density'],black,0,146,146,146,,,53.50023007392883,53.22600603103638,53.509305000305176,dot,"[0.06, 0.1, 0.08, 0.08, 0.1, 0.1, 0.08, 0.08, 0.1, 0.08, 0.06, 0.1, 0.06, 0.08, 0.08, 0.06, 0.06, 0.1, 0.06, 0.06]","[[-0.4577386643220226, 0.05079915654643796], [0.03580669119440705, 0.22640088705471906], [0.5938552386721972, -0.05912920346550298], [0.06290097470427647, -0.027300873471607146], [0.273938637265182, 0.24498424373561223], [-0.5337961239610031, -0.20171340489048495], [-0.02772456939767709, -0.36962879260226883], [0.24242217252457465, -0.16872267760966458], [0.2700461606827087, -0.3871843293648657], [-0.15872729134367697, 0.3082622375058791], [-0.22101430919749077, -0.01586006185376354], [0.13057142924074605, 0.4995095438474252], [-0.21475497976987362, 0.5310106599629189], [0.4030664507890179, -0.038140254693017184], [-0.30934930568108004, -0.3190600191636128], [-0.42167332921425194, 0.40430005977120914], [0.4045471618738571, 0.39849479018327594], [0.4526303831478563, 0.16909775638464958], [-0.1585114261514728, -0.5724528103655172], [0.11348005380812931, -0.508711284731446]]",density,black,,,D002,visual,1,[],"['1', '2', '3', '4']",1,2023.2.3,harveyvisual,2.1,[],8,0.75,
0,pause,0.4,None,None,None,0,147,147,147,,,,,,,,,,,,,D002,visual,1,[],"['1', '2', '3', '4']",1,2023.2.3,harveyvisual,2.1,[],8,0.75,
20,dot,0.3,['dot'],['density'],black,0,148,148,148,,,54.20024800300598,53.92597413063049,54.20930004119873,dot,"[0.08, 0.08, 0.1, 0.06, 0.08, 0.1, 0.08, 0.08, 0.06, 0.08, 0.1, 0.08, 0.06, 0.06, 0.06, 0.1, 0.1, 0.06, 0.1, 0.06]","[[-0.4781176821057059, 0.20291317470165854], [0.24162698378138747, 0.5221061516194877], [0.10877013225107979, 0.22787924407154214], [0.1532951280773338, -0.39355016206881666], [-0.31624495442668427, -0.21436832556460855], [0.11186805498647934, -0.003941356263666318], [0.05728279368239897, -0.5821490878110173], [0.42670673980188767, -0.29465100336333017], [0.31392212522855534, -0.019217355651511392], [-0.5012177793255004, -0.26460778346513825], [-0.45213099184734895, -0.06348239572379527], [0.5846455653624002, 0.06712765567717513], [-0.30339673666313893, 0.3307849234679109], [-0.22673809672221962, -0.40440025028201926], [-0.09853184633014289, 0.42285860251457486], [0.020653943654769136, -0.2505446149557608], [-0.07746337303078477, -0.030362769505415832], [0.33942050411025326, 0.2907454540016293], [0.22318644842838475, -0.1947287265949577], [0.5672418424651601, -0.16047007823818782]]",density,black,,,D002,visual,1,[],"['1', '2', '3', '4']",1,2023.2.3,harveyvisual,2.1,[],8,0.75,
0,pause,0.4,None,None,None,0,149,149,149,,,,,,,,,,,,,D002,visual,1,[],"['1', '2', '3', '4']",1,2023.2.3,harveyvisual,2.1,[],8,0.75,
20,dot,0.3,['dot'],['density'],black,0,150,150,150,,,54.9002251625061,54.62583112716675,54.90927696228027,dot,"[0.08, 0.1, 0.08, 0.06, 0.1, 0.06, 0.06, 0.06, 0.08, 0.1, 0.06, 0.08, 0.08, 0.06, 0.06, 0.08, 0.06, 0.06, 0.06, 0.06]","[[0.3893751930364262, 0.346663529300716], [-0.06316859492020777, -0.258845864669253], [-0.09115337850017047, 0.23060325004003612], [0.14938881725514397, -0.5235890161894214], [0.03504935361343231, 0.6006313051641345], [0.2923344483782204, 0.06534405564417345], [0.5616650445835348, 0.13620250687569044], [-0.180927636187733, 0.008437915833031773], [-0.31470653643101915, 0.1666427355065102], [0.47809658150722056, -0.15531870380716234], [-0.3535467330167356, -0.4867234728465503], [-0.5081048826027812, 0.3249083450420164], [0.3633510909496025, -0.31092508123502427], [-0.3664076431670875, -0.10131774844259905], [0.288636865520458, -0.1264612556814888], [-0.48374237021076416, 0.07303577691056595], [0.13564169819203098, -0.27942729822787477], [-0.5440351280437317, -0.19614695333102666], [-0.22950820770814584, 0.46009902104577527], [0.05356770846581704, 0.043551334292183275]]",density,black,,,D002,visual,1,[],"['1', '2', '3', '4']",1,2023.2.3,harveyvisual,2.1,[],8,0.75,
0,pause,0.4,None,None,None,0,151,151,151,,,,,,,,,,,,,D002,visual,1,[],"['1', '2', '3', '4']",1,2023.2.3,harveyvisual,2.1,[],8,0.75,
20,dot,0.3,['dot'],['density'],black,0,152,152,152,,,55.60021495819092,55.325886964797974,55.60916495323181,dot,"[0.1, 0.06, 0.06, 0.06, 0.06, 0.1, 0.08, 0.1, 0.08, 0.06, 0.08, 0.1, 0.06, 0.1, 0.06, 0.08, 0.06, 0.08, 0.08, 0.06]","[[0.5176455769877458, -0.18093627920258312], [-0.4030404433769163, -0.4479301775258933], [0.352912724262592, 0.40902474499450975], [-0.29061085955298344, -0.2796402783754142], [-0.32602879732844714, 0.1988449677303622], [-0.4910229954467362, -0.0852770269566484], [0.05570309819576946, -0.2702262660909376], [0.04914299819858303, 0.3713472522122423], [0.272004852841087, -0.47722333427426616], [0.5454657349524344, 0.15619722622520504], [-0.11771099828504117, 0.5114727846649243], [0.2421828206214769, 0.13739413671951528], [-0.13305916073006208, 0.23418636586444386], [0.45611439279829724, -0.3702679432422654], [-0.16203097571206598, 0.028680696437753617], [-0.5727410637408239, 0.13045602614723284], [-0.14445879189413985, -0.41115027099147317], [0.029765253248258516, -0.5139934311024545], [0.130908091218506, 0.5784223139615695], [-0.3212962043634822, 0.4074534112943189]]",density,black,,,D002,visual,1,[],"['1', '2', '3', '4']",1,2023.2.3,harveyvisual,2.1,[],8,0.75,
0,pause,0.4,None,None,None,0,153,153,153,,,,,,,,,,,,,D002,visual,1,[],"['1', '2', '3', '4']",1,2023.2.3,harveyvisual,2.1,[],8,0.75,
20,dot,0.3,['dot'],['density'],black,0,154,154,154,,,56.30020499229431,56.025840044021606,56.30916094779968,dot,"[0.08, 0.08, 0.06, 0.06, 0.1, 0.08, 0.06, 0.06, 0.06, 0.08, 0.1, 0.06, 0.06, 0.08, 0.08, 0.08, 0.1, 0.1, 0.06, 0.08]","[[0.2053575665558568, 0.495036224397869], [-0.5286430892187911, -0.18782741274084647], [0.5634282407260961, -0.03464311288113037], [0.29013349326694915, -0.047950501065241846], [-0.09197596640009775, 0.5219928932676846], [0.5203593193206041, 0.2651422611082695], [-0.2149262628322094, -0.010173934622694003], [-0.039182108135813354, -0.5210302227981622], [-0.42211695591310794, 0.3313729648822833], [0.14573592583395834, 0.13684904468727188], [-0.06116229559688735, 0.15262328535739478], [0.288755959186608, -0.5305439145000278], [-0.44836159253069685, -0.36490488055416626], [0.10725027769320461, -0.1480189307914982], [0.39173095113321743, -0.23540758629145875], [-0.11448016393490884, -0.3310859350281769], [-0.5694999291442758, 0.06600932374514268], [0.15187721892173378, -0.37075720235061316], [-0.3142776503636932, 0.15959514785717321], [0.3331847444654985, 0.32135484888102994]]",density,black,,,D002,visual,1,[],"['1', '2', '3', '4']",1,2023.2.3,harveyvisual,2.1,[],8,0.75,
0,pause,0.4,None,None,None,0,155,155,155,,,,,,,,,,,,,D002,visual,1,[],"['1', '2', '3', '4']",1,2023.2.3,harveyvisual,2.1,[],8,0.75,
9,dot,0.3,['dot'],['density'],white,0,156,156,156,,,57.000224113464355,56.70916199684143,57.009133100509644,dot,"[0.06, 0.1, 0.08, 0.06, 0.06, 0.06, 0.08, 0.06, 0.1]","[[-0.01550530976013749, -0.4685693709261764], [-0.18673980358629047, -0.03677939788938074], [-0.492500386343057, -0.31631588298646995], [-0.31211872613566405, -0.49615226168915794], [-0.29213402726227655, -0.2779210730957987], [-0.48141959868665407, -0.11483975315711048], [0.2805727548720413, -0.20550850813502752], [-0.0662162642732561, -0.2200496541038322], [0.06776853683421198, -0.046300179137656175]]",density,white,,,D002,visual,1,[],"['1', '2', '3', '4']",1,2023.2.3,harveyvisual,2.1,[],8,0.75,
0,pause,0.4,None,None,None,0,157,157,157,,,,,,,,,,,1,57.10249304771423,D002,visual,1,[],"['1', '2', '3', '4']",1,2023.2.3,harveyvisual,2.1,[],8,0.75,
9,dot,0.3,['dot'],['density'],white,0,158,158,158,,,57.70021414756775,57.409132957458496,57.70912218093872,dot,"[0.1, 0.06, 0.08, 0.1, 0.1, 0.08, 0.08, 0.1, 0.1]","[[-0.4219467838066047, -0.18114019941065054], [-0.2081543488995217, -0.4860059455967178], [-0.008274735502094755, -0.3457533902190916], [0.02376323820852766, -0.0891001390581758], [-0.4116277839025775, 0.058108040724694845], [-0.18144554169200455, -0.05292133149533743], [0.21944315682242976, -0.26450239569476724], [0.11466821484809545, 0.13327019789913197], [-0.2288148866166432, -0.2599929378926301]]",density,white,,,D002,visual,1,[],"['1', '2', '3', '4']",1,2023.2.3,harveyvisual,2.1,[],8,0.75,
0,pause,0.4,None,None,None,0,159,159,159,,,,,,,,,,,1,57.776546001434326,D002,visual,1,[],"['1', '2', '3', '4']",1,2023.2.3,harveyvisual,2.1,[],8,0.75,
9,dot,0.3,['dot'],['density'],black,0,160,160,160,,,58.40021204948425,58.109123945236206,58.40910506248474,dot,"[0.06, 0.1, 0.06, 0.1, 0.06, 0.06, 0.08, 0.1, 0.06]","[[0.34043128493099817, 0.2271075800100716], [0.2702764120171402, -0.10456749967376819], [-0.1274635928921129, -0.04210317806044915], [-0.03460273614387521, 0.1795356259369138], [0.14470969472881007, 0.3391925298523705], [0.06761060508642219, 0.0060094309834155335], [0.5117869412029185, -0.12050585585317111], [0.07404675892906432, -0.22660478390602867], [0.35723900661310204, -0.3185591288757]]",density,black,,,D002,visual,1,[],"['1', '2', '3', '4']",1,2023.2.3,harveyvisual,2.1,[],8,0.75,
0,pause,0.4,None,None,None,0,161,161,161,,,,,,,,,,,,,D002,visual,1,[],"['1', '2', '3', '4']",1,2023.2.3,harveyvisual,2.1,[],8,0.75,
9,dot,0.3,['dot'],['density'],black,0,162,162,162,,,59.1002140045166,58.809093952178955,59.10907506942749,dot,"[0.06, 0.08, 0.1, 0.1, 0.06, 0.06, 0.06, 0.1, 0.06]","[[0.5571797577834091, 0.07732674165650813], [0.16332656704353227, -0.09331314560094064], [0.4138178119161903, 0.3925230053806507], [0.28711316854655766, 0.07147022394212545], [0.052100496024031176, 0.3810199549023822], [0.2172039135420496, 0.26337040755706287], [-0.2646845915772586, 0.12849707234668142], [0.21844181080216274, 0.4926952285236599], [0.0761275456309072, 0.11718001140956479]]",density,black,,,D002,visual,1,[],"['1', '2', '3', '4']",1,2023.2.3,harveyvisual,2.1,[],8,0.75,
0,pause,0.4,None,None,None,0,163,163,163,,,,,,,,,,,,,D002,visual,1,[],"['1', '2', '3', '4']",1,2023.2.3,harveyvisual,2.1,[],8,0.75,
9,dot,0.3,['dot'],['density'],black,0,164,164,164,,,59.80022597312927,59.509109020233154,59.80909013748169,dot,"[0.08, 0.1, 0.06, 0.08, 0.06, 0.1, 0.08, 0.06, 0.1]","[[0.050129075631511706, -0.29659829200500587], [0.1522424042566208, -0.02012498145544232], [-0.31773020450764894, 0.09756431981266957], [-0.25388767024787284, -0.20865833148222632], [-0.06549152868915667, -0.10253084504872755], [-0.047012852932693645, 0.11741599898337682], [0.26526013051082903, -0.18996189821299347], [0.2442588296558726, 0.17404051307925203], [0.053323608967773835, 0.34462047536600726]]",density,black,,,D002,visual,1,[],"['1', '2', '3', '4']",1,2023.2.3,harveyvisual,2.1,[],8,0.75,
0,pause,0.4,None,None,None,0,165,165,165,,,,,,,,,,,,,D002,visual,1,[],"['1', '2', '3', '4']",1,2023.2.3,harveyvisual,2.1,[],8,0.75,
9,dot,0.3,['dot'],['density'],black,0,166,166,166,,,60.50021195411682,60.2091109752655,60.509106159210205,dot,"[0.08, 0.1, 0.06, 0.08, 0.1, 0.08, 0.1, 0.06, 0.08]","[[-0.08858128315591524, -0.3480052213079807], [0.37291707470974605, -0.0809562497479422], [-0.04311872097798103, 0.23152249840731254], [0.1734412630875083, -0.16491363602164627], [-0.024044713080900382, -0.04824256513196188], [0.126438571592319, 0.09122014985587756], [-0.2168202887682383, 0.11190421567656858], [-0.23215605484234547, -0.20356583507002532], [0.291417597339289, 0.24351333182926893]]",density,black,,,D002,visual,1,[],"['1', '2', '3', '4']",1,2023.2.3,harveyvisual,2.1,[],8,0.75,
0,pause,0.4,None,None,None,0,167,167,167,,,,,,,,,,,,,D002,visual,1,[],"['1', '2', '3', '4']",1,2023.2.3,harveyvisual,2.1,[],8,0.75,
8,dot,0.3,['dot'],['density'],black,0,168,168,168,,,61.20023512840271,60.909083127975464,61.209131956100464,dot,"[0.1, 0.06, 0.1, 0.08, 0.08, 0.06, 0.08, 0.1]","[[-0.17001050475317317, -0.17367687575201368], [0.3600613666554234, 0.010096468830953859], [-0.08326222131596324, 0.04242117989324811], [0.04296950773068638, 0.29875887990525135], [0.04919814700692566, -0.23206276490508926], [0.2733682510361541, 0.19343137942482672], [0.15974695196996483, -0.02827404827190698], [-0.2919014881818027, 0.0006738684867251376]]",density,black,,,D002,visual,1,[],"['1', '2', '3', '4']",1,2023.2.3,harveyvisual,2.1,[],8,0.75,
0,pause,0.4,None,None,None,0,169,169,169,,,,,,,,,,,,,D002,visual,1,[],"['1', '2', '3', '4']",1,2023.2.3,harveyvisual,2.1,[],8,0.75,
8,dot,0.3,['dot'],['density'],black,0,170,170,170,,,61.90022611618042,61.60911512374878,61.909019947052,dot,"[0.1, 0.1, 0.06, 0.06, 0.08, 0.06, 0.06, 0.1]","[[0.4359105889063985, -0.17362457700912998], [-0.10421753759268779, -0.0599030042764737], [0.3870326705858601, 0.24174009796940588], [0.2566713073165989, 0.014561377540278508], [0.2306797840234149, -0.3263374489921181], [0.47690301692068965, 0.04601699051563034], [0.08674944532705724, -0.15383855565976665], [0.03609124925759635, 0.09790267139194009]]",density,black,,,D002,visual,1,[],"['1', '2', '3', '4']",1,2023.2.3,harveyvisual,2.1,[],8,0.75,
0,pause,0.4,None,None,None,0,171,171,171,,,,,,,,,,,,,D002,visual,1,[],"['1', '2', '3', '4']",1,2023.2.3,harveyvisual,2.1,[],8,0.75,
8,dot,0.3,['dot'],['density'],white,0,172,172,172,,,62.600218057632446,62.309081077575684,62.60904812812805,dot,"[0.08, 0.08, 0.1, 0.1, 0.06, 0.08, 0.06, 0.06]","[[-0.30918623351354413, -0.2762980118811315], [0.03442122464869854, -0.32944299641312663], [0.20656618624830034, -0.4515266663928406], [0.20458815773351877, -0.002924552385479317], [-0.054765695239429084, -0.14491701700869716], [-0.0008776159608741382, 0.05441634750414142], [0.19975410704164612, -0.21252729673777132], [-0.19330391669800595, 0.14377227853430027]]",density,white,,,D002,visual,1,[],"['1', '2', '3', '4']",1,2023.2.3,harveyvisual,2.1,[],8,0.75,
0,pause,0.4,None,None,None,0,173,173,173,,,,,,,,,,,1,62.71116590499878,D002,visual,1,[],"['1', '2', '3', '4']",1,2023.2.3,harveyvisual,2.1,[],8,0.75,
8,dot,0.3,['dot'],['density'],black,0,174,174,174,,,63.30021810531616,63.00901699066162,63.30918216705322,dot,"[0.08, 0.08, 0.1, 0.08, 0.08, 0.1, 0.1, 0.1]","[[-0.3290570048964025, 0.45712517183014534], [-0.12351728740192595, 0.19722326774196852], [-0.44617383739254307, -0.0315435053038489], [0.05824565693526591, 0.08769012542188236], [-0.4904255353169048, 0.31423420558286136], [-0.32491150822629034, 0.16696319418744587], [-0.12614658653380179, 0.4043789036591275], [0.10044097339982726, 0.3130264767685494]]",density,black,,,D002,visual,1,[],"['1', '2', '3', '4']",1,2023.2.3,harveyvisual,2.1,[],8,0.75,
0,pause,0.4,None,None,None,0,175,175,175,,,,,,,,,,,,,D002,visual,1,[],"['1', '2', '3', '4']",1,2023.2.3,harveyvisual,2.1,[],8,0.75,
8,dot,0.3,['dot'],['density'],black,0,176,176,176,,,64.00022506713867,63.70904612541199,64.0091860294342,dot,"[0.08, 0.06, 0.1, 0.08, 0.1, 0.08, 0.1, 0.08]","[[-0.13214754069031825, -0.5402677255150703], [0.1288984478000013, -0.5519726475135984], [0.27401725229332, -0.34994268047279037], [-0.052680844420756816, 0.006786609240531098], [0.03557367748195712, -0.3699094958310016], [-0.23170140006741713, -0.18198058676873416], [-0.33504621301322857, -0.3611685350886627], [0.0760940577115827, -0.14857148175569432]]",density,black,,,D002,visual,1,[],"['1', '2', '3', '4']",1,2023.2.3,harveyvisual,2.1,[],8,0.75,
0,pause,0.4,None,None,None,0,177,177,177,,,,,,,,,,,,,D002,visual,1,[],"['1', '2', '3', '4']",1,2023.2.3,harveyvisual,2.1,[],8,0.75,
8,dot,0.3,['dot'],['density'],black,0,178,178,178,,,64.70022296905518,64.40916204452515,64.70913910865784,dot,"[0.08, 0.08, 0.06, 0.06, 0.06, 0.06, 0.08, 0.08]","[[0.3364035831170529, 0.12390393923093283], [0.4336864367158133, 0.35981147627037974], [0.06743640335689947, 0.0759148581953004], [-0.079559988999742, 0.39531058321326396], [0.21309668101319243, 0.48855257098982907], [0.23478258025928536, -0.08446837776908474], [-0.12854716397353463, 0.17339976512773136], [0.14965136140762586, 0.26897313353206964]]",density,black,,,D002,visual,1,[],"['1', '2', '3', '4']",1,2023.2.3,harveyvisual,2.1,[],8,0.75,
0,pause,0.4,None,None,None,0,179,179,179,,,,,,,,,,,,,D002,visual,1,[],"['1', '2', '3', '4']",1,2023.2.3,harveyvisual,2.1,[],8,0.75,
7,dot,0.3,['dot'],['density'],black,0,180,180,180,,,65.40022301673889,65.10912609100342,65.40899515151978,dot,"[0.08, 0.06, 0.08, 0.1, 0.1, 0.06, 0.1]","[[-0.2877807563129739, -0.2392998172879968], [-0.4930284393840153, 0.02918626900802282], [-0.13307942101536208, -0.4135874564509098], [-0.1727922191076213, -0.04289663127052677], [-0.3943840059764042, -0.4351600913800347], [-0.03321109949484203, -0.21096883087625085], [-0.5418728138863746, -0.1990057631286019]]",density,black,,,D002,visual,1,[],"['1', '2', '3', '4']",1,2023.2.3,harveyvisual,2.1,[],8,0.75,
0,pause,0.4,None,None,None,0,181,181,181,,,,,,,,,,,,,D002,visual,1,[],"['1', '2', '3', '4']",1,2023.2.3,harveyvisual,2.1,[],8,0.75,
7,dot,0.3,['dot'],['density'],white,0,182,182,182,,,66.10020804405212,65.80912399291992,66.10911011695862,dot,"[0.08, 0.08, 0.06, 0.06, 0.1, 0.06, 0.06]","[[-0.15204905838880944, -0.5333107186751418], [-0.1519936835116667, -0.2986813487337615], [0.3123805602017952, -0.370842296180838], [-0.04397638837772695, -0.01669328424437847], [0.11716920447009348, -0.14912816843546053], [0.1067198166566748, -0.5553575834591685], [0.04038917577175449, -0.3541606866516689]]",density,white,,,D002,visual,1,[],"['1', '2', '3', '4']",1,2023.2.3,harveyvisual,2.1,[],8,0.75,
0,pause,0.4,None,None,None,0,183,183,183,,,,,,,,,,,1,66.22368907928467,D002,visual,1,[],"['1', '2', '3', '4']",1,2023.2.3,harveyvisual,2.1,[],8,0.75,
7,dot,0.3,['dot'],['density'],black,0,184,184,184,,,66.80021500587463,66.50909996032715,66.80896711349487,dot,"[0.08, 0.06, 0.08, 0.06, 0.08, 0.1, 0.1]","[[-0.4260259763687212, 0.0015611622021723967], [-0.003169876971998007, 0.13415651360788267], [-0.2586764037849864, 0.4417783913692737], [-0.4397986643511286, 0.306274470342183], [-0.0069778791964768315, 0.3653924841843964], [-0.25662591460159173, 0.21046748777052526], [-0.17930648864359452, 0.007725268650954965]]",density,black,,,D002,visual,1,[],"['1', '2', '3', '4']",1,2023.2.3,harveyvisual,2.1,[],8,0.75,
0,pause,0.4,None,None,None,0,185,185,185,,,,,,,,,,,,,D002,visual,1,[],"['1', '2', '3', '4']",1,2023.2.3,harveyvisual,2.1,[],8,0.75,
7,dot,0.3,['dot'],['density'],black,0,186,186,186,,,67.50021004676819,67.2090539932251,67.50904703140259,dot,"[0.1, 0.08, 0.06, 0.06, 0.08, 0.1, 0.08]","[[0.4852053974746821, 0.2414638673891567], [0.4489127705046299, 0.011725618337583463], [0.18065050592779294, 0.3526250807613559], [0.03625639584007868, 0.1261309995663498], [0.1794309074695897, -0.0624577020416761], [0.2856641480650803, 0.17770493422509798], [0.3124387752689665, -0.21816880331392838]]",density,black,,,D002,visual,1,[],"['1', '2', '3', '4']",1,2023.2.3,harveyvisual,2.1,[],8,0.75,
0,pause,0.4,None,None,None,0,187,187,187,,,,,,,,,,,,,D002,visual,1,[],"['1', '2', '3', '4']",1,2023.2.3,harveyvisual,2.1,[],8,0.75,
7,dot,0.3,['dot'],['density'],black,0,188,188,188,,,68.20022010803223,67.90904712677002,68.20888710021973,dot,"[0.1, 0.08, 0.06, 0.08, 0.08, 0.1, 0.08]","[[-0.08751196138777266, -0.40239331021683095], [-0.1389983634140625, -0.1821537091642013], [-0.5212097088452917, -0.15879536445288125], [-0.24197016774290594, 0.025691971861017886], [-0.324083892787021, -0.3083678109532634], [0.06465625853811506, -0.19815494036826437], [-0.2569867334647868, -0.5155038850209747]]",density,black,,,D002,visual,1,[],"['1', '2', '3', '4']",1,2023.2.3,harveyvisual,2.1,[],8,0.75,
0,pause,0.4,None,None,None,0,189,189,189,,,,,,,,,,,,,D002,visual,1,[],"['1', '2', '3', '4']",1,2023.2.3,harveyvisual,2.1,[],8,0.75,
7,dot,0.3,['dot'],['density'],black,0,190,190,190,,,68.90021204948425,68.60903906822205,68.90889000892639,dot,"[0.06, 0.1, 0.08, 0.08, 0.1, 0.1, 0.1]","[[-0.4260259763687212, 0.0015611622021723967], [-0.003169876971998007, 0.13415651360788267], [-0.2586764037849864, 0.4417783913692737], [-0.4397986643511286, 0.306274470342183], [-0.0069778791964768315, 0.3653924841843964], [-0.25662591460159173, 0.21046748777052526], [-0.17930648864359452, 0.007725268650954965]]",density,black,,,D002,visual,1,[],"['1', '2', '3', '4']",1,2023.2.3,harveyvisual,2.1,[],8,0.75,
0,pause,0.4,None,None,None,0,191,191,191,,,,,,,,,,,,,D002,visual,1,[],"['1', '2', '3', '4']",1,2023.2.3,harveyvisual,2.1,[],8,0.75,
6,dot,0.3,['dot'],['density'],black,0,192,192,192,,,69.60021209716797,69.30886816978455,69.60909295082092,dot,"[0.1, 0.1, 0.08, 0.08, 0.06, 0.06]","[[-0.36954580940820725, 0.05815165478813925], [-0.28534481837461456, -0.12375618373579561], [-0.26428406214372846, 0.28010711109252995], [-0.5657182147315603, -0.11096589427743007], [-0.1492704575467133, 0.06899119969773035], [-0.5584105255039638, 0.13196562846102936]]",density,black,,,D002,visual,1,[],"['1', '2', '3', '4']",1,2023.2.3,harveyvisual,2.1,[],8,0.75,
0,pause,0.4,None,None,None,0,193,193,193,,,,,,,,,,,,,D002,visual,1,[],"['1', '2', '3', '4']",1,2023.2.3,harveyvisual,2.1,[],8,0.75,
6,dot,0.3,['dot'],['density'],black,0,194,194,194,,,70.30023097991943,70.00886106491089,70.3090751171112,dot,"[0.08, 0.08, 0.08, 0.06, 0.08, 0.08]","[[-0.4836161913484198, -0.3187453071493452], [-0.26471688047626735, -0.2860523134109648], [-0.41762950244179403, 0.08668289631298715], [-0.3878484475239729, -0.1200129628316565], [-0.19654931186518254, -0.017200237521102193], [-0.07523945320955261, -0.19429752312200124]]",density,black,,,D002,visual,1,[],"['1', '2', '3', '4']",1,2023.2.3,harveyvisual,2.1,[],8,0.75,
0,pause,0.4,None,None,None,0,195,195,195,,,,,,,,,,,,,D002,visual,1,[],"['1', '2', '3', '4']",1,2023.2.3,harveyvisual,2.1,[],8,0.75,
6,dot,0.3,['dot'],['density'],black,0,196,196,196,,,71.00021314620972,70.70907497406006,71.00896215438843,dot,"[0.1, 0.06, 0.06, 0.06, 0.08, 0.08]","[[0.4249538099490167, -0.025354946498656116], [0.305005901383002, 0.397829445973664], [0.04954868862097969, 0.09819418046919175], [0.452299537631068, 0.2574679639516015], [0.21081936584905453, -0.08903757916275208], [0.27954488569289765, 0.14103100078867375]]",density,black,,,D002,visual,1,[],"['1', '2', '3', '4']",1,2023.2.3,harveyvisual,2.1,[],8,0.75,
0,pause,0.4,None,None,None,0,197,197,197,,,,,,,,,,,,,D002,visual,1,[],"['1', '2', '3', '4']",1,2023.2.3,harveyvisual,2.1,[],8,0.75,
6,dot,0.3,['dot'],['density'],black,0,198,198,198,,,71.70022511482239,71.40897798538208,71.70882296562195,dot,"[0.1, 0.08, 0.08, 0.1, 0.08, 0.08]","[[0.26568550625605564, -0.48823100126060537], [0.030589778490880962, -0.34307155488476027], [0.2920158589989485, -0.005481777194348812], [0.4969139129819881, -0.3034402107212153], [0.2924968692334099, -0.2393606426967254], [0.09404279540557291, -0.1505005030192783]]",density,black,,,D002,visual,1,[],"['1', '2', '3', '4']",1,2023.2.3,harveyvisual,2.1,[],8,0.75,
0,pause,0.4,None,None,None,0,199,199,199,,,,,,,,,,,,,D002,visual,1,[],"['1', '2', '3', '4']",1,2023.2.3,harveyvisual,2.1,[],8,0.75,
6,dot,0.3,['dot'],['density'],black,0,200,200,200,,,72.40023112297058,72.10896515846252,72.40879797935486,dot,"[0.1, 0.1, 0.1, 0.08, 0.06, 0.1]","[[-0.08086177951302478, 0.2470577028799217], [0.17809040740055945, 0.25721690350386706], [0.248993691455746, -0.144418230259854], [0.04260816027356476, -0.17251108440570345], [0.26201279645255604, 0.07253913185781388], [-0.0017619790798508912, 0.027830886297901026]]",density,black,,,D002,visual,1,[],"['1', '2', '3', '4']",1,2023.2.3,harveyvisual,2.1,[],8,0.75,
0,pause,0.4,None,None,None,0,201,201,201,,,,,,,,,,,,,D002,visual,1,[],"['1', '2', '3', '4']",1,2023.2.3,harveyvisual,2.1,[],8,0.75,
6,dot,0.3,['dot'],['density'],black,0,202,202,202,,,73.10022306442261,72.80897212028503,73.10875797271729,dot,"[0.06, 0.1, 0.08, 0.1, 0.08, 0.06]","[[-0.12151555870586603, -0.4812968000001843], [0.16790488833295267, -0.2471088416996458], [0.27214716196035416, -0.49820278546509117], [-0.038147587524033764, -0.29309333197091036], [0.014949188681413147, -0.08915939926713055], [0.06798063624072649, -0.5852336971646088]]",density,black,,,D002,visual,1,[],"['1', '2', '3', '4']",1,2023.2.3,harveyvisual,2.1,[],8,0.75,
0,pause,0.4,None,None,None,0,203,203,203,,,,,,,,,,,,,D002,visual,1,[],"['1', '2', '3', '4']",1,2023.2.3,harveyvisual,2.1,[],8,0.75,
5,dot,0.3,['dot'],['density'],black,0,204,204,204,,,73.80023407936096,73.50895404815674,73.80894804000854,dot,"[0.1, 0.06, 0.1, 0.08, 0.1]","[[-0.08538919239777085, -0.3767281323802813], [0.14382612128503536, -0.4947333592336123], [0.2503732289573559, -0.06783159190520484], [0.07777572498152553, -0.21879460077906046], [0.26544561712664855, -0.2975172507008621]]",density,black,,,D002,visual,1,[],"['1', '2', '3', '4']",1,2023.2.3,harveyvisual,2.1,[],8,0.75,
0,pause,0.4,None,None,None,0,205,205,205,,,,,,,,,,,,,D002,visual,1,[],"['1', '2', '3', '4']",1,2023.2.3,harveyvisual,2.1,[],8,0.75,
5,dot,0.3,['dot'],['density'],black,0,206,206,206,,,74.50022196769714,74.20874404907227,74.50873303413391,dot,"[0.1, 0.06, 0.1, 0.1, 0.1]","[[-0.15120343604734773, 0.13880483605515373], [-0.27543704003083597, 0.3074941448909677], [-0.47853302670601033, 0.30949922786165307], [-0.3682774975032249, -0.13900280599659498], [-0.34692227301900613, 0.0889564565184539]]",density,black,,,D002,visual,1,[],"['1', '2', '3', '4']",1,2023.2.3,harveyvisual,2.1,[],8,0.75,
0,pause,0.4,None,None,None,0,207,207,207,,,,,,,,,,,,,D002,visual,1,[],"['1', '2', '3', '4']",1,2023.2.3,harveyvisual,2.1,[],8,0.75,
5,dot,0.3,['dot'],['density'],black,0,208,208,208,,,75.20021796226501,74.90872597694397,75.20886206626892,dot,"[0.06, 0.08, 0.1, 0.1, 0.06]","[[-0.4004020094395207, -0.04445243948850948], [-0.17181756668418613, -0.18180129995893848], [-0.46264198425852476, 0.17889071841303528], [-0.23640824159873003, 0.08340028676903545], [-0.2824747884808712, 0.2826805534387526]]",density,black,,,D002,visual,1,[],"['1', '2', '3', '4']",1,2023.2.3,harveyvisual,2.1,[],8,0.75,
0,pause,0.4,None,None,None,0,209,209,209,,,,,,,,,,,,,D002,visual,1,[],"['1', '2', '3', '4']",1,2023.2.3,harveyvisual,2.1,[],8,0.75,
5,dot,0.3,['dot'],['density'],white,0,210,210,210,,,75.90020799636841,75.6088330745697,75.90872097015381,dot,"[0.06, 0.08, 0.06, 0.08, 0.08]","[[-0.082153098152829, -0.06894165798345762], [0.016766770742065788, -0.42680196676869325], [0.2961099764235258, -0.14925166127785872], [-0.1456021726000032, -0.26669195071034546], [0.10213220283607832, -0.23321095001989858]]",density,white,,,D002,visual,1,[],"['1', '2', '3', '4']",1,2023.2.3,harveyvisual,2.1,[],8,0.75,
0,pause,0.4,None,None,None,0,211,211,211,,,,,,,,,,,1,76.1180100440979,D002,visual,1,[],"['1', '2', '3', '4']",1,2023.2.3,harveyvisual,2.1,[],8,0.75,
5,dot,0.3,['dot'],['density'],black,0,212,212,212,,,76.60020804405212,76.30871415138245,76.6086950302124,dot,"[0.1, 0.1, 0.08, 0.08, 0.08]","[[-0.18510638544872327, 0.41559840932892733], [-0.057175862535637494, 0.18304904272057057], [0.24003340414173915, 0.43371676657957026], [0.006490958465160464, 0.4770521622163581], [0.13658455045585424, 0.2476502540597336]]",density,black,,,D002,visual,1,[],"['1', '2', '3', '4']",1,2023.2.3,harveyvisual,2.1,[],8,0.75,
0,pause,0.4,None,None,None,0,213,213,213,,,,,,,,,,,,,D002,visual,1,[],"['1', '2', '3', '4']",1,2023.2.3,harveyvisual,2.1,[],8,0.75,
5,dot,0.3,['dot'],['density'],black,0,214,214,214,,,77.30021095275879,77.00870203971863,77.30865597724915,dot,"[0.08, 0.06, 0.06, 0.1, 0.1]","[[-0.3593586909609717, -0.014123405231526708], [-0.016214713675271986, 0.25764317450247104], [-0.14180258575993823, 0.0328893580167688], [-0.4739301778776912, 0.15719809156630632], [-0.2718601341595813, 0.23222304362681612]]",density,black,,,D002,visual,1,[],"['1', '2', '3', '4']",1,2023.2.3,harveyvisual,2.1,[],8,0.75,
0,pause,0.4,None,None,None,0,215,215,215,,,,,,,,,,,,,D002,visual,1,[],"['1', '2', '3', '4']",1,2023.2.3,harveyvisual,2.1,[],8,0.75,
4,dot,0.3,['dot'],['density'],black,0,216,216,216,,,78.00022411346436,77.70865416526794,78.0086669921875,dot,"[0.06, 0.06, 0.1, 0.1]","[[-0.0389916918612136, -0.388752419995929], [-0.2709884701808293, -0.36873671266769453], [0.09349318837137091, -0.23801008290575854], [-0.09100040788429245, -0.11490803606521542]]",density,black,,,D002,visual,1,[],"['1', '2', '3', '4']",1,2023.2.3,harveyvisual,2.1,[],8,0.75,
0,pause,0.4,None,None,None,0,217,217,217,,,,,,,,,,,,,D002,visual,1,[],"['1', '2', '3', '4']",1,2023.2.3,harveyvisual,2.1,[],8,0.75,
4,dot,0.3,['dot'],['density'],black,0,218,218,218,,,78.70020914077759,78.40863800048828,78.70862317085266,dot,"[0.06, 0.06, 0.06, 0.08]","[[0.37520814465037905, -0.4432880181017862], [0.4692830223283075, -0.19655799526205012], [0.3063896805601884, -0.036788685454167226], [0.2471196723673293, -0.2344474043623998]]",density,black,,,D002,visual,1,[],"['1', '2', '3', '4']",1,2023.2.3,harveyvisual,2.1,[],8,0.75,
0,pause,0.4,None,None,None,0,219,219,219,,,,,,,,,,,,,D002,visual,1,[],"['1', '2', '3', '4']",1,2023.2.3,harveyvisual,2.1,[],8,0.75,
4,dot,0.3,['dot'],['density'],black,0,220,220,220,,,79.40023708343506,79.1086311340332,79.40864396095276,dot,"[0.06, 0.1, 0.06, 0.06]","[[-0.4116264312708952, 0.16775371224632304], [-0.5618780911112883, -0.04134114392370045], [-0.3363713887364365, -0.04915619770205748], [-0.48212301157369764, -0.2249233832905235]]",density,black,,,D002,visual,1,[],"['1', '2', '3', '4']",1,2023.2.3,harveyvisual,2.1,[],8,0.75,
0,pause,0.4,None,None,None,0,221,221,221,,,,,,,,,,,,,D002,visual,1,[],"['1', '2', '3', '4']",1,2023.2.3,harveyvisual,2.1,[],8,0.75,
4,dot,0.3,['dot'],['density'],black,0,222,222,222,,,80.10021710395813,79.80862998962402,80.10858201980591,dot,"[0.1, 0.1, 0.1, 0.08]","[[-0.46485289602757673, 0.3603628353310837], [-0.30733625211232357, 0.21626236973196436], [-0.38991578213366157, 0.024479253410336757], [-0.570234662048439, 0.14093512067028166]]",density,black,,,D002,visual,1,[],"['1', '2', '3', '4']",1,2023.2.3,harveyvisual,2.1,[],8,0.75,
0,pause,0.4,None,None,None,0,223,223,223,,,,,,,,,,,,,D002,visual,1,[],"['1', '2', '3', '4']",1,2023.2.3,harveyvisual,2.1,[],8,0.75,
4,dot,0.3,['dot'],['density'],white,0,224,224,224,,,80.80022811889648,80.50853705406189,80.80859208106995,dot,"[0.06, 0.1, 0.08, 0.06]","[[-0.3130108772186628, 0.4658633188731559], [0.06875292536802097, 0.3619778545149697], [-0.12928423743784842, 0.28835211797578114], [-0.08764786508193922, 0.5151731075523892]]",density,white,,,D002,visual,1,[],"['1', '2', '3', '4']",1,2023.2.3,harveyvisual,2.1,[],8,0.75,
0,pause,0.4,None,None,None,0,225,225,225,,,,,,,,,,,1,80.8995931148529,D002,visual,1,[],"['1', '2', '3', '4']",1,2023.2.3,harveyvisual,2.1,[],8,0.75,
4,dot,0.3,['dot'],['density'],black,0,226,226,226,,,81.50022506713867,81.2086889743805,81.50868797302246,dot,"[0.06, 0.08, 0.08, 0.06]","[[0.06326389353998313, -0.3457479010937814], [-0.07512051392095552, -0.02196355495157639], [0.09410934090401228, -0.14113260442523076], [-0.13717358852421138, -0.29916566844175635]]",density,black,,,D002,visual,1,[],"['1', '2', '3', '4']",1,2023.2.3,harveyvisual,2.1,[],8,0.75,
0,pause,0.4,None,None,None,0,227,227,227,,,,,,,,,,,,,D002,visual,1,[],"['1', '2', '3', '4']",1,2023.2.3,harveyvisual,2.1,[],8,0.75,
3,dot,0.3,['dot'],['density'],black,0,228,228,228,,,82.20022201538086,81.90866899490356,82.2085030078888,dot,"[0.06, 0.1, 0.08]","[[0.3935061822875672, 0.2255916562549388], [0.5507663609445765, 0.05974239467682067], [0.33737455125106675, -0.013318187219183488]]",density,black,,,D002,visual,1,[],"['1', '2', '3', '4']",1,2023.2.3,harveyvisual,2.1,[],8,0.75,
0,pause,0.4,None,None,None,0,229,229,229,,,,,,,,,,,,,D002,visual,1,[],"['1', '2', '3', '4']",1,2023.2.3,harveyvisual,2.1,[],8,0.75,
3,dot,0.3,['dot'],['density'],black,0,230,230,230,,,82.9002411365509,82.60854411125183,82.90849995613098,dot,"[0.1, 0.1, 0.06]","[[0.2656832518280197, 0.0014864193765316018], [0.3503107158811183, -0.1826455867164705], [0.5188928509039705, -0.04177453376365527]]",density,black,,,D002,visual,1,[],"['1', '2', '3', '4']",1,2023.2.3,harveyvisual,2.1,[],8,0.75,
0,pause,0.4,None,None,None,0,231,231,231,,,,,,,,,,,,,D002,visual,1,[],"['1', '2', '3', '4']",1,2023.2.3,harveyvisual,2.1,[],8,0.75,
3,dot,0.3,['dot'],['density'],black,0,232,232,232,,,83.60022807121277,83.30863499641418,83.60862112045288,dot,"[0.08, 0.08, 0.08]","[[-0.476501853024302, 0.3110516410681161], [-0.26865065753742645, 0.4732574608261889], [-0.2772428868380306, 0.2516539537451065]]",density,black,,,D002,visual,1,[],"['1', '2', '3', '4']",1,2023.2.3,harveyvisual,2.1,[],8,0.75,
0,pause,0.4,None,None,None,0,233,233,233,,,,,,,,,,,,,D002,visual,1,[],"['1', '2', '3', '4']",1,2023.2.3,harveyvisual,2.1,[],8,0.75,
3,dot,0.3,['dot'],['density'],black,0,234,234,234,,,84.30023908615112,84.00863194465637,84.30863904953003,dot,"[0.1, 0.08, 0.1]","[[0.5267872668145167, -0.16137547842759675], [0.3420119191573968, -0.036920749927643534], [0.3185462880061428, -0.2399114968218526]]",density,black,,,D002,visual,1,[],"['1', '2', '3', '4']",1,2023.2.3,harveyvisual,2.1,[],8,0.75,
0,pause,0.4,None,None,None,0,235,235,235,,,,,,,,,,,,,D002,visual,1,[],"['1', '2', '3', '4']",1,2023.2.3,harveyvisual,2.1,[],8,0.75,
3,dot,0.3,['dot'],['density'],black,0,236,236,236,,,85.00022912025452,84.70861315727234,85.0086121559143,dot,"[0.1, 0.06, 0.06]","[[-0.5599668940784417, -0.1503624274944763], [-0.33715825845103314, -0.1742393560729378], [-0.447658281307079, 0.035586458508876644]]",density,black,,,D002,visual,1,[],"['1', '2', '3', '4']",1,2023.2.3,harveyvisual,2.1,[],8,0.75,
0,pause,0.4,None,None,None,0,237,237,237,,,,,,,,,,,,,D002,visual,1,[],"['1', '2', '3', '4']",1,2023.2.3,harveyvisual,2.1,[],8,0.75,
3,dot,0.3,['dot'],['density'],white,0,238,238,238,,,85.70022296905518,85.40860915184021,85.70860195159912,dot,"[0.06, 0.08, 0.06]","[[0.16698284004709638, 0.14340522813657522], [0.014382160343152013, -0.0120418799203457], [0.17626274868444566, -0.13037823744598942]]",density,white,,,D002,visual,1,[],"['1', '2', '3', '4']",1,2023.2.3,harveyvisual,2.1,[],8,0.75,
0,pause,0.4,None,None,None,0,239,239,239,,,,,,,,,,,1,85.78523397445679,D002,visual,1,[],"['1', '2', '3', '4']",1,2023.2.3,harveyvisual,2.1,[],8,0.75,
2,dot,0.3,['dot'],['density'],white,0,240,240,240,,,86.40023612976074,86.10859107971191,86.40856599807739,dot,"[0.1, 0.06]","[[0.4298854344354601, 0.24556028782034023], [0.23727674624932948, 0.18886586315459258]]",density,white,,,D002,visual,1,[],"['1', '2', '3', '4']",1,2023.2.3,harveyvisual,2.1,[],8,0.75,
0,pause,0.4,None,None,None,0,241,241,241,,,,,,,,,,,1,86.48532295227051,D002,visual,1,[],"['1', '2', '3', '4']",1,2023.2.3,harveyvisual,2.1,[],8,0.75,
2,dot,0.3,['dot'],['density'],black,0,242,242,242,,,87.10023903846741,86.8084089756012,87.10841417312622,dot,"[0.1, 0.1]","[[0.24818458179829028, -0.5230613829255512], [0.05315527151035717, -0.47711981276458415]]",density,black,,,D002,visual,1,[],"['1', '2', '3', '4']",1,2023.2.3,harveyvisual,2.1,[],8,0.75,
0,pause,0.4,None,None,None,0,243,243,243,,,,,,,,,,,,,D002,visual,1,[],"['1', '2', '3', '4']",1,2023.2.3,harveyvisual,2.1,[],8,0.75,
2,dot,0.3,['dot'],['density'],black,0,244,244,244,,,87.80021810531616,87.50839614868164,87.80838894844055,dot,"[0.1, 0.08]","[[0.19540278997321237, -0.319457995891214], [0.34462774624387493, -0.4544903302695001]]",density,black,,,D002,visual,1,[],"['1', '2', '3', '4']",1,2023.2.3,harveyvisual,2.1,[],8,0.75,
0,pause,0.4,None,None,None,0,245,245,245,,,,,,,,,,,,,D002,visual,1,[],"['1', '2', '3', '4']",1,2023.2.3,harveyvisual,2.1,[],8,0.75,
2,dot,0.3,['dot'],['density'],black,0,246,246,246,,,88.50022006034851,88.20837211608887,88.50836706161499,dot,"[0.08, 0.08]","[[-0.2277318593301165, -0.35289300204507235], [-0.09400723608355734, -0.20388512549033708]]",density,black,,,D002,visual,1,[],"['1', '2', '3', '4']",1,2023.2.3,harveyvisual,2.1,[],8,0.75,
0,pause,0.4,None,None,None,0,247,247,247,,,,,,,,,,,,,D002,visual,1,[],"['1', '2', '3', '4']",1,2023.2.3,harveyvisual,2.1,[],8,0.75,
2,dot,0.3,['dot'],['density'],black,0,248,248,248,,,89.2002260684967,88.90835809707642,89.20832705497742,dot,"[0.06, 0.06]","[[0.4101371699595759, -0.046236245446824746], [0.42481245787877703, -0.24684889303111815]]",density,black,,,D002,visual,1,[],"['1', '2', '3', '4']",1,2023.2.3,harveyvisual,2.1,[],8,0.75,
0,pause,0.4,None,None,None,0,249,249,249,,,,,,,,,,,,,D002,visual,1,[],"['1', '2', '3', '4']",1,2023.2.3,harveyvisual,2.1,[],8,0.75,
2,dot,0.3,['dot'],['density'],black,0,250,250,250,,,89.90023398399353,89.60832715034485,89.90830516815186,dot,"[0.06, 0.08]","[[-0.21141336561075566, 0.4273762957479495], [-0.1407142259739198, 0.23984948612333498]]",density,black,,,D002,visual,1,[],"['1', '2', '3', '4']",1,2023.2.3,harveyvisual,2.1,[],8,0.75,
0,pause,0.4,None,None,None,0,251,251,251,,,,,,,,,,,,,D002,visual,1,[],"['1', '2', '3', '4']",1,2023.2.3,harveyvisual,2.1,[],8,0.75,
1,dot,0.3,['dot'],['density'],black,0,252,252,252,,,90.60022115707397,90.30835700035095,90.60834312438965,dot,[0.06],"[0.1600937909388646, -0.5041032805904762]",density,black,,,D002,visual,1,[],"['1', '2', '3', '4']",1,2023.2.3,harveyvisual,2.1,[],8,0.75,
0,pause,0.4,None,None,None,0,253,253,253,,,,,,,,,,,,,D002,visual,1,[],"['1', '2', '3', '4']",1,2023.2.3,harveyvisual,2.1,[],8,0.75,
1,dot,0.3,['dot'],['density'],black,0,254,254,254,,,91.30022501945496,91.00830817222595,91.3082971572876,dot,[0.08],"[0.01430498756481247, 0.36429701967127975]",density,black,,,D002,visual,1,[],"['1', '2', '3', '4']",1,2023.2.3,harveyvisual,2.1,[],8,0.75,
0,pause,0.4,None,None,None,0,255,255,255,,,,,,,,,,,,,D002,visual,1,[],"['1', '2', '3', '4']",1,2023.2.3,harveyvisual,2.1,[],8,0.75,
1,dot,0.3,['dot'],['density'],black,0,256,256,256,,,92.00021815299988,91.70832109451294,92.00824213027954,dot,[0.08],"[-0.00037526000000685745, -0.027921386894572527]",density,black,,,D002,visual,1,[],"['1', '2', '3', '4']",1,2023.2.3,harveyvisual,2.1,[],8,0.75,
0,pause,0.4,None,None,None,0,257,257,257,,,,,,,,,,,,,D002,visual,1,[],"['1', '2', '3', '4']",1,2023.2.3,harveyvisual,2.1,[],8,0.75,
1,dot,0.3,['dot'],['density'],black,0,258,258,258,,,92.70023918151855,92.40824317932129,92.70822596549988,dot,[0.06],"[0.15956500649880873, 0.2640393008039057]",density,black,,,D002,visual,1,[],"['1', '2', '3', '4']",1,2023.2.3,harveyvisual,2.1,[],8,0.75,
0,pause,0.4,None,None,None,0,259,259,259,,,,,,,,,,,,,D002,visual,1,[],"['1', '2', '3', '4']",1,2023.2.3,harveyvisual,2.1,[],8,0.75,
1,dot,0.3,['dot'],['density'],black,0,260,260,260,,,93.4002251625061,93.10822916030884,93.40820598602295,dot,[0.08],"[-0.00037526000000685745, -0.027921386894572527]",density,black,,,D002,visual,1,[],"['1', '2', '3', '4']",1,2023.2.3,harveyvisual,2.1,[],8,0.75,
0,pause,0.4,None,None,None,0,261,261,261,,,,,,,,,,,,,D002,visual,1,[],"['1', '2', '3', '4']",1,2023.2.3,harveyvisual,2.1,[],8,0.75,
1,dot,0.3,['dot'],['density'],black,0,262,262,262,,,94.10021710395813,93.80821800231934,94.10818815231323,dot,[0.1],"[0.0038807231877187303, -0.2777732366953785]",density,black,,,D002,visual,1,[],"['1', '2', '3', '4']",1,2023.2.3,harveyvisual,2.1,[],8,0.75,
0,pause,0.4,None,None,None,0,263,263,263,,,,,,,,,,,,,D002,visual,1,[],"['1', '2', '3', '4']",1,2023.2.3,harveyvisual,2.1,[],8,0.75,
20,dot,0.3,['dot'],['density'],black,0,264,264,264,,,94.8002359867096,94.52484703063965,94.80827498435974,dot,"[0.1, 0.06, 0.08, 0.08, 0.1, 0.08, 0.08, 0.06, 0.06, 0.1, 0.06, 0.06, 0.08, 0.08, 0.08, 0.1, 0.08, 0.1, 0.06, 0.08]","[[-0.43646002548217766, 0.2668779818626308], [0.40761171478097113, -0.08817543817622941], [-0.40040594118244793, 0.01809060240541943], [0.5119058868662564, 0.2222603541046757], [-0.19539244678663703, 0.4410419997809877], [0.02952066975329115, -0.05619580644569355], [0.14393673992952982, -0.4599621938927124], [-0.2885463459289233, -0.3220236089403865], [-0.2592236989229479, -0.5384536454359994], [0.1824109305965077, 0.20214630597956784], [-0.4782810739665927, -0.36231108263219963], [0.5937714488122153, -0.006408664380652074], [0.046032097437393005, 0.49961528909191133], [-0.2344282412323238, -0.10995582557758182], [0.42460908950002485, -0.4016072364255206], [-0.02485275558367439, -0.5540515744579042], [0.03516582170048732, -0.2616756096229048], [-0.06241862101630502, 0.17077739024376049], [0.2226690651372788, -0.14022561745553574], [0.3561043674625819, 0.39832667299937563]]",density,black,,,D002,visual,1,[],"['1', '2', '3', '4']",1,2023.2.3,harveyvisual,2.1,[],8,0.75,
0,pause,0.4,None,None,None,0,265,265,265,,,,,,,,,,,,,D002,visual,1,[],"['1', '2', '3', '4']",1,2023.2.3,harveyvisual,2.1,[],8,0.75,
20,dot,0.3,['dot'],['density'],black,0,266,266,266,,,95.50023198127747,95.2248649597168,95.508229970932,dot,"[0.06, 0.06, 0.1, 0.06, 0.06, 0.06, 0.08, 0.08, 0.08, 0.08, 0.1, 0.06, 0.1, 0.1, 0.08, 0.1, 0.1, 0.08, 0.06, 0.08]","[[-0.26604226866204067, 0.4867539699612695], [0.08974096849648061, -0.4916587074431804], [-0.6032445246546937, 0.03778018506788507], [0.371259493123944, -0.4603961372528426], [0.17441180859565375, 0.3645793369474869], [0.40467700299021814, 0.2693437052386109], [-0.24663407204346866, -0.38264890740237567], [-0.16734600886706685, -0.053836219082977754], [0.028406768618612355, -0.11040292077584662], [-0.4069609134998865, 0.1192467180308508], [0.2398487752140337, -0.18095681252057483], [-0.039349056300492014, 0.5171388512299248], [0.45762693852207736, 0.06950854531412065], [0.2590061580026357, 0.14620543945473963], [-0.3518011165763991, -0.1408478112647616], [-0.09393006641188573, 0.31703792892379057], [0.3465424855837088, 0.4576721723160479], [0.4938500960212354, -0.23133185264788203], [-0.32635920553440817, 0.3063602461894638], [-0.18350561186052766, -0.5720463017026451]]",density,black,,,D002,visual,1,[],"['1', '2', '3', '4']",1,2023.2.3,harveyvisual,2.1,[],8,0.75,
0,pause,0.4,None,None,None,0,267,267,267,,,,,,,,,,,,,D002,visual,1,[],"['1', '2', '3', '4']",1,2023.2.3,harveyvisual,2.1,[],8,0.75,
