num,mod,duration,shape,ll_cond,colors,.thisRepN,.thisTrialN,.thisN,.thisIndex,thisRow.t,notes,raw_global_time,t_start,t_stop,shapes,size,pos,cond,color,button,RT,participant,session,starting_run,left button (match/odd),right button (non-match/even),samples_per_block,psychopy version,expName,offset,audio,number_runs,radius,
1,dot,0.3,['dot'],['density'],black,0,0,0,0,,,2.4002020359039307,2.106537103652954,2.4064650535583496,dot,[0.1],"[-0.4519365434524677, 0.22287683068434597]",density,black,,,D002,visual,1,[],"['1', '2', '3', '4']",1,2023.2.3,harveyvisual,2.1,[],8,0.75,
0,pause,0.4,None,None,None,0,1,1,1,,,,,,,,,,,,,D002,visual,1,[],"['1', '2', '3', '4']",1,2023.2.3,harveyvisual,2.1,[],8,0.75,
1,dot,0.3,['dot'],['density'],black,0,2,2,2,,,3.100198984146118,2.8064751625061035,3.1069869995117188,dot,[0.1],"[-0.045934412585722416, -0.12236734128406912]",density,black,,,D002,visual,1,[],"['1', '2', '3', '4']",1,2023.2.3,harveyvisual,2.1,[],8,0.75,
0,pause,0.4,None,None,None,0,3,3,3,,,,,,,,,,,,,D002,visual,1,[],"['1', '2', '3', '4']",1,2023.2.3,harveyvisual,2.1,[],8,0.75,
1,dot,0.3,['dot'],['density'],black,0,4,4,4,,,3.800199031829834,3.507132053375244,3.806929111480713,dot,[0.1],"[-0.3631366314731191, 0.1590646049745197]",density,black,,,D002,visual,1,[],"['1', '2', '3', '4']",1,2023.2.3,harveyvisual,2.1,[],8,0.75,
0,pause,0.4,None,None,None,0,5,5,5,,,,,,,,,,,,,D002,visual,1,[],"['1', '2', '3', '4']",1,2023.2.3,harveyvisual,2.1,[],8,0.75,
1,dot,0.3,['dot'],['density'],black,0,6,6,6,,,4.5002121925354,4.206942081451416,4.506914138793945,dot,[0.06],"[0.1049869166116724, 0.1335000464341748]",density,black,,,D002,visual,1,[],"['1', '2', '3', '4']",1,2023.2.3,harveyvisual,2.1,[],8,0.75,
0,pause,0.4,None,None,None,0,7,7,7,,,,,,,,,,,,,D002,visual,1,[],"['1', '2', '3', '4']",1,2023.2.3,harveyvisual,2.1,[],8,0.75,
1,dot,0.3,['dot'],['density'],black,0,8,8,8,,,5.200193166732788,4.906913995742798,5.206895112991333,dot,[0.08],"[0.43730911014729085, 0.38068286015665653]",density,black,,,D002,visual,1,[],"['1', '2', '3', '4']",1,2023.2.3,harveyvisual,2.1,[],8,0.75,
0,pause,0.4,None,None,None,0,9,9,9,,,,,,,,,,,,,D002,visual,1,[],"['1', '2', '3', '4']",1,2023.2.3,harveyvisual,2.1,[],8,0.75,
1,dot,0.3,['dot'],['density'],black,0,10,10,10,,,5.900205135345459,5.608771085739136,5.9087231159210205,dot,[0.06],"[0.1771264825789444, 0.012298414170669998]",density,black,,,D002,visual,1,[],"['1', '2', '3', '4']",1,2023.2.3,harveyvisual,2.1,[],8,0.75,
0,pause,0.4,None,None,None,0,11,11,11,,,,,,,,,,,,,D002,visual,1,[],"['1', '2', '3', '4']",1,2023.2.3,harveyvisual,2.1,[],8,0.75,
2,dot,0.3,['dot'],['density'],black,0,12,12,12,,,6.6002020835876465,6.308727979660034,6.608721017837524,dot,"[0.08, 0.08]","[[0.002249876020969301, 0.20442088447143333], [-0.056293345030126195, 0.39599742374220376]]",density,black,,,D002,visual,1,[],"['1', '2', '3', '4']",1,2023.2.3,harveyvisual,2.1,[],8,0.75,
0,pause,0.4,None,None,None,0,13,13,13,,,,,,,,,,,,,D002,visual,1,[],"['1', '2', '3', '4']",1,2023.2.3,harveyvisual,2.1,[],8,0.75,
2,dot,0.3,['dot'],['density'],black,0,14,14,14,,,7.300203084945679,7.008706092834473,7.308686017990112,dot,"[0.08, 0.1]","[[-0.4149324818804315, 0.28007444048998836], [-0.5260390884397633, 0.11347960973083408]]",density,black,,,D002,visual,1,[],"['1', '2', '3', '4']",1,2023.2.3,harveyvisual,2.1,[],8,0.75,
0,pause,0.4,None,None,None,0,15,15,15,,,,,,,,,,,,,D002,visual,1,[],"['1', '2', '3', '4']",1,2023.2.3,harveyvisual,2.1,[],8,0.75,
2,dot,0.3,['dot'],['density'],black,0,16,16,16,,,8.000211000442505,7.708688974380493,8.0086510181427,dot,"[0.08, 0.1]","[[0.45098141687762733, -0.20237638590572143], [0.5433504117931098, -0.02475258047346216]]",density,black,,,D002,visual,1,[],"['1', '2', '3', '4']",1,2023.2.3,harveyvisual,2.1,[],8,0.75,
0,pause,0.4,None,None,None,0,17,17,17,,,,,,,,,,,,,D002,visual,1,[],"['1', '2', '3', '4']",1,2023.2.3,harveyvisual,2.1,[],8,0.75,
2,dot,0.3,['dot'],['density'],black,0,18,18,18,,,8.70019006729126,8.408660173416138,8.70881700515747,dot,"[0.1, 0.08]","[[0.1734117655345296, 0.46860731914486053], [-0.01847566562869785, 0.52581935004857]]",density,black,,,D002,visual,1,[],"['1', '2', '3', '4']",1,2023.2.3,harveyvisual,2.1,[],8,0.75,
0,pause,0.4,None,None,None,0,19,19,19,,,,,,,,,,,,,D002,visual,1,[],"['1', '2', '3', '4']",1,2023.2.3,harveyvisual,2.1,[],8,0.75,
2,dot,0.3,['dot'],['density'],black,0,20,20,20,,,9.400191068649292,9.108806133270264,9.40880298614502,dot,"[0.06, 0.06]","[[-0.22897676209827808, 0.468650264003531], [-0.0598036877009514, 0.5760211786176329]]",density,black,,,D002,visual,1,[],"['1', '2', '3', '4']",1,2023.2.3,harveyvisual,2.1,[],8,0.75,
0,pause,0.4,None,None,None,0,21,21,21,,,,,,,,,,,,,D002,visual,1,[],"['1', '2', '3', '4']",1,2023.2.3,harveyvisual,2.1,[],8,0.75,
2,dot,0.3,['dot'],['density'],black,0,22,22,22,,,10.10020899772644,9.808830976486206,10.108802080154419,dot,"[0.06, 0.08]","[[0.075840462383643, -0.21806900392302264], [0.2761252679018853, -0.22101292055433702]]",density,black,,,D002,visual,1,[],"['1', '2', '3', '4']",1,2023.2.3,harveyvisual,2.1,[],8,0.75,
0,pause,0.4,None,None,None,0,23,23,23,,,,,,,,,,,,,D002,visual,1,[],"['1', '2', '3', '4']",1,2023.2.3,harveyvisual,2.1,[],8,0.75,
3,dot,0.3,['dot'],['density'],black,0,24,24,24,,,10.80019998550415,10.508800029754639,10.8087739944458,dot,"[0.08, 0.08, 0.06]","[[0.3935061822875672, 0.2255916562549388], [0.5507663609445765, 0.05974239467682067], [0.33737455125106675, -0.013318187219183488]]",density,black,,,D002,visual,1,[],"['1', '2', '3', '4']",1,2023.2.3,harveyvisual,2.1,[],8,0.75,
0,pause,0.4,None,None,None,0,25,25,25,,,,,,,,,,,,,D002,visual,1,[],"['1', '2', '3', '4']",1,2023.2.3,harveyvisual,2.1,[],8,0.75,
3,dot,0.3,['dot'],['density'],black,0,26,26,26,,,11.500213146209717,11.208781003952026,11.508776187896729,dot,"[0.1, 0.1, 0.08]","[[0.07700183490032705, -0.35627018624379625], [-0.11838355721398923, -0.41989981358322065], [0.04553884901650391, -0.5822363694770394]]",density,black,,,D002,visual,1,[],"['1', '2', '3', '4']",1,2023.2.3,harveyvisual,2.1,[],8,0.75,
0,pause,0.4,None,None,None,0,27,27,27,,,,,,,,,,,,,D002,visual,1,[],"['1', '2', '3', '4']",1,2023.2.3,harveyvisual,2.1,[],8,0.75,
3,dot,0.3,['dot'],['density'],black,0,28,28,28,,,12.20019006729126,11.908781051635742,12.208774089813232,dot,"[0.08, 0.06, 0.1]","[[0.041215869578383385, -0.00689674906403758], [0.17500875751152645, 0.21459232562634095], [-0.03632281132631849, 0.2012994076415249]]",density,black,,,D002,visual,1,[],"['1', '2', '3', '4']",1,2023.2.3,harveyvisual,2.1,[],8,0.75,
0,pause,0.4,None,None,None,0,29,29,29,,,,,,,,,,,,,D002,visual,1,[],"['1', '2', '3', '4']",1,2023.2.3,harveyvisual,2.1,[],8,0.75,
3,dot,0.3,['dot'],['density'],white,0,30,30,30,,,12.90021014213562,12.60877013206482,12.90873098373413,dot,"[0.08, 0.1, 0.08]","[[-0.17592395544936776, 0.40510565415719324], [-0.30566154612550034, 0.21848422264492345], [-0.39822260978708685, 0.43144058222919995]]",density,white,,,D002,visual,1,[],"['1', '2', '3', '4']",1,2023.2.3,harveyvisual,2.1,[],8,0.75,
0,pause,0.4,None,None,None,0,31,31,31,,,,,,,,,,,1,13.016873836517334,D002,visual,1,[],"['1', '2', '3', '4']",1,2023.2.3,harveyvisual,2.1,[],8,0.75,
3,dot,0.3,['dot'],['density'],black,0,32,32,32,,,13.60018801689148,13.30876898765564,13.608723163604736,dot,"[0.06, 0.08, 0.08]","[[0.29938275938101017, 0.44415474715472736], [0.13070782598704628, 0.5557174004537693], [0.11832456902218637, 0.3273615767427578]]",density,black,,,D002,visual,1,[],"['1', '2', '3', '4']",1,2023.2.3,harveyvisual,2.1,[],8,0.75,
0,pause,0.4,None,None,None,0,33,33,33,,,,,,,,,,,,,D002,visual,1,[],"['1', '2', '3', '4']",1,2023.2.3,harveyvisual,2.1,[],8,0.75,
3,dot,0.3,['dot'],['density'],black,0,34,34,34,,,14.300187110900879,14.008745193481445,14.308675050735474,dot,"[0.06, 0.1, 0.08]","[[0.3835821938049364, -0.20766469641190155], [0.321707527308891, -0.4175939354614905], [0.1897943789354585, -0.2642367600490923]]",density,black,,,D002,visual,1,[],"['1', '2', '3', '4']",1,2023.2.3,harveyvisual,2.1,[],8,0.75,
0,pause,0.4,None,None,None,0,35,35,35,,,,,,,,,,,,,D002,visual,1,[],"['1', '2', '3', '4']",1,2023.2.3,harveyvisual,2.1,[],8,0.75,
4,dot,0.3,['dot'],['density'],black,0,36,36,36,,,15.00019907951355,14.708652973175049,15.008656978607178,dot,"[0.06, 0.06, 0.08, 0.1]","[[0.0015408600658227804, 0.35051751062746694], [-0.20674122870780898, 0.3211588031025307], [-0.08430622538187964, 0.13383917563087117], [0.1780252705082131, 0.19175915241248492]]",density,black,,,D002,visual,1,[],"['1', '2', '3', '4']",1,2023.2.3,harveyvisual,2.1,[],8,0.75,
0,pause,0.4,None,None,None,0,37,37,37,,,,,,,,,,,,,D002,visual,1,[],"['1', '2', '3', '4']",1,2023.2.3,harveyvisual,2.1,[],8,0.75,
4,dot,0.3,['dot'],['density'],black,0,38,38,38,,,15.700213193893433,15.408650159835815,15.708636045455933,dot,"[0.1, 0.06, 0.06, 0.1]","[[-0.3130108772186628, 0.4658633188731559], [0.06875292536802097, 0.3619778545149697], [-0.12928423743784842, 0.28835211797578114], [-0.08764786508193922, 0.5151731075523892]]",density,black,,,D002,visual,1,[],"['1', '2', '3', '4']",1,2023.2.3,harveyvisual,2.1,[],8,0.75,
0,pause,0.4,None,None,None,0,39,39,39,,,,,,,,,,,,,D002,visual,1,[],"['1', '2', '3', '4']",1,2023.2.3,harveyvisual,2.1,[],8,0.75,
4,dot,0.3,['dot'],['density'],black,0,40,40,40,,,16.400202989578247,16.108639001846313,16.408616065979004,dot,"[0.1, 0.06, 0.06, 0.08]","[[0.010836700166572746, 0.3385055392368038], [-0.21755291078517647, 0.23172276430217797], [0.04881011250022837, 0.13413393103699342], [-0.16894730197854985, 0.4434327172909165]]",density,black,,,D002,visual,1,[],"['1', '2', '3', '4']",1,2023.2.3,harveyvisual,2.1,[],8,0.75,
0,pause,0.4,None,None,None,0,41,41,41,,,,,,,,,,,,,D002,visual,1,[],"['1', '2', '3', '4']",1,2023.2.3,harveyvisual,2.1,[],8,0.75,
4,dot,0.3,['dot'],['density'],white,0,42,42,42,,,17.10020899772644,16.808608055114746,17.108602046966553,dot,"[0.06, 0.1, 0.1, 0.08]","[[-0.3130108772186628, 0.4658633188731559], [0.06875292536802097, 0.3619778545149697], [-0.12928423743784842, 0.28835211797578114], [-0.08764786508193922, 0.5151731075523892]]",density,white,,,D002,visual,1,[],"['1', '2', '3', '4']",1,2023.2.3,harveyvisual,2.1,[],8,0.75,
0,pause,0.4,None,None,None,0,43,43,43,,,,,,,,,,,1,17.166513919830322,D002,visual,1,[],"['1', '2', '3', '4']",1,2023.2.3,harveyvisual,2.1,[],8,0.75,
4,dot,0.3,['dot'],['density'],black,0,44,44,44,,,17.800212144851685,17.508588075637817,17.808606147766113,dot,"[0.08, 0.08, 0.08, 0.08]","[[0.13421512820946938, -0.5336194340609706], [0.2622623892029083, -0.3575253733063478], [0.024533045116508903, -0.3376850530006363], [0.166924465117498, -0.0963569090623874]]",density,black,,,D002,visual,1,[],"['1', '2', '3', '4']",1,2023.2.3,harveyvisual,2.1,[],8,0.75,
0,pause,0.4,None,None,None,0,45,45,45,,,,,,,,,,,,,D002,visual,1,[],"['1', '2', '3', '4']",1,2023.2.3,harveyvisual,2.1,[],8,0.75,
4,dot,0.3,['dot'],['density'],black,0,46,46,46,,,18.500193119049072,18.208616018295288,18.508463144302368,dot,"[0.08, 0.1, 0.1, 0.1]","[[0.15462156444594843, 0.0379601134824338], [-0.046642739949193296, 0.06510400621286498], [0.12320708371464141, 0.2499967514902957], [-0.13279798436850673, 0.2624558601457805]]",density,black,,,D002,visual,1,[],"['1', '2', '3', '4']",1,2023.2.3,harveyvisual,2.1,[],8,0.75,
0,pause,0.4,None,None,None,0,47,47,47,,,,,,,,,,,,,D002,visual,1,[],"['1', '2', '3', '4']",1,2023.2.3,harveyvisual,2.1,[],8,0.75,
5,dot,0.3,['dot'],['density'],black,0,48,48,48,,,19.200209140777588,18.908447980880737,19.208466053009033,dot,"[0.1, 0.1, 0.1, 0.08, 0.1]","[[0.26736814946294957, 0.039639821311179], [0.3007085492035367, 0.3262250213434343], [0.4353907115448318, -0.11778011175670104], [0.4521497692138949, 0.1289853794543976], [0.1485908728023605, -0.12275462689891227]]",density,black,,,D002,visual,1,[],"['1', '2', '3', '4']",1,2023.2.3,harveyvisual,2.1,[],8,0.75,
0,pause,0.4,None,None,None,0,49,49,49,,,,,,,,,,,,,D002,visual,1,[],"['1', '2', '3', '4']",1,2023.2.3,harveyvisual,2.1,[],8,0.75,
5,dot,0.3,['dot'],['density'],black,0,50,50,50,,,19.900204181671143,19.608610153198242,19.908573150634766,dot,"[0.08, 0.08, 0.06, 0.06, 0.1]","[[-0.08538919239777085, -0.3767281323802813], [0.14382612128503536, -0.4947333592336123], [0.2503732289573559, -0.06783159190520484], [0.07777572498152553, -0.21879460077906046], [0.26544561712664855, -0.2975172507008621]]",density,black,,,D002,visual,1,[],"['1', '2', '3', '4']",1,2023.2.3,harveyvisual,2.1,[],8,0.75,
0,pause,0.4,None,None,None,0,51,51,51,,,,,,,,,,,,,D002,visual,1,[],"['1', '2', '3', '4']",1,2023.2.3,harveyvisual,2.1,[],8,0.75,
5,dot,0.3,['dot'],['density'],black,0,52,52,52,,,20.60020112991333,20.308585166931152,20.60842514038086,dot,"[0.06, 0.08, 0.1, 0.1, 0.06]","[[-0.11834215492801986, 0.412508379109845], [0.31881799646300274, 0.30859303438359803], [-0.06368743078099719, 0.10105058071702504], [0.1133485112468387, 0.46262203184429457], [0.11957051434631445, 0.24197418837926052]]",density,black,,,D002,visual,1,[],"['1', '2', '3', '4']",1,2023.2.3,harveyvisual,2.1,[],8,0.75,
0,pause,0.4,None,None,None,0,53,53,53,,,,,,,,,,,,,D002,visual,1,[],"['1', '2', '3', '4']",1,2023.2.3,harveyvisual,2.1,[],8,0.75,
5,dot,0.3,['dot'],['density'],black,0,54,54,54,,,21.300207138061523,21.008570194244385,21.308528184890747,dot,"[0.08, 0.08, 0.1, 0.08, 0.06]","[[-0.16893136043895146, -0.20127892763881453], [-0.5727216740452047, -0.07682091551650742], [-0.343702592036276, -0.060533526953518955], [-0.5038383983260774, 0.15268268748871192], [-0.379488354443274, -0.2704310218069364]]",density,black,,,D002,visual,1,[],"['1', '2', '3', '4']",1,2023.2.3,harveyvisual,2.1,[],8,0.75,
0,pause,0.4,None,None,None,0,55,55,55,,,,,,,,,,,,,D002,visual,1,[],"['1', '2', '3', '4']",1,2023.2.3,harveyvisual,2.1,[],8,0.75,
5,dot,0.3,['dot'],['density'],black,0,56,56,56,,,22.000203132629395,21.708566188812256,22.00850510597229,dot,"[0.1, 0.06, 0.1, 0.06, 0.1]","[[-0.08906257038347729, 0.3326351968500321], [0.2173987091792188, 0.026220721131276364], [0.07996259445097068, 0.4821024141609844], [0.14345365083950706, 0.2501481494916038], [-0.03323208063638199, 0.08804517681276208]]",density,black,,,D002,visual,1,[],"['1', '2', '3', '4']",1,2023.2.3,harveyvisual,2.1,[],8,0.75,
0,pause,0.4,None,None,None,0,57,57,57,,,,,,,,,,,,,D002,visual,1,[],"['1', '2', '3', '4']",1,2023.2.3,harveyvisual,2.1,[],8,0.75,
5,dot,0.3,['dot'],['density'],black,0,58,58,58,,,22.700189113616943,22.408506155014038,22.708494186401367,dot,"[0.1, 0.1, 0.1, 0.1, 0.06]","[[-0.17224806752104949, 0.21128771658676965], [-0.35983128753182364, -0.1328600505582573], [-0.33716814897054914, 0.09708697582185674], [-0.044562237693599294, -0.03778919281981133], [-0.17109626387405982, -0.21732524013947077]]",density,black,,,D002,visual,1,[],"['1', '2', '3', '4']",1,2023.2.3,harveyvisual,2.1,[],8,0.75,
0,pause,0.4,None,None,None,0,59,59,59,,,,,,,,,,,,,D002,visual,1,[],"['1', '2', '3', '4']",1,2023.2.3,harveyvisual,2.1,[],8,0.75,
6,dot,0.3,['dot'],['density'],black,0,60,60,60,,,23.400202989578247,23.108479022979736,23.408480167388916,dot,"[0.06, 0.06, 0.06, 0.08, 0.06, 0.1]","[[-0.25052904509636076, -0.46440103658729176], [-0.12772535636451293, 0.010821502090106766], [-0.031043743050516784, -0.3649555915866845], [-0.3754529733759062, -0.18839395716731677], [0.07378414788444272, -0.15062955699655364], [-0.17220243018048728, -0.20498996683935267]]",density,black,,,D002,visual,1,[],"['1', '2', '3', '4']",1,2023.2.3,harveyvisual,2.1,[],8,0.75,
0,pause,0.4,None,None,None,0,61,61,61,,,,,,,,,,,,,D002,visual,1,[],"['1', '2', '3', '4']",1,2023.2.3,harveyvisual,2.1,[],8,0.75,
6,dot,0.3,['dot'],['density'],black,0,62,62,62,,,24.1001980304718,23.808472156524658,24.10854196548462,dot,"[0.06, 0.08, 0.06, 0.08, 0.1, 0.08]","[[-0.36954580940820725, 0.05815165478813925], [-0.28534481837461456, -0.12375618373579561], [-0.26428406214372846, 0.28010711109252995], [-0.5657182147315603, -0.11096589427743007], [-0.1492704575467133, 0.06899119969773035], [-0.5584105255039638, 0.13196562846102936]]",density,black,,,D002,visual,1,[],"['1', '2', '3', '4']",1,2023.2.3,harveyvisual,2.1,[],8,0.75,
0,pause,0.4,None,None,None,0,63,63,63,,,,,,,,,,,,,D002,visual,1,[],"['1', '2', '3', '4']",1,2023.2.3,harveyvisual,2.1,[],8,0.75,
6,dot,0.3,['dot'],['density'],black,0,64,64,64,,,24.80019998550415,24.50852608680725,24.808292150497437,dot,"[0.06, 0.1, 0.08, 0.1, 0.1, 0.08]","[[-0.11553075830627273, 0.47698778124428043], [-0.1112787518129194, 0.10456141670764223], [-0.48855705683845824, 0.21494657582805063], [-0.2538299919008863, 0.2532006538804931], [-0.3271837865365474, 0.4662148945367939], [0.006792750312598743, 0.27345996435494924]]",density,black,,,D002,visual,1,[],"['1', '2', '3', '4']",1,2023.2.3,harveyvisual,2.1,[],8,0.75,
0,pause,0.4,None,None,None,0,65,65,65,,,,,,,,,,,,,D002,visual,1,[],"['1', '2', '3', '4']",1,2023.2.3,harveyvisual,2.1,[],8,0.75,
6,dot,0.3,['dot'],['density'],black,0,66,66,66,,,25.500213146209717,25.208484172821045,25.508284091949463,dot,"[0.1, 0.1, 0.1, 0.08, 0.08, 0.1]","[[-0.5416753121247185, 0.020803147184574915], [-0.3232269173664433, -0.07161231053200118], [-0.3008479376061402, -0.286480119217458], [-0.22299540496279888, 0.12470258063391813], [-0.10776740766186912, -0.19554033341247495], [-0.5165544979209102, -0.21376225914528924]]",density,black,,,D002,visual,1,[],"['1', '2', '3', '4']",1,2023.2.3,harveyvisual,2.1,[],8,0.75,
0,pause,0.4,None,None,None,0,67,67,67,,,,,,,,,,,,,D002,visual,1,[],"['1', '2', '3', '4']",1,2023.2.3,harveyvisual,2.1,[],8,0.75,
6,dot,0.3,['dot'],['density'],black,0,68,68,68,,,26.20021414756775,25.90851616859436,26.208264112472534,dot,"[0.08, 0.08, 0.1, 0.06, 0.08, 0.1]","[[-0.5379788740814003, -0.011730333491669416], [-0.1820890739253136, -0.27973544868684425], [-0.07809457889047756, -0.09124846264896269], [-0.30616251401069866, -0.45101817852416426], [-0.44200878281119743, -0.26991620184617166], [-0.3315938551005316, -0.08696624632848979]]",density,black,,,D002,visual,1,[],"['1', '2', '3', '4']",1,2023.2.3,harveyvisual,2.1,[],8,0.75,
0,pause,0.4,None,None,None,0,69,69,69,,,,,,,,,,,,,D002,visual,1,[],"['1', '2', '3', '4']",1,2023.2.3,harveyvisual,2.1,[],8,0.75,
6,dot,0.3,['dot'],['density'],black,0,70,70,70,,,26.900197982788086,26.608514070510864,26.908329010009766,dot,"[0.06, 0.08, 0.08, 0.06, 0.1, 0.1]","[[-0.3622751979984162, 0.41275935807220604], [-0.5464806003183257, 0.06358334875023645], [-0.15518785678585886, 0.34969079698534317], [-0.3231370338359737, -0.02193421190541931], [-0.3473470749510941, 0.19885557425221048], [-0.12382976466594668, 0.04156566071734393]]",density,black,,,D002,visual,1,[],"['1', '2', '3', '4']",1,2023.2.3,harveyvisual,2.1,[],8,0.75,
0,pause,0.4,None,None,None,0,71,71,71,,,,,,,,,,,,,D002,visual,1,[],"['1', '2', '3', '4']",1,2023.2.3,harveyvisual,2.1,[],8,0.75,
7,dot,0.3,['dot'],['density'],black,0,72,72,72,,,27.60019612312317,27.308202028274536,27.608182191848755,dot,"[0.1, 0.06, 0.1, 0.06, 0.1, 0.06, 0.1]","[[-0.16635260996794698, 0.28084462036912], [-0.40218122969076125, -0.17991686156932815], [-0.0845402480451966, 0.09445086570213204], [-0.12722724135381816, -0.176029296145206], [-0.3668576348978093, 0.24153552923633032], [-0.5374975881789634, 0.10465170418994485], [-0.31219932221879926, 0.029177302383891702]]",density,black,,,D002,visual,1,[],"['1', '2', '3', '4']",1,2023.2.3,harveyvisual,2.1,[],8,0.75,
0,pause,0.4,None,None,None,0,73,73,73,,,,,,,,,,,,,D002,visual,1,[],"['1', '2', '3', '4']",1,2023.2.3,harveyvisual,2.1,[],8,0.75,
7,dot,0.3,['dot'],['density'],black,0,74,74,74,,,28.30020499229431,28.008334159851074,28.308168172836304,dot,"[0.06, 0.08, 0.08, 0.1, 0.06, 0.1, 0.1]","[[-0.0009033409944170771, 0.42006327366100915], [0.07504475251916, -0.022201311189229547], [-0.3616170585675141, 0.16750883091546095], [0.025412283732210435, 0.18669523424894663], [-0.17132175432412022, 0.2677160973152203], [-0.13541388111710323, 0.00927786556165188], [-0.3032959001003911, -0.13806764794565113]]",density,black,,,D002,visual,1,[],"['1', '2', '3', '4']",1,2023.2.3,harveyvisual,2.1,[],8,0.75,
0,pause,0.4,None,None,None,0,75,75,75,,,,,,,,,,,,,D002,visual,1,[],"['1', '2', '3', '4']",1,2023.2.3,harveyvisual,2.1,[],8,0.75,
7,dot,0.3,['dot'],['density'],black,0,76,76,76,,,29.00022006034851,28.708199977874756,29.00832200050354,dot,"[0.08, 0.08, 0.08, 0.06, 0.08, 0.1, 0.08]","[[-0.2822174821233986, 0.002117056236134186], [-0.10673242512413421, 0.4781556216085482], [-0.18432519539246728, 0.19072201575640843], [-0.4524596318479574, 0.13966285650530724], [0.06907010423411483, 0.2912708813513049], [-0.07412436007020941, -0.021022205933558278], [-0.3208835015251209, 0.3986768431743725]]",density,black,,,D002,visual,1,[],"['1', '2', '3', '4']",1,2023.2.3,harveyvisual,2.1,[],8,0.75,
0,pause,0.4,None,None,None,0,77,77,77,,,,,,,,,,,,,D002,visual,1,[],"['1', '2', '3', '4']",1,2023.2.3,harveyvisual,2.1,[],8,0.75,
7,dot,0.3,['dot'],['density'],black,0,78,78,78,,,29.70021104812622,29.40818500518799,29.70813298225403,dot,"[0.08, 0.06, 0.06, 0.1, 0.08, 0.06, 0.1]","[[0.3032073476866497, 0.39528308644852606], [0.12977480624643314, 0.5338553612741447], [-0.07830532742558233, 0.5277294273979773], [0.000705909343175084, 0.04538848857330666], [-0.11442247498636825, 0.3203087976624053], [0.11424952152856681, 0.31372813630522095], [0.2743618672110132, 0.19233036806743029]]",density,black,,,D002,visual,1,[],"['1', '2', '3', '4']",1,2023.2.3,harveyvisual,2.1,[],8,0.75,
0,pause,0.4,None,None,None,0,79,79,79,,,,,,,,,,,,,D002,visual,1,[],"['1', '2', '3', '4']",1,2023.2.3,harveyvisual,2.1,[],8,0.75,
7,dot,0.3,['dot'],['density'],black,0,80,80,80,,,30.40021300315857,30.108338117599487,30.40836000442505,dot,"[0.08, 0.06, 0.08, 0.06, 0.06, 0.1, 0.06]","[[-0.2314520007693297, 0.33838000150240727], [-0.18132207761103206, 0.5552670473927488], [0.017458222085991553, 0.32213086183097556], [0.10538257653630445, 0.5364165263315271], [-0.32661765694444117, 0.13553859080651098], [0.2001110614088519, 0.2352342526365964], [-0.07707990285528175, 0.1388757586163816]]",density,black,,,D002,visual,1,[],"['1', '2', '3', '4']",1,2023.2.3,harveyvisual,2.1,[],8,0.75,
0,pause,0.4,None,None,None,0,81,81,81,,,,,,,,,,,,,D002,visual,1,[],"['1', '2', '3', '4']",1,2023.2.3,harveyvisual,2.1,[],8,0.75,
7,dot,0.3,['dot'],['density'],black,0,82,82,82,,,31.1002140045166,30.808362007141113,31.108246088027954,dot,"[0.06, 0.06, 0.1, 0.08, 0.06, 0.08, 0.08]","[[0.3899189512010899, -0.40728696153528776], [0.20392863561369634, -0.3305625840210526], [0.31626985815109576, 0.13567824844623666], [0.5017338684339655, -0.028549680114735937], [0.11648855723187378, -0.1078833072829627], [0.07041138378868489, 0.08730219371944997], [0.32910598476010167, -0.13660711058181768]]",density,black,,,D002,visual,1,[],"['1', '2', '3', '4']",1,2023.2.3,harveyvisual,2.1,[],8,0.75,
0,pause,0.4,None,None,None,0,83,83,83,,,,,,,,,,,,,D002,visual,1,[],"['1', '2', '3', '4']",1,2023.2.3,harveyvisual,2.1,[],8,0.75,
8,dot,0.3,['dot'],['density'],black,0,84,84,84,,,31.800209045410156,31.50825309753418,31.808242082595825,dot,"[0.06, 0.1, 0.08, 0.1, 0.06, 0.08, 0.06, 0.06]","[[0.4359105889063985, -0.17362457700912998], [-0.10421753759268779, -0.0599030042764737], [0.3870326705858601, 0.24174009796940588], [0.2566713073165989, 0.014561377540278508], [0.2306797840234149, -0.3263374489921181], [0.47690301692068965, 0.04601699051563034], [0.08674944532705724, -0.15383855565976665], [0.03609124925759635, 0.09790267139194009]]",density,black,,,D002,visual,1,[],"['1', '2', '3', '4']",1,2023.2.3,harveyvisual,2.1,[],8,0.75,
0,pause,0.4,None,None,None,0,85,85,85,,,,,,,,,,,,,D002,visual,1,[],"['1', '2', '3', '4']",1,2023.2.3,harveyvisual,2.1,[],8,0.75,
8,dot,0.3,['dot'],['density'],black,0,86,86,86,,,32.50022101402283,32.208229064941406,32.508224964141846,dot,"[0.1, 0.06, 0.06, 0.08, 0.06, 0.06, 0.08, 0.06]","[[-0.16499387414028463, -0.418455346753131], [0.031011941373623824, -0.006148034068666969], [-0.4150712424924157, -0.28668557629476243], [-0.199054958380199, -0.21375968732837633], [-0.4870789535587041, 0.00515905815181239], [-0.198479811208303, 0.006815000109153054], [-0.3273741662815474, 0.19008037141614484], [0.04340096687518584, -0.25044408321713213]]",density,black,,,D002,visual,1,[],"['1', '2', '3', '4']",1,2023.2.3,harveyvisual,2.1,[],8,0.75,
0,pause,0.4,None,None,None,0,87,87,87,,,,,,,,,,,,,D002,visual,1,[],"['1', '2', '3', '4']",1,2023.2.3,harveyvisual,2.1,[],8,0.75,
8,dot,0.3,['dot'],['density'],black,0,88,88,88,,,33.200194120407104,32.9082350730896,33.20820903778076,dot,"[0.06, 0.1, 0.08, 0.1, 0.1, 0.1, 0.1, 0.08]","[[0.17295790489511154, -0.46037743866749825], [0.1416591427765588, 0.05421051799673566], [0.21994266958916148, -0.13656690113679631], [0.3639906379971415, 0.0627265571221228], [0.015481321741344221, -0.13916897583717935], [0.440802488837635, -0.2883976186876931], [0.5157567705321767, -0.08800602901884749], [0.24768837887357187, 0.24424825162618136]]",density,black,,,D002,visual,1,[],"['1', '2', '3', '4']",1,2023.2.3,harveyvisual,2.1,[],8,0.75,
0,pause,0.4,None,None,None,0,89,89,89,,,,,,,,,,,,,D002,visual,1,[],"['1', '2', '3', '4']",1,2023.2.3,harveyvisual,2.1,[],8,0.75,
8,dot,0.3,['dot'],['density'],black,0,90,90,90,,,33.9002161026001,33.60821008682251,33.90820097923279,dot,"[0.08, 0.1, 0.08, 0.08, 0.06, 0.1, 0.06, 0.06]","[[-0.3306282708070712, -0.09459634407206743], [0.17708038186302957, -0.36794437316098305], [-0.34368294577136044, -0.39688855169369486], [-0.16397220561896333, 0.03033928826277653], [-0.08476975953586025, -0.41834960305423746], [-0.16765121495786453, -0.2265743681515788], [0.0449590487082352, -0.10546915507075137], [-0.5574709661459258, -0.15664368712912546]]",density,black,,,D002,visual,1,[],"['1', '2', '3', '4']",1,2023.2.3,harveyvisual,2.1,[],8,0.75,
0,pause,0.4,None,None,None,0,91,91,91,,,,,,,,,,,,,D002,visual,1,[],"['1', '2', '3', '4']",1,2023.2.3,harveyvisual,2.1,[],8,0.75,
8,dot,0.3,['dot'],['density'],black,0,92,92,92,,,34.6002140045166,34.30820107460022,34.60804605484009,dot,"[0.08, 0.1, 0.1, 0.1, 0.06, 0.06, 0.06, 0.06]","[[0.11895989691250043, -0.4531686673706004], [-0.16516506104640707, -0.03240926074491446], [0.03539791161122963, 0.017706842047032937], [0.2602726326243711, -0.2021454296306109], [-0.07993394910368964, -0.42305571474287856], [-0.2833532244481061, -0.22994433794129646], [0.3633812293108319, -0.4186270945829863], [-0.04042382183071007, -0.1991401458565282]]",density,black,,,D002,visual,1,[],"['1', '2', '3', '4']",1,2023.2.3,harveyvisual,2.1,[],8,0.75,
0,pause,0.4,None,None,None,0,93,93,93,,,,,,,,,,,,,D002,visual,1,[],"['1', '2', '3', '4']",1,2023.2.3,harveyvisual,2.1,[],8,0.75,
8,dot,0.3,['dot'],['density'],black,0,94,94,94,,,35.300212144851685,35.008074045181274,35.308178186416626,dot,"[0.08, 0.08, 0.08, 0.1, 0.06, 0.06, 0.08, 0.08]","[[-0.3265204970111284, 0.22652760434067618], [0.11129643684023392, 0.07926950251467085], [0.07893474341784651, 0.4315681374945237], [-0.2000017914838315, -0.08445279674287073], [-0.29956068591909263, 0.4664910923320479], [-0.09828291121522204, 0.1483319570086381], [0.07400994184747142, -0.11883630301138211], [-0.12650192453358844, 0.35264367728062257]]",density,black,,,D002,visual,1,[],"['1', '2', '3', '4']",1,2023.2.3,harveyvisual,2.1,[],8,0.75,
0,pause,0.4,None,None,None,0,95,95,95,,,,,,,,,,,,,D002,visual,1,[],"['1', '2', '3', '4']",1,2023.2.3,harveyvisual,2.1,[],8,0.75,
9,dot,0.3,['dot'],['density'],black,0,96,96,96,,,36.00019907951355,35.708019971847534,36.00800919532776,dot,"[0.08, 0.06, 0.06, 0.08, 0.06, 0.08, 0.08, 0.1, 0.08]","[[-0.011980588702785358, -0.14271344386551676], [-0.15345504415890063, -0.3599837049237609], [0.2909474261289129, -0.3591516282942406], [0.16239073734315843, -0.5386624114967425], [0.2227638828830022, -0.11271380419745088], [0.06426208015886789, 0.04859175461581491], [-0.3648571389210414, -0.3413683676300365], [0.3831858227582706, 0.019718563726728144], [0.06479696894599615, -0.3534524636945761]]",density,black,,,D002,visual,1,[],"['1', '2', '3', '4']",1,2023.2.3,harveyvisual,2.1,[],8,0.75,
0,pause,0.4,None,None,None,0,97,97,97,,,,,,,,,,,,,D002,visual,1,[],"['1', '2', '3', '4']",1,2023.2.3,harveyvisual,2.1,[],8,0.75,
9,dot,0.3,['dot'],['density'],black,0,98,98,98,,,36.70020318031311,36.407999992370605,36.70794200897217,dot,"[0.1, 0.08, 0.08, 0.06, 0.1, 0.06, 0.08, 0.06, 0.08]","[[-0.25982930089867384, 0.41046177320377714], [0.2391912210628672, 0.4152301159030731], [-0.011899047454085643, 0.5103750441914148], [0.15826907621474634, 0.20577518054892585], [-0.29033424199965224, 0.2058356795488901], [-0.056026696670660174, 0.08152775180209879], [-0.32571421803823364, -0.002973879155612714], [0.39820859476685, 0.29236875228581105], [-0.06367065787951752, 0.28966088639372295]]",density,black,,,D002,visual,1,[],"['1', '2', '3', '4']",1,2023.2.3,harveyvisual,2.1,[],8,0.75,
0,pause,0.4,None,None,None,0,99,99,99,,,,,,,,,,,,,D002,visual,1,[],"['1', '2', '3', '4']",1,2023.2.3,harveyvisual,2.1,[],8,0.75,
9,dot,0.3,['dot'],['density'],black,0,100,100,100,,,37.4002001285553,37.10795617103577,37.40791916847229,dot,"[0.06, 0.08, 0.08, 0.06, 0.1, 0.06, 0.06, 0.08, 0.1]","[[-0.23139737267821464, 0.4582894628988488], [-0.22563640623437264, 0.09161215191469056], [0.08653997658409265, 0.18408404769425912], [-0.34134765149242685, 0.2795210921938051], [-0.45752590330905135, 0.08752711185150099], [-0.035040587470716034, -0.07657027701648178], [-0.27120713465948276, -0.1309343981320133], [-0.3537313425617488, -0.374673418779248], [-0.09309732942360581, 0.2754840453600595]]",density,black,,,D002,visual,1,[],"['1', '2', '3', '4']",1,2023.2.3,harveyvisual,2.1,[],8,0.75,
0,pause,0.4,None,None,None,0,101,101,101,,,,,,,,,,,,,D002,visual,1,[],"['1', '2', '3', '4']",1,2023.2.3,harveyvisual,2.1,[],8,0.75,
9,dot,0.3,['dot'],['density'],black,0,102,102,102,,,38.10021710395813,37.807937145233154,38.10790205001831,dot,"[0.08, 0.1, 0.08, 0.08, 0.06, 0.08, 0.06, 0.06, 0.08]","[[-0.03413633707233166, 0.539775862693792], [0.03045342777742709, 0.14881397110038386], [0.3968101769942594, 0.3516381959676015], [-0.12464897846505978, 0.27513009849494485], [0.24828272947848068, 0.13372878599656182], [0.1825630446668698, 0.5466865974155928], [-0.40057775338259505, 0.3148646888607764], [0.06988801613907401, -0.06658504348068199], [0.07277149512897427, 0.3699912437376705]]",density,black,,,D002,visual,1,[],"['1', '2', '3', '4']",1,2023.2.3,harveyvisual,2.1,[],8,0.75,
0,pause,0.4,None,None,None,0,103,103,103,,,,,,,,,,,,,D002,visual,1,[],"['1', '2', '3', '4']",1,2023.2.3,harveyvisual,2.1,[],8,0.75,
9,dot,0.3,['dot'],['density'],black,0,104,104,104,,,38.80021810531616,38.507904052734375,38.80789804458618,dot,"[0.06, 0.1, 0.1, 0.06, 0.1, 0.06, 0.1, 0.1, 0.06]","[[-0.06218673389315922, -0.4689115343027075], [0.3660477402554353, -0.15396192139437054], [0.1401329754895462, -0.14262156541192547], [0.12293598154832706, -0.38779640022673934], [0.42645158233284447, -0.3607859009111275], [-0.06238477126329685, -0.2564764349502154], [-0.2584688277182379, -0.29964401945706215], [-0.11312192996032899, -0.05439345917292958], [0.19096873654163896, 0.1321853744035435]]",density,black,,,D002,visual,1,[],"['1', '2', '3', '4']",1,2023.2.3,harveyvisual,2.1,[],8,0.75,
0,pause,0.4,None,None,None,0,105,105,105,,,,,,,,,,,,,D002,visual,1,[],"['1', '2', '3', '4']",1,2023.2.3,harveyvisual,2.1,[],8,0.75,
9,dot,0.3,['dot'],['density'],black,0,106,106,106,,,39.50020909309387,39.207870960235596,39.50787115097046,dot,"[0.08, 0.06, 0.08, 0.06, 0.08, 0.06, 0.08, 0.1, 0.08]","[[-0.05049485011715354, 0.3013521193238899], [0.15354596755057998, 0.36785015051376163], [0.22995749783639982, 0.07309138415424772], [0.13460311710395165, -0.18603378415368982], [0.33097739113381164, -0.13822260855557728], [-0.16464148731134703, 0.07190493829483618], [0.521154897315396, -0.007803673430992942], [0.02684304494395013, 0.0018704401699241912], [-0.15545279255173522, -0.15329938800760382]]",density,black,,,D002,visual,1,[],"['1', '2', '3', '4']",1,2023.2.3,harveyvisual,2.1,[],8,0.75,
0,pause,0.4,None,None,None,0,107,107,107,,,,,,,,,,,,,D002,visual,1,[],"['1', '2', '3', '4']",1,2023.2.3,harveyvisual,2.1,[],8,0.75,
20,dot,0.3,['dot'],['density'],black,0,108,108,108,,,40.20021414756775,39.924556016922,40.20783996582031,dot,"[0.1, 0.06, 0.06, 0.06, 0.1, 0.08, 0.06, 0.06, 0.06, 0.1, 0.1, 0.08, 0.08, 0.08, 0.1, 0.1, 0.06, 0.08, 0.1, 0.08]","[[0.4419332970399453, -0.3082455990694193], [0.011727592106846041, -0.26774131852854804], [0.2763815108716803, -0.14777287383255527], [0.5464558740324251, -0.09994904432210078], [-0.5971934098264835, -0.05325257371742806], [0.3031441516900123, 0.2545226726829679], [0.03186981736414185, -0.46609811337374857], [0.3985625932747713, 0.44232898232139517], [-0.1310794157430985, 0.29135075777031405], [0.07588286732495952, 0.04738874325981035], [-0.19745102117331526, -0.08236417117874867], [-0.03874269133217201, 0.4590074131834426], [0.21241558807785765, 0.5652251343510379], [-0.3164907291703906, 0.3542746297665941], [-0.22627078950725243, -0.5488233230207504], [-0.3437044071394056, -0.38059959307161206], [0.522553590648391, 0.14264415349999016], [-0.4568972274180294, 0.1696484523597543], [0.3512359460477651, 0.034083432692918025], [-0.5246085324721139, -0.23280821472056593]]",density,black,,,D002,visual,1,[],"['1', '2', '3', '4']",1,2023.2.3,harveyvisual,2.1,[],8,0.75,
0,pause,0.4,None,None,None,0,109,109,109,,,,,,,,,,,,,D002,visual,1,[],"['1', '2', '3', '4']",1,2023.2.3,harveyvisual,2.1,[],8,0.75,
20,dot,0.3,['dot'],['density'],black,0,110,110,110,,,40.900197982788086,40.624531984329224,40.90786004066467,dot,"[0.08, 0.1, 0.08, 0.08, 0.1, 0.08, 0.06, 0.06, 0.06, 0.1, 0.06, 0.06, 0.06, 0.1, 0.08, 0.1, 0.1, 0.06, 0.1, 0.08]","[[-0.1353305370881167, -0.5710149260118614], [-0.3010425937464042, 0.11312000262027921], [-0.5393412975787898, 0.19795444238915821], [0.09486919438159747, 0.5509934655852248], [0.5622927311759957, 0.06968980329644581], [0.08799689790022247, -0.5575037682175157], [-0.25429968379383744, 0.3832152523064314], [0.39430139991024604, 0.20644060608483655], [-0.4933608645209562, -0.19717649722054886], [-0.27557155536444816, -0.4091798231417742], [-0.0031140068297923484, -0.22051059208184337], [0.3992378743899566, -0.1754908554347676], [0.10332353246883796, 0.3216774021934915], [0.5852544393991862, -0.12225521625079927], [0.21182498329123867, 0.042682239249955845], [-0.2680364329878084, -0.0892502705552381], [-0.06801705041162898, 0.13679297935270518], [0.40361977742440047, 0.44578479339723187], [0.431695669375347, -0.4041868790299568], [0.2476517051727497, -0.32651626297072184]]",density,black,,,D002,visual,1,[],"['1', '2', '3', '4']",1,2023.2.3,harveyvisual,2.1,[],8,0.75,
0,pause,0.4,None,None,None,0,111,111,111,,,,,,,,,,,,,D002,visual,1,[],"['1', '2', '3', '4']",1,2023.2.3,harveyvisual,2.1,[],8,0.75,
20,dot,0.3,['dot'],['density'],black,0,112,112,112,,,41.600205183029175,41.32449197769165,41.60779619216919,dot,"[0.1, 0.1, 0.1, 0.08, 0.06, 0.08, 0.06, 0.1, 0.1, 0.1, 0.06, 0.06, 0.06, 0.08, 0.08, 0.06, 0.08, 0.06, 0.08, 0.08]","[[-0.01202585886505414, -0.40364790960415164], [-0.12315538235511081, 0.050177021879962314], [-0.2388879631971284, -0.15274282118438404], [-0.2781475769028268, 0.22642468972642882], [0.24010430572780528, 0.399190200533617], [-0.4547807993132783, 0.11763281060973568], [0.484506119792797, 0.3535986931630537], [0.04526236271496642, 0.15429189750823102], [-0.03356257528644335, -0.19796856091227844], [0.2187504510263778, -0.14861524813927368], [-0.588605167428401, -0.07548882971820878], [0.37020540209850805, 0.024724476629491843], [0.602336755805286, 0.015861949125724445], [0.471395531576165, -0.15576114647872474], [0.3226183056708013, -0.3272061677537933], [-0.17666199748790845, -0.5484135702587215], [-0.1362950688199896, 0.465970770942171], [-0.3277966377631348, 0.43585378371051253], [-0.46419994698593015, -0.27584419044357944], [0.19856178810161385, -0.5294674897124894]]",density,black,,,D002,visual,1,[],"['1', '2', '3', '4']",1,2023.2.3,harveyvisual,2.1,[],8,0.75,
0,pause,0.4,None,None,None,0,113,113,113,,,,,,,,,,,,,D002,visual,1,[],"['1', '2', '3', '4']",1,2023.2.3,harveyvisual,2.1,[],8,0.75,
20,dot,0.3,['dot'],['density'],black,0,114,114,114,,,42.300217151641846,42.02448010444641,42.30779314041138,dot,"[0.08, 0.1, 0.08, 0.08, 0.1, 0.06, 0.08, 0.1, 0.1, 0.06, 0.06, 0.08, 0.08, 0.06, 0.1, 0.1, 0.06, 0.06, 0.1, 0.1]","[[0.1642033132417131, -0.08876375755848648], [-0.2791061357089117, 0.14770634195724042], [0.05505215542415809, -0.42633261586390947], [-0.33263538091566563, -0.45864041328662775], [0.4233946730997461, -0.09989456517717216], [0.39372829330961523, -0.2978108815668471], [-0.3487439586619339, 0.47652005131101943], [0.1054665372315361, 0.3016118347640845], [-0.0028610048919983644, 0.6027742502472051], [-0.5724192330334704, 0.1846063078448027], [-0.41213626135135717, -0.1680881546307279], [0.3125434288594052, 0.36083515744452865], [-0.1339942350061975, 0.3646703462341935], [0.5573092691603324, 0.07107954596672442], [-0.07751297234843646, -0.595541820109729], [0.27830793233226436, 0.10423682463629624], [-0.12259989944238525, -0.030232909060361357], [0.21319754690624082, -0.5397714502849664], [-0.6045395703599268, -0.005246951607863898], [0.5097553979422288, 0.2831101070725066]]",density,black,,,D002,visual,1,[],"['1', '2', '3', '4']",1,2023.2.3,harveyvisual,2.1,[],8,0.75,
0,pause,0.4,None,None,None,0,115,115,115,,,,,,,,,,,,,D002,visual,1,[],"['1', '2', '3', '4']",1,2023.2.3,harveyvisual,2.1,[],8,0.75,
20,dot,0.3,['dot'],['density'],black,0,116,116,116,,,43.000216007232666,42.7244770526886,43.007802963256836,dot,"[0.06, 0.06, 0.06, 0.06, 0.1, 0.06, 0.06, 0.06, 0.06, 0.1, 0.1, 0.06, 0.1, 0.08, 0.1, 0.1, 0.06, 0.08, 0.06, 0.06]","[[0.4668563939796898, -0.015127531949654327], [-0.5799512937848758, -0.16600105912664104], [-0.14824193149564824, 0.3271838891761868], [0.3676869893006406, -0.3612885157078314], [-0.09719320012057064, -0.3057595303749614], [-0.5086737237796695, 0.023452639147973187], [0.2973327305616197, -0.11056683261926603], [-0.05635830150990773, 0.49953364971343184], [0.35999639377145176, 0.28056879437464777], [0.1483940025091105, -0.3312957748018888], [-0.3597869585756941, -0.13891447245576577], [-0.07664343346468172, -0.004224782507827429], [-0.21345672310167113, -0.5293759349867018], [0.1214862257936391, -0.01824593875607816], [-0.38907496311143075, -0.3563196373405998], [0.2826109292606187, 0.5262795244708244], [-0.5403158640978032, 0.23329169250319703], [0.16906113548129198, 0.20195648623295626], [-0.0044232844513342195, -0.5286594155052129], [0.5725205924092883, 0.16433072318488223]]",density,black,,,D002,visual,1,[],"['1', '2', '3', '4']",1,2023.2.3,harveyvisual,2.1,[],8,0.75,
0,pause,0.4,None,None,None,0,117,117,117,,,,,,,,,,,,,D002,visual,1,[],"['1', '2', '3', '4']",1,2023.2.3,harveyvisual,2.1,[],8,0.75,
20,dot,0.3,['dot'],['density'],black,0,118,118,118,,,43.70020818710327,43.42444396018982,43.707751989364624,dot,"[0.1, 0.06, 0.06, 0.08, 0.1, 0.06, 0.1, 0.06, 0.1, 0.06, 0.08, 0.06, 0.06, 0.08, 0.1, 0.1, 0.1, 0.1, 0.1, 0.08]","[[-0.40850179179344953, 0.29650623744796045], [0.35030022745396727, -0.48669021600892626], [-0.5596590684348431, -0.13262632124107998], [-0.3140668909439899, 0.05807527678220603], [0.08370773841962609, -0.5290768990107588], [-0.20903281143148467, -0.43356978359292964], [0.16833317647083157, 0.07791525630978058], [0.3867995668925175, 0.39266052515547223], [-0.07043885463636024, -0.2916699758673036], [-0.021281055262365345, 0.12313921633611202], [0.39158826015315606, 0.10919612684662383], [0.4744743162268682, -0.2877139481941373], [0.02976657294144669, 0.37683751290482825], [-0.3693859621942614, -0.27068958389250025], [-0.5414096292347669, 0.057360096667831206], [0.11418642587051842, 0.5936274030629989], [0.20634195396209742, -0.24397223400469303], [0.5419740707261543, -0.04208722672658341], [-0.19408516263761588, 0.38463168228110134], [-0.22989112745509926, -0.13687440375824644]]",density,black,,,D002,visual,1,[],"['1', '2', '3', '4']",1,2023.2.3,harveyvisual,2.1,[],8,0.75,
0,pause,0.4,None,None,None,0,119,119,119,,,,,,,,,,,,,D002,visual,1,[],"['1', '2', '3', '4']",1,2023.2.3,harveyvisual,2.1,[],8,0.75,
20,dot,0.3,['dot'],['density'],white,0,120,120,120,,,44.40021109580994,44.12442708015442,44.4078049659729,dot,"[0.06, 0.06, 0.06, 0.1, 0.06, 0.08, 0.08, 0.08, 0.06, 0.06, 0.1, 0.1, 0.08, 0.06, 0.08, 0.06, 0.1, 0.08, 0.08, 0.08]","[[0.5163087748808556, 0.2949521344683364], [-0.3126273798016087, -0.4289173975576532], [-0.4824241661172708, 0.19281023799760544], [0.23121859106589293, -0.31810722240804123], [0.3672024917268635, -0.13691956585161452], [0.24287102512444092, 0.031171048022609393], [0.4380758345980237, -0.3530719229092323], [-0.5592003834816475, -0.14101007453909725], [0.004205795416906466, 0.33006457129439626], [0.5511650843422878, 0.06416168983057607], [-0.14308094955679967, -0.5871814281050247], [0.014057652763863504, -0.22060970804998176], [-0.2582449437619164, 0.29858274583528976], [0.14933037097565915, 0.5158374453289318], [-0.18691832146410664, -0.2746503257159844], [0.2822283880202133, 0.2983625580422391], [-0.16375689306746705, -0.01662592806024965], [-0.38309893875127604, -0.24511703842052238], [-0.3757021652114897, -0.007027662226756215], [0.5602693754486404, -0.20252990480453636]]",density,white,,,D002,visual,1,[],"['1', '2', '3', '4']",1,2023.2.3,harveyvisual,2.1,[],8,0.75,
0,pause,0.4,None,None,None,0,121,121,121,,,,,,,,,,,1,44.564602851867676,D002,visual,1,[],"['1', '2', '3', '4']",1,2023.2.3,harveyvisual,2.1,[],8,0.75,
20,dot,0.3,['dot'],['density'],black,0,122,122,122,,,45.10021209716797,44.82447600364685,45.10778212547302,dot,"[0.06, 0.06, 0.08, 0.06, 0.1, 0.1, 0.08, 0.08, 0.06, 0.06, 0.06, 0.08, 0.1, 0.06, 0.1, 0.08, 0.1, 0.08, 0.1, 0.06]","[[-0.3496264139211446, 0.4381468472560705], [0.596982879551956, -0.0812174913182142], [0.030802416591626414, -0.17331550471750046], [-0.4941196751568109, -0.030894494898084435], [0.375499003097832, 0.44124931232478704], [-0.22724129949506572, -0.26718886789821983], [-0.15580732994822344, 0.22566808657975168], [0.35005361679293334, -0.0017274375529171548], [0.014245130151205765, 0.536355906382707], [0.23341636759203666, -0.3224303082247768], [0.456060030134115, -0.3343439555775286], [-0.18168458909310825, -0.5236772911078622], [0.294384615059045, -0.5126171764608816], [0.46763625600074776, 0.2737107777564776], [-0.4511843640234068, -0.27468364135267065], [0.11884249194746, 0.05693037746002527], [0.2269235883786873, 0.213676710441294], [-0.5167679082290637, 0.26241330018084286], [-0.10261061330003551, 0.03559927658988615], [-0.17694825321897562, 0.5267227394842994]]",density,black,,,D002,visual,1,[],"['1', '2', '3', '4']",1,2023.2.3,harveyvisual,2.1,[],8,0.75,
0,pause,0.4,None,None,None,0,123,123,123,,,,,,,,,,,,,D002,visual,1,[],"['1', '2', '3', '4']",1,2023.2.3,harveyvisual,2.1,[],8,0.75,
20,dot,0.3,['dot'],['density'],black,0,124,124,124,,,45.80019998550415,45.52446007728577,45.80767107009888,dot,"[0.1, 0.06, 0.06, 0.1, 0.1, 0.1, 0.08, 0.1, 0.08, 0.06, 0.1, 0.08, 0.08, 0.06, 0.08, 0.06, 0.08, 0.06, 0.06, 0.06]","[[-0.2727423193631833, -0.05678426386057378], [-0.12892384535861695, 0.557630864725636], [-0.39858691600693674, 0.3578148103788158], [0.2784201386162217, 0.2383340100682999], [0.2106308362179593, -0.25094199511162596], [0.17193792325340518, 0.00890583896963315], [0.4604011726525169, 0.3831791194936213], [-0.13839241192081142, 0.27486407624391485], [-0.47516421842590967, -0.15082240520798781], [0.4252835209475144, 0.006154277240664807], [0.47641280603788283, -0.2332254493107672], [0.079700927338335, 0.22703178519957667], [0.22483542874592688, 0.538198757446761], [0.17385723955494248, -0.47808326699481796], [-0.4753807487307008, 0.04488951265918889], [-0.23283094987824415, -0.273802191517257], [0.041492224675317324, -0.14687491347652964], [-0.0774201665868014, -0.5368297248259551], [-0.2926848877301491, -0.49656816940664894], [-0.4791760793065924, -0.3611667878915236]]",density,black,,,D002,visual,1,[],"['1', '2', '3', '4']",1,2023.2.3,harveyvisual,2.1,[],8,0.75,
0,pause,0.4,None,None,None,0,125,125,125,,,,,,,,,,,,,D002,visual,1,[],"['1', '2', '3', '4']",1,2023.2.3,harveyvisual,2.1,[],8,0.75,
20,dot,0.3,['dot'],['density'],black,0,126,126,126,,,46.50019717216492,46.22434210777283,46.50769305229187,dot,"[0.06, 0.06, 0.06, 0.1, 0.1, 0.08, 0.08, 0.08, 0.08, 0.1, 0.1, 0.1, 0.08, 0.08, 0.1, 0.06, 0.08, 0.06, 0.1, 0.1]","[[0.32507824640837546, -0.10532072959146088], [-0.2885750334663301, 0.06171232471830845], [0.055903082412664284, 0.3704608426992472], [0.2073742604240454, -0.32720683142576806], [0.18603605394413403, 0.2135152868334823], [-0.5646636028995746, 0.10709499518669713], [0.2993105734535354, 0.5248241313816236], [0.48963178777951144, 0.2405106065549183], [-0.18680757868399722, -0.41374885670475636], [-0.23572590168981722, 0.34395988402759503], [-0.34544242154580007, -0.2557695845931075], [0.040680385214503345, -0.22166748126806513], [0.1744482650278234, -0.556496354434318], [0.5046063612158908, -0.21694878775500065], [-0.5421503164133727, -0.14866553458912624], [0.5802558200837217, 0.07326163474096062], [-0.04534445979233881, 0.5704725504204066], [-0.010179039648083532, 0.041855053739383585], [-0.4695858801285525, 0.2749958064286483], [-0.1401515606502935, -0.117271802482108]]",density,black,,,D002,visual,1,[],"['1', '2', '3', '4']",1,2023.2.3,harveyvisual,2.1,[],8,0.75,
0,pause,0.4,None,None,None,0,127,127,127,,,,,,,,,,,,,D002,visual,1,[],"['1', '2', '3', '4']",1,2023.2.3,harveyvisual,2.1,[],8,0.75,
20,dot,0.3,['dot'],['density'],black,0,128,128,128,,,47.200206995010376,46.92435097694397,47.20766496658325,dot,"[0.06, 0.08, 0.08, 0.06, 0.1, 0.1, 0.1, 0.08, 0.1, 0.1, 0.08, 0.08, 0.08, 0.08, 0.08, 0.1, 0.1, 0.06, 0.06, 0.06]","[[0.04995644108493613, -0.024095863580202215], [-0.006871698182953412, 0.19762857427358094], [-0.5587756262808344, -0.05487634306945824], [-0.4029933606769204, -0.21977080242080083], [-0.15838012368521787, -0.33369663711328557], [-0.2637780642999553, -0.029518541300724843], [0.5502901106601535, -0.0820701579020354], [0.21079521796346723, -0.36793300626394554], [-0.41077173999610267, 0.2729437128667675], [-0.17661019673116335, 0.4828287899662196], [0.46063023689620175, 0.27934628594913263], [0.2464221722258768, 0.41034151188644263], [0.5209563109880823, -0.27613853697966617], [-0.34801005914382527, -0.4136103058330821], [0.03465083546207315, -0.5754979445059815], [0.20092931581046303, -0.1716623351889056], [0.2199941151046525, 0.199129256239018], [-0.20915681305464573, -0.5618869049521436], [-0.572256934800225, 0.15039940760320838], [-0.22126628829499045, 0.2264665738895203]]",density,black,,,D002,visual,1,[],"['1', '2', '3', '4']",1,2023.2.3,harveyvisual,2.1,[],8,0.75,
0,pause,0.4,None,None,None,0,129,129,129,,,,,,,,,,,,,D002,visual,1,[],"['1', '2', '3', '4']",1,2023.2.3,harveyvisual,2.1,[],8,0.75,
20,dot,0.3,['dot'],['density'],black,0,130,130,130,,,47.90021204948425,47.624351978302,47.90768313407898,dot,"[0.06, 0.1, 0.06, 0.1, 0.06, 0.06, 0.1, 0.06, 0.06, 0.1, 0.08, 0.06, 0.1, 0.08, 0.08, 0.08, 0.08, 0.06, 0.1, 0.08]","[[0.15100503369341334, 0.4688908535287093], [0.2711386866172075, 0.1753899881182167], [0.24019455149519142, -0.15661372875645946], [0.3888544116910656, 0.42214553093692386], [0.06821202002379834, -0.022752345792201867], [-0.24911650169296512, 0.35974164535403597], [-0.10757841171562588, 0.07794364048672586], [-0.24216024547691573, -0.5516747055459246], [-0.545731261212649, -0.18171092106597092], [-0.5186364683446879, 0.1911847972304977], [0.44044705314679355, -0.3179567452829305], [-0.03371416474840161, -0.5460440866464121], [0.5381697168675564, 0.24676884498588164], [-0.41970998782814983, -0.36892518864128565], [-0.2976484341985804, -0.01792246047665058], [0.4518986777596897, -0.1016028821073296], [-0.14196471470952887, -0.30972025084215155], [0.178062611231675, -0.3549121357539807], [-0.13206045080416212, 0.5319431774161699], [0.5720174403779247, 0.04851548416250917]]",density,black,,,D002,visual,1,[],"['1', '2', '3', '4']",1,2023.2.3,harveyvisual,2.1,[],8,0.75,
0,pause,0.4,None,None,None,0,131,131,131,,,,,,,,,,,,,D002,visual,1,[],"['1', '2', '3', '4']",1,2023.2.3,harveyvisual,2.1,[],8,0.75,
20,dot,0.3,['dot'],['density'],black,0,132,132,132,,,48.6002151966095,48.32428503036499,48.60761117935181,dot,"[0.08, 0.1, 0.08, 0.08, 0.1, 0.06, 0.08, 0.08, 0.08, 0.06, 0.08, 0.1, 0.06, 0.1, 0.08, 0.06, 0.06, 0.1, 0.08, 0.08]","[[0.30230394468188093, 0.015237527782215543], [0.13177270368469507, -0.39501176500302004], [-0.274051150491383, 0.23624187631009308], [0.134832477863838, 0.2138661752152332], [0.12529711787352327, 0.5419070816604986], [0.271587295126424, -0.19920919623934696], [-0.5638180332106425, -0.1022757545568882], [-0.34531096901921465, -0.08553090696269472], [0.5981211641632936, 0.03631243698581112], [-0.1688093024876392, 0.574240251191466], [-0.12175562261360479, -0.3959842095363033], [-0.5176410156309119, 0.08933611862431434], [-0.012362290202657888, 0.08323144429302809], [-0.05251815347132249, 0.2837368808509203], [0.3941119628799651, 0.30831724105358344], [-0.06497696866490843, -0.12578437340919474], [-0.446792141075646, -0.3041871608550151], [-0.4404454835932969, 0.39404835586127956], [0.4772994066289632, -0.3462235419151941], [0.5496973626559026, -0.16780834769226244]]",density,black,,,D002,visual,1,[],"['1', '2', '3', '4']",1,2023.2.3,harveyvisual,2.1,[],8,0.75,
0,pause,0.4,None,None,None,0,133,133,133,,,,,,,,,,,,,D002,visual,1,[],"['1', '2', '3', '4']",1,2023.2.3,harveyvisual,2.1,[],8,0.75,
20,dot,0.3,['dot'],['density'],white,0,134,134,134,,,49.300204038619995,49.02427816390991,49.3075909614563,dot,"[0.08, 0.06, 0.1, 0.08, 0.06, 0.08, 0.1, 0.08, 0.06, 0.1, 0.1, 0.06, 0.08, 0.08, 0.1, 0.06, 0.06, 0.1, 0.1, 0.06]","[[0.2556634293615946, 0.42560284649170144], [-0.2905054622985115, 0.1698113033416898], [-0.5196946442892414, -0.11133118131798062], [0.18718595249853975, -0.32975028950310287], [-0.5451556700879522, 0.25200184483581434], [0.3779027427554036, 0.08132935125754032], [0.12939220913261917, 0.13929012692856169], [0.5828931297217367, 0.031517107373580044], [-0.026114112894313868, -0.23267979832710461], [0.06488962065980253, -0.049154838448214444], [-0.3249283522325746, -0.4421659961661751], [0.03659470639219953, 0.3421675355330991], [0.4091895819445571, -0.4326456865149864], [0.41199201232634464, -0.1470260773666714], [0.05421146773783769, 0.5432526665401041], [-0.2789048451318257, -0.22378002538970027], [0.02404320914998659, -0.46568229291688557], [-0.19649096192039228, 0.49299008723674786], [0.5285018192423286, 0.2802202470986407], [-0.08310915220262916, 0.10465918434740351]]",density,white,,,D002,visual,1,[],"['1', '2', '3', '4']",1,2023.2.3,harveyvisual,2.1,[],8,0.75,
0,pause,0.4,None,None,None,0,135,135,135,,,,,,,,,,,1,49.45331597328186,D002,visual,1,[],"['1', '2', '3', '4']",1,2023.2.3,harveyvisual,2.1,[],8,0.75,
20,dot,0.3,['dot'],['density'],black,0,136,136,136,,,50.00020718574524,49.72425103187561,50.007572174072266,dot,"[0.1, 0.08, 0.06, 0.1, 0.08, 0.08, 0.1, 0.08, 0.06, 0.1, 0.1, 0.06, 0.1, 0.1, 0.06, 0.1, 0.08, 0.08, 0.06, 0.1]","[[0.06264530173707472, 0.21761362652514105], [0.4800421578898214, 0.3248098112374819], [0.35783169988702457, -0.4471801397819768], [-0.1741556310734485, 0.03057235566639349], [0.44611287055340576, 0.015534327198627407], [0.19996658004337997, 0.569801504389336], [-0.3072036718217223, -0.23159105319745765], [-0.1269364029989169, -0.5093735792617603], [-0.5783767713252776, -0.1647619888202605], [0.1509848459433203, -0.5442524730291742], [-0.49384181638074875, 0.1636422855006609], [-0.2577369424809154, 0.2087929223269127], [0.27971815977858205, 0.13660959793094074], [0.2997119276684007, -0.2481350402964066], [-0.061309700962784874, -0.25607524247573765], [0.1075046971735264, -0.1267998958308295], [-0.11457194107408852, 0.33411084636965604], [-0.4116059897530292, 0.4330198525313219], [0.5805916780281163, -0.14054864897688732], [-0.37628789846864286, -0.033940512503525755]]",density,black,,,D002,visual,1,[],"['1', '2', '3', '4']",1,2023.2.3,harveyvisual,2.1,[],8,0.75,
0,pause,0.4,None,None,None,0,137,137,137,,,,,,,,,,,,,D002,visual,1,[],"['1', '2', '3', '4']",1,2023.2.3,harveyvisual,2.1,[],8,0.75,
20,dot,0.3,['dot'],['density'],black,0,138,138,138,,,50.7002010345459,50.42425012588501,50.707558155059814,dot,"[0.06, 0.06, 0.1, 0.08, 0.1, 0.06, 0.1, 0.06, 0.06, 0.06, 0.06, 0.06, 0.06, 0.08, 0.1, 0.1, 0.06, 0.1, 0.08, 0.08]","[[-0.1427877614639187, 0.29455569039480767], [0.4031973061383033, -0.24331351078306218], [-0.3981113608692558, 0.1501403137246322], [0.21593407442002555, -0.2030303654399444], [-0.22200612972557493, -0.49251933774063145], [-0.38418147030752203, 0.3714800777745328], [0.2712688800371482, 0.1988358638656469], [-0.5657698716500895, -0.17900265585626687], [0.48854446953236297, 0.34438388328822633], [0.050772874159355275, 0.48826860457967514], [0.059429142699524484, 0.10997898860264588], [0.29393503343360394, -0.4573287548257287], [0.5528796695409323, 0.11635686382617078], [-0.43366162986793505, -0.4196874476054447], [0.028422370888311788, -0.40768653914338904], [0.24920973222630594, 0.4128728752443126], [0.3347081759035643, -0.011824660197791992], [-0.3503831181358036, -0.1588831502809101], [-0.10762031268684419, -0.10055296701068528], [-0.57963807362056, 0.06070842091384321]]",density,black,,,D002,visual,1,[],"['1', '2', '3', '4']",1,2023.2.3,harveyvisual,2.1,[],8,0.75,
0,pause,0.4,None,None,None,0,139,139,139,,,,,,,,,,,,,D002,visual,1,[],"['1', '2', '3', '4']",1,2023.2.3,harveyvisual,2.1,[],8,0.75,
20,dot,0.3,['dot'],['density'],black,0,140,140,140,,,51.40022015571594,51.12438917160034,51.40771412849426,dot,"[0.06, 0.08, 0.1, 0.08, 0.1, 0.06, 0.1, 0.1, 0.06, 0.1, 0.08, 0.08, 0.1, 0.08, 0.06, 0.1, 0.06, 0.1, 0.06, 0.08]","[[-0.4504366863578372, -0.4003806648910171], [-0.3126697723222956, 0.34563321861498186], [0.2722424257722542, 0.25528248237787], [0.3057384703288233, -0.1962938567805615], [-0.20503125992883775, 0.5518209390951399], [-0.06795124851667445, -0.16148353813373745], [0.4147590987637976, 0.03951249406626084], [-0.5093482569439923, 0.014366699525802218], [0.18270632437226753, 0.02398094730334821], [0.04626997947977596, -0.4193934972223976], [-0.10211556438896718, 0.1943611201010349], [-0.21202441422177137, -0.30533944496240367], [0.503011891030844, 0.32822253968113646], [-0.29297661632223715, -0.03486904766394089], [0.19456467338664385, 0.518402311045682], [0.5996799911644174, -0.07872827461134656], [-0.5678450169351493, -0.2022633472410706], [-0.06716708273681149, 0.4137584382947468], [0.2890237315990296, -0.44644263693913955], [-0.507798118428438, 0.2962088931424967]]",density,black,,,D002,visual,1,[],"['1', '2', '3', '4']",1,2023.2.3,harveyvisual,2.1,[],8,0.75,
0,pause,0.4,None,None,None,0,141,141,141,,,,,,,,,,,,,D002,visual,1,[],"['1', '2', '3', '4']",1,2023.2.3,harveyvisual,2.1,[],8,0.75,
20,dot,0.3,['dot'],['density'],black,0,142,142,142,,,52.1001980304718,51.824383020401,52.107568979263306,dot,"[0.06, 0.08, 0.08, 0.06, 0.08, 0.1, 0.1, 0.08, 0.06, 0.1, 0.06, 0.06, 0.1, 0.1, 0.06, 0.06, 0.06, 0.1, 0.06, 0.06]","[[0.24716726068448525, 0.09064853487731717], [0.5577543932057553, 0.019968555452031578], [-0.49199070670921674, 0.23438163751415886], [0.12135256627788282, 0.2759393843449077], [-0.5351568709893203, 0.017518260399945362], [-0.16962754563611715, -0.01653106188958864], [-0.3921908256939842, -0.4239610026897965], [0.22377302698148338, -0.3165374116434969], [-0.31395378317200817, -0.15854207974596646], [-0.31174272652528695, 0.3793435513873128], [0.4380466744205388, 0.18532356035571934], [-0.1583191843568198, 0.5620184283610109], [0.1309556813578645, 0.5478439417561914], [-0.036222559017891176, -0.27708832142823686], [0.10816049224995838, -0.0733220311436179], [-0.14728684734998138, -0.5833844293295682], [0.30240426238035745, -0.11797996775598607], [0.0862590903123176, -0.5484085576330037], [-0.11991629048266211, 0.18134628594983526], [0.5024691678859069, -0.16416215228767128]]",density,black,,,D002,visual,1,[],"['1', '2', '3', '4']",1,2023.2.3,harveyvisual,2.1,[],8,0.75,
0,pause,0.4,None,None,None,0,143,143,143,,,,,,,,,,,,,D002,visual,1,[],"['1', '2', '3', '4']",1,2023.2.3,harveyvisual,2.1,[],8,0.75,
20,dot,0.3,['dot'],['density'],black,0,144,144,144,,,52.800220012664795,52.52436804771423,52.80770301818848,dot,"[0.08, 0.06, 0.06, 0.08, 0.06, 0.08, 0.1, 0.06, 0.08, 0.08, 0.08, 0.1, 0.06, 0.08, 0.08, 0.08, 0.06, 0.06, 0.1, 0.08]","[[0.21424536692642704, 0.3012784396949728], [-0.03231617874607273, 0.031489872777635264], [-0.16001034654587964, -0.24455647780335565], [-0.0021293011215782753, -0.3699513935254443], [-0.3041102299869301, -0.5226540069365511], [-0.42602386855021535, 0.12868871473928667], [-0.21143410914284755, 0.48346133606889563], [0.03906727903493912, -0.5794673607339581], [-0.48043314179051366, -0.1928063572477225], [0.42330415341888405, 0.34321763181465703], [0.4561481732901519, -0.20122368566840615], [0.2348999965763373, 0.00030018734526593427], [-0.2500718017037126, 0.0056018716471633034], [0.4640149793481848, 0.014535432356874933], [-0.4474898516822571, 0.36306427299667454], [0.09277715679857201, -0.15179958139140753], [0.14055765657587616, 0.5798520071503978], [0.23317498175479656, -0.5492185541103344], [-0.6027412508454218, 0.03144736070293939], [-0.18579682553893145, 0.2877626364090935]]",density,black,,,D002,visual,1,[],"['1', '2', '3', '4']",1,2023.2.3,harveyvisual,2.1,[],8,0.75,
0,pause,0.4,None,None,None,0,145,145,145,,,,,,,,,,,,,D002,visual,1,[],"['1', '2', '3', '4']",1,2023.2.3,harveyvisual,2.1,[],8,0.75,
20,dot,0.3,['dot'],['density'],black,0,146,146,146,,,53.500200033187866,53.224218130111694,53.50771903991699,dot,"[0.06, 0.08, 0.08, 0.08, 0.06, 0.08, 0.08, 0.08, 0.08, 0.1, 0.06, 0.06, 0.1, 0.1, 0.1, 0.06, 0.1, 0.1, 0.1, 0.08]","[[0.02987974823675832, -0.1215856384657239], [0.4862661637429132, -0.2115201581539446], [-0.04203755035306167, 0.3646297065028664], [0.26990688750324365, 0.5187422621094109], [0.14666086595179473, 0.037319600856441815], [-0.07576489424227228, -0.5960884766759111], [0.22591417363403354, 0.3188350688937309], [-0.5549223306848068, -0.10584301617818886], [-0.2158488905791593, -0.06329478069259875], [-0.26295713902737294, -0.5215889679539357], [-0.5741777002716991, 0.17108008153050558], [-0.3950415484997122, -0.2713618122371695], [0.5168682789490348, 0.25724928519696405], [0.27360186912413953, -0.40426488770226005], [-0.1400346182256459, -0.34469011533231264], [-0.07920862569148868, 0.5567512412534142], [-0.4009105146116634, 0.3135095257873682], [-0.10626590585688162, 0.13438322496859045], [0.32699380951501034, -0.023801810504897547], [0.055789008719023925, -0.3097056498543521]]",density,black,,,D002,visual,1,[],"['1', '2', '3', '4']",1,2023.2.3,harveyvisual,2.1,[],8,0.75,
0,pause,0.4,None,None,None,0,147,147,147,,,,,,,,,,,,,D002,visual,1,[],"['1', '2', '3', '4']",1,2023.2.3,harveyvisual,2.1,[],8,0.75,
20,dot,0.3,['dot'],['density'],black,0,148,148,148,,,54.20020508766174,53.92421197891235,54.20752716064453,dot,"[0.06, 0.06, 0.06, 0.08, 0.1, 0.08, 0.1, 0.1, 0.08, 0.08, 0.1, 0.06, 0.06, 0.06, 0.06, 0.08, 0.06, 0.1, 0.08, 0.1]","[[0.5919334529213628, -0.03389031006318195], [-0.0952001399807253, -0.3236077898630022], [0.16799655204082498, -0.058523262801804754], [-0.18486571041030225, -0.5480290548741481], [-0.5510106803048833, -0.1281933138581833], [-0.3211639604059973, -0.06240477278433193], [0.397548566921753, 0.25600839730020264], [-0.5525239850693803, 0.12942763578747832], [0.3044465691145194, 0.43186634639425425], [-0.10093516448388651, 0.2672734311590764], [-0.17021050363244844, 0.5606910106829196], [0.15155091702948575, 0.1952211893051914], [0.40205225321833693, -0.25345474246044375], [0.16037900914164238, -0.4358512940703271], [-0.3427959229873898, 0.4222114027466102], [-0.14778172728496825, 0.03214847432078172], [-0.28923861000237117, -0.35409954261980314], [0.358625326036471, 0.04132381671021812], [-0.36051030564262226, 0.21493964201710203], [0.045659869890712135, 0.5754067797288234]]",density,black,,,D002,visual,1,[],"['1', '2', '3', '4']",1,2023.2.3,harveyvisual,2.1,[],8,0.75,
0,pause,0.4,None,None,None,0,149,149,149,,,,,,,,,,,,,D002,visual,1,[],"['1', '2', '3', '4']",1,2023.2.3,harveyvisual,2.1,[],8,0.75,
20,dot,0.3,['dot'],['density'],black,0,150,150,150,,,54.900214195251465,54.62428116798401,54.9075071811676,dot,"[0.08, 0.06, 0.06, 0.1, 0.06, 0.08, 0.1, 0.06, 0.1, 0.1, 0.08, 0.06, 0.1, 0.06, 0.06, 0.06, 0.06, 0.1, 0.08, 0.08]","[[0.3376549712354311, 0.2740534823002371], [0.39691782694145783, -0.44077104633212305], [0.5776905946343803, -0.13816922726069542], [-0.21617714506112673, -0.23709571088668285], [-0.37328236202816534, 0.034780606011273196], [-0.4292146976301964, -0.3888532106507294], [0.026474665693808963, -0.37920917037748625], [0.014748328049958515, 0.551139225317042], [-0.13838327897595354, 0.06652916902800787], [-0.3422796534763094, 0.2248660055827219], [-0.4275490711262223, -0.19031693748164863], [0.17783476608129745, 0.0005370207176991215], [-0.5955544016297396, -0.046692509658965035], [0.252800065148187, -0.1786536748790245], [-0.5710331691475343, 0.1653471144982002], [0.5436945979781201, 0.16160604478666585], [-0.29953249062762366, 0.4774703257501052], [0.2016216724251878, -0.5274714587780157], [0.12603092292158846, 0.3261199537451306], [-0.06362667265057054, 0.36566963511314066]]",density,black,,,D002,visual,1,[],"['1', '2', '3', '4']",1,2023.2.3,harveyvisual,2.1,[],8,0.75,
0,pause,0.4,None,None,None,0,151,151,151,,,,,,,,,,,,,D002,visual,1,[],"['1', '2', '3', '4']",1,2023.2.3,harveyvisual,2.1,[],8,0.75,
20,dot,0.3,['dot'],['density'],black,0,152,152,152,,,55.60021996498108,55.32418513298035,55.60749411582947,dot,"[0.06, 0.08, 0.08, 0.1, 0.1, 0.06, 0.06, 0.1, 0.08, 0.08, 0.1, 0.1, 0.08, 0.08, 0.08, 0.06, 0.06, 0.1, 0.1, 0.1]","[[-0.27061405949664974, -0.11511102690372405], [0.1970922247865461, -0.260673056640079], [-0.5597180110920568, 0.22343773511361553], [0.09123784750476172, 0.011358549841863685], [0.595986791190665, 0.055418582019245946], [-0.4598486419028046, -0.35456835669144426], [-0.21503411768083835, 0.20500362382680115], [-0.36427934173123544, 0.05115101994153726], [0.4661017270578477, 0.2974744447064361], [-0.02789733889115975, -0.1999860843092126], [-0.5739156495758161, -0.10265762636732942], [0.34782526125708235, 0.10629795786846968], [0.3670083319057039, -0.08493307944361594], [-0.10186924919587925, -0.3836333392095458], [0.1927767775137751, 0.4018435187077688], [-0.3465595075101273, 0.35982287461738466], [-0.046876572834297026, 0.5360057997328519], [0.00666625749564298, 0.21258206854864392], [0.02147120029343641, -0.5441446592262414], [-0.1866059836478517, -0.5753769742596905]]",density,black,,,D002,visual,1,[],"['1', '2', '3', '4']",1,2023.2.3,harveyvisual,2.1,[],8,0.75,
0,pause,0.4,None,None,None,0,153,153,153,,,,,,,,,,,,,D002,visual,1,[],"['1', '2', '3', '4']",1,2023.2.3,harveyvisual,2.1,[],8,0.75,
20,dot,0.3,['dot'],['density'],black,0,154,154,154,,,56.30022406578064,56.024158000946045,56.307512044906616,dot,"[0.06, 0.1, 0.08, 0.06, 0.08, 0.06, 0.06, 0.06, 0.1, 0.06, 0.06, 0.1, 0.06, 0.06, 0.06, 0.06, 0.1, 0.1, 0.06, 0.08]","[[0.07063463918255286, 0.2670957529297241], [-0.1663990478150545, 0.5624424010376781], [0.490815137217253, 0.2684293036166943], [0.011598255988046757, -0.2772551777465489], [0.0321861298568038, -0.48128360356813227], [0.2663802488099065, 0.0672355450015556], [-0.32604847110652757, 0.23937346586508235], [-0.14721468116091224, -0.5668898609842049], [-0.31079744582251956, 0.049665979768668156], [0.0709578941827933, 0.008783939366510118], [-0.5507890489190164, -0.1540149624634532], [0.20922112325923803, 0.5543182303326103], [-0.3550044104296823, -0.449043426391422], [0.4418949305400427, -0.14684104993399089], [-0.1318269508810898, 0.1865450259358179], [-0.29682513404573535, -0.23994786402588236], [0.23185459144180653, -0.15430070132598744], [0.6028286449203543, -0.03845047227300635], [-0.4985685295490456, 0.11668977847044115], [-0.14082692262535706, -0.0865050818180152]]",density,black,,,D002,visual,1,[],"['1', '2', '3', '4']",1,2023.2.3,harveyvisual,2.1,[],8,0.75,
0,pause,0.4,None,None,None,0,155,155,155,,,,,,,,,,,,,D002,visual,1,[],"['1', '2', '3', '4']",1,2023.2.3,harveyvisual,2.1,[],8,0.75,
9,dot,0.3,['dot'],['density'],black,0,156,156,156,,,57.000200033187866,56.70745301246643,57.00760197639465,dot,"[0.08, 0.08, 0.08, 0.06, 0.1, 0.1, 0.1, 0.1, 0.08]","[[0.16751238249231654, 0.5577961240465925], [-0.27296145406993233, 0.4862198967380745], [-0.029185467938656964, 0.15062746822878756], [-0.0646201772689005, 0.5687739076077192], [0.1739328392933146, 0.3418730943321047], [-0.141244529573345, 0.32572795328380527], [-0.5161698704605421, 0.1834233825743511], [0.21727962056556488, 0.12903401361548372], [-0.23724269532595021, 0.10991409904419316]]",density,black,,,D002,visual,1,[],"['1', '2', '3', '4']",1,2023.2.3,harveyvisual,2.1,[],8,0.75,
0,pause,0.4,None,None,None,0,157,157,157,,,,,,,,,,,,,D002,visual,1,[],"['1', '2', '3', '4']",1,2023.2.3,harveyvisual,2.1,[],8,0.75,
9,dot,0.3,['dot'],['density'],black,0,158,158,158,,,57.70022106170654,57.407469034194946,57.7074179649353,dot,"[0.1, 0.1, 0.08, 0.06, 0.08, 0.06, 0.08, 0.1, 0.1]","[[0.16751238249231654, 0.5577961240465925], [-0.27296145406993233, 0.4862198967380745], [-0.029185467938656964, 0.15062746822878756], [-0.0646201772689005, 0.5687739076077192], [0.1739328392933146, 0.3418730943321047], [-0.141244529573345, 0.32572795328380527], [-0.5161698704605421, 0.1834233825743511], [0.21727962056556488, 0.12903401361548372], [-0.23724269532595021, 0.10991409904419316]]",density,black,,,D002,visual,1,[],"['1', '2', '3', '4']",1,2023.2.3,harveyvisual,2.1,[],8,0.75,
0,pause,0.4,None,None,None,0,159,159,159,,,,,,,,,,,,,D002,visual,1,[],"['1', '2', '3', '4']",1,2023.2.3,harveyvisual,2.1,[],8,0.75,
9,dot,0.3,['dot'],['density'],black,0,160,160,160,,,58.400217056274414,58.107609033584595,58.407400131225586,dot,"[0.06, 0.1, 0.1, 0.1, 0.08, 0.06, 0.08, 0.06, 0.1]","[[-0.08830733675648182, -0.32541118850070216], [0.2573655446525002, -0.0029570100823114536], [0.27547652153196345, -0.34332263321768475], [-0.10322368112243578, -0.12113330350182801], [-0.09512634339583304, 0.07974184968350245], [0.1087639633701519, -0.14934854126711464], [-0.2976800736237512, -0.022953619774800198], [0.014308470788770018, -0.5004438889851849], [-0.3557422450128242, -0.24953541402881954]]",density,black,,,D002,visual,1,[],"['1', '2', '3', '4']",1,2023.2.3,harveyvisual,2.1,[],8,0.75,
0,pause,0.4,None,None,None,0,161,161,161,,,,,,,,,,,,,D002,visual,1,[],"['1', '2', '3', '4']",1,2023.2.3,harveyvisual,2.1,[],8,0.75,
9,dot,0.3,['dot'],['density'],black,0,162,162,162,,,59.100213050842285,58.807600021362305,59.10739302635193,dot,"[0.06, 0.08, 0.1, 0.06, 0.06, 0.08, 0.08, 0.08, 0.06]","[[-0.08858128315591524, -0.3480052213079807], [0.37291707470974605, -0.0809562497479422], [-0.04311872097798103, 0.23152249840731254], [0.1734412630875083, -0.16491363602164627], [-0.024044713080900382, -0.04824256513196188], [0.126438571592319, 0.09122014985587756], [-0.2168202887682383, 0.11190421567656858], [-0.23215605484234547, -0.20356583507002532], [0.291417597339289, 0.24351333182926893]]",density,black,,,D002,visual,1,[],"['1', '2', '3', '4']",1,2023.2.3,harveyvisual,2.1,[],8,0.75,
0,pause,0.4,None,None,None,0,163,163,163,,,,,,,,,,,,,D002,visual,1,[],"['1', '2', '3', '4']",1,2023.2.3,harveyvisual,2.1,[],8,0.75,
9,dot,0.3,['dot'],['density'],black,0,164,164,164,,,59.80021810531616,59.50751519203186,59.807414054870605,dot,"[0.08, 0.06, 0.06, 0.08, 0.08, 0.1, 0.08, 0.08, 0.06]","[[0.5176022259896301, 0.07013652950073157], [0.29073914382076843, 0.49095716113391286], [0.25755010907869064, 0.10321661572421419], [0.11549350267606502, 0.37871636325142816], [-0.040248060121338324, 0.07603447111469516], [0.35733910828644905, -0.07238149579930037], [0.09184169877402729, -0.10424630849328012], [-0.10934901156313583, -0.14911132891814113], [0.4158094160330474, 0.26019999263529187]]",density,black,,,D002,visual,1,[],"['1', '2', '3', '4']",1,2023.2.3,harveyvisual,2.1,[],8,0.75,
0,pause,0.4,None,None,None,0,165,165,165,,,,,,,,,,,,,D002,visual,1,[],"['1', '2', '3', '4']",1,2023.2.3,harveyvisual,2.1,[],8,0.75,
9,dot,0.3,['dot'],['density'],white,0,166,166,166,,,60.50020909309387,60.207409143447876,60.50740098953247,dot,"[0.06, 0.06, 0.06, 0.1, 0.08, 0.08, 0.08, 0.1, 0.1]","[[-0.15654783233563613, 0.5456880468186037], [-0.24757731968740795, 0.34117179271889175], [0.237608115185398, 0.5379153628426676], [0.0469559873873498, 0.0609843963705915], [0.17872629641391088, 0.30721368784738284], [-0.014663874177430473, 0.385293302856951], [-0.1034840675008618, 0.1993866575147459], [0.37552485507684036, 0.26074226948317425], [-0.1631567374159006, -0.0021534685146951615]]",density,white,,,D002,visual,1,[],"['1', '2', '3', '4']",1,2023.2.3,harveyvisual,2.1,[],8,0.75,
0,pause,0.4,None,None,None,0,167,167,167,,,,,,,,,,,1,60.79255795478821,D002,visual,1,[],"['1', '2', '3', '4']",1,2023.2.3,harveyvisual,2.1,[],8,0.75,
8,dot,0.3,['dot'],['density'],black,0,168,168,168,,,61.200199127197266,60.90746212005615,61.207377195358276,dot,"[0.1, 0.06, 0.08, 0.08, 0.06, 0.1, 0.08, 0.08]","[[0.34834348934164344, -0.28812382596974456], [-0.10329597477015798, -0.5243874580500916], [0.11080732975293575, -0.39067626210733153], [-0.006800183936578442, -0.10390350920236302], [0.17453264242573352, -0.004648084789036161], [-0.11839138898177409, -0.2765800857961495], [-0.2122949223397977, -0.08354151726817095], [0.0010823045536620208, 0.09995244087301837]]",density,black,,,D002,visual,1,[],"['1', '2', '3', '4']",1,2023.2.3,harveyvisual,2.1,[],8,0.75,
0,pause,0.4,None,None,None,0,169,169,169,,,,,,,,,,,,,D002,visual,1,[],"['1', '2', '3', '4']",1,2023.2.3,harveyvisual,2.1,[],8,0.75,
8,dot,0.3,['dot'],['density'],black,0,170,170,170,,,61.90021109580994,61.607349157333374,61.90743899345398,dot,"[0.1, 0.08, 0.1, 0.1, 0.08, 0.06, 0.08, 0.06]","[[-0.20800618360187478, -0.297823595680997], [0.0208603014005115, -0.46570844314230314], [-0.33947416747489917, -0.46414587466331364], [-0.2657502487478435, -0.0024929956194721667], [-0.07971030345085922, -0.1368829558420488], [0.12327021606192319, -0.12614842517591618], [-0.10944837079043952, 0.12795643756026515], [-0.4050023469846894, -0.16101207847090707]]",density,black,,,D002,visual,1,[],"['1', '2', '3', '4']",1,2023.2.3,harveyvisual,2.1,[],8,0.75,
0,pause,0.4,None,None,None,0,171,171,171,,,,,,,,,,,,,D002,visual,1,[],"['1', '2', '3', '4']",1,2023.2.3,harveyvisual,2.1,[],8,0.75,
8,dot,0.3,['dot'],['density'],black,0,172,172,172,,,62.60020399093628,62.307273149490356,62.60723400115967,dot,"[0.08, 0.1, 0.1, 0.08, 0.1, 0.06, 0.08, 0.08]","[[-0.258715538922871, 0.3828151050353194], [-0.4384035523576633, -0.18689856672911037], [-0.5586779833045601, 0.15056420889708766], [-0.1699372658897842, -0.04883432605429875], [-0.36053016753151684, 0.02858569738219561], [-0.199221799186684, 0.1876786431210615], [0.004458053620249285, 0.1240038339062716], [0.019420137312414813, -0.16023679021787893]]",density,black,,,D002,visual,1,[],"['1', '2', '3', '4']",1,2023.2.3,harveyvisual,2.1,[],8,0.75,
0,pause,0.4,None,None,None,0,173,173,173,,,,,,,,,,,,,D002,visual,1,[],"['1', '2', '3', '4']",1,2023.2.3,harveyvisual,2.1,[],8,0.75,
8,dot,0.3,['dot'],['density'],black,0,174,174,174,,,63.30020713806152,63.007416009902954,63.30720615386963,dot,"[0.1, 0.1, 0.08, 0.1, 0.06, 0.06, 0.06, 0.06]","[[-0.17382250058115215, 0.008030820220576582], [-0.5561520679887834, 0.09064024109159684], [-0.2322770524578434, -0.18818443710846813], [-0.41357291590276396, -0.2905316508268561], [-0.37423053416790164, -0.04064357687765813], [-0.014699175284411378, 0.15059198662288528], [-0.015485985535575739, -0.1348843831724925], [-0.36639977644872057, 0.228205681233079]]",density,black,,,D002,visual,1,[],"['1', '2', '3', '4']",1,2023.2.3,harveyvisual,2.1,[],8,0.75,
0,pause,0.4,None,None,None,0,175,175,175,,,,,,,,,,,,,D002,visual,1,[],"['1', '2', '3', '4']",1,2023.2.3,harveyvisual,2.1,[],8,0.75,
8,dot,0.3,['dot'],['density'],white,0,176,176,176,,,64.00022602081299,63.70724415779114,64.00740504264832,dot,"[0.06, 0.1, 0.08, 0.08, 0.06, 0.08, 0.1, 0.1]","[[0.016639406518403475, -0.10031965053970064], [-0.49734137941811546, 0.023312718056099104], [0.03171158295547566, 0.2028207856397581], [-0.3777108616291506, 0.18827317115199685], [-0.2734124440264558, -0.20525012861841768], [-0.1742574757978524, 0.04093824739900491], [-0.17815403785603903, 0.26205888083036905], [-0.2502819750276768, 0.4804358206127844]]",density,white,,,D002,visual,1,[],"['1', '2', '3', '4']",1,2023.2.3,harveyvisual,2.1,[],8,0.75,
0,pause,0.4,None,None,None,0,177,177,177,,,,,,,,,,,1,64.12602281570435,D002,visual,1,[],"['1', '2', '3', '4']",1,2023.2.3,harveyvisual,2.1,[],8,0.75,
8,dot,0.3,['dot'],['density'],black,0,178,178,178,,,64.70019912719727,64.40721011161804,64.70762419700623,dot,"[0.08, 0.1, 0.06, 0.08, 0.1, 0.08, 0.08, 0.06]","[[0.3364035831170529, 0.12390393923093283], [0.4336864367158133, 0.35981147627037974], [0.06743640335689947, 0.0759148581953004], [-0.079559988999742, 0.39531058321326396], [0.21309668101319243, 0.48855257098982907], [0.23478258025928536, -0.08446837776908474], [-0.12854716397353463, 0.17339976512773136], [0.14965136140762586, 0.26897313353206964]]",density,black,,,D002,visual,1,[],"['1', '2', '3', '4']",1,2023.2.3,harveyvisual,2.1,[],8,0.75,
0,pause,0.4,None,None,None,0,179,179,179,,,,,,,,,,,,,D002,visual,1,[],"['1', '2', '3', '4']",1,2023.2.3,harveyvisual,2.1,[],8,0.75,
7,dot,0.3,['dot'],['density'],black,0,180,180,180,,,65.40021705627441,65.10737419128418,65.40726900100708,dot,"[0.1, 0.06, 0.08, 0.06, 0.1, 0.08, 0.08]","[[0.14162553822338392, 0.3850374027840034], [0.14862566890709045, -0.11120959689479885], [0.39332636479883865, 0.3869926518090174], [0.40462455387813373, -0.12110830933676162], [0.23143806607869288, 0.12402376181071403], [0.031443448417621304, 0.15083815177969048], [0.4360523150463376, 0.1818515773867412]]",density,black,,,D002,visual,1,[],"['1', '2', '3', '4']",1,2023.2.3,harveyvisual,2.1,[],8,0.75,
0,pause,0.4,None,None,None,0,181,181,181,,,,,,,,,,,,,D002,visual,1,[],"['1', '2', '3', '4']",1,2023.2.3,harveyvisual,2.1,[],8,0.75,
7,dot,0.3,['dot'],['density'],black,0,182,182,182,,,66.10019898414612,65.80735611915588,66.10737204551697,dot,"[0.1, 0.08, 0.1, 0.06, 0.08, 0.1, 0.06]","[[0.13823229125104186, -0.11287424625882309], [-0.082914425993103, 0.43156227464827385], [0.30107400633957315, 0.2583336012722512], [-0.1103107855725706, 0.20298726112520996], [0.37862923877470095, 0.05664428164281185], [0.10057609128089995, 0.3089177590539603], [0.1009283971288976, 0.1061295027106774]]",density,black,,,D002,visual,1,[],"['1', '2', '3', '4']",1,2023.2.3,harveyvisual,2.1,[],8,0.75,
0,pause,0.4,None,None,None,0,183,183,183,,,,,,,,,,,,,D002,visual,1,[],"['1', '2', '3', '4']",1,2023.2.3,harveyvisual,2.1,[],8,0.75,
7,dot,0.3,['dot'],['density'],black,0,184,184,184,,,66.80021905899048,66.50721597671509,66.80732417106628,dot,"[0.06, 0.08, 0.1, 0.1, 0.08, 0.1, 0.1]","[[-0.23895008888738212, 0.05027357720500052], [0.04847041368780161, 0.3376116924566045], [0.007425979130163878, -0.07582657330311053], [-0.16109724709992976, 0.33554312732420544], [-0.17199436159673825, -0.1887904434853683], [0.1858169564317131, 0.14031933770952934], [-0.038655615351801086, 0.15226176997737048]]",density,black,,,D002,visual,1,[],"['1', '2', '3', '4']",1,2023.2.3,harveyvisual,2.1,[],8,0.75,
0,pause,0.4,None,None,None,0,185,185,185,,,,,,,,,,,,,D002,visual,1,[],"['1', '2', '3', '4']",1,2023.2.3,harveyvisual,2.1,[],8,0.75,
7,dot,0.3,['dot'],['density'],black,0,186,186,186,,,67.50020909309387,67.20733213424683,67.50722908973694,dot,"[0.1, 0.06, 0.06, 0.1, 0.1, 0.08, 0.1]","[[0.27964692832129656, -0.15500474148311624], [0.48019533028943556, 0.09933774746227163], [0.08203545767143021, 0.28019381302663365], [0.05572057582720619, -0.1426303369841539], [0.31711281236335803, 0.2944831276535668], [-0.041479771322150735, 0.11885700406191958], [0.21045310206912196, 0.07075003364957701]]",density,black,,,D002,visual,1,[],"['1', '2', '3', '4']",1,2023.2.3,harveyvisual,2.1,[],8,0.75,
0,pause,0.4,None,None,None,0,187,187,187,,,,,,,,,,,,,D002,visual,1,[],"['1', '2', '3', '4']",1,2023.2.3,harveyvisual,2.1,[],8,0.75,
7,dot,0.3,['dot'],['density'],white,0,188,188,188,,,68.20022201538086,67.907310962677,68.20722007751465,dot,"[0.1, 0.1, 0.06, 0.08, 0.08, 0.08, 0.08]","[[0.373835093542847, 0.13553027784675922], [0.025265531087721685, -0.15487691700731251], [0.38086488534306906, -0.0720131222026176], [0.4315741710459581, -0.28075472739566504], [0.18097069018870113, 0.01647246612045595], [0.1962900518120967, -0.2624101628120604], [0.08955660480178401, 0.2127528718980948]]",density,white,,,D002,visual,1,[],"['1', '2', '3', '4']",1,2023.2.3,harveyvisual,2.1,[],8,0.75,
0,pause,0.4,None,None,None,0,189,189,189,,,,,,,,,,,1,68.43272995948792,D002,visual,1,[],"['1', '2', '3', '4']",1,2023.2.3,harveyvisual,2.1,[],8,0.75,
7,dot,0.3,['dot'],['density'],black,0,190,190,190,,,68.90020513534546,68.60716319084167,68.90720796585083,dot,"[0.1, 0.08, 0.1, 0.1, 0.06, 0.1, 0.1]","[[-0.39883248072855915, 0.30823732592088265], [-0.041341486549100435, 0.2390478988097413], [-0.013495537319202725, 0.5211111720540192], [-0.2415889716500472, 0.10795059447242317], [-0.023803066389735523, 0.02076064871433158], [0.14387498046506175, 0.3548008600093999], [-0.24331877599120405, 0.46521846842164205]]",density,black,,,D002,visual,1,[],"['1', '2', '3', '4']",1,2023.2.3,harveyvisual,2.1,[],8,0.75,
0,pause,0.4,None,None,None,0,191,191,191,,,,,,,,,,,,,D002,visual,1,[],"['1', '2', '3', '4']",1,2023.2.3,harveyvisual,2.1,[],8,0.75,
6,dot,0.3,['dot'],['density'],black,0,192,192,192,,,69.60022401809692,69.30727219581604,69.62378311157227,dot,"[0.1, 0.06, 0.06, 0.1, 0.06, 0.1]","[[0.5108460974500976, 0.10904555526594768], [0.5033362887342737, -0.29902707163897635], [0.3062164979741722, 0.05793810054487639], [0.22849736264613016, -0.28041776899433873], [0.12909977445373055, -0.06500178518750158], [0.41889526300287094, -0.11616960582105396]]",density,black,,,D002,visual,1,[],"['1', '2', '3', '4']",1,2023.2.3,harveyvisual,2.1,[],8,0.75,
0,pause,0.4,None,None,None,0,193,193,193,,,,,,,,,,,,,D002,visual,1,[],"['1', '2', '3', '4']",1,2023.2.3,harveyvisual,2.1,[],8,0.75,
6,dot,0.3,['dot'],['density'],black,0,194,194,194,,,70.30021500587463,70.00709509849548,70.32372498512268,dot,"[0.06, 0.06, 0.1, 0.06, 0.1, 0.06]","[[0.404576257273406, 0.0700140295133255], [0.16236872381874318, -0.0021128728600973284], [0.5529541989122894, -0.15659614737169442], [0.13702497511457395, -0.2589057080071786], [0.36740063964394665, -0.3636528069500345], [0.3132750905084481, -0.159771579268986]]",density,black,,,D002,visual,1,[],"['1', '2', '3', '4']",1,2023.2.3,harveyvisual,2.1,[],8,0.75,
0,pause,0.4,None,None,None,0,195,195,195,,,,,,,,,,,,,D002,visual,1,[],"['1', '2', '3', '4']",1,2023.2.3,harveyvisual,2.1,[],8,0.75,
6,dot,0.3,['dot'],['density'],black,0,196,196,196,,,71.0002031326294,70.70711398124695,71.02370405197144,dot,"[0.08, 0.08, 0.06, 0.08, 0.08, 0.06]","[[-0.24492162854676555, 0.16704436901929823], [-0.3861886513150086, 0.35601694661450933], [-0.48514013682315105, 0.15596888098880124], [-0.5451465436738104, -0.12931683943359434], [-0.11772959853104834, 0.007676420150436517], [-0.35755989064212684, -0.03355234579502648]]",density,black,,,D002,visual,1,[],"['1', '2', '3', '4']",1,2023.2.3,harveyvisual,2.1,[],8,0.75,
0,pause,0.4,None,None,None,0,197,197,197,,,,,,,,,,,,,D002,visual,1,[],"['1', '2', '3', '4']",1,2023.2.3,harveyvisual,2.1,[],8,0.75,
6,dot,0.3,['dot'],['density'],black,0,198,198,198,,,71.70021200180054,71.40704703330994,71.72369909286499,dot,"[0.06, 0.06, 0.1, 0.1, 0.06, 0.06]","[[-0.4130096743352808, -0.09152271377164663], [-0.19778223104980006, -0.03862987845790588], [-0.5782793278508197, 0.04067119283421001], [-0.2942915267906656, -0.3673297053134895], [-0.33560074172492643, 0.119885218799542], [-0.5263932498355091, -0.25924495598585295]]",density,black,,,D002,visual,1,[],"['1', '2', '3', '4']",1,2023.2.3,harveyvisual,2.1,[],8,0.75,
0,pause,0.4,None,None,None,0,199,199,199,,,,,,,,,,,,,D002,visual,1,[],"['1', '2', '3', '4']",1,2023.2.3,harveyvisual,2.1,[],8,0.75,
6,dot,0.3,['dot'],['density'],black,0,200,200,200,,,72.40021204948425,72.10700702667236,72.42370319366455,dot,"[0.1, 0.08, 0.08, 0.06, 0.1, 0.1]","[[0.1643264729387965, -0.2471077239796436], [-0.22534804549937193, -0.4918728234310363], [-0.026166131246113146, -0.09278119687647148], [-0.24451989516519138, -0.21339523607155425], [0.11868454116144263, -0.4574197693624388], [-0.058907778787058426, -0.30919141315076737]]",density,black,,,D002,visual,1,[],"['1', '2', '3', '4']",1,2023.2.3,harveyvisual,2.1,[],8,0.75,
0,pause,0.4,None,None,None,0,201,201,201,,,,,,,,,,,,,D002,visual,1,[],"['1', '2', '3', '4']",1,2023.2.3,harveyvisual,2.1,[],8,0.75,
6,dot,0.3,['dot'],['density'],black,0,202,202,202,,,73.1002140045166,72.80701017379761,73.12367796897888,dot,"[0.1, 0.06, 0.1, 0.06, 0.06, 0.08]","[[0.21259181929123794, -0.28356491423097735], [0.48303195854319764, 0.06048455888335473], [0.22913681079270962, 0.07473613686017411], [0.4939377514137012, -0.2837040300549214], [0.055643620130747785, -0.14290468481535015], [0.3711413815128542, -0.10952979375652658]]",density,black,,,D002,visual,1,[],"['1', '2', '3', '4']",1,2023.2.3,harveyvisual,2.1,[],8,0.75,
0,pause,0.4,None,None,None,0,203,203,203,,,,,,,,,,,,,D002,visual,1,[],"['1', '2', '3', '4']",1,2023.2.3,harveyvisual,2.1,[],8,0.75,
5,dot,0.3,['dot'],['density'],black,0,204,204,204,,,73.8002200126648,73.50700616836548,73.82365798950195,dot,"[0.06, 0.08, 0.1, 0.08, 0.08]","[[0.2447541601906441, 0.3086669061463178], [0.2085849672204031, -0.04267428248465989], [0.44393754570968663, -0.061602228714441105], [0.027125763574429876, 0.05764502161176834], [0.36879828001487897, 0.1310025380577708]]",density,black,,,D002,visual,1,[],"['1', '2', '3', '4']",1,2023.2.3,harveyvisual,2.1,[],8,0.75,
0,pause,0.4,None,None,None,0,205,205,205,,,,,,,,,,,,,D002,visual,1,[],"['1', '2', '3', '4']",1,2023.2.3,harveyvisual,2.1,[],8,0.75,
5,dot,0.3,['dot'],['density'],black,0,206,206,206,,,74.5002031326294,74.20696902275085,74.52361607551575,dot,"[0.06, 0.1, 0.1, 0.06, 0.06]","[[-0.4702494158317004, 0.19352793081356498], [-0.36864189631283095, -0.2113573127283173], [-0.3573601989406874, -0.007363185939446715], [-0.15559938224235453, -0.02548680069503583], [-0.25069196230576396, 0.1747846118010945]]",density,black,,,D002,visual,1,[],"['1', '2', '3', '4']",1,2023.2.3,harveyvisual,2.1,[],8,0.75,
0,pause,0.4,None,None,None,0,207,207,207,,,,,,,,,,,,,D002,visual,1,[],"['1', '2', '3', '4']",1,2023.2.3,harveyvisual,2.1,[],8,0.75,
5,dot,0.3,['dot'],['density'],black,0,208,208,208,,,75.20021796226501,74.90695214271545,75.22360301017761,dot,"[0.08, 0.1, 0.1, 0.1, 0.06]","[[0.10558973120531606, -0.20428866875977839], [-0.0893225412758366, 0.16524926947551877], [-0.05793580974794309, -0.07826743033729393], [0.11130747138107101, 0.10875249109580729], [0.28035132100960686, -0.09064984251937742]]",density,black,,,D002,visual,1,[],"['1', '2', '3', '4']",1,2023.2.3,harveyvisual,2.1,[],8,0.75,
0,pause,0.4,None,None,None,0,209,209,209,,,,,,,,,,,,,D002,visual,1,[],"['1', '2', '3', '4']",1,2023.2.3,harveyvisual,2.1,[],8,0.75,
5,dot,0.3,['dot'],['density'],black,0,210,210,210,,,75.90020799636841,75.606929063797,75.92358207702637,dot,"[0.06, 0.08, 0.08, 0.06, 0.06]","[[0.029171133319913545, -0.11913068329317353], [-0.2981845944788078, -0.46624640290839614], [-0.1844599491613969, -0.04126455345730423], [-0.2900988597239497, -0.2493716418714862], [-0.0791391532727178, -0.3057260733699829]]",density,black,,,D002,visual,1,[],"['1', '2', '3', '4']",1,2023.2.3,harveyvisual,2.1,[],8,0.75,
0,pause,0.4,None,None,None,0,211,211,211,,,,,,,,,,,,,D002,visual,1,[],"['1', '2', '3', '4']",1,2023.2.3,harveyvisual,2.1,[],8,0.75,
5,dot,0.3,['dot'],['density'],white,0,212,212,212,,,76.60022306442261,76.30691719055176,76.62356209754944,dot,"[0.06, 0.06, 0.08, 0.06, 0.08]","[[0.27183890960736007, -0.2807898153303064], [0.09520185447546438, -0.14661409162522948], [0.4811798017999712, -0.08799056171856828], [0.2824926782126669, -0.029701986940959574], [0.07325476391384783, 0.10525290151012107]]",density,white,,,D002,visual,1,[],"['1', '2', '3', '4']",1,2023.2.3,harveyvisual,2.1,[],8,0.75,
0,pause,0.4,None,None,None,0,213,213,213,,,,,,,,,,,1,76.76849579811096,D002,visual,1,[],"['1', '2', '3', '4']",1,2023.2.3,harveyvisual,2.1,[],8,0.75,
5,dot,0.3,['dot'],['density'],black,0,214,214,214,,,77.30021119117737,77.00687909126282,77.32357406616211,dot,"[0.1, 0.1, 0.1, 0.06, 0.06]","[[-0.28680504698685855, -0.37141287089520275], [-0.07941991320777259, -0.3100284666993168], [0.1333965094747872, -0.32231728701695306], [-0.16725551142864267, -0.07802884766317453], [0.04399369704041987, -0.09756099317031844]]",density,black,,,D002,visual,1,[],"['1', '2', '3', '4']",1,2023.2.3,harveyvisual,2.1,[],8,0.75,
0,pause,0.4,None,None,None,0,215,215,215,,,,,,,,,,,,,D002,visual,1,[],"['1', '2', '3', '4']",1,2023.2.3,harveyvisual,2.1,[],8,0.75,
4,dot,0.3,['dot'],['density'],black,0,216,216,216,,,78.00021505355835,77.70689511299133,78.02355217933655,dot,"[0.08, 0.06, 0.08, 0.1]","[[-0.4116264312708952, 0.16775371224632304], [-0.5618780911112883, -0.04134114392370045], [-0.3363713887364365, -0.04915619770205748], [-0.48212301157369764, -0.2249233832905235]]",density,black,,,D002,visual,1,[],"['1', '2', '3', '4']",1,2023.2.3,harveyvisual,2.1,[],8,0.75,
0,pause,0.4,None,None,None,0,217,217,217,,,,,,,,,,,,,D002,visual,1,[],"['1', '2', '3', '4']",1,2023.2.3,harveyvisual,2.1,[],8,0.75,
4,dot,0.3,['dot'],['density'],black,0,218,218,218,,,78.70022296905518,78.40687203407288,78.72349905967712,dot,"[0.1, 0.1, 0.1, 0.06]","[[0.2593869086993074, -0.26887741013308497], [0.09674879007849839, -0.39609983087723066], [-0.011093693993988496, -0.14004324908426333], [0.28630805459639813, -0.4681830009867555]]",density,black,,,D002,visual,1,[],"['1', '2', '3', '4']",1,2023.2.3,harveyvisual,2.1,[],8,0.75,
0,pause,0.4,None,None,None,0,219,219,219,,,,,,,,,,,,,D002,visual,1,[],"['1', '2', '3', '4']",1,2023.2.3,harveyvisual,2.1,[],8,0.75,
4,dot,0.3,['dot'],['density'],black,0,220,220,220,,,79.40021705627441,79.10681414604187,79.42352414131165,dot,"[0.06, 0.1, 0.1, 0.1]","[[-0.34940937311115045, -0.11648702989399858], [-0.2695829051223266, -0.4589438614516443], [-0.4698604504367728, -0.3018413850444449], [-0.18849712946501163, -0.26902343222239633]]",density,black,,,D002,visual,1,[],"['1', '2', '3', '4']",1,2023.2.3,harveyvisual,2.1,[],8,0.75,
0,pause,0.4,None,None,None,0,221,221,221,,,,,,,,,,,,,D002,visual,1,[],"['1', '2', '3', '4']",1,2023.2.3,harveyvisual,2.1,[],8,0.75,
4,dot,0.3,['dot'],['density'],black,0,222,222,222,,,80.10021018981934,79.80684113502502,80.12354016304016,dot,"[0.08, 0.08, 0.06, 0.08]","[[0.010836700166572746, 0.3385055392368038], [-0.21755291078517647, 0.23172276430217797], [0.04881011250022837, 0.13413393103699342], [-0.16894730197854985, 0.4434327172909165]]",density,black,,,D002,visual,1,[],"['1', '2', '3', '4']",1,2023.2.3,harveyvisual,2.1,[],8,0.75,
0,pause,0.4,None,None,None,0,223,223,223,,,,,,,,,,,,,D002,visual,1,[],"['1', '2', '3', '4']",1,2023.2.3,harveyvisual,2.1,[],8,0.75,
4,dot,0.3,['dot'],['density'],black,0,224,224,224,,,80.8002061843872,80.50681900978088,80.82365417480469,dot,"[0.08, 0.06, 0.08, 0.1]","[[0.37520814465037905, -0.4432880181017862], [0.4692830223283075, -0.19655799526205012], [0.3063896805601884, -0.036788685454167226], [0.2471196723673293, -0.2344474043623998]]",density,black,,,D002,visual,1,[],"['1', '2', '3', '4']",1,2023.2.3,harveyvisual,2.1,[],8,0.75,
0,pause,0.4,None,None,None,0,225,225,225,,,,,,,,,,,,,D002,visual,1,[],"['1', '2', '3', '4']",1,2023.2.3,harveyvisual,2.1,[],8,0.75,
4,dot,0.3,['dot'],['density'],black,0,226,226,226,,,81.5002281665802,81.20684099197388,81.52362608909607,dot,"[0.06, 0.06, 0.08, 0.1]","[[0.14909032788103166, -0.4768554918693636], [0.26071220381864263, -0.20018841858473793], [0.02634252458519163, -0.30967292471165575], [0.3541358554053611, -0.43808560323820217]]",density,black,,,D002,visual,1,[],"['1', '2', '3', '4']",1,2023.2.3,harveyvisual,2.1,[],8,0.75,
0,pause,0.4,None,None,None,0,227,227,227,,,,,,,,,,,,,D002,visual,1,[],"['1', '2', '3', '4']",1,2023.2.3,harveyvisual,2.1,[],8,0.75,
3,dot,0.3,['dot'],['density'],white,0,228,228,228,,,82.20022797584534,81.90700197219849,82.22360301017761,dot,"[0.06, 0.06, 0.08]","[[0.041215869578383385, -0.00689674906403758], [0.17500875751152645, 0.21459232562634095], [-0.03632281132631849, 0.2012994076415249]]",density,white,,,D002,visual,1,[],"['1', '2', '3', '4']",1,2023.2.3,harveyvisual,2.1,[],8,0.75,
0,pause,0.4,None,None,None,0,229,229,229,,,,,,,,,,,1,82.33844184875488,D002,visual,1,[],"['1', '2', '3', '4']",1,2023.2.3,harveyvisual,2.1,[],8,0.75,
3,dot,0.3,['dot'],['density'],black,0,230,230,230,,,82.90020608901978,82.60678601264954,82.92344307899475,dot,"[0.1, 0.06, 0.1]","[[-0.31319101668702665, 0.019781348947723338], [-0.5473895760332308, 0.024991247927059115], [-0.4494119348059314, -0.1602141851013313]]",density,black,,,D002,visual,1,[],"['1', '2', '3', '4']",1,2023.2.3,harveyvisual,2.1,[],8,0.75,
0,pause,0.4,None,None,None,0,231,231,231,,,,,,,,,,,,,D002,visual,1,[],"['1', '2', '3', '4']",1,2023.2.3,harveyvisual,2.1,[],8,0.75,
3,dot,0.3,['dot'],['density'],black,0,232,232,232,,,83.60021018981934,83.30700206756592,83.62357211112976,dot,"[0.08, 0.1, 0.08]","[[-0.27441186418729774, -0.31428620701652393], [-0.10438281902574013, -0.2032379983598837], [-0.31523395761825285, -0.08768035506307631]]",density,black,,,D002,visual,1,[],"['1', '2', '3', '4']",1,2023.2.3,harveyvisual,2.1,[],8,0.75,
0,pause,0.4,None,None,None,0,233,233,233,,,,,,,,,,,,,D002,visual,1,[],"['1', '2', '3', '4']",1,2023.2.3,harveyvisual,2.1,[],8,0.75,
3,dot,0.3,['dot'],['density'],black,0,234,234,234,,,84.3002290725708,84.00690007209778,84.32353615760803,dot,"[0.08, 0.1, 0.1]","[[-0.5599668940784417, -0.1503624274944763], [-0.33715825845103314, -0.1742393560729378], [-0.447658281307079, 0.035586458508876644]]",density,black,,,D002,visual,1,[],"['1', '2', '3', '4']",1,2023.2.3,harveyvisual,2.1,[],8,0.75,
0,pause,0.4,None,None,None,0,235,235,235,,,,,,,,,,,,,D002,visual,1,[],"['1', '2', '3', '4']",1,2023.2.3,harveyvisual,2.1,[],8,0.75,
3,dot,0.3,['dot'],['density'],black,0,236,236,236,,,85.00022196769714,84.70692896842957,85.02353715896606,dot,"[0.08, 0.08, 0.08]","[[0.5267872668145167, -0.16137547842759675], [0.3420119191573968, -0.036920749927643534], [0.3185462880061428, -0.2399114968218526]]",density,black,,,D002,visual,1,[],"['1', '2', '3', '4']",1,2023.2.3,harveyvisual,2.1,[],8,0.75,
0,pause,0.4,None,None,None,0,237,237,237,,,,,,,,,,,,,D002,visual,1,[],"['1', '2', '3', '4']",1,2023.2.3,harveyvisual,2.1,[],8,0.75,
3,dot,0.3,['dot'],['density'],black,0,238,238,238,,,85.70022916793823,85.40688300132751,85.72354412078857,dot,"[0.08, 0.06, 0.06]","[[-0.1827482077423914, 0.13189758396693702], [0.006935645283384683, 0.04732296079382947], [-0.049709858873230685, 0.28599666368451326]]",density,black,,,D002,visual,1,[],"['1', '2', '3', '4']",1,2023.2.3,harveyvisual,2.1,[],8,0.75,
0,pause,0.4,None,None,None,0,239,239,239,,,,,,,,,,,,,D002,visual,1,[],"['1', '2', '3', '4']",1,2023.2.3,harveyvisual,2.1,[],8,0.75,
2,dot,0.3,['dot'],['density'],black,0,240,240,240,,,86.4002161026001,86.10668611526489,86.42349410057068,dot,"[0.08, 0.08]","[[-0.20887660672828282, 0.3399455197969581], [-0.34272369919491674, 0.19089688818271272]]",density,black,,,D002,visual,1,[],"['1', '2', '3', '4']",1,2023.2.3,harveyvisual,2.1,[],8,0.75,
0,pause,0.4,None,None,None,0,241,241,241,,,,,,,,,,,,,D002,visual,1,[],"['1', '2', '3', '4']",1,2023.2.3,harveyvisual,2.1,[],8,0.75,
2,dot,0.3,['dot'],['density'],black,0,242,242,242,,,87.10021710395813,86.8066840171814,87.12347912788391,dot,"[0.08, 0.08]","[[0.2713647219188039, -0.029235290058335472], [0.46697437826705046, 0.014145112521712659]]",density,black,,,D002,visual,1,[],"['1', '2', '3', '4']",1,2023.2.3,harveyvisual,2.1,[],8,0.75,
0,pause,0.4,None,None,None,0,243,243,243,,,,,,,,,,,,,D002,visual,1,[],"['1', '2', '3', '4']",1,2023.2.3,harveyvisual,2.1,[],8,0.75,
2,dot,0.3,['dot'],['density'],black,0,244,244,244,,,87.80021810531616,87.50667715072632,87.82346701622009,dot,"[0.1, 0.1]","[[0.1652621768884792, -0.40183218801656556], [-0.03337249546828684, -0.4281924369736378]]",density,black,,,D002,visual,1,[],"['1', '2', '3', '4']",1,2023.2.3,harveyvisual,2.1,[],8,0.75,
0,pause,0.4,None,None,None,0,245,245,245,,,,,,,,,,,,,D002,visual,1,[],"['1', '2', '3', '4']",1,2023.2.3,harveyvisual,2.1,[],8,0.75,
2,dot,0.3,['dot'],['density'],black,0,246,246,246,,,88.50021696090698,88.20678901672363,88.52344298362732,dot,"[0.06, 0.08]","[[0.11437717294043931, -0.408092871188616], [0.012734947149558614, -0.23578585574018435]]",density,black,,,D002,visual,1,[],"['1', '2', '3', '4']",1,2023.2.3,harveyvisual,2.1,[],8,0.75,
0,pause,0.4,None,None,None,0,247,247,247,,,,,,,,,,,,,D002,visual,1,[],"['1', '2', '3', '4']",1,2023.2.3,harveyvisual,2.1,[],8,0.75,
2,dot,0.3,['dot'],['density'],black,0,248,248,248,,,89.20021104812622,88.9067771434784,89.22328901290894,dot,"[0.1, 0.06]","[[-0.5356907773971091, -0.01454049690556478], [-0.3936553319468624, 0.1263392020735458]]",density,black,,,D002,visual,1,[],"['1', '2', '3', '4']",1,2023.2.3,harveyvisual,2.1,[],8,0.75,
0,pause,0.4,None,None,None,0,249,249,249,,,,,,,,,,,,,D002,visual,1,[],"['1', '2', '3', '4']",1,2023.2.3,harveyvisual,2.1,[],8,0.75,
2,dot,0.3,['dot'],['density'],black,0,250,250,250,,,89.90021705627441,89.60676717758179,89.92341613769531,dot,"[0.1, 0.08]","[[0.075840462383643, -0.21806900392302264], [0.2761252679018853, -0.22101292055433702]]",density,black,,,D002,visual,1,[],"['1', '2', '3', '4']",1,2023.2.3,harveyvisual,2.1,[],8,0.75,
0,pause,0.4,None,None,None,0,251,251,251,,,,,,,,,,,,,D002,visual,1,[],"['1', '2', '3', '4']",1,2023.2.3,harveyvisual,2.1,[],8,0.75,
1,dot,0.3,['dot'],['density'],white,0,252,252,252,,,90.60020899772644,90.30659198760986,90.6233901977539,dot,[0.1],"[0.5668064281626585, -0.020013277593342628]",density,white,,,D002,visual,1,[],"['1', '2', '3', '4']",1,2023.2.3,harveyvisual,2.1,[],8,0.75,
0,pause,0.4,None,None,None,0,253,253,253,,,,,,,,,,,1,90.69330787658691,D002,visual,1,[],"['1', '2', '3', '4']",1,2023.2.3,harveyvisual,2.1,[],8,0.75,
1,dot,0.3,['dot'],['density'],black,0,254,254,254,,,91.30021500587463,91.00656604766846,91.32320499420166,dot,[0.08],"[-0.43400380483721984, 0.10531265887229962]",density,black,,,D002,visual,1,[],"['1', '2', '3', '4']",1,2023.2.3,harveyvisual,2.1,[],8,0.75,
0,pause,0.4,None,None,None,0,255,255,255,,,,,,,,,,,,,D002,visual,1,[],"['1', '2', '3', '4']",1,2023.2.3,harveyvisual,2.1,[],8,0.75,
1,dot,0.3,['dot'],['density'],black,0,256,256,256,,,92.00021600723267,91.70668411254883,92.02332019805908,dot,[0.06],"[-0.43105706563061386, -0.18359692062194616]",density,black,,,D002,visual,1,[],"['1', '2', '3', '4']",1,2023.2.3,harveyvisual,2.1,[],8,0.75,
0,pause,0.4,None,None,None,0,257,257,257,,,,,,,,,,,,,D002,visual,1,[],"['1', '2', '3', '4']",1,2023.2.3,harveyvisual,2.1,[],8,0.75,
1,dot,0.3,['dot'],['density'],black,0,258,258,258,,,92.70020508766174,92.40663814544678,92.7233099937439,dot,[0.06],"[0.5163804524385218, 0.172353611070521]",density,black,,,D002,visual,1,[],"['1', '2', '3', '4']",1,2023.2.3,harveyvisual,2.1,[],8,0.75,
0,pause,0.4,None,None,None,0,259,259,259,,,,,,,,,,,,,D002,visual,1,[],"['1', '2', '3', '4']",1,2023.2.3,harveyvisual,2.1,[],8,0.75,
1,dot,0.3,['dot'],['density'],white,0,260,260,260,,,93.40022397041321,93.10649299621582,93.42322206497192,dot,[0.1],"[-0.045934412585722416, -0.12236734128406912]",density,white,,,D002,visual,1,[],"['1', '2', '3', '4']",1,2023.2.3,harveyvisual,2.1,[],8,0.75,
0,pause,0.4,None,None,None,0,261,261,261,,,,,,,,,,,1,93.52364587783813,D002,visual,1,[],"['1', '2', '3', '4']",1,2023.2.3,harveyvisual,2.1,[],8,0.75,
1,dot,0.3,['dot'],['density'],black,0,262,262,262,,,94.10020399093628,93.80642819404602,94.12330102920532,dot,[0.08],"[0.0956549371127339, 0.09579573331985794]",density,black,,,D002,visual,1,[],"['1', '2', '3', '4']",1,2023.2.3,harveyvisual,2.1,[],8,0.75,
0,pause,0.4,None,None,None,0,263,263,263,,,,,,,,,,,,,D002,visual,1,[],"['1', '2', '3', '4']",1,2023.2.3,harveyvisual,2.1,[],8,0.75,
20,dot,0.3,['dot'],['density'],black,0,264,264,264,,,94.80021119117737,94.5232720375061,94.82326316833496,dot,"[0.08, 0.06, 0.1, 0.1, 0.06, 0.06, 0.08, 0.06, 0.06, 0.06, 0.06, 0.06, 0.1, 0.06, 0.1, 0.08, 0.06, 0.06, 0.1, 0.06]","[[-0.1267921680920049, -0.452389161852063], [0.2907119156957141, -0.23298896589693358], [-0.3539072602145815, 0.0813792820027463], [0.45986222911713914, 0.04914884608429293], [0.04290240699428649, -0.03300395377792664], [0.20953179357094165, 0.44721756719005745], [0.0041045687017472465, 0.23949330925048207], [-0.4269309092011031, 0.403450207587677], [0.05968840491298677, -0.5866230685828971], [0.4065127305614532, 0.39749349506123016], [0.18731196749784151, -0.4375275184245408], [-0.4552049118676429, -0.20610999339167893], [-0.14014830531458133, 0.45438650103210254], [0.5243102490050976, -0.27950370044679756], [0.591252157183818, -0.09174506850539993], [0.010026858907451808, 0.5959821951022001], [0.23392858054839027, 0.20394336743007047], [-0.5988725161615215, -0.08119209434802001], [-0.18161332068400038, -0.13634204874907446], [-0.5347039744034383, 0.15076685154633784]]",density,black,,,D002,visual,1,[],"['1', '2', '3', '4']",1,2023.2.3,harveyvisual,2.1,[],8,0.75,
0,pause,0.4,None,None,None,0,265,265,265,,,,,,,,,,,,,D002,visual,1,[],"['1', '2', '3', '4']",1,2023.2.3,harveyvisual,2.1,[],8,0.75,
20,dot,0.3,['dot'],['density'],white,0,266,266,266,,,95.5002191066742,95.22313809394836,95.52326798439026,dot,"[0.06, 0.06, 0.06, 0.1, 0.1, 0.06, 0.06, 0.08, 0.08, 0.08, 0.06, 0.08, 0.1, 0.08, 0.06, 0.08, 0.08, 0.1, 0.1, 0.1]","[[-0.21761931381028088, -0.36059257903052466], [-0.07079960046608613, -0.4892648452259092], [-0.5279904675890988, -0.19123243419030966], [0.49214717238207994, -0.04319099524809816], [0.318654135096498, 0.1886558779677776], [-0.008790246675389413, -0.12984912945581822], [-0.18959732535568113, 0.367137923655553], [-0.02134724622734918, 0.10816759660201924], [-0.38867781406154855, -0.007110195741322212], [0.4157656171801073, -0.23051801285191206], [0.12978519682228573, -0.4458551175315276], [-0.404064660175967, 0.3647321532286274], [0.03189247288550878, 0.36181758630274063], [0.19629768412350002, -0.12632239646480076], [-0.4139318498542536, -0.4375911465335925], [0.013560676162926555, 0.6035383799083273], [-0.510558265107476, 0.1551354998938394], [0.31761029624613846, 0.48394468374763544], [-0.19519038132542105, -0.17014710309098208], [0.3372223417251493, -0.42450951297576134]]",density,white,,,D002,visual,1,[],"['1', '2', '3', '4']",1,2023.2.3,harveyvisual,2.1,[],8,0.75,
0,pause,0.4,None,None,None,0,267,267,267,,,,,,,,,,,1,95.66808700561523,D002,visual,1,[],"['1', '2', '3', '4']",1,2023.2.3,harveyvisual,2.1,[],8,0.75,
