num,mod,duration,shape,ll_cond,colors,.thisRepN,.thisTrialN,.thisN,.thisIndex,thisRow.t,notes,raw_global_time,t_start,t_stop,pos,fonts,size,button,answer,RT,participant,session,starting_run,left button (match/odd),right button (non-match/even),samples_per_block,psychopy version,expName,offset,audio,number_runs,radius,
1,digit,0.3,['dot'],['big_1'],black,0,0,0,0,,,2.4002089500427246,2.1224451065063477,2.405777931213379,"[[-0.09509640261706002, 0.02111753343360459]]",['DejaVu Sans'],[0.9],,,,N005,digit,1,"['6', '7', '8', '9']","['1', '2', '3', '4']",1,2023.2.3,harveydigits,2.1,[],8,0.75,
0,pause,0.4,None,None,None,0,1,1,1,,,,,,,,,,,,N005,digit,1,"['6', '7', '8', '9']","['1', '2', '3', '4']",1,2023.2.3,harveydigits,2.1,[],8,0.75,
1,digit,0.3,['dot'],['big_1'],black,0,2,2,2,,,3.1002049446105957,2.8057219982147217,3.106220006942749,"[[0.09682244212190985, 0.09971406867104585]]",['DejaVu Sans'],[0.9],,,,N005,digit,1,"['6', '7', '8', '9']","['1', '2', '3', '4']",1,2023.2.3,harveydigits,2.1,[],8,0.75,
0,pause,0.4,None,None,None,0,3,3,3,,,,,,,,,,,,N005,digit,1,"['6', '7', '8', '9']","['1', '2', '3', '4']",1,2023.2.3,harveydigits,2.1,[],8,0.75,
1,digit,0.3,['dot'],['big_1'],black,0,4,4,4,,,3.8001930713653564,3.506218910217285,3.806842088699341,"[[-0.00330832770269035, 0.08368979424399656]]",['DejaVu Sans'],[0.9],,,,N005,digit,1,"['6', '7', '8', '9']","['1', '2', '3', '4']",1,2023.2.3,harveydigits,2.1,[],8,0.75,
0,pause,0.4,None,None,None,0,5,5,5,,,,,,,,,,,,N005,digit,1,"['6', '7', '8', '9']","['1', '2', '3', '4']",1,2023.2.3,harveydigits,2.1,[],8,0.75,
1,digit,0.3,['dot'],['big_1'],black,0,6,6,6,,,4.500200986862183,4.206326961517334,4.506205081939697,"[[-0.06837273977727962, 0.13112436388257614]]",['DejaVu Sans'],[0.9],,,,N005,digit,1,"['6', '7', '8', '9']","['1', '2', '3', '4']",1,2023.2.3,harveydigits,2.1,[],8,0.75,
0,pause,0.4,None,None,None,0,7,7,7,,,,,,,,,,,,N005,digit,1,"['6', '7', '8', '9']","['1', '2', '3', '4']",1,2023.2.3,harveydigits,2.1,[],8,0.75,
1,digit,0.3,['dot'],['big_1'],black,0,8,8,8,,,5.200207948684692,4.906857967376709,5.206171989440918,"[[0.09008289550901002, 0.061662786128477864]]",['DejaVu Sans'],[0.9],,,,N005,digit,1,"['6', '7', '8', '9']","['1', '2', '3', '4']",1,2023.2.3,harveydigits,2.1,[],8,0.75,
0,pause,0.4,None,None,None,0,9,9,9,,,,,,,,,,,,N005,digit,1,"['6', '7', '8', '9']","['1', '2', '3', '4']",1,2023.2.3,harveydigits,2.1,[],8,0.75,
1,digit,0.3,['dot'],['big_1'],black,0,10,10,10,,,5.9002180099487305,5.60617995262146,5.9086010456085205,"[[-0.10873285951760119, 0.14651810535838855]]",['DejaVu Sans'],[0.9],,,,N005,digit,1,"['6', '7', '8', '9']","['1', '2', '3', '4']",1,2023.2.3,harveydigits,2.1,[],8,0.75,
0,pause,0.4,None,None,None,0,11,11,11,,,,,,,,,,,,N005,digit,1,"['6', '7', '8', '9']","['1', '2', '3', '4']",1,2023.2.3,harveydigits,2.1,[],8,0.75,
2,digit,0.3,['dot'],['big_1'],black,0,12,12,12,,,6.60019588470459,6.308512926101685,6.608449935913086,"[[-0.04808909571175918, 0.03720622068718479]]",['DejaVu Sans'],[0.9],,,,N005,digit,1,"['6', '7', '8', '9']","['1', '2', '3', '4']",1,2023.2.3,harveydigits,2.1,[],8,0.75,
0,pause,0.4,None,None,None,0,13,13,13,,,,,,,,,,,,N005,digit,1,"['6', '7', '8', '9']","['1', '2', '3', '4']",1,2023.2.3,harveydigits,2.1,[],8,0.75,
2,digit,0.3,['dot'],['big_1'],black,0,14,14,14,,,7.3002119064331055,7.008495092391968,7.308414936065674,"[[0.050628718964236236, -0.06390786696816814]]",['DejaVu Sans'],[0.9],,,,N005,digit,1,"['6', '7', '8', '9']","['1', '2', '3', '4']",1,2023.2.3,harveydigits,2.1,[],8,0.75,
0,pause,0.4,None,None,None,0,15,15,15,,,,,,,,,,,,N005,digit,1,"['6', '7', '8', '9']","['1', '2', '3', '4']",1,2023.2.3,harveydigits,2.1,[],8,0.75,
2,digit,0.3,['dot'],['big_1'],black,0,16,16,16,,,8.000200986862183,7.709537029266357,8.00841498374939,"[[-0.1369720141234349, 0.10861049979906603]]",['DejaVu Sans'],[0.9],,,,N005,digit,1,"['6', '7', '8', '9']","['1', '2', '3', '4']",1,2023.2.3,harveydigits,2.1,[],8,0.75,
0,pause,0.4,None,None,None,0,17,17,17,,,,,,,,,,,,N005,digit,1,"['6', '7', '8', '9']","['1', '2', '3', '4']",1,2023.2.3,harveydigits,2.1,[],8,0.75,
2,digit,0.3,['dot'],['big_1'],black,0,18,18,18,,,8.700217008590698,8.408397912979126,8.708565950393677,"[[-0.1680280270810264, -0.036515593937195265]]",['DejaVu Sans'],[0.9],,,,N005,digit,1,"['6', '7', '8', '9']","['1', '2', '3', '4']",1,2023.2.3,harveydigits,2.1,[],8,0.75,
0,pause,0.4,None,None,None,0,19,19,19,,,,,,,,,,,,N005,digit,1,"['6', '7', '8', '9']","['1', '2', '3', '4']",1,2023.2.3,harveydigits,2.1,[],8,0.75,
2,digit,0.3,['dot'],['big_1'],black,0,20,20,20,,,9.400193929672241,9.10843801498413,9.408425092697144,"[[0.17468648178245103, 0.010640109543049614]]",['DejaVu Sans'],[0.9],,,,N005,digit,1,"['6', '7', '8', '9']","['1', '2', '3', '4']",1,2023.2.3,harveydigits,2.1,[],8,0.75,
0,pause,0.4,None,None,None,0,21,21,21,,,,,,,,,,,,N005,digit,1,"['6', '7', '8', '9']","['1', '2', '3', '4']",1,2023.2.3,harveydigits,2.1,[],8,0.75,
2,digit,0.3,['dot'],['big_1'],black,0,22,22,22,,,10.100199937820435,9.808547973632812,10.10836410522461,"[[-0.06450504851139643, 0.07470671791913217]]",['DejaVu Sans'],[0.9],,,,N005,digit,1,"['6', '7', '8', '9']","['1', '2', '3', '4']",1,2023.2.3,harveydigits,2.1,[],8,0.75,
0,pause,0.4,None,None,None,0,23,23,23,,,,,,,,,,,,N005,digit,1,"['6', '7', '8', '9']","['1', '2', '3', '4']",1,2023.2.3,harveydigits,2.1,[],8,0.75,
3,digit,0.3,['dot'],['big_1'],black,0,24,24,24,,,10.800206899642944,10.50841999053955,10.808502912521362,"[[-0.05966964987936735, -0.14219228446532572]]",['DejaVu Sans'],[0.9],,,,N005,digit,1,"['6', '7', '8', '9']","['1', '2', '3', '4']",1,2023.2.3,harveydigits,2.1,[],8,0.75,
0,pause,0.4,None,None,None,0,25,25,25,,,,,,,,,,,,N005,digit,1,"['6', '7', '8', '9']","['1', '2', '3', '4']",1,2023.2.3,harveydigits,2.1,[],8,0.75,
3,digit,0.3,['dot'],['big_1'],black,0,26,26,26,,,11.500196933746338,11.20838189125061,11.508311033248901,"[[-0.18080283834372754, -0.0060025715691006815]]",['DejaVu Sans'],[0.9],,,,N005,digit,1,"['6', '7', '8', '9']","['1', '2', '3', '4']",1,2023.2.3,harveydigits,2.1,[],8,0.75,
0,pause,0.4,None,None,None,0,27,27,27,,,,,,,,,,,,N005,digit,1,"['6', '7', '8', '9']","['1', '2', '3', '4']",1,2023.2.3,harveydigits,2.1,[],8,0.75,
3,digit,0.3,['dot'],['big_1'],black,0,28,28,28,,,12.200202941894531,11.908480882644653,12.208301067352295,"[[-0.19899987161130095, 0.0173462589229929]]",['DejaVu Sans'],[0.9],,,,N005,digit,1,"['6', '7', '8', '9']","['1', '2', '3', '4']",1,2023.2.3,harveydigits,2.1,[],8,0.75,
0,pause,0.4,None,None,None,0,29,29,29,,,,,,,,,,,,N005,digit,1,"['6', '7', '8', '9']","['1', '2', '3', '4']",1,2023.2.3,harveydigits,2.1,[],8,0.75,
3,digit,0.3,['dot'],['big_1'],black,0,30,30,30,,,12.900212049484253,12.608346939086914,12.90842890739441,"[[0.028687994911328035, -0.1552299824735881]]",['DejaVu Sans'],[0.9],,,,N005,digit,1,"['6', '7', '8', '9']","['1', '2', '3', '4']",1,2023.2.3,harveydigits,2.1,[],8,0.75,
0,pause,0.4,None,None,None,0,31,31,31,,,,,,,,,,,,N005,digit,1,"['6', '7', '8', '9']","['1', '2', '3', '4']",1,2023.2.3,harveydigits,2.1,[],8,0.75,
3,digit,0.3,['dot'],['big_1'],black,0,32,32,32,,,13.60020899772644,13.308289051055908,13.608398914337158,"[[0.024296816001472266, -0.0831771258382951]]",['DejaVu Sans'],[0.9],,,,N005,digit,1,"['6', '7', '8', '9']","['1', '2', '3', '4']",1,2023.2.3,harveydigits,2.1,[],8,0.75,
0,pause,0.4,None,None,None,0,33,33,33,,,,,,,,,,,,N005,digit,1,"['6', '7', '8', '9']","['1', '2', '3', '4']",1,2023.2.3,harveydigits,2.1,[],8,0.75,
3,digit,0.3,['dot'],['big_1'],black,0,34,34,34,,,14.300201892852783,14.008240938186646,14.30839204788208,"[[0.1956245389044535, -0.019933798285962565]]",['DejaVu Sans'],[0.9],,,,N005,digit,1,"['6', '7', '8', '9']","['1', '2', '3', '4']",1,2023.2.3,harveydigits,2.1,[],8,0.75,
0,pause,0.4,None,None,None,0,35,35,35,,,,,,,,,,,,N005,digit,1,"['6', '7', '8', '9']","['1', '2', '3', '4']",1,2023.2.3,harveydigits,2.1,[],8,0.75,
4,digit,0.3,['dot'],['big_1'],black,0,36,36,36,,,15.000209093093872,14.708430051803589,15.00836706161499,"[[0.15487026920141198, -0.1010063346927654]]",['DejaVu Sans'],[0.9],,,,N005,digit,1,"['6', '7', '8', '9']","['1', '2', '3', '4']",1,2023.2.3,harveydigits,2.1,[],8,0.75,
0,pause,0.4,None,None,None,0,37,37,37,,,,,,,,,,,,N005,digit,1,"['6', '7', '8', '9']","['1', '2', '3', '4']",1,2023.2.3,harveydigits,2.1,[],8,0.75,
4,digit,0.3,['dot'],['big_1'],black,0,38,38,38,,,15.700198888778687,15.408236980438232,15.709343910217285,"[[0.13187157575686512, -0.1332240781642267]]",['DejaVu Sans'],[0.9],,,,N005,digit,1,"['6', '7', '8', '9']","['1', '2', '3', '4']",1,2023.2.3,harveydigits,2.1,[],8,0.75,
0,pause,0.4,None,None,None,0,39,39,39,,,,,,,,,,,,N005,digit,1,"['6', '7', '8', '9']","['1', '2', '3', '4']",1,2023.2.3,harveydigits,2.1,[],8,0.75,
4,digit,0.3,['dot'],['big_1'],black,0,40,40,40,,,16.40021300315857,16.10835599899292,16.408210039138794,"[[-0.04855977467413081, 0.1637069010114865]]",['DejaVu Sans'],[0.9],,,,N005,digit,1,"['6', '7', '8', '9']","['1', '2', '3', '4']",1,2023.2.3,harveydigits,2.1,[],8,0.75,
0,pause,0.4,None,None,None,0,41,41,41,,,,,,,,,,,,N005,digit,1,"['6', '7', '8', '9']","['1', '2', '3', '4']",1,2023.2.3,harveydigits,2.1,[],8,0.75,
4,digit,0.3,['dot'],['big_1'],black,0,42,42,42,,,17.100213050842285,16.808377027511597,17.108192920684814,"[[0.04096533941999317, -0.025183671922901607]]",['DejaVu Sans'],[0.9],,,,N005,digit,1,"['6', '7', '8', '9']","['1', '2', '3', '4']",1,2023.2.3,harveydigits,2.1,[],8,0.75,
0,pause,0.4,None,None,None,0,43,43,43,,,,,,,,,,,,N005,digit,1,"['6', '7', '8', '9']","['1', '2', '3', '4']",1,2023.2.3,harveydigits,2.1,[],8,0.75,
4,digit,0.3,['dot'],['big_1'],black,0,44,44,44,,,17.800198078155518,17.50818395614624,17.808293104171753,"[[-0.1422279476127843, 0.010916101151028285]]",['DejaVu Sans'],[0.9],,,,N005,digit,1,"['6', '7', '8', '9']","['1', '2', '3', '4']",1,2023.2.3,harveydigits,2.1,[],8,0.75,
0,pause,0.4,None,None,None,0,45,45,45,,,,,,,,,,,,N005,digit,1,"['6', '7', '8', '9']","['1', '2', '3', '4']",1,2023.2.3,harveydigits,2.1,[],8,0.75,
4,digit,0.3,['dot'],['big_1'],black,0,46,46,46,,,18.500200986862183,18.2081561088562,18.508156061172485,"[[0.05647632099760494, 0.12829538037419747]]",['DejaVu Sans'],[0.9],,,,N005,digit,1,"['6', '7', '8', '9']","['1', '2', '3', '4']",1,2023.2.3,harveydigits,2.1,[],8,0.75,
0,pause,0.4,None,None,None,0,47,47,47,,,,,,,,,,,,N005,digit,1,"['6', '7', '8', '9']","['1', '2', '3', '4']",1,2023.2.3,harveydigits,2.1,[],8,0.75,
5,digit,0.3,['dot'],['big_1'],black,0,48,48,48,,,19.200201988220215,18.90816593170166,19.208127975463867,"[[0.18002629245570492, 0.042908792704039286]]",['DejaVu Sans'],[0.9],,,,N005,digit,1,"['6', '7', '8', '9']","['1', '2', '3', '4']",1,2023.2.3,harveydigits,2.1,[],8,0.75,
0,pause,0.4,None,None,None,0,49,49,49,,,,,,,,,,,,N005,digit,1,"['6', '7', '8', '9']","['1', '2', '3', '4']",1,2023.2.3,harveydigits,2.1,[],8,0.75,
5,digit,0.3,['dot'],['big_1'],black,0,50,50,50,,,19.900196075439453,19.608304023742676,19.909224033355713,"[[-0.041022343029198355, -0.14674180417179847]]",['DejaVu Sans'],[0.9],,,,N005,digit,1,"['6', '7', '8', '9']","['1', '2', '3', '4']",1,2023.2.3,harveydigits,2.1,[],8,0.75,
0,pause,0.4,None,None,None,0,51,51,51,,,,,,,,,,,,N005,digit,1,"['6', '7', '8', '9']","['1', '2', '3', '4']",1,2023.2.3,harveydigits,2.1,[],8,0.75,
5,digit,0.3,['dot'],['big_1'],black,0,52,52,52,,,20.600214958190918,20.308157920837402,20.608272075653076,"[[-0.12757854548636724, -0.13900212513434423]]",['DejaVu Sans'],[0.9],,,,N005,digit,1,"['6', '7', '8', '9']","['1', '2', '3', '4']",1,2023.2.3,harveydigits,2.1,[],8,0.75,
0,pause,0.4,None,None,None,0,53,53,53,,,,,,,,,,,,N005,digit,1,"['6', '7', '8', '9']","['1', '2', '3', '4']",1,2023.2.3,harveydigits,2.1,[],8,0.75,
5,digit,0.3,['dot'],['big_1'],black,0,54,54,54,,,21.300214052200317,21.00812292098999,21.308083057403564,"[[-0.15198918211415646, -0.08793788517924164]]",['DejaVu Sans'],[0.9],,,,N005,digit,1,"['6', '7', '8', '9']","['1', '2', '3', '4']",1,2023.2.3,harveydigits,2.1,[],8,0.75,
0,pause,0.4,None,None,None,0,55,55,55,,,,,,,,,,,,N005,digit,1,"['6', '7', '8', '9']","['1', '2', '3', '4']",1,2023.2.3,harveydigits,2.1,[],8,0.75,
5,digit,0.3,['dot'],['big_1'],black,0,56,56,56,,,22.000202894210815,21.708131074905396,22.008063077926636,"[[0.1105499284565705, 0.0515148579583074]]",['DejaVu Sans'],[0.9],,,,N005,digit,1,"['6', '7', '8', '9']","['1', '2', '3', '4']",1,2023.2.3,harveydigits,2.1,[],8,0.75,
0,pause,0.4,None,None,None,0,57,57,57,,,,,,,,,,,,N005,digit,1,"['6', '7', '8', '9']","['1', '2', '3', '4']",1,2023.2.3,harveydigits,2.1,[],8,0.75,
5,digit,0.3,['dot'],['big_1'],black,0,58,58,58,,,22.700210094451904,22.408057928085327,22.70809507369995,"[[-0.1886184941895474, -0.04100810988107417]]",['DejaVu Sans'],[0.9],,,,N005,digit,1,"['6', '7', '8', '9']","['1', '2', '3', '4']",1,2023.2.3,harveydigits,2.1,[],8,0.75,
0,pause,0.4,None,None,None,0,59,59,59,,,,,,,,,,,,N005,digit,1,"['6', '7', '8', '9']","['1', '2', '3', '4']",1,2023.2.3,harveydigits,2.1,[],8,0.75,
6,digit,0.3,['dot'],['big_1'],black,0,60,60,60,,,23.400196075439453,23.10808491706848,23.40802788734436,"[[0.10355264190112853, -0.08627629517104453]]",['DejaVu Sans'],[0.9],,,,N005,digit,1,"['6', '7', '8', '9']","['1', '2', '3', '4']",1,2023.2.3,harveydigits,2.1,[],8,0.75,
0,pause,0.4,None,None,None,0,61,61,61,,,,,,,,,,,,N005,digit,1,"['6', '7', '8', '9']","['1', '2', '3', '4']",1,2023.2.3,harveydigits,2.1,[],8,0.75,
6,digit,0.3,['dot'],['big_1'],black,0,62,62,62,,,24.100204944610596,23.808037042617798,24.108006954193115,"[[-0.1657175592985426, 0.06950537402452482]]",['DejaVu Sans'],[0.9],,,,N005,digit,1,"['6', '7', '8', '9']","['1', '2', '3', '4']",1,2023.2.3,harveydigits,2.1,[],8,0.75,
0,pause,0.4,None,None,None,0,63,63,63,,,,,,,,,,,,N005,digit,1,"['6', '7', '8', '9']","['1', '2', '3', '4']",1,2023.2.3,harveydigits,2.1,[],8,0.75,
6,digit,0.3,['dot'],['big_1'],black,0,64,64,64,,,24.800201892852783,24.508008003234863,24.808029890060425,"[[0.186657784721705, -0.06428875213383678]]",['DejaVu Sans'],[0.9],,,,N005,digit,1,"['6', '7', '8', '9']","['1', '2', '3', '4']",1,2023.2.3,harveydigits,2.1,[],8,0.75,
0,pause,0.4,None,None,None,0,65,65,65,,,,,,,,,,,,N005,digit,1,"['6', '7', '8', '9']","['1', '2', '3', '4']",1,2023.2.3,harveydigits,2.1,[],8,0.75,
6,digit,0.3,['dot'],['big_1'],black,0,66,66,66,,,25.50019907951355,25.207993984222412,25.507978916168213,"[[-0.18490777753988283, -0.044808962984833924]]",['DejaVu Sans'],[0.9],,,,N005,digit,1,"['6', '7', '8', '9']","['1', '2', '3', '4']",1,2023.2.3,harveydigits,2.1,[],8,0.75,
0,pause,0.4,None,None,None,0,67,67,67,,,,,,,,,,,,N005,digit,1,"['6', '7', '8', '9']","['1', '2', '3', '4']",1,2023.2.3,harveydigits,2.1,[],8,0.75,
6,digit,0.3,['dot'],['big_1'],black,0,68,68,68,,,26.200203895568848,25.908010005950928,26.20795702934265,"[[0.1214997423626942, 0.13529935810653598]]",['DejaVu Sans'],[0.9],,,,N005,digit,1,"['6', '7', '8', '9']","['1', '2', '3', '4']",1,2023.2.3,harveydigits,2.1,[],8,0.75,
0,pause,0.4,None,None,None,0,69,69,69,,,,,,,,,,,,N005,digit,1,"['6', '7', '8', '9']","['1', '2', '3', '4']",1,2023.2.3,harveydigits,2.1,[],8,0.75,
6,digit,0.3,['dot'],['big_1'],black,0,70,70,70,,,26.900202989578247,26.608098030090332,26.925524950027466,"[[0.027102354908576404, 0.1878994252390755]]",['DejaVu Sans'],[0.9],,,,N005,digit,1,"['6', '7', '8', '9']","['1', '2', '3', '4']",1,2023.2.3,harveydigits,2.1,[],8,0.75,
0,pause,0.4,None,None,None,0,71,71,71,,,,,,,,,,,,N005,digit,1,"['6', '7', '8', '9']","['1', '2', '3', '4']",1,2023.2.3,harveydigits,2.1,[],8,0.75,
7,digit,0.3,['dot'],['big_1'],black,0,72,72,72,,,27.600213050842285,27.307926893234253,27.608067989349365,"[[0.11767435969581128, 0.14463893792906238]]",['DejaVu Sans'],[0.9],,,,N005,digit,1,"['6', '7', '8', '9']","['1', '2', '3', '4']",1,2023.2.3,harveydigits,2.1,[],8,0.75,
0,pause,0.4,None,None,None,0,73,73,73,,,,,,,,,,,,N005,digit,1,"['6', '7', '8', '9']","['1', '2', '3', '4']",1,2023.2.3,harveydigits,2.1,[],8,0.75,
7,digit,0.3,['dot'],['big_1'],black,0,74,74,74,,,28.300200939178467,28.007925033569336,28.307904958724976,"[[0.1359857139465316, -0.04336185277157928]]",['DejaVu Sans'],[0.9],,,,N005,digit,1,"['6', '7', '8', '9']","['1', '2', '3', '4']",1,2023.2.3,harveydigits,2.1,[],8,0.75,
0,pause,0.4,None,None,None,0,75,75,75,,,,,,,,,,,,N005,digit,1,"['6', '7', '8', '9']","['1', '2', '3', '4']",1,2023.2.3,harveydigits,2.1,[],8,0.75,
7,digit,0.3,['dot'],['big_1'],black,0,76,76,76,,,29.000219106674194,28.707937955856323,29.00857901573181,"[[-0.17068246383895394, 0.048441392005801776]]",['DejaVu Sans'],[0.9],,,,N005,digit,1,"['6', '7', '8', '9']","['1', '2', '3', '4']",1,2023.2.3,harveydigits,2.1,[],8,0.75,
0,pause,0.4,None,None,None,0,77,77,77,,,,,,,,,,,,N005,digit,1,"['6', '7', '8', '9']","['1', '2', '3', '4']",1,2023.2.3,harveydigits,2.1,[],8,0.75,
7,digit,0.3,['dot'],['big_1'],black,0,78,78,78,,,29.700203895568848,29.408286094665527,29.709099054336548,"[[0.15831171923214324, -0.040736807060524266]]",['DejaVu Sans'],[0.9],,,,N005,digit,1,"['6', '7', '8', '9']","['1', '2', '3', '4']",1,2023.2.3,harveydigits,2.1,[],8,0.75,
0,pause,0.4,None,None,None,0,79,79,79,,,,,,,,,,,,N005,digit,1,"['6', '7', '8', '9']","['1', '2', '3', '4']",1,2023.2.3,harveydigits,2.1,[],8,0.75,
7,digit,0.3,['dot'],['big_1'],black,0,80,80,80,,,30.400203943252563,30.107842922210693,30.40786910057068,"[[-0.0875715639701628, -0.15648701341258373]]",['DejaVu Sans'],[0.9],,,,N005,digit,1,"['6', '7', '8', '9']","['1', '2', '3', '4']",1,2023.2.3,harveydigits,2.1,[],8,0.75,
0,pause,0.4,None,None,None,0,81,81,81,,,,,,,,,,,,N005,digit,1,"['6', '7', '8', '9']","['1', '2', '3', '4']",1,2023.2.3,harveydigits,2.1,[],8,0.75,
7,digit,0.3,['dot'],['big_1'],black,0,82,82,82,,,31.100218057632446,30.807828903198242,31.107841968536377,"[[0.15733963343962235, -0.002126261073322852]]",['DejaVu Sans'],[0.9],,,,N005,digit,1,"['6', '7', '8', '9']","['1', '2', '3', '4']",1,2023.2.3,harveydigits,2.1,[],8,0.75,
0,pause,0.4,None,None,None,0,83,83,83,,,,,,,,,,,,N005,digit,1,"['6', '7', '8', '9']","['1', '2', '3', '4']",1,2023.2.3,harveydigits,2.1,[],8,0.75,
8,digit,0.3,['dot'],['big_1'],black,0,84,84,84,,,31.800201892852783,31.50783395767212,31.8089759349823,"[[0.053396914012486946, 0.13051439420459363]]",['DejaVu Sans'],[0.9],,,,N005,digit,1,"['6', '7', '8', '9']","['1', '2', '3', '4']",1,2023.2.3,harveydigits,2.1,[],8,0.75,
0,pause,0.4,None,None,None,0,85,85,85,,,,,,,,,,,,N005,digit,1,"['6', '7', '8', '9']","['1', '2', '3', '4']",1,2023.2.3,harveydigits,2.1,[],8,0.75,
8,digit,0.3,['dot'],['big_1'],black,0,86,86,86,,,32.50022602081299,32.20781993865967,32.507822036743164,"[[0.18727267730767086, 0.025488851399589743]]",['DejaVu Sans'],[0.9],,,,N005,digit,1,"['6', '7', '8', '9']","['1', '2', '3', '4']",1,2023.2.3,harveydigits,2.1,[],8,0.75,
0,pause,0.4,None,None,None,0,87,87,87,,,,,,,,,,,,N005,digit,1,"['6', '7', '8', '9']","['1', '2', '3', '4']",1,2023.2.3,harveydigits,2.1,[],8,0.75,
8,digit,0.3,['dot'],['big_1'],black,0,88,88,88,,,33.20021605491638,32.9077889919281,33.20769906044006,"[[-0.19867381720114616, -0.010619519809468734]]",['DejaVu Sans'],[0.9],,,,N005,digit,1,"['6', '7', '8', '9']","['1', '2', '3', '4']",1,2023.2.3,harveydigits,2.1,[],8,0.75,
0,pause,0.4,None,None,None,0,89,89,89,,,,,,,,,,,,N005,digit,1,"['6', '7', '8', '9']","['1', '2', '3', '4']",1,2023.2.3,harveydigits,2.1,[],8,0.75,
8,digit,0.3,['dot'],['big_1'],black,0,90,90,90,,,33.90021991729736,33.607969999313354,33.9244749546051,"[[-0.04112156786466503, -0.0975450594204174]]",['DejaVu Sans'],[0.9],,,,N005,digit,1,"['6', '7', '8', '9']","['1', '2', '3', '4']",1,2023.2.3,harveydigits,2.1,[],8,0.75,
0,pause,0.4,None,None,None,0,91,91,91,,,,,,,,,,,,N005,digit,1,"['6', '7', '8', '9']","['1', '2', '3', '4']",1,2023.2.3,harveydigits,2.1,[],8,0.75,
8,digit,0.3,['dot'],['big_1'],black,0,92,92,92,,,34.60021209716797,34.30780601501465,34.60783004760742,"[[0.19390374697924637, 0.024971089508429238]]",['DejaVu Sans'],[0.9],,,,N005,digit,1,"['6', '7', '8', '9']","['1', '2', '3', '4']",1,2023.2.3,harveydigits,2.1,[],8,0.75,
0,pause,0.4,None,None,None,0,93,93,93,,,,,,,,,,,,N005,digit,1,"['6', '7', '8', '9']","['1', '2', '3', '4']",1,2023.2.3,harveydigits,2.1,[],8,0.75,
8,digit,0.3,['dot'],['big_1'],black,0,94,94,94,,,35.30021810531616,35.007771015167236,35.3253059387207,"[[0.04541071010094194, -0.025271714549591456]]",['DejaVu Sans'],[0.9],,,,N005,digit,1,"['6', '7', '8', '9']","['1', '2', '3', '4']",1,2023.2.3,harveydigits,2.1,[],8,0.75,
0,pause,0.4,None,None,None,0,95,95,95,,,,,,,,,,,,N005,digit,1,"['6', '7', '8', '9']","['1', '2', '3', '4']",1,2023.2.3,harveydigits,2.1,[],8,0.75,
9,digit,0.3,['dot'],['big_1'],black,0,96,96,96,,,36.00020503997803,35.70773696899414,36.0253369808197,"[[-0.19331701641671287, -0.007609606537743403]]",['DejaVu Sans'],[0.9],,,,N005,digit,1,"['6', '7', '8', '9']","['1', '2', '3', '4']",1,2023.2.3,harveydigits,2.1,[],8,0.75,
0,pause,0.4,None,None,None,0,97,97,97,,,,,,,,,,,,N005,digit,1,"['6', '7', '8', '9']","['1', '2', '3', '4']",1,2023.2.3,harveydigits,2.1,[],8,0.75,
9,digit,0.3,['dot'],['big_1'],black,0,98,98,98,,,36.700210094451904,36.40775203704834,36.707693099975586,"[[0.12250898782282796, 0.013584392706256554]]",['DejaVu Sans'],[0.9],,,,N005,digit,1,"['6', '7', '8', '9']","['1', '2', '3', '4']",1,2023.2.3,harveydigits,2.1,[],8,0.75,
0,pause,0.4,None,None,None,0,99,99,99,,,,,,,,,,,,N005,digit,1,"['6', '7', '8', '9']","['1', '2', '3', '4']",1,2023.2.3,harveydigits,2.1,[],8,0.75,
9,digit,0.3,['dot'],['big_1'],black,0,100,100,100,,,37.40021204948425,37.10880994796753,37.40782308578491,"[[0.021636888934739307, -0.10280639303345533]]",['DejaVu Sans'],[0.9],,,,N005,digit,1,"['6', '7', '8', '9']","['1', '2', '3', '4']",1,2023.2.3,harveydigits,2.1,[],8,0.75,
0,pause,0.4,None,None,None,0,101,101,101,,,,,,,,,,,,N005,digit,1,"['6', '7', '8', '9']","['1', '2', '3', '4']",1,2023.2.3,harveydigits,2.1,[],8,0.75,
9,digit,0.3,['dot'],['big_1'],black,0,102,102,102,,,38.10022592544556,37.8087899684906,38.10759210586548,"[[0.11121564757156996, 0.08203866826759484]]",['DejaVu Sans'],[0.9],,,,N005,digit,1,"['6', '7', '8', '9']","['1', '2', '3', '4']",1,2023.2.3,harveydigits,2.1,[],8,0.75,
0,pause,0.4,None,None,None,0,103,103,103,,,,,,,,,,,,N005,digit,1,"['6', '7', '8', '9']","['1', '2', '3', '4']",1,2023.2.3,harveydigits,2.1,[],8,0.75,
9,digit,0.3,['dot'],['big_1'],black,0,104,104,104,,,38.800204038619995,38.50766110420227,38.808753967285156,"[[0.03252357079119492, -0.019475688053407825]]",['DejaVu Sans'],[0.9],,,,N005,digit,1,"['6', '7', '8', '9']","['1', '2', '3', '4']",1,2023.2.3,harveydigits,2.1,[],8,0.75,
0,pause,0.4,None,None,None,0,105,105,105,,,,,,,,,,,,N005,digit,1,"['6', '7', '8', '9']","['1', '2', '3', '4']",1,2023.2.3,harveydigits,2.1,[],8,0.75,
9,digit,0.3,['dot'],['big_1'],black,0,106,106,106,,,39.500216007232666,39.2076530456543,39.52431106567383,"[[-0.14352230907228092, 0.12715924273222923]]",['DejaVu Sans'],[0.9],,,,N005,digit,1,"['6', '7', '8', '9']","['1', '2', '3', '4']",1,2023.2.3,harveydigits,2.1,[],8,0.75,
0,pause,0.4,None,None,None,0,107,107,107,,,,,,,,,,,,N005,digit,1,"['6', '7', '8', '9']","['1', '2', '3', '4']",1,2023.2.3,harveydigits,2.1,[],8,0.75,
20,digit,0.3,['dot'],['big_1'],black,0,108,108,108,,,40.20020389556885,39.907665967941284,40.22424006462097,"[[-0.11471443733123715, -0.11359007630262098]]",['DejaVu Sans'],[0.9],,,,N005,digit,1,"['6', '7', '8', '9']","['1', '2', '3', '4']",1,2023.2.3,harveydigits,2.1,[],8,0.75,
0,pause,0.4,None,None,None,0,109,109,109,,,,,,,,,,,,N005,digit,1,"['6', '7', '8', '9']","['1', '2', '3', '4']",1,2023.2.3,harveydigits,2.1,[],8,0.75,
20,digit,0.3,['dot'],['big_1'],black,0,110,110,110,,,40.900224924087524,40.60762095451355,40.92422008514404,"[[0.04561172992450602, -0.10449146861361748]]",['DejaVu Sans'],[0.9],,,,N005,digit,1,"['6', '7', '8', '9']","['1', '2', '3', '4']",1,2023.2.3,harveydigits,2.1,[],8,0.75,
0,pause,0.4,None,None,None,0,111,111,111,,,,,,,,,,,,N005,digit,1,"['6', '7', '8', '9']","['1', '2', '3', '4']",1,2023.2.3,harveydigits,2.1,[],8,0.75,
20,digit,0.3,['dot'],['big_1'],black,0,112,112,112,,,41.60022592544556,41.30871891975403,41.62438488006592,"[[-0.18490256162040677, 0.07390926709418735]]",['DejaVu Sans'],[0.9],,,,N005,digit,1,"['6', '7', '8', '9']","['1', '2', '3', '4']",1,2023.2.3,harveydigits,2.1,[],8,0.75,
0,pause,0.4,None,None,None,0,113,113,113,,,,,,,,,,,,N005,digit,1,"['6', '7', '8', '9']","['1', '2', '3', '4']",1,2023.2.3,harveydigits,2.1,[],8,0.75,
20,digit,0.3,['dot'],['big_1'],black,0,114,114,114,,,42.30021810531616,42.00913095474243,42.32419204711914,"[[0.14929913377484047, 0.09224919352842495]]",['DejaVu Sans'],[0.9],,,,N005,digit,1,"['6', '7', '8', '9']","['1', '2', '3', '4']",1,2023.2.3,harveydigits,2.1,[],8,0.75,
0,pause,0.4,None,None,None,0,115,115,115,,,,,,,,,,,,N005,digit,1,"['6', '7', '8', '9']","['1', '2', '3', '4']",1,2023.2.3,harveydigits,2.1,[],8,0.75,
20,digit,0.3,['dot'],['big_1'],black,0,116,116,116,,,43.000224113464355,42.70758008956909,43.00750207901001,"[[0.09415316238143687, -0.10286552325515448]]",['DejaVu Sans'],[0.9],,,,N005,digit,1,"['6', '7', '8', '9']","['1', '2', '3', '4']",1,2023.2.3,harveydigits,2.1,[],8,0.75,
0,pause,0.4,None,None,None,0,117,117,117,,,,,,,,,,,,N005,digit,1,"['6', '7', '8', '9']","['1', '2', '3', '4']",1,2023.2.3,harveydigits,2.1,[],8,0.75,
20,digit,0.3,['dot'],['big_1'],black,0,118,118,118,,,43.70022797584534,43.40750694274902,43.72417211532593,"[[-0.17348025906557318, 0.0631336453043975]]",['DejaVu Sans'],[0.9],,,,N005,digit,1,"['6', '7', '8', '9']","['1', '2', '3', '4']",1,2023.2.3,harveydigits,2.1,[],8,0.75,
0,pause,0.4,None,None,None,0,119,119,119,,,,,,,,,,,,N005,digit,1,"['6', '7', '8', '9']","['1', '2', '3', '4']",1,2023.2.3,harveydigits,2.1,[],8,0.75,
20,digit,0.3,['dot'],['big_1'],black,0,120,120,120,,,44.400206089019775,44.10757803916931,44.4241840839386,"[[0.16311792871431333, -0.029244731984318095]]",['DejaVu Sans'],[0.9],,,,N005,digit,1,"['6', '7', '8', '9']","['1', '2', '3', '4']",1,2023.2.3,harveydigits,2.1,[],8,0.75,
0,pause,0.4,None,None,None,0,121,121,121,,,,,,,,,,,,N005,digit,1,"['6', '7', '8', '9']","['1', '2', '3', '4']",1,2023.2.3,harveydigits,2.1,[],8,0.75,
20,digit,0.3,['dot'],['big_1'],black,0,122,122,122,,,45.100213050842285,44.80748200416565,45.125433921813965,"[[0.13491997455897634, 0.0054372323527853705]]",['DejaVu Sans'],[0.9],,,,N005,digit,1,"['6', '7', '8', '9']","['1', '2', '3', '4']",1,2023.2.3,harveydigits,2.1,[],8,0.75,
0,pause,0.4,None,None,None,0,123,123,123,,,,,,,,,,,,N005,digit,1,"['6', '7', '8', '9']","['1', '2', '3', '4']",1,2023.2.3,harveydigits,2.1,[],8,0.75,
20,digit,0.3,['dot'],['big_1'],black,0,124,124,124,,,45.800204038619995,45.507500886917114,45.82412910461426,"[[0.1073680762300844, 0.15764280462468247]]",['DejaVu Sans'],[0.9],,,,N005,digit,1,"['6', '7', '8', '9']","['1', '2', '3', '4']",1,2023.2.3,harveydigits,2.1,[],8,0.75,
0,pause,0.4,None,None,None,0,125,125,125,,,,,,,,,,,,N005,digit,1,"['6', '7', '8', '9']","['1', '2', '3', '4']",1,2023.2.3,harveydigits,2.1,[],8,0.75,
20,digit,0.3,['dot'],['big_1'],black,0,126,126,126,,,46.50020503997803,46.20745897293091,46.5241060256958,"[[0.18117153727780125, 0.0384592742987233]]",['DejaVu Sans'],[0.9],,,,N005,digit,1,"['6', '7', '8', '9']","['1', '2', '3', '4']",1,2023.2.3,harveydigits,2.1,[],8,0.75,
0,pause,0.4,None,None,None,0,127,127,127,,,,,,,,,,,,N005,digit,1,"['6', '7', '8', '9']","['1', '2', '3', '4']",1,2023.2.3,harveydigits,2.1,[],8,0.75,
20,digit,0.3,['dot'],['big_1'],black,0,128,128,128,,,47.200201988220215,46.90743708610535,47.22409009933472,"[[-0.00747882252308979, 0.11674367347975698]]",['DejaVu Sans'],[0.9],,,,N005,digit,1,"['6', '7', '8', '9']","['1', '2', '3', '4']",1,2023.2.3,harveydigits,2.1,[],8,0.75,
0,pause,0.4,None,None,None,0,129,129,129,,,,,,,,,,,,N005,digit,1,"['6', '7', '8', '9']","['1', '2', '3', '4']",1,2023.2.3,harveydigits,2.1,[],8,0.75,
20,digit,0.3,['dot'],['big_1'],black,0,130,130,130,,,47.90020799636841,47.60854697227478,47.92407298088074,"[[-0.18498412361933897, 0.03674842976254157]]",['DejaVu Sans'],[0.9],,,,N005,digit,1,"['6', '7', '8', '9']","['1', '2', '3', '4']",1,2023.2.3,harveydigits,2.1,[],8,0.75,
0,pause,0.4,None,None,None,0,131,131,131,,,,,,,,,,,,N005,digit,1,"['6', '7', '8', '9']","['1', '2', '3', '4']",1,2023.2.3,harveydigits,2.1,[],8,0.75,
20,digit,0.3,['dot'],['big_1'],black,0,132,132,132,,,48.600224018096924,48.325172901153564,48.62404799461365,"[[-0.05493783710671901, 0.18284754226763003]]",['DejaVu Sans'],[0.9],,,,N005,digit,1,"['6', '7', '8', '9']","['1', '2', '3', '4']",1,2023.2.3,harveydigits,2.1,[],8,0.75,
0,pause,0.4,None,None,None,0,133,133,133,,,,,,,,,,,,N005,digit,1,"['6', '7', '8', '9']","['1', '2', '3', '4']",1,2023.2.3,harveydigits,2.1,[],8,0.75,
20,digit,0.3,['dot'],['big_1'],black,0,134,134,134,,,49.30020594596863,49.00744009017944,49.32795000076294,"[[-0.17866241524039594, -0.05084912613546685]]",['DejaVu Sans'],[0.9],,,,N005,digit,1,"['6', '7', '8', '9']","['1', '2', '3', '4']",1,2023.2.3,harveydigits,2.1,[],8,0.75,
0,pause,0.4,None,None,None,0,135,135,135,,,,,,,,,,,,N005,digit,1,"['6', '7', '8', '9']","['1', '2', '3', '4']",1,2023.2.3,harveydigits,2.1,[],8,0.75,
20,digit,0.3,['dot'],['big_1'],black,0,136,136,136,,,50.00020909309387,49.7073860168457,50.024090051651,"[[-0.14669017169016585, 0.07369861375324285]]",['DejaVu Sans'],[0.9],,,,N005,digit,1,"['6', '7', '8', '9']","['1', '2', '3', '4']",1,2023.2.3,harveydigits,2.1,[],8,0.75,
0,pause,0.4,None,None,None,0,137,137,137,,,,,,,,,,,,N005,digit,1,"['6', '7', '8', '9']","['1', '2', '3', '4']",1,2023.2.3,harveydigits,2.1,[],8,0.75,
20,digit,0.3,['dot'],['big_1'],black,0,138,138,138,,,50.700206995010376,50.40734505653381,50.72512102127075,"[[-0.06200372540695359, 0.08088313886326684]]",['DejaVu Sans'],[0.9],,,,N005,digit,1,"['6', '7', '8', '9']","['1', '2', '3', '4']",1,2023.2.3,harveydigits,2.1,[],8,0.75,
0,pause,0.4,None,None,None,0,139,139,139,,,,,,,,,,,,N005,digit,1,"['6', '7', '8', '9']","['1', '2', '3', '4']",1,2023.2.3,harveydigits,2.1,[],8,0.75,
20,digit,0.3,['dot'],['big_1'],black,0,140,140,140,,,51.40022301673889,51.10736107826233,51.424038887023926,"[[0.19896831716930094, 0.0035499716628969134]]",['DejaVu Sans'],[0.9],,,,N005,digit,1,"['6', '7', '8', '9']","['1', '2', '3', '4']",1,2023.2.3,harveydigits,2.1,[],8,0.75,
0,pause,0.4,None,None,None,0,141,141,141,,,,,,,,,,,,N005,digit,1,"['6', '7', '8', '9']","['1', '2', '3', '4']",1,2023.2.3,harveydigits,2.1,[],8,0.75,
20,digit,0.3,['dot'],['big_1'],black,0,142,142,142,,,52.10021710395813,51.80845499038696,52.1239550113678,"[[0.02166377077504586, -0.02510749373676638]]",['DejaVu Sans'],[0.9],,,,N005,digit,1,"['6', '7', '8', '9']","['1', '2', '3', '4']",1,2023.2.3,harveydigits,2.1,[],8,0.75,
0,pause,0.4,None,None,None,0,143,143,143,,,,,,,,,,,,N005,digit,1,"['6', '7', '8', '9']","['1', '2', '3', '4']",1,2023.2.3,harveydigits,2.1,[],8,0.75,
20,digit,0.3,['dot'],['big_1'],black,0,144,144,144,,,52.80021810531616,52.50730490684509,52.82394790649414,"[[-0.17477346610154684, 0.07368272230892449]]",['DejaVu Sans'],[0.9],,,,N005,digit,1,"['6', '7', '8', '9']","['1', '2', '3', '4']",1,2023.2.3,harveydigits,2.1,[],8,0.75,
0,pause,0.4,None,None,None,0,145,145,145,,,,,,,,,,,,N005,digit,1,"['6', '7', '8', '9']","['1', '2', '3', '4']",1,2023.2.3,harveydigits,2.1,[],8,0.75,
20,digit,0.3,['dot'],['big_1'],black,0,146,146,146,,,53.50023007392883,53.20728302001953,53.523924112319946,"[[0.0031570891702221715, 0.05747710011741228]]",['DejaVu Sans'],[0.9],,,,N005,digit,1,"['6', '7', '8', '9']","['1', '2', '3', '4']",1,2023.2.3,harveydigits,2.1,[],8,0.75,
0,pause,0.4,None,None,None,0,147,147,147,,,,,,,,,,,,N005,digit,1,"['6', '7', '8', '9']","['1', '2', '3', '4']",1,2023.2.3,harveydigits,2.1,[],8,0.75,
20,digit,0.3,['dot'],['big_1'],black,0,148,148,148,,,54.20021390914917,53.90728306770325,54.22390794754028,"[[-0.0773867090414134, 0.15576647350694112]]",['DejaVu Sans'],[0.9],,,,N005,digit,1,"['6', '7', '8', '9']","['1', '2', '3', '4']",1,2023.2.3,harveydigits,2.1,[],8,0.75,
0,pause,0.4,None,None,None,0,149,149,149,,,,,,,,,,,,N005,digit,1,"['6', '7', '8', '9']","['1', '2', '3', '4']",1,2023.2.3,harveydigits,2.1,[],8,0.75,
20,digit,0.3,['dot'],['big_1'],black,0,150,150,150,,,54.90020394325256,54.60725688934326,54.92390203475952,"[[-0.09695458741065748, -0.16383046478130364]]",['DejaVu Sans'],[0.9],,,,N005,digit,1,"['6', '7', '8', '9']","['1', '2', '3', '4']",1,2023.2.3,harveydigits,2.1,[],8,0.75,
0,pause,0.4,None,None,None,0,151,151,151,,,,,,,,,,,,N005,digit,1,"['6', '7', '8', '9']","['1', '2', '3', '4']",1,2023.2.3,harveydigits,2.1,[],8,0.75,
20,digit,0.3,['dot'],['big_1'],black,0,152,152,152,,,55.6002299785614,55.30724000930786,55.62390089035034,"[[-0.07781124432098183, 0.16394236074605334]]",['DejaVu Sans'],[0.9],,,,N005,digit,1,"['6', '7', '8', '9']","['1', '2', '3', '4']",1,2023.2.3,harveydigits,2.1,[],8,0.75,
0,pause,0.4,None,None,None,0,153,153,153,,,,,,,,,,,,N005,digit,1,"['6', '7', '8', '9']","['1', '2', '3', '4']",1,2023.2.3,harveydigits,2.1,[],8,0.75,
20,digit,0.3,['dot'],['big_1'],black,0,154,154,154,,,56.30020809173584,56.00722289085388,56.32387709617615,"[[-0.14368956359060003, 0.11015425210529445]]",['DejaVu Sans'],[0.9],,,,N005,digit,1,"['6', '7', '8', '9']","['1', '2', '3', '4']",1,2023.2.3,harveydigits,2.1,[],8,0.75,
0,pause,0.4,None,None,None,0,155,155,155,,,,,,,,,,,,N005,digit,1,"['6', '7', '8', '9']","['1', '2', '3', '4']",1,2023.2.3,harveydigits,2.1,[],8,0.75,
9,digit,0.3,['dot'],['big_1'],black,0,156,156,156,,,57.00021696090698,56.7072069644928,57.023879051208496,"[[0.17276073512277154, 0.0077250266333779155]]",['DejaVu Sans'],[0.9],,,,N005,digit,1,"['6', '7', '8', '9']","['1', '2', '3', '4']",1,2023.2.3,harveydigits,2.1,[],8,0.75,
0,pause,0.4,None,None,None,0,157,157,157,,,,,,,,,,,,N005,digit,1,"['6', '7', '8', '9']","['1', '2', '3', '4']",1,2023.2.3,harveydigits,2.1,[],8,0.75,
9,digit,0.3,['dot'],['big_1'],black,0,158,158,158,,,57.70021104812622,57.40831208229065,57.72416591644287,"[[0.02615275022911595, 0.13451992762007506]]",['DejaVu Sans'],[0.9],,,,N005,digit,1,"['6', '7', '8', '9']","['1', '2', '3', '4']",1,2023.2.3,harveydigits,2.1,[],8,0.75,
0,pause,0.4,None,None,None,0,159,159,159,,,,,,,,,,,,N005,digit,1,"['6', '7', '8', '9']","['1', '2', '3', '4']",1,2023.2.3,harveydigits,2.1,[],8,0.75,
9,digit,0.3,['dot'],['big_1'],black,0,160,160,160,,,58.40022611618042,58.10714387893677,58.42383790016174,"[[-0.1517933801332468, 0.012282769538960708]]",['DejaVu Sans'],[0.9],,,,N005,digit,1,"['6', '7', '8', '9']","['1', '2', '3', '4']",1,2023.2.3,harveydigits,2.1,[],8,0.75,
0,pause,0.4,None,None,None,0,161,161,161,,,,,,,,,,,,N005,digit,1,"['6', '7', '8', '9']","['1', '2', '3', '4']",1,2023.2.3,harveydigits,2.1,[],8,0.75,
9,digit,0.3,['dot'],['big_1'],black,0,162,162,162,,,59.10022592544556,58.80717206001282,59.1238169670105,"[[-0.05727545558160049, 0.02497314129675729]]",['DejaVu Sans'],[0.9],,,,N005,digit,1,"['6', '7', '8', '9']","['1', '2', '3', '4']",1,2023.2.3,harveydigits,2.1,[],8,0.75,
0,pause,0.4,None,None,None,0,163,163,163,,,,,,,,,,,,N005,digit,1,"['6', '7', '8', '9']","['1', '2', '3', '4']",1,2023.2.3,harveydigits,2.1,[],8,0.75,
9,digit,0.3,['dot'],['big_1'],black,0,164,164,164,,,59.80021405220032,59.50710892677307,59.82580208778381,"[[0.11749029834383526, -0.037756687966339256]]",['DejaVu Sans'],[0.9],,,,N005,digit,1,"['6', '7', '8', '9']","['1', '2', '3', '4']",1,2023.2.3,harveydigits,2.1,[],8,0.75,
0,pause,0.4,None,None,None,0,165,165,165,,,,,,,,,,,,N005,digit,1,"['6', '7', '8', '9']","['1', '2', '3', '4']",1,2023.2.3,harveydigits,2.1,[],8,0.75,
9,digit,0.3,['dot'],['big_1'],black,0,166,166,166,,,60.50022292137146,60.20713996887207,60.52378606796265,"[[0.07608784623129258, -0.06140991909469806]]",['DejaVu Sans'],[0.9],,,,N005,digit,1,"['6', '7', '8', '9']","['1', '2', '3', '4']",1,2023.2.3,harveydigits,2.1,[],8,0.75,
0,pause,0.4,None,None,None,0,167,167,167,,,,,,,,,,,,N005,digit,1,"['6', '7', '8', '9']","['1', '2', '3', '4']",1,2023.2.3,harveydigits,2.1,[],8,0.75,
8,digit,0.3,['dot'],['big_1'],black,0,168,168,168,,,61.20020794868469,60.90709900856018,61.223747968673706,"[[-0.13987545020228062, 0.11466153260013884]]",['DejaVu Sans'],[0.9],,,,N005,digit,1,"['6', '7', '8', '9']","['1', '2', '3', '4']",1,2023.2.3,harveydigits,2.1,[],8,0.75,
0,pause,0.4,None,None,None,0,169,169,169,,,,,,,,,,,,N005,digit,1,"['6', '7', '8', '9']","['1', '2', '3', '4']",1,2023.2.3,harveydigits,2.1,[],8,0.75,
8,digit,0.3,['dot'],['big_1'],black,0,170,170,170,,,61.90020799636841,61.62482500076294,61.923705101013184,"[[0.056808915986936465, 0.038803951115453955]]",['DejaVu Sans'],[0.9],,,,N005,digit,1,"['6', '7', '8', '9']","['1', '2', '3', '4']",1,2023.2.3,harveydigits,2.1,[],8,0.75,
0,pause,0.4,None,None,None,0,171,171,171,,,,,,,,,,,,N005,digit,1,"['6', '7', '8', '9']","['1', '2', '3', '4']",1,2023.2.3,harveydigits,2.1,[],8,0.75,
8,digit,0.3,['dot'],['big_1'],black,0,172,172,172,,,62.60021710395813,62.30709099769592,62.62373495101929,"[[0.16635556962070056, 0.0851365486619473]]",['DejaVu Sans'],[0.9],,,,N005,digit,1,"['6', '7', '8', '9']","['1', '2', '3', '4']",1,2023.2.3,harveydigits,2.1,[],8,0.75,
0,pause,0.4,None,None,None,0,173,173,173,,,,,,,,,,,,N005,digit,1,"['6', '7', '8', '9']","['1', '2', '3', '4']",1,2023.2.3,harveydigits,2.1,[],8,0.75,
8,digit,0.3,['dot'],['big_1'],black,0,174,174,174,,,63.30023407936096,63.0070960521698,63.32374095916748,"[[0.007391476143149861, 0.056915376104319765]]",['DejaVu Sans'],[0.9],,,,N005,digit,1,"['6', '7', '8', '9']","['1', '2', '3', '4']",1,2023.2.3,harveydigits,2.1,[],8,0.75,
0,pause,0.4,None,None,None,0,175,175,175,,,,,,,,,,,,N005,digit,1,"['6', '7', '8', '9']","['1', '2', '3', '4']",1,2023.2.3,harveydigits,2.1,[],8,0.75,
8,digit,0.3,['dot'],['big_1'],black,0,176,176,176,,,64.00020790100098,63.707091093063354,64.02367997169495,"[[-0.16292998396060415, -0.03229879007488749]]",['DejaVu Sans'],[0.9],,,,N005,digit,1,"['6', '7', '8', '9']","['1', '2', '3', '4']",1,2023.2.3,harveydigits,2.1,[],8,0.75,
0,pause,0.4,None,None,None,0,177,177,177,,,,,,,,,,,,N005,digit,1,"['6', '7', '8', '9']","['1', '2', '3', '4']",1,2023.2.3,harveydigits,2.1,[],8,0.75,
8,digit,0.3,['dot'],['big_1'],black,0,178,178,178,,,64.70020604133606,64.40699601173401,64.72400093078613,"[[0.07107496488865314, -0.07416074293433858]]",['DejaVu Sans'],[0.9],,,,N005,digit,1,"['6', '7', '8', '9']","['1', '2', '3', '4']",1,2023.2.3,harveydigits,2.1,[],8,0.75,
0,pause,0.4,None,None,None,0,179,179,179,,,,,,,,,,,,N005,digit,1,"['6', '7', '8', '9']","['1', '2', '3', '4']",1,2023.2.3,harveydigits,2.1,[],8,0.75,
7,digit,0.3,['dot'],['big_1'],black,0,180,180,180,,,65.40022397041321,65.10698294639587,65.42366194725037,"[[-0.07029976346804268, 0.07669007661344168]]",['DejaVu Sans'],[0.9],,,,N005,digit,1,"['6', '7', '8', '9']","['1', '2', '3', '4']",1,2023.2.3,harveydigits,2.1,[],8,0.75,
0,pause,0.4,None,None,None,0,181,181,181,,,,,,,,,,,,N005,digit,1,"['6', '7', '8', '9']","['1', '2', '3', '4']",1,2023.2.3,harveydigits,2.1,[],8,0.75,
7,digit,0.3,['dot'],['big_1'],black,0,182,182,182,,,66.10023403167725,65.8069839477539,66.1236310005188,"[[0.11875278493880762, -0.13856868957228177]]",['DejaVu Sans'],[0.9],,,,N005,digit,1,"['6', '7', '8', '9']","['1', '2', '3', '4']",1,2023.2.3,harveydigits,2.1,[],8,0.75,
0,pause,0.4,None,None,None,0,183,183,183,,,,,,,,,,,,N005,digit,1,"['6', '7', '8', '9']","['1', '2', '3', '4']",1,2023.2.3,harveydigits,2.1,[],8,0.75,
7,digit,0.3,['dot'],['big_1'],black,0,184,184,184,,,66.80020689964294,66.50695610046387,66.82360911369324,"[[-0.06115152985067132, 0.11058831018444612]]",['DejaVu Sans'],[0.9],,,,N005,digit,1,"['6', '7', '8', '9']","['1', '2', '3', '4']",1,2023.2.3,harveydigits,2.1,[],8,0.75,
0,pause,0.4,None,None,None,0,185,185,185,,,,,,,,,,,,N005,digit,1,"['6', '7', '8', '9']","['1', '2', '3', '4']",1,2023.2.3,harveydigits,2.1,[],8,0.75,
7,digit,0.3,['dot'],['big_1'],black,0,186,186,186,,,67.5002110004425,67.20694899559021,67.52364611625671,"[[-0.013299312121251822, -0.0735066985188847]]",['DejaVu Sans'],[0.9],,,,N005,digit,1,"['6', '7', '8', '9']","['1', '2', '3', '4']",1,2023.2.3,harveydigits,2.1,[],8,0.75,
0,pause,0.4,None,None,None,0,187,187,187,,,,,,,,,,,,N005,digit,1,"['6', '7', '8', '9']","['1', '2', '3', '4']",1,2023.2.3,harveydigits,2.1,[],8,0.75,
7,digit,0.3,['dot'],['big_1'],black,0,188,188,188,,,68.20021605491638,67.90698599815369,68.2236430644989,"[[0.14657002626350255, -0.10581791742095298]]",['DejaVu Sans'],[0.9],,,,N005,digit,1,"['6', '7', '8', '9']","['1', '2', '3', '4']",1,2023.2.3,harveydigits,2.1,[],8,0.75,
0,pause,0.4,None,None,None,0,189,189,189,,,,,,,,,,,,N005,digit,1,"['6', '7', '8', '9']","['1', '2', '3', '4']",1,2023.2.3,harveydigits,2.1,[],8,0.75,
7,digit,0.3,['dot'],['big_1'],black,0,190,190,190,,,68.90023398399353,68.60695195198059,68.92357587814331,"[[-0.11306761788522883, -0.09440707256693516]]",['DejaVu Sans'],[0.9],,,,N005,digit,1,"['6', '7', '8', '9']","['1', '2', '3', '4']",1,2023.2.3,harveydigits,2.1,[],8,0.75,
0,pause,0.4,None,None,None,0,191,191,191,,,,,,,,,,,,N005,digit,1,"['6', '7', '8', '9']","['1', '2', '3', '4']",1,2023.2.3,harveydigits,2.1,[],8,0.75,
6,digit,0.3,['dot'],['big_1'],black,0,192,192,192,,,69.60023188591003,69.30690789222717,69.62352108955383,"[[0.18534152328527856, -0.02316661716034428]]",['DejaVu Sans'],[0.9],,,,N005,digit,1,"['6', '7', '8', '9']","['1', '2', '3', '4']",1,2023.2.3,harveydigits,2.1,[],8,0.75,
0,pause,0.4,None,None,None,0,193,193,193,,,,,,,,,,,,N005,digit,1,"['6', '7', '8', '9']","['1', '2', '3', '4']",1,2023.2.3,harveydigits,2.1,[],8,0.75,
6,digit,0.3,['dot'],['big_1'],black,0,194,194,194,,,70.30021500587463,70.00686192512512,70.32351207733154,"[[0.046088148624213315, -0.01898802340538827]]",['DejaVu Sans'],[0.9],,,,N005,digit,1,"['6', '7', '8', '9']","['1', '2', '3', '4']",1,2023.2.3,harveydigits,2.1,[],8,0.75,
0,pause,0.4,None,None,None,0,195,195,195,,,,,,,,,,,,N005,digit,1,"['6', '7', '8', '9']","['1', '2', '3', '4']",1,2023.2.3,harveydigits,2.1,[],8,0.75,
6,digit,0.3,['dot'],['big_1'],black,0,196,196,196,,,71.00021195411682,70.7068440914154,71.02349710464478,"[[-0.07448305441882827, -0.15966527689000343]]",['DejaVu Sans'],[0.9],,,,N005,digit,1,"['6', '7', '8', '9']","['1', '2', '3', '4']",1,2023.2.3,harveydigits,2.1,[],8,0.75,
0,pause,0.4,None,None,None,0,197,197,197,,,,,,,,,,,,N005,digit,1,"['6', '7', '8', '9']","['1', '2', '3', '4']",1,2023.2.3,harveydigits,2.1,[],8,0.75,
6,digit,0.3,['dot'],['big_1'],black,0,198,198,198,,,71.70022988319397,71.40686392784119,71.72349405288696,"[[0.06825178511588068, -0.023956479795243873]]",['DejaVu Sans'],[0.9],,,,N005,digit,1,"['6', '7', '8', '9']","['1', '2', '3', '4']",1,2023.2.3,harveydigits,2.1,[],8,0.75,
0,pause,0.4,None,None,None,0,199,199,199,,,,,,,,,,,,N005,digit,1,"['6', '7', '8', '9']","['1', '2', '3', '4']",1,2023.2.3,harveydigits,2.1,[],8,0.75,
6,digit,0.3,['dot'],['big_1'],black,0,200,200,200,,,72.40020895004272,72.10684990882874,72.4234549999237,"[[0.1278316447236064, -0.047776442438615896]]",['DejaVu Sans'],[0.9],,,,N005,digit,1,"['6', '7', '8', '9']","['1', '2', '3', '4']",1,2023.2.3,harveydigits,2.1,[],8,0.75,
0,pause,0.4,None,None,None,0,201,201,201,,,,,,,,,,,,N005,digit,1,"['6', '7', '8', '9']","['1', '2', '3', '4']",1,2023.2.3,harveydigits,2.1,[],8,0.75,
6,digit,0.3,['dot'],['big_1'],black,0,202,202,202,,,73.10021591186523,72.80679702758789,73.12343788146973,"[[-0.18263989718839885, -0.019889892150461948]]",['DejaVu Sans'],[0.9],,,,N005,digit,1,"['6', '7', '8', '9']","['1', '2', '3', '4']",1,2023.2.3,harveydigits,2.1,[],8,0.75,
0,pause,0.4,None,None,None,0,203,203,203,,,,,,,,,,,,N005,digit,1,"['6', '7', '8', '9']","['1', '2', '3', '4']",1,2023.2.3,harveydigits,2.1,[],8,0.75,
5,digit,0.3,['dot'],['big_1'],black,0,204,204,204,,,73.80023097991943,73.50677299499512,73.82341289520264,"[[-0.19948757338372317, -0.009730878597733979]]",['DejaVu Sans'],[0.9],,,,N005,digit,1,"['6', '7', '8', '9']","['1', '2', '3', '4']",1,2023.2.3,harveydigits,2.1,[],8,0.75,
0,pause,0.4,None,None,None,0,205,205,205,,,,,,,,,,,,N005,digit,1,"['6', '7', '8', '9']","['1', '2', '3', '4']",1,2023.2.3,harveydigits,2.1,[],8,0.75,
5,digit,0.3,['dot'],['big_1'],black,0,206,206,206,,,74.5002179145813,74.20679306983948,74.52435088157654,"[[0.19262620876422507, 0.041188184553849906]]",['DejaVu Sans'],[0.9],,,,N005,digit,1,"['6', '7', '8', '9']","['1', '2', '3', '4']",1,2023.2.3,harveydigits,2.1,[],8,0.75,
0,pause,0.4,None,None,None,0,207,207,207,,,,,,,,,,,,N005,digit,1,"['6', '7', '8', '9']","['1', '2', '3', '4']",1,2023.2.3,harveydigits,2.1,[],8,0.75,
5,digit,0.3,['dot'],['big_1'],black,0,208,208,208,,,75.20020508766174,74.907879114151,75.22345304489136,"[[0.03559840215175053, 0.04150936784221829]]",['DejaVu Sans'],[0.9],,,,N005,digit,1,"['6', '7', '8', '9']","['1', '2', '3', '4']",1,2023.2.3,harveydigits,2.1,[],8,0.75,
0,pause,0.4,None,None,None,0,209,209,209,,,,,,,,,,,,N005,digit,1,"['6', '7', '8', '9']","['1', '2', '3', '4']",1,2023.2.3,harveydigits,2.1,[],8,0.75,
5,digit,0.3,['dot'],['big_1'],black,0,210,210,210,,,75.90022492408752,75.60671401023865,75.92336106300354,"[[-0.015650812061475422, -0.14540421145010113]]",['DejaVu Sans'],[0.9],,,,N005,digit,1,"['6', '7', '8', '9']","['1', '2', '3', '4']",1,2023.2.3,harveydigits,2.1,[],8,0.75,
0,pause,0.4,None,None,None,0,211,211,211,,,,,,,,,,,,N005,digit,1,"['6', '7', '8', '9']","['1', '2', '3', '4']",1,2023.2.3,harveydigits,2.1,[],8,0.75,
5,digit,0.3,['dot'],['big_1'],black,0,212,212,212,,,76.60022687911987,76.30669498443604,76.62339210510254,"[[-0.11296641783608456, -0.06792858037744084]]",['DejaVu Sans'],[0.9],,,,N005,digit,1,"['6', '7', '8', '9']","['1', '2', '3', '4']",1,2023.2.3,harveydigits,2.1,[],8,0.75,
0,pause,0.4,None,None,None,0,213,213,213,,,,,,,,,,,,N005,digit,1,"['6', '7', '8', '9']","['1', '2', '3', '4']",1,2023.2.3,harveydigits,2.1,[],8,0.75,
5,digit,0.3,['dot'],['big_1'],black,0,214,214,214,,,77.30021810531616,77.00674891471863,77.32340288162231,"[[0.01999346325031165, -0.08074126298911653]]",['DejaVu Sans'],[0.9],,,,N005,digit,1,"['6', '7', '8', '9']","['1', '2', '3', '4']",1,2023.2.3,harveydigits,2.1,[],8,0.75,
0,pause,0.4,None,None,None,0,215,215,215,,,,,,,,,,,,N005,digit,1,"['6', '7', '8', '9']","['1', '2', '3', '4']",1,2023.2.3,harveydigits,2.1,[],8,0.75,
4,digit,0.3,['dot'],['big_1'],black,0,216,216,216,,,78.00022411346436,77.70672106742859,78.02364897727966,"[[-0.18056143796827118, 0.07345684985676965]]",['DejaVu Sans'],[0.9],,,,N005,digit,1,"['6', '7', '8', '9']","['1', '2', '3', '4']",1,2023.2.3,harveydigits,2.1,[],8,0.75,
0,pause,0.4,None,None,None,0,217,217,217,,,,,,,,,,,,N005,digit,1,"['6', '7', '8', '9']","['1', '2', '3', '4']",1,2023.2.3,harveydigits,2.1,[],8,0.75,
4,digit,0.3,['dot'],['big_1'],black,0,218,218,218,,,78.70023107528687,78.40779089927673,78.72330808639526,"[[-0.05230175802710771, 0.0017000717683947064]]",['DejaVu Sans'],[0.9],,,,N005,digit,1,"['6', '7', '8', '9']","['1', '2', '3', '4']",1,2023.2.3,harveydigits,2.1,[],8,0.75,
0,pause,0.4,None,None,None,0,219,219,219,,,,,,,,,,,,N005,digit,1,"['6', '7', '8', '9']","['1', '2', '3', '4']",1,2023.2.3,harveydigits,2.1,[],8,0.75,
4,digit,0.3,['dot'],['big_1'],black,0,220,220,220,,,79.40020704269409,79.1066210269928,79.42328310012817,"[[-0.0026658112426540814, -0.020215693098690035]]",['DejaVu Sans'],[0.9],,,,N005,digit,1,"['6', '7', '8', '9']","['1', '2', '3', '4']",1,2023.2.3,harveydigits,2.1,[],8,0.75,
0,pause,0.4,None,None,None,0,221,221,221,,,,,,,,,,,,N005,digit,1,"['6', '7', '8', '9']","['1', '2', '3', '4']",1,2023.2.3,harveydigits,2.1,[],8,0.75,
4,digit,0.3,['dot'],['big_1'],black,0,222,222,222,,,80.1002140045166,79.80661201477051,80.12326097488403,"[[0.10124517529302304, 0.16320946319298554]]",['DejaVu Sans'],[0.9],,,,N005,digit,1,"['6', '7', '8', '9']","['1', '2', '3', '4']",1,2023.2.3,harveydigits,2.1,[],8,0.75,
0,pause,0.4,None,None,None,0,223,223,223,,,,,,,,,,,,N005,digit,1,"['6', '7', '8', '9']","['1', '2', '3', '4']",1,2023.2.3,harveydigits,2.1,[],8,0.75,
4,digit,0.3,['dot'],['big_1'],black,0,224,224,224,,,80.80020689964294,80.50659108161926,80.8232479095459,"[[0.17926198195469292, 0.023191130756706355]]",['DejaVu Sans'],[0.9],,,,N005,digit,1,"['6', '7', '8', '9']","['1', '2', '3', '4']",1,2023.2.3,harveydigits,2.1,[],8,0.75,
0,pause,0.4,None,None,None,0,225,225,225,,,,,,,,,,,,N005,digit,1,"['6', '7', '8', '9']","['1', '2', '3', '4']",1,2023.2.3,harveydigits,2.1,[],8,0.75,
4,digit,0.3,['dot'],['big_1'],black,0,226,226,226,,,81.5002191066742,81.2065761089325,81.52326607704163,"[[-0.16842768745365733, -0.05773218483636511]]",['DejaVu Sans'],[0.9],,,,N005,digit,1,"['6', '7', '8', '9']","['1', '2', '3', '4']",1,2023.2.3,harveydigits,2.1,[],8,0.75,
0,pause,0.4,None,None,None,0,227,227,227,,,,,,,,,,,,N005,digit,1,"['6', '7', '8', '9']","['1', '2', '3', '4']",1,2023.2.3,harveydigits,2.1,[],8,0.75,
3,digit,0.3,['dot'],['big_1'],white,0,228,228,228,,,82.20022702217102,81.90661907196045,82.22327899932861,"[[0.04822886667623863, -0.11733417286531439]]",['DejaVu Sans'],[0.9],,,,N005,digit,1,"['6', '7', '8', '9']","['1', '2', '3', '4']",1,2023.2.3,harveydigits,2.1,[],8,0.75,
0,pause,0.4,None,None,None,0,229,229,229,,,,,,,,,,,,N005,digit,1,"['6', '7', '8', '9']","['1', '2', '3', '4']",1,2023.2.3,harveydigits,2.1,[],8,0.75,
3,digit,0.3,['dot'],['big_1'],white,0,230,230,230,,,82.90026092529297,82.60659790039062,82.9232189655304,"[[-0.10523518179202926, -0.07766001869819708]]",['DejaVu Sans'],[0.9],left,odd,82.09257102012634,N005,digit,1,"['6', '7', '8', '9']","['1', '2', '3', '4']",1,2023.2.3,harveydigits,2.1,[],8,0.75,
0,pause,0.4,None,None,None,0,231,231,231,,,,,,,,,,,,N005,digit,1,"['6', '7', '8', '9']","['1', '2', '3', '4']",1,2023.2.3,harveydigits,2.1,[],8,0.75,
3,digit,0.3,['dot'],['big_1'],white,0,232,232,232,,,83.60023593902588,83.30774188041687,83.62317991256714,"[[0.08482269609540607, -0.1096254927997447]]",['DejaVu Sans'],[0.9],,,,N005,digit,1,"['6', '7', '8', '9']","['1', '2', '3', '4']",1,2023.2.3,harveydigits,2.1,[],8,0.75,
0,pause,0.4,None,None,None,0,233,233,233,,,,,,,,,,,,N005,digit,1,"['6', '7', '8', '9']","['1', '2', '3', '4']",1,2023.2.3,harveydigits,2.1,[],8,0.75,
3,digit,0.3,['dot'],['big_1'],white,0,234,234,234,,,84.30021405220032,84.00650691986084,84.32317996025085,"[[0.018767992896152247, -0.031383785080490445]]",['DejaVu Sans'],[0.9],,,,N005,digit,1,"['6', '7', '8', '9']","['1', '2', '3', '4']",1,2023.2.3,harveydigits,2.1,[],8,0.75,
0,pause,0.4,None,None,None,0,235,235,235,,,,,,,,,,,,N005,digit,1,"['6', '7', '8', '9']","['1', '2', '3', '4']",1,2023.2.3,harveydigits,2.1,[],8,0.75,
3,digit,0.3,['dot'],['big_1'],white,0,236,236,236,,,85.00023603439331,84.7064778804779,85.02427005767822,"[[0.1942251165111787, -0.03100978038270043]]",['DejaVu Sans'],[0.9],,,,N005,digit,1,"['6', '7', '8', '9']","['1', '2', '3', '4']",1,2023.2.3,harveydigits,2.1,[],8,0.75,
0,pause,0.4,None,None,None,0,237,237,237,,,,,,,,,,,,N005,digit,1,"['6', '7', '8', '9']","['1', '2', '3', '4']",1,2023.2.3,harveydigits,2.1,[],8,0.75,
3,digit,0.3,['dot'],['big_1'],white,0,238,238,238,,,85.70023202896118,85.4064691066742,85.72312903404236,"[[0.15287817429007897, -0.09960530804640913]]",['DejaVu Sans'],[0.9],,,,N005,digit,1,"['6', '7', '8', '9']","['1', '2', '3', '4']",1,2023.2.3,harveydigits,2.1,[],8,0.75,
0,pause,0.4,None,None,None,0,239,239,239,,,,,,,,,,,,N005,digit,1,"['6', '7', '8', '9']","['1', '2', '3', '4']",1,2023.2.3,harveydigits,2.1,[],8,0.75,
2,digit,0.3,['dot'],['big_1'],black,0,240,240,240,,,86.400230884552,86.10645198822021,86.42337489128113,"[[-0.040108941230172085, 0.12527717656599818]]",['DejaVu Sans'],[0.9],,,,N005,digit,1,"['6', '7', '8', '9']","['1', '2', '3', '4']",1,2023.2.3,harveydigits,2.1,[],8,0.75,
0,pause,0.4,None,None,None,0,241,241,241,,,,,,,,,,,,N005,digit,1,"['6', '7', '8', '9']","['1', '2', '3', '4']",1,2023.2.3,harveydigits,2.1,[],8,0.75,
2,digit,0.3,['dot'],['big_1'],black,0,242,242,242,,,87.10022306442261,86.80646109580994,87.12310004234314,"[[-0.044355269798872804, -0.11720059247136891]]",['DejaVu Sans'],[0.9],,,,N005,digit,1,"['6', '7', '8', '9']","['1', '2', '3', '4']",1,2023.2.3,harveydigits,2.1,[],8,0.75,
0,pause,0.4,None,None,None,0,243,243,243,,,,,,,,,,,,N005,digit,1,"['6', '7', '8', '9']","['1', '2', '3', '4']",1,2023.2.3,harveydigits,2.1,[],8,0.75,
2,digit,0.3,['dot'],['big_1'],black,0,244,244,244,,,87.800213098526,87.50643110275269,87.82308292388916,"[[-0.06518866239388593, -0.12331156922604854]]",['DejaVu Sans'],[0.9],,,,N005,digit,1,"['6', '7', '8', '9']","['1', '2', '3', '4']",1,2023.2.3,harveydigits,2.1,[],8,0.75,
0,pause,0.4,None,None,None,0,245,245,245,,,,,,,,,,,,N005,digit,1,"['6', '7', '8', '9']","['1', '2', '3', '4']",1,2023.2.3,harveydigits,2.1,[],8,0.75,
2,digit,0.3,['dot'],['big_1'],black,0,246,246,246,,,88.50024008750916,88.20640397071838,88.52396297454834,"[[-0.11633904383813552, 0.00014933229309999074]]",['DejaVu Sans'],[0.9],,,,N005,digit,1,"['6', '7', '8', '9']","['1', '2', '3', '4']",1,2023.2.3,harveydigits,2.1,[],8,0.75,
0,pause,0.4,None,None,None,0,247,247,247,,,,,,,,,,,,N005,digit,1,"['6', '7', '8', '9']","['1', '2', '3', '4']",1,2023.2.3,harveydigits,2.1,[],8,0.75,
2,digit,0.3,['dot'],['big_1'],black,0,248,248,248,,,89.2002100944519,88.90665197372437,89.22465896606445,"[[-0.16727211747496742, -0.01804253386384004]]",['DejaVu Sans'],[0.9],,,,N005,digit,1,"['6', '7', '8', '9']","['1', '2', '3', '4']",1,2023.2.3,harveydigits,2.1,[],8,0.75,
0,pause,0.4,None,None,None,0,249,249,249,,,,,,,,,,,,N005,digit,1,"['6', '7', '8', '9']","['1', '2', '3', '4']",1,2023.2.3,harveydigits,2.1,[],8,0.75,
2,digit,0.3,['dot'],['big_1'],black,0,250,250,250,,,89.90020990371704,89.60745906829834,89.92303991317749,"[[-0.1497039710047424, 0.08025763454395035]]",['DejaVu Sans'],[0.9],,,,N005,digit,1,"['6', '7', '8', '9']","['1', '2', '3', '4']",1,2023.2.3,harveydigits,2.1,[],8,0.75,
0,pause,0.4,None,None,None,0,251,251,251,,,,,,,,,,,,N005,digit,1,"['6', '7', '8', '9']","['1', '2', '3', '4']",1,2023.2.3,harveydigits,2.1,[],8,0.75,
1,digit,0.3,['dot'],['big_1'],black,0,252,252,252,,,90.60022807121277,90.30636692047119,90.62299799919128,"[[-0.017859739990663537, 0.020617583810232487]]",['DejaVu Sans'],[0.9],,,,N005,digit,1,"['6', '7', '8', '9']","['1', '2', '3', '4']",1,2023.2.3,harveydigits,2.1,[],8,0.75,
0,pause,0.4,None,None,None,0,253,253,253,,,,,,,,,,,,N005,digit,1,"['6', '7', '8', '9']","['1', '2', '3', '4']",1,2023.2.3,harveydigits,2.1,[],8,0.75,
1,digit,0.3,['dot'],['big_1'],black,0,254,254,254,,,91.30021905899048,91.00633096694946,91.32389187812805,"[[-0.124070928126492, 3.7056147588254706e-05]]",['DejaVu Sans'],[0.9],,,,N005,digit,1,"['6', '7', '8', '9']","['1', '2', '3', '4']",1,2023.2.3,harveydigits,2.1,[],8,0.75,
0,pause,0.4,None,None,None,0,255,255,255,,,,,,,,,,,,N005,digit,1,"['6', '7', '8', '9']","['1', '2', '3', '4']",1,2023.2.3,harveydigits,2.1,[],8,0.75,
1,digit,0.3,['dot'],['big_1'],black,0,256,256,256,,,92.00021004676819,91.70632004737854,92.02298188209534,"[[0.07459725199096187, -0.0549626310579962]]",['DejaVu Sans'],[0.9],,,,N005,digit,1,"['6', '7', '8', '9']","['1', '2', '3', '4']",1,2023.2.3,harveydigits,2.1,[],8,0.75,
0,pause,0.4,None,None,None,0,257,257,257,,,,,,,,,,,,N005,digit,1,"['6', '7', '8', '9']","['1', '2', '3', '4']",1,2023.2.3,harveydigits,2.1,[],8,0.75,
1,digit,0.3,['dot'],['big_1'],black,0,258,258,258,,,92.70020890235901,92.40629410743713,92.72386693954468,"[[-0.09276143647048335, 0.0988058463285594]]",['DejaVu Sans'],[0.9],,,,N005,digit,1,"['6', '7', '8', '9']","['1', '2', '3', '4']",1,2023.2.3,harveydigits,2.1,[],8,0.75,
0,pause,0.4,None,None,None,0,259,259,259,,,,,,,,,,,,N005,digit,1,"['6', '7', '8', '9']","['1', '2', '3', '4']",1,2023.2.3,harveydigits,2.1,[],8,0.75,
1,digit,0.3,['dot'],['big_1'],black,0,260,260,260,,,93.40022397041321,93.10627889633179,93.42293500900269,"[[0.0915274549762449, -0.13094071921557965]]",['DejaVu Sans'],[0.9],,,,N005,digit,1,"['6', '7', '8', '9']","['1', '2', '3', '4']",1,2023.2.3,harveydigits,2.1,[],8,0.75,
0,pause,0.4,None,None,None,0,261,261,261,,,,,,,,,,,,N005,digit,1,"['6', '7', '8', '9']","['1', '2', '3', '4']",1,2023.2.3,harveydigits,2.1,[],8,0.75,
1,digit,0.3,['dot'],['big_1'],black,0,262,262,262,,,94.1002368927002,93.80627799034119,94.12383604049683,"[[-0.10019925228837943, 0.10781716104465902]]",['DejaVu Sans'],[0.9],,,,N005,digit,1,"['6', '7', '8', '9']","['1', '2', '3', '4']",1,2023.2.3,harveydigits,2.1,[],8,0.75,
0,pause,0.4,None,None,None,0,263,263,263,,,,,,,,,,,,N005,digit,1,"['6', '7', '8', '9']","['1', '2', '3', '4']",1,2023.2.3,harveydigits,2.1,[],8,0.75,
20,digit,0.3,['dot'],['big_1'],black,0,264,264,264,,,94.80020999908447,94.50625610351562,94.82289910316467,"[[-0.16633156587098202, -0.051954930032268754]]",['DejaVu Sans'],[0.9],,,,N005,digit,1,"['6', '7', '8', '9']","['1', '2', '3', '4']",1,2023.2.3,harveydigits,2.1,[],8,0.75,
0,pause,0.4,None,None,None,0,265,265,265,,,,,,,,,,,,N005,digit,1,"['6', '7', '8', '9']","['1', '2', '3', '4']",1,2023.2.3,harveydigits,2.1,[],8,0.75,
20,digit,0.3,['dot'],['big_1'],black,0,266,266,266,,,95.500235080719,95.2062349319458,95.52376699447632,"[[-0.06939315052565428, 0.046294663365080174]]",['DejaVu Sans'],[0.9],,,,N005,digit,1,"['6', '7', '8', '9']","['1', '2', '3', '4']",1,2023.2.3,harveydigits,2.1,[],8,0.75,
0,pause,0.4,None,None,None,0,267,267,267,,,,,,,,,,,,N005,digit,1,"['6', '7', '8', '9']","['1', '2', '3', '4']",1,2023.2.3,harveydigits,2.1,[],8,0.75,
20,digit,0.3,['dot'],['big_1'],black,0,268,268,268,,,96.20022296905518,95.90621399879456,96.2228651046753,"[[0.008089345422597372, 0.024970641451256437]]",['DejaVu Sans'],[0.9],,,,N005,digit,1,"['6', '7', '8', '9']","['1', '2', '3', '4']",1,2023.2.3,harveydigits,2.1,[],8,0.75,
0,pause,0.4,None,None,None,0,269,269,269,,,,,,,,,,,,N005,digit,1,"['6', '7', '8', '9']","['1', '2', '3', '4']",1,2023.2.3,harveydigits,2.1,[],8,0.75,
20,digit,0.3,['dot'],['big_1'],black,0,270,270,270,,,96.90024089813232,96.60618305206299,96.92285990715027,"[[-0.18543858024947085, -0.033738304883910705]]",['DejaVu Sans'],[0.9],,,,N005,digit,1,"['6', '7', '8', '9']","['1', '2', '3', '4']",1,2023.2.3,harveydigits,2.1,[],8,0.75,
0,pause,0.4,None,None,None,0,271,271,271,,,,,,,,,,,,N005,digit,1,"['6', '7', '8', '9']","['1', '2', '3', '4']",1,2023.2.3,harveydigits,2.1,[],8,0.75,
20,digit,0.3,['dot'],['big_1'],black,0,272,272,272,,,97.60023498535156,97.30619406700134,97.6228621006012,"[[-0.12458624308174401, -0.03003265070084149]]",['DejaVu Sans'],[0.9],,,,N005,digit,1,"['6', '7', '8', '9']","['1', '2', '3', '4']",1,2023.2.3,harveydigits,2.1,[],8,0.75,
0,pause,0.4,None,None,None,0,273,273,273,,,,,,,,,,,,N005,digit,1,"['6', '7', '8', '9']","['1', '2', '3', '4']",1,2023.2.3,harveydigits,2.1,[],8,0.75,
20,digit,0.3,['dot'],['big_1'],black,0,274,274,274,,,98.30024194717407,98.00724506378174,98.32282900810242,"[[-0.15228868086175051, 0.02297801931203655]]",['DejaVu Sans'],[0.9],,,,N005,digit,1,"['6', '7', '8', '9']","['1', '2', '3', '4']",1,2023.2.3,harveydigits,2.1,[],8,0.75,
0,pause,0.4,None,None,None,0,275,275,275,,,,,,,,,,,,N005,digit,1,"['6', '7', '8', '9']","['1', '2', '3', '4']",1,2023.2.3,harveydigits,2.1,[],8,0.75,
20,digit,0.3,['dot'],['big_1'],black,0,276,276,276,,,99.00022196769714,98.7061378955841,99.02283096313477,"[[-0.030493153029903436, -0.17721755906881484]]",['DejaVu Sans'],[0.9],,,,N005,digit,1,"['6', '7', '8', '9']","['1', '2', '3', '4']",1,2023.2.3,harveydigits,2.1,[],8,0.75,
0,pause,0.4,None,None,None,0,277,277,277,,,,,,,,,,,,N005,digit,1,"['6', '7', '8', '9']","['1', '2', '3', '4']",1,2023.2.3,harveydigits,2.1,[],8,0.75,
20,digit,0.3,['dot'],['big_1'],black,0,278,278,278,,,99.70021200180054,99.40613102912903,99.72278690338135,"[[0.0005488960600588955, 0.18619508554076458]]",['DejaVu Sans'],[0.9],,,,N005,digit,1,"['6', '7', '8', '9']","['1', '2', '3', '4']",1,2023.2.3,harveydigits,2.1,[],8,0.75,
0,pause,0.4,None,None,None,0,279,279,279,,,,,,,,,,,,N005,digit,1,"['6', '7', '8', '9']","['1', '2', '3', '4']",1,2023.2.3,harveydigits,2.1,[],8,0.75,
20,digit,0.3,['dot'],['big_1'],black,0,280,280,280,,,100.4002149105072,100.10610699653625,100.42278289794922,"[[-0.057708153643490495, -0.025783031550077884]]",['DejaVu Sans'],[0.9],,,,N005,digit,1,"['6', '7', '8', '9']","['1', '2', '3', '4']",1,2023.2.3,harveydigits,2.1,[],8,0.75,
0,pause,0.4,None,None,None,0,281,281,281,,,,,,,,,,,,N005,digit,1,"['6', '7', '8', '9']","['1', '2', '3', '4']",1,2023.2.3,harveydigits,2.1,[],8,0.75,
20,digit,0.3,['dot'],['big_1'],black,0,282,282,282,,,101.10023808479309,100.8060929775238,101.12275791168213,"[[-0.17891828729783588, 0.06511472436270291]]",['DejaVu Sans'],[0.9],,,,N005,digit,1,"['6', '7', '8', '9']","['1', '2', '3', '4']",1,2023.2.3,harveydigits,2.1,[],8,0.75,
0,pause,0.4,None,None,None,0,283,283,283,,,,,,,,,,,,N005,digit,1,"['6', '7', '8', '9']","['1', '2', '3', '4']",1,2023.2.3,harveydigits,2.1,[],8,0.75,
20,digit,0.3,['dot'],['big_1'],black,0,284,284,284,,,101.80021095275879,101.5060830116272,101.82273387908936,"[[0.040515639973380174, 0.026872409343697418]]",['DejaVu Sans'],[0.9],,,,N005,digit,1,"['6', '7', '8', '9']","['1', '2', '3', '4']",1,2023.2.3,harveydigits,2.1,[],8,0.75,
0,pause,0.4,None,None,None,0,285,285,285,,,,,,,,,,,,N005,digit,1,"['6', '7', '8', '9']","['1', '2', '3', '4']",1,2023.2.3,harveydigits,2.1,[],8,0.75,
20,digit,0.3,['dot'],['big_1'],black,0,286,286,286,,,102.50021409988403,102.20605802536011,102.52271509170532,"[[-0.17054616751870766, 0.016384059955736094]]",['DejaVu Sans'],[0.9],,,,N005,digit,1,"['6', '7', '8', '9']","['1', '2', '3', '4']",1,2023.2.3,harveydigits,2.1,[],8,0.75,
0,pause,0.4,None,None,None,0,287,287,287,,,,,,,,,,,,N005,digit,1,"['6', '7', '8', '9']","['1', '2', '3', '4']",1,2023.2.3,harveydigits,2.1,[],8,0.75,
20,digit,0.3,['dot'],['big_1'],black,0,288,288,288,,,103.20023798942566,102.906014919281,103.22301387786865,"[[0.10258416402502193, -0.09956411128242855]]",['DejaVu Sans'],[0.9],,,,N005,digit,1,"['6', '7', '8', '9']","['1', '2', '3', '4']",1,2023.2.3,harveydigits,2.1,[],8,0.75,
0,pause,0.4,None,None,None,0,289,289,289,,,,,,,,,,,,N005,digit,1,"['6', '7', '8', '9']","['1', '2', '3', '4']",1,2023.2.3,harveydigits,2.1,[],8,0.75,
20,digit,0.3,['dot'],['big_1'],black,0,290,290,290,,,103.90021395683289,103.60604000091553,103.92270088195801,"[[0.001024594109784338, 0.1137136582488334]]",['DejaVu Sans'],[0.9],,,,N005,digit,1,"['6', '7', '8', '9']","['1', '2', '3', '4']",1,2023.2.3,harveydigits,2.1,[],8,0.75,
0,pause,0.4,None,None,None,0,291,291,291,,,,,,,,,,,,N005,digit,1,"['6', '7', '8', '9']","['1', '2', '3', '4']",1,2023.2.3,harveydigits,2.1,[],8,0.75,
20,digit,0.3,['dot'],['big_1'],black,0,292,292,292,,,104.60021495819092,104.30600500106812,104.62265205383301,"[[0.16480008284673878, 0.10267704846968627]]",['DejaVu Sans'],[0.9],,,,N005,digit,1,"['6', '7', '8', '9']","['1', '2', '3', '4']",1,2023.2.3,harveydigits,2.1,[],8,0.75,
0,pause,0.4,None,None,None,0,293,293,293,,,,,,,,,,,,N005,digit,1,"['6', '7', '8', '9']","['1', '2', '3', '4']",1,2023.2.3,harveydigits,2.1,[],8,0.75,
20,digit,0.3,['dot'],['big_1'],black,0,294,294,294,,,105.30023288726807,105.00600004196167,105.32356095314026,"[[-0.09244800463746196, 0.12474164389691819]]",['DejaVu Sans'],[0.9],,,,N005,digit,1,"['6', '7', '8', '9']","['1', '2', '3', '4']",1,2023.2.3,harveydigits,2.1,[],8,0.75,
0,pause,0.4,None,None,None,0,295,295,295,,,,,,,,,,,,N005,digit,1,"['6', '7', '8', '9']","['1', '2', '3', '4']",1,2023.2.3,harveydigits,2.1,[],8,0.75,
20,digit,0.3,['dot'],['big_1'],black,0,296,296,296,,,106.000235080719,105.70597791671753,106.02261304855347,"[[0.06905187646524844, 0.06352155845283572]]",['DejaVu Sans'],[0.9],,,,N005,digit,1,"['6', '7', '8', '9']","['1', '2', '3', '4']",1,2023.2.3,harveydigits,2.1,[],8,0.75,
0,pause,0.4,None,None,None,0,297,297,297,,,,,,,,,,,,N005,digit,1,"['6', '7', '8', '9']","['1', '2', '3', '4']",1,2023.2.3,harveydigits,2.1,[],8,0.75,
20,digit,0.3,['dot'],['big_1'],black,0,298,298,298,,,106.70021891593933,106.40595889091492,106.72259998321533,"[[-0.04839949181464909, -0.09330037642823531]]",['DejaVu Sans'],[0.9],,,,N005,digit,1,"['6', '7', '8', '9']","['1', '2', '3', '4']",1,2023.2.3,harveydigits,2.1,[],8,0.75,
0,pause,0.4,None,None,None,0,299,299,299,,,,,,,,,,,,N005,digit,1,"['6', '7', '8', '9']","['1', '2', '3', '4']",1,2023.2.3,harveydigits,2.1,[],8,0.75,
20,digit,0.3,['dot'],['big_1'],black,0,300,300,300,,,107.40022110939026,107.10600399971008,107.4226770401001,"[[-0.040638990612246045, -0.054024314060010126]]",['DejaVu Sans'],[0.9],,,,N005,digit,1,"['6', '7', '8', '9']","['1', '2', '3', '4']",1,2023.2.3,harveydigits,2.1,[],8,0.75,
0,pause,0.4,None,None,None,0,301,301,301,,,,,,,,,,,,N005,digit,1,"['6', '7', '8', '9']","['1', '2', '3', '4']",1,2023.2.3,harveydigits,2.1,[],8,0.75,
20,digit,0.3,['dot'],['big_1'],black,0,302,302,302,,,108.10024094581604,107.80592799186707,108.12257790565491,"[[-0.1401529961661352, -0.048594812341316684]]",['DejaVu Sans'],[0.9],,,,N005,digit,1,"['6', '7', '8', '9']","['1', '2', '3', '4']",1,2023.2.3,harveydigits,2.1,[],8,0.75,
0,pause,0.4,None,None,None,0,303,303,303,,,,,,,,,,,,N005,digit,1,"['6', '7', '8', '9']","['1', '2', '3', '4']",1,2023.2.3,harveydigits,2.1,[],8,0.75,
20,digit,0.3,['dot'],['big_1'],black,0,304,304,304,,,108.80023908615112,108.50588297843933,108.82256889343262,"[[-0.01636379706689106, 0.04619742823868797]]",['DejaVu Sans'],[0.9],,,,N005,digit,1,"['6', '7', '8', '9']","['1', '2', '3', '4']",1,2023.2.3,harveydigits,2.1,[],8,0.75,
0,pause,0.4,None,None,None,0,305,305,305,,,,,,,,,,,,N005,digit,1,"['6', '7', '8', '9']","['1', '2', '3', '4']",1,2023.2.3,harveydigits,2.1,[],8,0.75,
20,digit,0.3,['dot'],['big_1'],black,0,306,306,306,,,109.50021195411682,109.2059121131897,109.52252793312073,"[[-0.10534702987802107, -0.1503877120918007]]",['DejaVu Sans'],[0.9],,,,N005,digit,1,"['6', '7', '8', '9']","['1', '2', '3', '4']",1,2023.2.3,harveydigits,2.1,[],8,0.75,
0,pause,0.4,None,None,None,0,307,307,307,,,,,,,,,,,,N005,digit,1,"['6', '7', '8', '9']","['1', '2', '3', '4']",1,2023.2.3,harveydigits,2.1,[],8,0.75,
20,digit,0.3,['dot'],['big_1'],black,0,308,308,308,,,110.20022010803223,109.9058530330658,110.2225821018219,"[[-0.15855600910613607, -0.1031203447716415]]",['DejaVu Sans'],[0.9],,,,N005,digit,1,"['6', '7', '8', '9']","['1', '2', '3', '4']",1,2023.2.3,harveydigits,2.1,[],8,0.75,
0,pause,0.4,None,None,None,0,309,309,309,,,,,,,,,,,,N005,digit,1,"['6', '7', '8', '9']","['1', '2', '3', '4']",1,2023.2.3,harveydigits,2.1,[],8,0.75,
20,digit,0.3,['dot'],['big_1'],black,0,310,310,310,,,110.9002320766449,110.60590505599976,110.92248797416687,"[[0.02443540908083558, -0.07597812215517916]]",['DejaVu Sans'],[0.9],,,,N005,digit,1,"['6', '7', '8', '9']","['1', '2', '3', '4']",1,2023.2.3,harveydigits,2.1,[],8,0.75,
0,pause,0.4,None,None,None,0,311,311,311,,,,,,,,,,,,N005,digit,1,"['6', '7', '8', '9']","['1', '2', '3', '4']",1,2023.2.3,harveydigits,2.1,[],8,0.75,
1,digit,0.3,['dot'],['small_1'],black,0,312,312,312,,,111.60022807121277,111.32248902320862,111.62254095077515,"[[0.12873888681921347, -0.07468162115361282]]",['DejaVu Sans'],[0.6],,,,N005,digit,1,"['6', '7', '8', '9']","['1', '2', '3', '4']",1,2023.2.3,harveydigits,2.1,[],8,0.75,
0,pause,0.4,None,None,None,0,313,313,313,,,,,,,,,,,,N005,digit,1,"['6', '7', '8', '9']","['1', '2', '3', '4']",1,2023.2.3,harveydigits,2.1,[],8,0.75,
1,digit,0.3,['dot'],['small_1'],black,0,314,314,314,,,112.30022192001343,112.00585699081421,112.32244610786438,"[[0.1712430831685232, -0.15648323613663226]]",['DejaVu Sans'],[0.6],,,,N005,digit,1,"['6', '7', '8', '9']","['1', '2', '3', '4']",1,2023.2.3,harveydigits,2.1,[],8,0.75,
0,pause,0.4,None,None,None,0,315,315,315,,,,,,,,,,,,N005,digit,1,"['6', '7', '8', '9']","['1', '2', '3', '4']",1,2023.2.3,harveydigits,2.1,[],8,0.75,
1,digit,0.3,['dot'],['small_1'],black,0,316,316,316,,,113.00022006034851,112.70692706108093,113.02250289916992,"[[-0.13241780152384208, 0.09699392834432247]]",['DejaVu Sans'],[0.6],,,,N005,digit,1,"['6', '7', '8', '9']","['1', '2', '3', '4']",1,2023.2.3,harveydigits,2.1,[],8,0.75,
0,pause,0.4,None,None,None,0,317,317,317,,,,,,,,,,,,N005,digit,1,"['6', '7', '8', '9']","['1', '2', '3', '4']",1,2023.2.3,harveydigits,2.1,[],8,0.75,
1,digit,0.3,['dot'],['small_1'],black,0,318,318,318,,,113.70022988319397,113.40582299232483,113.72331309318542,"[[0.14003564534066137, 0.11747604408147733]]",['DejaVu Sans'],[0.6],,,,N005,digit,1,"['6', '7', '8', '9']","['1', '2', '3', '4']",1,2023.2.3,harveydigits,2.1,[],8,0.75,
0,pause,0.4,None,None,None,0,319,319,319,,,,,,,,,,,,N005,digit,1,"['6', '7', '8', '9']","['1', '2', '3', '4']",1,2023.2.3,harveydigits,2.1,[],8,0.75,
1,digit,0.3,['dot'],['small_1'],black,0,320,320,320,,,114.40024089813232,114.10577392578125,114.42244601249695,"[[-0.0769060825874307, 0.2308249576054423]]",['DejaVu Sans'],[0.6],,,,N005,digit,1,"['6', '7', '8', '9']","['1', '2', '3', '4']",1,2023.2.3,harveydigits,2.1,[],8,0.75,
0,pause,0.4,None,None,None,0,321,321,321,,,,,,,,,,,,N005,digit,1,"['6', '7', '8', '9']","['1', '2', '3', '4']",1,2023.2.3,harveydigits,2.1,[],8,0.75,
1,digit,0.3,['dot'],['small_1'],black,0,322,322,322,,,115.10023498535156,114.80574798583984,115.12238693237305,"[[0.1287654044787589, 0.3173120335274309]]",['DejaVu Sans'],[0.6],,,,N005,digit,1,"['6', '7', '8', '9']","['1', '2', '3', '4']",1,2023.2.3,harveydigits,2.1,[],8,0.75,
0,pause,0.4,None,None,None,0,323,323,323,,,,,,,,,,,,N005,digit,1,"['6', '7', '8', '9']","['1', '2', '3', '4']",1,2023.2.3,harveydigits,2.1,[],8,0.75,
2,digit,0.3,['dot'],['small_1'],black,0,324,324,324,,,115.80021595954895,115.50570106506348,115.82237410545349,"[[0.15022739631851545, -0.06639391711260609]]",['DejaVu Sans'],[0.6],,,,N005,digit,1,"['6', '7', '8', '9']","['1', '2', '3', '4']",1,2023.2.3,harveydigits,2.1,[],8,0.75,
0,pause,0.4,None,None,None,0,325,325,325,,,,,,,,,,,,N005,digit,1,"['6', '7', '8', '9']","['1', '2', '3', '4']",1,2023.2.3,harveydigits,2.1,[],8,0.75,
2,digit,0.3,['dot'],['small_1'],black,0,326,326,326,,,116.50023007392883,116.20569610595703,116.52234888076782,"[[0.1920520375570829, -0.080217925521095]]",['DejaVu Sans'],[0.6],,,,N005,digit,1,"['6', '7', '8', '9']","['1', '2', '3', '4']",1,2023.2.3,harveydigits,2.1,[],8,0.75,
0,pause,0.4,None,None,None,0,327,327,327,,,,,,,,,,,,N005,digit,1,"['6', '7', '8', '9']","['1', '2', '3', '4']",1,2023.2.3,harveydigits,2.1,[],8,0.75,
2,digit,0.3,['dot'],['small_1'],black,0,328,328,328,,,117.20022201538086,116.90567088127136,117.22234106063843,"[[-0.32886879443768585, -0.08063330441012206]]",['DejaVu Sans'],[0.6],,,,N005,digit,1,"['6', '7', '8', '9']","['1', '2', '3', '4']",1,2023.2.3,harveydigits,2.1,[],8,0.75,
0,pause,0.4,None,None,None,0,329,329,329,,,,,,,,,,,,N005,digit,1,"['6', '7', '8', '9']","['1', '2', '3', '4']",1,2023.2.3,harveydigits,2.1,[],8,0.75,
2,digit,0.3,['dot'],['small_1'],black,0,330,330,330,,,117.90023493766785,117.60568499565125,117.92326188087463,"[[0.06275162878490209, -0.2803183863376572]]",['DejaVu Sans'],[0.6],,,,N005,digit,1,"['6', '7', '8', '9']","['1', '2', '3', '4']",1,2023.2.3,harveydigits,2.1,[],8,0.75,
0,pause,0.4,None,None,None,0,331,331,331,,,,,,,,,,,,N005,digit,1,"['6', '7', '8', '9']","['1', '2', '3', '4']",1,2023.2.3,harveydigits,2.1,[],8,0.75,
2,digit,0.3,['dot'],['small_1'],black,0,332,332,332,,,118.60022592544556,118.30564093589783,118.622309923172,"[[-0.07141359151349597, 0.20178990894108112]]",['DejaVu Sans'],[0.6],,,,N005,digit,1,"['6', '7', '8', '9']","['1', '2', '3', '4']",1,2023.2.3,harveydigits,2.1,[],8,0.75,
0,pause,0.4,None,None,None,0,333,333,333,,,,,,,,,,,,N005,digit,1,"['6', '7', '8', '9']","['1', '2', '3', '4']",1,2023.2.3,harveydigits,2.1,[],8,0.75,
2,digit,0.3,['dot'],['small_1'],black,0,334,334,334,,,119.30023789405823,119.02328896522522,119.32228708267212,"[[-0.1543069379878127, 0.2622128342591955]]",['DejaVu Sans'],[0.6],,,,N005,digit,1,"['6', '7', '8', '9']","['1', '2', '3', '4']",1,2023.2.3,harveydigits,2.1,[],8,0.75,
0,pause,0.4,None,None,None,0,335,335,335,,,,,,,,,,,,N005,digit,1,"['6', '7', '8', '9']","['1', '2', '3', '4']",1,2023.2.3,harveydigits,2.1,[],8,0.75,
3,digit,0.3,['dot'],['small_1'],black,0,336,336,336,,,120.00021600723267,119.7056200504303,120.02225399017334,"[[-0.26434469534500116, 0.13701385363823954]]",['DejaVu Sans'],[0.6],,,,N005,digit,1,"['6', '7', '8', '9']","['1', '2', '3', '4']",1,2023.2.3,harveydigits,2.1,[],8,0.75,
0,pause,0.4,None,None,None,0,337,337,337,,,,,,,,,,,,N005,digit,1,"['6', '7', '8', '9']","['1', '2', '3', '4']",1,2023.2.3,harveydigits,2.1,[],8,0.75,
3,digit,0.3,['dot'],['small_1'],black,0,338,338,338,,,120.70023608207703,120.40562796592712,120.72228288650513,"[[0.023142604560471625, -0.008861891370722907]]",['DejaVu Sans'],[0.6],,,,N005,digit,1,"['6', '7', '8', '9']","['1', '2', '3', '4']",1,2023.2.3,harveydigits,2.1,[],8,0.75,
0,pause,0.4,None,None,None,0,339,339,339,,,,,,,,,,,,N005,digit,1,"['6', '7', '8', '9']","['1', '2', '3', '4']",1,2023.2.3,harveydigits,2.1,[],8,0.75,
3,digit,0.3,['dot'],['small_1'],black,0,340,340,340,,,121.40021300315857,121.10560703277588,121.42226195335388,"[[0.21448218890094672, -0.15203984524182354]]",['DejaVu Sans'],[0.6],,,,N005,digit,1,"['6', '7', '8', '9']","['1', '2', '3', '4']",1,2023.2.3,harveydigits,2.1,[],8,0.75,
0,pause,0.4,None,None,None,0,341,341,341,,,,,,,,,,,,N005,digit,1,"['6', '7', '8', '9']","['1', '2', '3', '4']",1,2023.2.3,harveydigits,2.1,[],8,0.75,
3,digit,0.3,['dot'],['small_1'],black,0,342,342,342,,,122.10023403167725,121.80556988716125,122.12223196029663,"[[-0.25288109649895796, -0.12673434017134605]]",['DejaVu Sans'],[0.6],,,,N005,digit,1,"['6', '7', '8', '9']","['1', '2', '3', '4']",1,2023.2.3,harveydigits,2.1,[],8,0.75,
0,pause,0.4,None,None,None,0,343,343,343,,,,,,,,,,,,N005,digit,1,"['6', '7', '8', '9']","['1', '2', '3', '4']",1,2023.2.3,harveydigits,2.1,[],8,0.75,
3,digit,0.3,['dot'],['small_1'],black,0,344,344,344,,,122.80023097991943,122.50554704666138,122.82221007347107,"[[-0.16857287682407474, -0.27789776963596347]]",['DejaVu Sans'],[0.6],,,,N005,digit,1,"['6', '7', '8', '9']","['1', '2', '3', '4']",1,2023.2.3,harveydigits,2.1,[],8,0.75,
0,pause,0.4,None,None,None,0,345,345,345,,,,,,,,,,,,N005,digit,1,"['6', '7', '8', '9']","['1', '2', '3', '4']",1,2023.2.3,harveydigits,2.1,[],8,0.75,
3,digit,0.3,['dot'],['small_1'],black,0,346,346,346,,,123.50022888183594,123.20551896095276,123.5222499370575,"[[-0.272688251401024, -0.11912896488049476]]",['DejaVu Sans'],[0.6],,,,N005,digit,1,"['6', '7', '8', '9']","['1', '2', '3', '4']",1,2023.2.3,harveydigits,2.1,[],8,0.75,
0,pause,0.4,None,None,None,0,347,347,347,,,,,,,,,,,,N005,digit,1,"['6', '7', '8', '9']","['1', '2', '3', '4']",1,2023.2.3,harveydigits,2.1,[],8,0.75,
4,digit,0.3,['dot'],['small_1'],black,0,348,348,348,,,124.20023894309998,123.90556311607361,124.22218990325928,"[[0.11784015870299125, -0.059019049654069344]]",['DejaVu Sans'],[0.6],,,,N005,digit,1,"['6', '7', '8', '9']","['1', '2', '3', '4']",1,2023.2.3,harveydigits,2.1,[],8,0.75,
0,pause,0.4,None,None,None,0,349,349,349,,,,,,,,,,,,N005,digit,1,"['6', '7', '8', '9']","['1', '2', '3', '4']",1,2023.2.3,harveydigits,2.1,[],8,0.75,
4,digit,0.3,['dot'],['small_1'],black,0,350,350,350,,,124.90022492408752,124.6055281162262,124.92218494415283,"[[0.09335661954927721, -0.12511337560930716]]",['DejaVu Sans'],[0.6],,,,N005,digit,1,"['6', '7', '8', '9']","['1', '2', '3', '4']",1,2023.2.3,harveydigits,2.1,[],8,0.75,
0,pause,0.4,None,None,None,0,351,351,351,,,,,,,,,,,,N005,digit,1,"['6', '7', '8', '9']","['1', '2', '3', '4']",1,2023.2.3,harveydigits,2.1,[],8,0.75,
4,digit,0.3,['dot'],['small_1'],black,0,352,352,352,,,125.60022807121277,125.30660891532898,125.62212109565735,"[[-0.24908883643235646, -0.04319831995588208]]",['DejaVu Sans'],[0.6],,,,N005,digit,1,"['6', '7', '8', '9']","['1', '2', '3', '4']",1,2023.2.3,harveydigits,2.1,[],8,0.75,
0,pause,0.4,None,None,None,0,353,353,353,,,,,,,,,,,,N005,digit,1,"['6', '7', '8', '9']","['1', '2', '3', '4']",1,2023.2.3,harveydigits,2.1,[],8,0.75,
4,digit,0.3,['dot'],['small_1'],black,0,354,354,354,,,126.30023193359375,126.00551009178162,126.32308888435364,"[[-0.04496989209544122, 0.23775428574177582]]",['DejaVu Sans'],[0.6],,,,N005,digit,1,"['6', '7', '8', '9']","['1', '2', '3', '4']",1,2023.2.3,harveydigits,2.1,[],8,0.75,
0,pause,0.4,None,None,None,0,355,355,355,,,,,,,,,,,,N005,digit,1,"['6', '7', '8', '9']","['1', '2', '3', '4']",1,2023.2.3,harveydigits,2.1,[],8,0.75,
4,digit,0.3,['dot'],['small_1'],black,0,356,356,356,,,127.00023293495178,126.70549702644348,127.02211594581604,"[[-0.15047160877799381, 0.03025467072169602]]",['DejaVu Sans'],[0.6],,,,N005,digit,1,"['6', '7', '8', '9']","['1', '2', '3', '4']",1,2023.2.3,harveydigits,2.1,[],8,0.75,
0,pause,0.4,None,None,None,0,357,357,357,,,,,,,,,,,,N005,digit,1,"['6', '7', '8', '9']","['1', '2', '3', '4']",1,2023.2.3,harveydigits,2.1,[],8,0.75,
4,digit,0.3,['dot'],['small_1'],black,0,358,358,358,,,127.70022797584534,127.40541911125183,127.7221040725708,"[[0.1572009555466195, 0.1764057059021556]]",['DejaVu Sans'],[0.6],,,,N005,digit,1,"['6', '7', '8', '9']","['1', '2', '3', '4']",1,2023.2.3,harveydigits,2.1,[],8,0.75,
0,pause,0.4,None,None,None,0,359,359,359,,,,,,,,,,,,N005,digit,1,"['6', '7', '8', '9']","['1', '2', '3', '4']",1,2023.2.3,harveydigits,2.1,[],8,0.75,
5,digit,0.3,['dot'],['small_1'],black,0,360,360,360,,,128.40023398399353,128.10545992851257,128.4220769405365,"[[-0.07247775864263739, 0.33623408111271214]]",['DejaVu Sans'],[0.6],,,,N005,digit,1,"['6', '7', '8', '9']","['1', '2', '3', '4']",1,2023.2.3,harveydigits,2.1,[],8,0.75,
0,pause,0.4,None,None,None,0,361,361,361,,,,,,,,,,,,N005,digit,1,"['6', '7', '8', '9']","['1', '2', '3', '4']",1,2023.2.3,harveydigits,2.1,[],8,0.75,
5,digit,0.3,['dot'],['small_1'],black,0,362,362,362,,,129.10024189949036,128.80543208122253,129.1220281124115,"[[0.1370601910159382, 0.18811384464697378]]",['DejaVu Sans'],[0.6],,,,N005,digit,1,"['6', '7', '8', '9']","['1', '2', '3', '4']",1,2023.2.3,harveydigits,2.1,[],8,0.75,
0,pause,0.4,None,None,None,0,363,363,363,,,,,,,,,,,,N005,digit,1,"['6', '7', '8', '9']","['1', '2', '3', '4']",1,2023.2.3,harveydigits,2.1,[],8,0.75,
5,digit,0.3,['dot'],['small_1'],black,0,364,364,364,,,129.80023193359375,129.50536704063416,129.82201504707336,"[[-0.045615294329008405, -0.07267376370901169]]",['DejaVu Sans'],[0.6],,,,N005,digit,1,"['6', '7', '8', '9']","['1', '2', '3', '4']",1,2023.2.3,harveydigits,2.1,[],8,0.75,
0,pause,0.4,None,None,None,0,365,365,365,,,,,,,,,,,,N005,digit,1,"['6', '7', '8', '9']","['1', '2', '3', '4']",1,2023.2.3,harveydigits,2.1,[],8,0.75,
5,digit,0.3,['dot'],['small_1'],black,0,366,366,366,,,130.50023698806763,130.20608401298523,130.52200603485107,"[[0.2193891266131871, -0.1282629565258067]]",['DejaVu Sans'],[0.6],,,,N005,digit,1,"['6', '7', '8', '9']","['1', '2', '3', '4']",1,2023.2.3,harveydigits,2.1,[],8,0.75,
0,pause,0.4,None,None,None,0,367,367,367,,,,,,,,,,,,N005,digit,1,"['6', '7', '8', '9']","['1', '2', '3', '4']",1,2023.2.3,harveydigits,2.1,[],8,0.75,
5,digit,0.3,['dot'],['small_1'],black,0,368,368,368,,,131.2002410888672,130.90536308288574,131.22203087806702,"[[0.07788423993316979, 0.029511334586420024]]",['DejaVu Sans'],[0.6],,,,N005,digit,1,"['6', '7', '8', '9']","['1', '2', '3', '4']",1,2023.2.3,harveydigits,2.1,[],8,0.75,
0,pause,0.4,None,None,None,0,369,369,369,,,,,,,,,,,,N005,digit,1,"['6', '7', '8', '9']","['1', '2', '3', '4']",1,2023.2.3,harveydigits,2.1,[],8,0.75,
5,digit,0.3,['dot'],['small_1'],black,0,370,370,370,,,131.900239944458,131.6053490638733,131.92200088500977,"[[-0.0923069740192119, 0.026717418532648973]]",['DejaVu Sans'],[0.6],,,,N005,digit,1,"['6', '7', '8', '9']","['1', '2', '3', '4']",1,2023.2.3,harveydigits,2.1,[],8,0.75,
0,pause,0.4,None,None,None,0,371,371,371,,,,,,,,,,,,N005,digit,1,"['6', '7', '8', '9']","['1', '2', '3', '4']",1,2023.2.3,harveydigits,2.1,[],8,0.75,
6,digit,0.3,['dot'],['small_1'],black,0,372,372,372,,,132.6002230644226,132.3053228855133,132.62200093269348,"[[-0.20853697267631383, -0.12056065774051877]]",['DejaVu Sans'],[0.6],,,,N005,digit,1,"['6', '7', '8', '9']","['1', '2', '3', '4']",1,2023.2.3,harveydigits,2.1,[],8,0.75,
0,pause,0.4,None,None,None,0,373,373,373,,,,,,,,,,,,N005,digit,1,"['6', '7', '8', '9']","['1', '2', '3', '4']",1,2023.2.3,harveydigits,2.1,[],8,0.75,
6,digit,0.3,['dot'],['small_1'],black,0,374,374,374,,,133.3002209663391,133.00641798973083,133.32197403907776,"[[0.05259173527136396, -0.18856557785810252]]",['DejaVu Sans'],[0.6],,,,N005,digit,1,"['6', '7', '8', '9']","['1', '2', '3', '4']",1,2023.2.3,harveydigits,2.1,[],8,0.75,
0,pause,0.4,None,None,None,0,375,375,375,,,,,,,,,,,,N005,digit,1,"['6', '7', '8', '9']","['1', '2', '3', '4']",1,2023.2.3,harveydigits,2.1,[],8,0.75,
6,digit,0.3,['dot'],['small_1'],black,0,376,376,376,,,134.0002360343933,133.70532488822937,134.02190589904785,"[[0.023415626684771707, 0.18121381244785395]]",['DejaVu Sans'],[0.6],,,,N005,digit,1,"['6', '7', '8', '9']","['1', '2', '3', '4']",1,2023.2.3,harveydigits,2.1,[],8,0.75,
0,pause,0.4,None,None,None,0,377,377,377,,,,,,,,,,,,N005,digit,1,"['6', '7', '8', '9']","['1', '2', '3', '4']",1,2023.2.3,harveydigits,2.1,[],8,0.75,
6,digit,0.3,['dot'],['small_1'],black,0,378,378,378,,,134.70022106170654,134.4052219390869,134.7219250202179,"[[-0.05381203446049221, -0.04729255067720578]]",['DejaVu Sans'],[0.6],,,,N005,digit,1,"['6', '7', '8', '9']","['1', '2', '3', '4']",1,2023.2.3,harveydigits,2.1,[],8,0.75,
0,pause,0.4,None,None,None,0,379,379,379,,,,,,,,,,,,N005,digit,1,"['6', '7', '8', '9']","['1', '2', '3', '4']",1,2023.2.3,harveydigits,2.1,[],8,0.75,
6,digit,0.3,['dot'],['small_1'],black,0,380,380,380,,,135.40023708343506,135.10524797439575,135.4219388961792,"[[0.10075406028413653, 0.32438737594470124]]",['DejaVu Sans'],[0.6],,,,N005,digit,1,"['6', '7', '8', '9']","['1', '2', '3', '4']",1,2023.2.3,harveydigits,2.1,[],8,0.75,
0,pause,0.4,None,None,None,0,381,381,381,,,,,,,,,,,,N005,digit,1,"['6', '7', '8', '9']","['1', '2', '3', '4']",1,2023.2.3,harveydigits,2.1,[],8,0.75,
6,digit,0.3,['dot'],['small_1'],black,0,382,382,382,,,136.10023093223572,135.80524492263794,136.12293100357056,"[[0.1267968330090785, -0.17895952683173638]]",['DejaVu Sans'],[0.6],,,,N005,digit,1,"['6', '7', '8', '9']","['1', '2', '3', '4']",1,2023.2.3,harveydigits,2.1,[],8,0.75,
0,pause,0.4,None,None,None,0,383,383,383,,,,,,,,,,,,N005,digit,1,"['6', '7', '8', '9']","['1', '2', '3', '4']",1,2023.2.3,harveydigits,2.1,[],8,0.75,
7,digit,0.3,['dot'],['small_1'],black,0,384,384,384,,,136.80022406578064,136.50523805618286,136.82182788848877,"[[0.08031381528669018, -0.1589168714336207]]",['DejaVu Sans'],[0.6],,,,N005,digit,1,"['6', '7', '8', '9']","['1', '2', '3', '4']",1,2023.2.3,harveydigits,2.1,[],8,0.75,
0,pause,0.4,None,None,None,0,385,385,385,,,,,,,,,,,,N005,digit,1,"['6', '7', '8', '9']","['1', '2', '3', '4']",1,2023.2.3,harveydigits,2.1,[],8,0.75,
7,digit,0.3,['dot'],['small_1'],black,0,386,386,386,,,137.50023794174194,137.20517492294312,137.5218150615692,"[[-0.06085533054009118, 0.1930594289922377]]",['DejaVu Sans'],[0.6],,,,N005,digit,1,"['6', '7', '8', '9']","['1', '2', '3', '4']",1,2023.2.3,harveydigits,2.1,[],8,0.75,
0,pause,0.4,None,None,None,0,387,387,387,,,,,,,,,,,,N005,digit,1,"['6', '7', '8', '9']","['1', '2', '3', '4']",1,2023.2.3,harveydigits,2.1,[],8,0.75,
7,digit,0.3,['dot'],['small_1'],black,0,388,388,388,,,138.20022106170654,137.90518307685852,138.22184205055237,"[[-0.08563362329721713, -0.06570483396092358]]",['DejaVu Sans'],[0.6],,,,N005,digit,1,"['6', '7', '8', '9']","['1', '2', '3', '4']",1,2023.2.3,harveydigits,2.1,[],8,0.75,
0,pause,0.4,None,None,None,0,389,389,389,,,,,,,,,,,,N005,digit,1,"['6', '7', '8', '9']","['1', '2', '3', '4']",1,2023.2.3,harveydigits,2.1,[],8,0.75,
7,digit,0.3,['dot'],['small_1'],black,0,390,390,390,,,138.90024709701538,138.6051890850067,138.92180490493774,"[[0.30078480915152106, 0.1669728517681985]]",['DejaVu Sans'],[0.6],,,,N005,digit,1,"['6', '7', '8', '9']","['1', '2', '3', '4']",1,2023.2.3,harveydigits,2.1,[],8,0.75,
0,pause,0.4,None,None,None,0,391,391,391,,,,,,,,,,,,N005,digit,1,"['6', '7', '8', '9']","['1', '2', '3', '4']",1,2023.2.3,harveydigits,2.1,[],8,0.75,
7,digit,0.3,['dot'],['small_1'],black,0,392,392,392,,,139.6002480983734,139.30511808395386,139.6217749118805,"[[-0.32998301754037834, -0.09888729803731881]]",['DejaVu Sans'],[0.6],,,,N005,digit,1,"['6', '7', '8', '9']","['1', '2', '3', '4']",1,2023.2.3,harveydigits,2.1,[],8,0.75,
0,pause,0.4,None,None,None,0,393,393,393,,,,,,,,,,,,N005,digit,1,"['6', '7', '8', '9']","['1', '2', '3', '4']",1,2023.2.3,harveydigits,2.1,[],8,0.75,
7,digit,0.3,['dot'],['small_1'],black,0,394,394,394,,,140.30023503303528,140.00508499145508,140.32176899909973,"[[-0.2119870489540748, -0.26840766384747106]]",['DejaVu Sans'],[0.6],,,,N005,digit,1,"['6', '7', '8', '9']","['1', '2', '3', '4']",1,2023.2.3,harveydigits,2.1,[],8,0.75,
0,pause,0.4,None,None,None,0,395,395,395,,,,,,,,,,,,N005,digit,1,"['6', '7', '8', '9']","['1', '2', '3', '4']",1,2023.2.3,harveydigits,2.1,[],8,0.75,
8,digit,0.3,['dot'],['small_1'],black,0,396,396,396,,,141.00024509429932,140.70507907867432,141.02174711227417,"[[-0.016828226147306113, -0.27659830443088207]]",['DejaVu Sans'],[0.6],,,,N005,digit,1,"['6', '7', '8', '9']","['1', '2', '3', '4']",1,2023.2.3,harveydigits,2.1,[],8,0.75,
0,pause,0.4,None,None,None,0,397,397,397,,,,,,,,,,,,N005,digit,1,"['6', '7', '8', '9']","['1', '2', '3', '4']",1,2023.2.3,harveydigits,2.1,[],8,0.75,
8,digit,0.3,['dot'],['small_1'],black,0,398,398,398,,,141.70025396347046,141.4050691127777,141.72172808647156,"[[-0.21264771162409066, -0.24148202158243945]]",['DejaVu Sans'],[0.6],,,,N005,digit,1,"['6', '7', '8', '9']","['1', '2', '3', '4']",1,2023.2.3,harveydigits,2.1,[],8,0.75,
0,pause,0.4,None,None,None,0,399,399,399,,,,,,,,,,,,N005,digit,1,"['6', '7', '8', '9']","['1', '2', '3', '4']",1,2023.2.3,harveydigits,2.1,[],8,0.75,
8,digit,0.3,['dot'],['small_1'],black,0,400,400,400,,,142.400230884552,142.10505890846252,142.42170000076294,"[[0.19651694358948713, 0.08958159076304295]]",['DejaVu Sans'],[0.6],,,,N005,digit,1,"['6', '7', '8', '9']","['1', '2', '3', '4']",1,2023.2.3,harveydigits,2.1,[],8,0.75,
0,pause,0.4,None,None,None,0,401,401,401,,,,,,,,,,,,N005,digit,1,"['6', '7', '8', '9']","['1', '2', '3', '4']",1,2023.2.3,harveydigits,2.1,[],8,0.75,
8,digit,0.3,['dot'],['small_1'],black,0,402,402,402,,,143.10024499893188,142.80505800247192,143.12169098854065,"[[0.193998377647165, 0.1426656238086419]]",['DejaVu Sans'],[0.6],,,,N005,digit,1,"['6', '7', '8', '9']","['1', '2', '3', '4']",1,2023.2.3,harveydigits,2.1,[],8,0.75,
0,pause,0.4,None,None,None,0,403,403,403,,,,,,,,,,,,N005,digit,1,"['6', '7', '8', '9']","['1', '2', '3', '4']",1,2023.2.3,harveydigits,2.1,[],8,0.75,
8,digit,0.3,['dot'],['small_1'],black,0,404,404,404,,,143.8002369403839,143.50504994392395,143.82167291641235,"[[0.23911514182502214, -0.2447722972085774]]",['DejaVu Sans'],[0.6],,,,N005,digit,1,"['6', '7', '8', '9']","['1', '2', '3', '4']",1,2023.2.3,harveydigits,2.1,[],8,0.75,
0,pause,0.4,None,None,None,0,405,405,405,,,,,,,,,,,,N005,digit,1,"['6', '7', '8', '9']","['1', '2', '3', '4']",1,2023.2.3,harveydigits,2.1,[],8,0.75,
8,digit,0.3,['dot'],['small_1'],black,0,406,406,406,,,144.50023698806763,144.20493292808533,144.5216579437256,"[[0.2001868617057424, -0.009298914376345946]]",['DejaVu Sans'],[0.6],,,,N005,digit,1,"['6', '7', '8', '9']","['1', '2', '3', '4']",1,2023.2.3,harveydigits,2.1,[],8,0.75,
0,pause,0.4,None,None,None,0,407,407,407,,,,,,,,,,,,N005,digit,1,"['6', '7', '8', '9']","['1', '2', '3', '4']",1,2023.2.3,harveydigits,2.1,[],8,0.75,
9,digit,0.3,['dot'],['small_1'],black,0,408,408,408,,,145.2002329826355,144.90489411354065,145.2216489315033,"[[-0.05575095523318235, 0.09773477228141325]]",['DejaVu Sans'],[0.6],,,,N005,digit,1,"['6', '7', '8', '9']","['1', '2', '3', '4']",1,2023.2.3,harveydigits,2.1,[],8,0.75,
0,pause,0.4,None,None,None,0,409,409,409,,,,,,,,,,,,N005,digit,1,"['6', '7', '8', '9']","['1', '2', '3', '4']",1,2023.2.3,harveydigits,2.1,[],8,0.75,
9,digit,0.3,['dot'],['small_1'],black,0,410,410,410,,,145.90021991729736,145.60489201545715,145.92165303230286,"[[-0.30189540838775397, -0.13534310840416322]]",['DejaVu Sans'],[0.6],,,,N005,digit,1,"['6', '7', '8', '9']","['1', '2', '3', '4']",1,2023.2.3,harveydigits,2.1,[],8,0.75,
0,pause,0.4,None,None,None,0,411,411,411,,,,,,,,,,,,N005,digit,1,"['6', '7', '8', '9']","['1', '2', '3', '4']",1,2023.2.3,harveydigits,2.1,[],8,0.75,
9,digit,0.3,['dot'],['small_1'],black,0,412,412,412,,,146.60023999214172,146.3048620223999,146.62254810333252,"[[-0.2821107585138315, -0.1358384177743718]]",['DejaVu Sans'],[0.6],,,,N005,digit,1,"['6', '7', '8', '9']","['1', '2', '3', '4']",1,2023.2.3,harveydigits,2.1,[],8,0.75,
0,pause,0.4,None,None,None,0,413,413,413,,,,,,,,,,,,N005,digit,1,"['6', '7', '8', '9']","['1', '2', '3', '4']",1,2023.2.3,harveydigits,2.1,[],8,0.75,
9,digit,0.3,['dot'],['small_1'],black,0,414,414,414,,,147.3002269268036,147.00492191314697,147.32156205177307,"[[0.13477406441939083, 0.2465817166292374]]",['DejaVu Sans'],[0.6],,,,N005,digit,1,"['6', '7', '8', '9']","['1', '2', '3', '4']",1,2023.2.3,harveydigits,2.1,[],8,0.75,
0,pause,0.4,None,None,None,0,415,415,415,,,,,,,,,,,,N005,digit,1,"['6', '7', '8', '9']","['1', '2', '3', '4']",1,2023.2.3,harveydigits,2.1,[],8,0.75,
9,digit,0.3,['dot'],['small_1'],black,0,416,416,416,,,148.00024795532227,147.70485591888428,148.02159309387207,"[[-0.04476915660820957, 0.021213391524346814]]",['DejaVu Sans'],[0.6],,,,N005,digit,1,"['6', '7', '8', '9']","['1', '2', '3', '4']",1,2023.2.3,harveydigits,2.1,[],8,0.75,
0,pause,0.4,None,None,None,0,417,417,417,,,,,,,,,,,,N005,digit,1,"['6', '7', '8', '9']","['1', '2', '3', '4']",1,2023.2.3,harveydigits,2.1,[],8,0.75,
9,digit,0.3,['dot'],['small_1'],black,0,418,418,418,,,148.70023393630981,148.4048399925232,148.72157096862793,"[[0.28737697997603884, 0.140973854435922]]",['DejaVu Sans'],[0.6],,,,N005,digit,1,"['6', '7', '8', '9']","['1', '2', '3', '4']",1,2023.2.3,harveydigits,2.1,[],8,0.75,
0,pause,0.4,None,None,None,0,419,419,419,,,,,,,,,,,,N005,digit,1,"['6', '7', '8', '9']","['1', '2', '3', '4']",1,2023.2.3,harveydigits,2.1,[],8,0.75,
20,digit,0.3,['dot'],['small_1'],white,0,420,420,420,,,149.4002330303192,149.10484099388123,149.42154502868652,"[[-0.3087296327653523, 0.10710727272110984]]",['DejaVu Sans'],[0.6],,,,N005,digit,1,"['6', '7', '8', '9']","['1', '2', '3', '4']",1,2023.2.3,harveydigits,2.1,[],8,0.75,
0,pause,0.4,None,None,None,0,421,421,421,,,,,,,,,1,,148.78075313568115,N005,digit,1,"['6', '7', '8', '9']","['1', '2', '3', '4']",1,2023.2.3,harveydigits,2.1,[],8,0.75,
20,digit,0.3,['dot'],['small_1'],white,0,422,422,422,,,150.1002221107483,149.82152700424194,150.12149691581726,"[[0.12031971135216313, 0.20491071470697697]]",['DejaVu Sans'],[0.6],,,,N005,digit,1,"['6', '7', '8', '9']","['1', '2', '3', '4']",1,2023.2.3,harveydigits,2.1,[],8,0.75,
0,pause,0.4,None,None,None,0,423,423,423,,,,,,,,,,,,N005,digit,1,"['6', '7', '8', '9']","['1', '2', '3', '4']",1,2023.2.3,harveydigits,2.1,[],8,0.75,
20,digit,0.3,['dot'],['small_1'],white,0,424,424,424,,,150.80023789405823,150.521488904953,150.82149696350098,"[[0.15734975795083228, -0.23974015608242505]]",['DejaVu Sans'],[0.6],,,,N005,digit,1,"['6', '7', '8', '9']","['1', '2', '3', '4']",1,2023.2.3,harveydigits,2.1,[],8,0.75,
0,pause,0.4,None,None,None,0,425,425,425,,,,,,,,,,,,N005,digit,1,"['6', '7', '8', '9']","['1', '2', '3', '4']",1,2023.2.3,harveydigits,2.1,[],8,0.75,
20,digit,0.3,['dot'],['small_1'],white,0,426,426,426,,,151.50024890899658,151.22149205207825,151.52146100997925,"[[0.0002679420847545022, -0.10832167723129688]]",['DejaVu Sans'],[0.6],,,,N005,digit,1,"['6', '7', '8', '9']","['1', '2', '3', '4']",1,2023.2.3,harveydigits,2.1,[],8,0.75,
0,pause,0.4,None,None,None,0,427,427,427,,,,,,,,,,,,N005,digit,1,"['6', '7', '8', '9']","['1', '2', '3', '4']",1,2023.2.3,harveydigits,2.1,[],8,0.75,
20,digit,0.3,['dot'],['small_1'],white,0,428,428,428,,,152.2002580165863,151.92145800590515,152.2214560508728,"[[0.17695665958785178, -0.018122057177788753]]",['DejaVu Sans'],[0.6],left,odd,151.23406410217285,N005,digit,1,"['6', '7', '8', '9']","['1', '2', '3', '4']",1,2023.2.3,harveydigits,2.1,[],8,0.75,
0,pause,0.4,None,None,None,0,429,429,429,,,,,,,,,,,,N005,digit,1,"['6', '7', '8', '9']","['1', '2', '3', '4']",1,2023.2.3,harveydigits,2.1,[],8,0.75,
20,digit,0.3,['dot'],['small_1'],white,0,430,430,430,,,152.90024209022522,152.62152695655823,152.92148089408875,"[[0.13210286769651647, -0.002740605530714313]]",['DejaVu Sans'],[0.6],,,,N005,digit,1,"['6', '7', '8', '9']","['1', '2', '3', '4']",1,2023.2.3,harveydigits,2.1,[],8,0.75,
0,pause,0.4,None,None,None,0,431,431,431,,,,,,,,,,,,N005,digit,1,"['6', '7', '8', '9']","['1', '2', '3', '4']",1,2023.2.3,harveydigits,2.1,[],8,0.75,
20,digit,0.3,['dot'],['small_1'],black,0,432,432,432,,,153.6002230644226,153.32148694992065,153.62148189544678,"[[0.3195444784978442, 0.13623589738102804]]",['DejaVu Sans'],[0.6],,,,N005,digit,1,"['6', '7', '8', '9']","['1', '2', '3', '4']",1,2023.2.3,harveydigits,2.1,[],8,0.75,
0,pause,0.4,None,None,None,0,433,433,433,,,,,,,,,,,,N005,digit,1,"['6', '7', '8', '9']","['1', '2', '3', '4']",1,2023.2.3,harveydigits,2.1,[],8,0.75,
20,digit,0.3,['dot'],['small_1'],black,0,434,434,434,,,154.30024003982544,154.0214810371399,154.32145309448242,"[[0.27368241563201645, 0.21417443403527864]]",['DejaVu Sans'],[0.6],,,,N005,digit,1,"['6', '7', '8', '9']","['1', '2', '3', '4']",1,2023.2.3,harveydigits,2.1,[],8,0.75,
0,pause,0.4,None,None,None,0,435,435,435,,,,,,,,,,,,N005,digit,1,"['6', '7', '8', '9']","['1', '2', '3', '4']",1,2023.2.3,harveydigits,2.1,[],8,0.75,
20,digit,0.3,['dot'],['small_1'],black,0,436,436,436,,,155.00023889541626,154.7214319705963,155.02141690254211,"[[0.22947144563469624, -0.200278274934644]]",['DejaVu Sans'],[0.6],,,,N005,digit,1,"['6', '7', '8', '9']","['1', '2', '3', '4']",1,2023.2.3,harveydigits,2.1,[],8,0.75,
0,pause,0.4,None,None,None,0,437,437,437,,,,,,,,,,,,N005,digit,1,"['6', '7', '8', '9']","['1', '2', '3', '4']",1,2023.2.3,harveydigits,2.1,[],8,0.75,
20,digit,0.3,['dot'],['small_1'],black,0,438,438,438,,,155.7002260684967,155.4213900566101,155.72136211395264,"[[0.28089388997136966, 0.1574752975261172]]",['DejaVu Sans'],[0.6],,,,N005,digit,1,"['6', '7', '8', '9']","['1', '2', '3', '4']",1,2023.2.3,harveydigits,2.1,[],8,0.75,
0,pause,0.4,None,None,None,0,439,439,439,,,,,,,,,,,,N005,digit,1,"['6', '7', '8', '9']","['1', '2', '3', '4']",1,2023.2.3,harveydigits,2.1,[],8,0.75,
20,digit,0.3,['dot'],['small_1'],black,0,440,440,440,,,156.40024304389954,156.12136697769165,156.42134499549866,"[[0.3442913910886639, 0.04989429009941375]]",['DejaVu Sans'],[0.6],,,,N005,digit,1,"['6', '7', '8', '9']","['1', '2', '3', '4']",1,2023.2.3,harveydigits,2.1,[],8,0.75,
0,pause,0.4,None,None,None,0,441,441,441,,,,,,,,,,,,N005,digit,1,"['6', '7', '8', '9']","['1', '2', '3', '4']",1,2023.2.3,harveydigits,2.1,[],8,0.75,
20,digit,0.3,['dot'],['small_1'],black,0,442,442,442,,,157.10023188591003,156.82139992713928,157.12135195732117,"[[0.3224575733244408, -0.09988200030797567]]",['DejaVu Sans'],[0.6],,,,N005,digit,1,"['6', '7', '8', '9']","['1', '2', '3', '4']",1,2023.2.3,harveydigits,2.1,[],8,0.75,
0,pause,0.4,None,None,None,0,443,443,443,,,,,,,,,,,,N005,digit,1,"['6', '7', '8', '9']","['1', '2', '3', '4']",1,2023.2.3,harveydigits,2.1,[],8,0.75,
20,digit,0.3,['dot'],['small_1'],black,0,444,444,444,,,157.8002450466156,157.5213348865509,157.82131695747375,"[[0.07659209254618538, -0.30319122763666473]]",['DejaVu Sans'],[0.6],,,,N005,digit,1,"['6', '7', '8', '9']","['1', '2', '3', '4']",1,2023.2.3,harveydigits,2.1,[],8,0.75,
0,pause,0.4,None,None,None,0,445,445,445,,,,,,,,,,,,N005,digit,1,"['6', '7', '8', '9']","['1', '2', '3', '4']",1,2023.2.3,harveydigits,2.1,[],8,0.75,
20,digit,0.3,['dot'],['small_1'],black,0,446,446,446,,,158.50024509429932,158.22131896018982,158.5212960243225,"[[0.2373108980600226, 0.16729811985412874]]",['DejaVu Sans'],[0.6],,,,N005,digit,1,"['6', '7', '8', '9']","['1', '2', '3', '4']",1,2023.2.3,harveydigits,2.1,[],8,0.75,
0,pause,0.4,None,None,None,0,447,447,447,,,,,,,,,,,,N005,digit,1,"['6', '7', '8', '9']","['1', '2', '3', '4']",1,2023.2.3,harveydigits,2.1,[],8,0.75,
20,digit,0.3,['dot'],['small_1'],black,0,448,448,448,,,159.20023703575134,158.92226004600525,159.22127103805542,"[[-0.27516564272125726, 0.21405668804545733]]",['DejaVu Sans'],[0.6],,,,N005,digit,1,"['6', '7', '8', '9']","['1', '2', '3', '4']",1,2023.2.3,harveydigits,2.1,[],8,0.75,
0,pause,0.4,None,None,None,0,449,449,449,,,,,,,,,,,,N005,digit,1,"['6', '7', '8', '9']","['1', '2', '3', '4']",1,2023.2.3,harveydigits,2.1,[],8,0.75,
20,digit,0.3,['dot'],['small_1'],black,0,450,450,450,,,159.90022802352905,159.62129402160645,159.92128610610962,"[[0.1530868593846848, 0.06852241935929748]]",['DejaVu Sans'],[0.6],,,,N005,digit,1,"['6', '7', '8', '9']","['1', '2', '3', '4']",1,2023.2.3,harveydigits,2.1,[],8,0.75,
0,pause,0.4,None,None,None,0,451,451,451,,,,,,,,,,,,N005,digit,1,"['6', '7', '8', '9']","['1', '2', '3', '4']",1,2023.2.3,harveydigits,2.1,[],8,0.75,
20,digit,0.3,['dot'],['small_1'],black,0,452,452,452,,,160.60025095939636,160.32130193710327,160.6212649345398,"[[0.17005769213806754, -0.1114084322861002]]",['DejaVu Sans'],[0.6],,,,N005,digit,1,"['6', '7', '8', '9']","['1', '2', '3', '4']",1,2023.2.3,harveydigits,2.1,[],8,0.75,
0,pause,0.4,None,None,None,0,453,453,453,,,,,,,,,,,,N005,digit,1,"['6', '7', '8', '9']","['1', '2', '3', '4']",1,2023.2.3,harveydigits,2.1,[],8,0.75,
20,digit,0.3,['dot'],['small_1'],black,0,454,454,454,,,161.3002519607544,161.02128195762634,161.32211995124817,"[[0.2996588121282323, -0.1753021758164861]]",['DejaVu Sans'],[0.6],,,,N005,digit,1,"['6', '7', '8', '9']","['1', '2', '3', '4']",1,2023.2.3,harveydigits,2.1,[],8,0.75,
0,pause,0.4,None,None,None,0,455,455,455,,,,,,,,,,,,N005,digit,1,"['6', '7', '8', '9']","['1', '2', '3', '4']",1,2023.2.3,harveydigits,2.1,[],8,0.75,
20,digit,0.3,['dot'],['small_1'],black,0,456,456,456,,,162.0002360343933,161.72119402885437,162.0220890045166,"[[0.32356427564998835, 0.08642644872624833]]",['DejaVu Sans'],[0.6],,,,N005,digit,1,"['6', '7', '8', '9']","['1', '2', '3', '4']",1,2023.2.3,harveydigits,2.1,[],8,0.75,
0,pause,0.4,None,None,None,0,457,457,457,,,,,,,,,,,,N005,digit,1,"['6', '7', '8', '9']","['1', '2', '3', '4']",1,2023.2.3,harveydigits,2.1,[],8,0.75,
20,digit,0.3,['dot'],['small_1'],black,0,458,458,458,,,162.7002410888672,162.42121410369873,162.72119188308716,"[[-0.061820688369904064, -0.04319877476823325]]",['DejaVu Sans'],[0.6],,,,N005,digit,1,"['6', '7', '8', '9']","['1', '2', '3', '4']",1,2023.2.3,harveydigits,2.1,[],8,0.75,
0,pause,0.4,None,None,None,0,459,459,459,,,,,,,,,,,,N005,digit,1,"['6', '7', '8', '9']","['1', '2', '3', '4']",1,2023.2.3,harveydigits,2.1,[],8,0.75,
20,digit,0.3,['dot'],['small_1'],black,0,460,460,460,,,163.4002549648285,163.12123107910156,163.42116904258728,"[[-0.06182171965538025, 0.05769967911057339]]",['DejaVu Sans'],[0.6],,,,N005,digit,1,"['6', '7', '8', '9']","['1', '2', '3', '4']",1,2023.2.3,harveydigits,2.1,[],8,0.75,
0,pause,0.4,None,None,None,0,461,461,461,,,,,,,,,,,,N005,digit,1,"['6', '7', '8', '9']","['1', '2', '3', '4']",1,2023.2.3,harveydigits,2.1,[],8,0.75,
20,digit,0.3,['dot'],['small_1'],black,0,462,462,462,,,164.10025095939636,163.82118105888367,164.1222128868103,"[[0.07957869382567967, 0.14719189311377484]]",['DejaVu Sans'],[0.6],,,,N005,digit,1,"['6', '7', '8', '9']","['1', '2', '3', '4']",1,2023.2.3,harveydigits,2.1,[],8,0.75,
0,pause,0.4,None,None,None,0,463,463,463,,,,,,,,,,,,N005,digit,1,"['6', '7', '8', '9']","['1', '2', '3', '4']",1,2023.2.3,harveydigits,2.1,[],8,0.75,
20,digit,0.3,['dot'],['small_1'],black,0,464,464,464,,,164.8002278804779,164.52113103866577,164.82207703590393,"[[-0.3118973782847001, 0.03626749280910138]]",['DejaVu Sans'],[0.6],,,,N005,digit,1,"['6', '7', '8', '9']","['1', '2', '3', '4']",1,2023.2.3,harveydigits,2.1,[],8,0.75,
