num,mod,duration,shape,ll_cond,colors,.thisRepN,.thisTrialN,.thisN,.thisIndex,thisRow.t,notes,raw_global_time,t_start,t_stop,pos,fonts,size,button,RT,answer,participant,session,starting_run,left button (match/odd),right button (non-match/even),samples_per_block,psychopy version,expName,offset,audio,number_runs,radius,
1,digit,0.3,['dot'],['big_1'],black,0,0,0,0,,,2.400216817855835,2.117339849472046,2.4172918796539307,"[[-0.05764894785788996, -0.1255447136959451]]",['DejaVu Sans'],[0.9],,,,N008,digit,5,"['6', '7', '8', '9']","['1', '2', '3', '4']",1,2023.2.3,harveydigits,2.1,[],8,0.75,
0,pause,0.4,None,None,None,0,1,1,1,,,,,,,,,,,,N008,digit,5,"['6', '7', '8', '9']","['1', '2', '3', '4']",1,2023.2.3,harveydigits,2.1,[],8,0.75,
1,digit,0.3,['dot'],['big_1'],black,0,2,2,2,,,3.1002039909362793,2.80066180229187,3.1172749996185303,"[[0.057914056948688036, 0.16795089623348936]]",['DejaVu Sans'],[0.9],,,,N008,digit,5,"['6', '7', '8', '9']","['1', '2', '3', '4']",1,2023.2.3,harveydigits,2.1,[],8,0.75,
0,pause,0.4,None,None,None,0,3,3,3,,,,,,,,,,,,N008,digit,5,"['6', '7', '8', '9']","['1', '2', '3', '4']",1,2023.2.3,harveydigits,2.1,[],8,0.75,
1,digit,0.3,['dot'],['big_1'],black,0,4,4,4,,,3.8002068996429443,3.500614881515503,3.8172879219055176,"[[0.005111628545890923, -0.12307241782198391]]",['DejaVu Sans'],[0.9],,,,N008,digit,5,"['6', '7', '8', '9']","['1', '2', '3', '4']",1,2023.2.3,harveydigits,2.1,[],8,0.75,
0,pause,0.4,None,None,None,0,5,5,5,,,,,,,,,,,,N008,digit,5,"['6', '7', '8', '9']","['1', '2', '3', '4']",1,2023.2.3,harveydigits,2.1,[],8,0.75,
1,digit,0.3,['dot'],['big_1'],black,0,6,6,6,,,4.500201940536499,4.2006189823150635,4.517232894897461,"[[0.1109434801354596, -0.0802101741059007]]",['DejaVu Sans'],[0.9],,,,N008,digit,5,"['6', '7', '8', '9']","['1', '2', '3', '4']",1,2023.2.3,harveydigits,2.1,[],8,0.75,
0,pause,0.4,None,None,None,0,7,7,7,,,,,,,,,,,,N008,digit,5,"['6', '7', '8', '9']","['1', '2', '3', '4']",1,2023.2.3,harveydigits,2.1,[],8,0.75,
1,digit,0.3,['dot'],['big_1'],black,0,8,8,8,,,5.200224876403809,4.900576829910278,5.217217922210693,"[[-0.034265139968650826, 0.1164754822496547]]",['DejaVu Sans'],[0.9],,,,N008,digit,5,"['6', '7', '8', '9']","['1', '2', '3', '4']",1,2023.2.3,harveydigits,2.1,[],8,0.75,
0,pause,0.4,None,None,None,0,9,9,9,,,,,,,,,,,,N008,digit,5,"['6', '7', '8', '9']","['1', '2', '3', '4']",1,2023.2.3,harveydigits,2.1,[],8,0.75,
1,digit,0.3,['dot'],['big_1'],black,0,10,10,10,,,5.900213003158569,5.600555896759033,5.917200803756714,"[[0.18716303321506492, 0.058743381004617345]]",['DejaVu Sans'],[0.9],,,,N008,digit,5,"['6', '7', '8', '9']","['1', '2', '3', '4']",1,2023.2.3,harveydigits,2.1,[],8,0.75,
0,pause,0.4,None,None,None,0,11,11,11,,,,,,,,,,,,N008,digit,5,"['6', '7', '8', '9']","['1', '2', '3', '4']",1,2023.2.3,harveydigits,2.1,[],8,0.75,
2,digit,0.3,['dot'],['big_1'],black,0,12,12,12,,,6.600205898284912,6.300567865371704,6.61722993850708,"[[-0.07548190787739756, -0.010877026804435724]]",['DejaVu Sans'],[0.9],,,,N008,digit,5,"['6', '7', '8', '9']","['1', '2', '3', '4']",1,2023.2.3,harveydigits,2.1,[],8,0.75,
0,pause,0.4,None,None,None,0,13,13,13,,,,,,,,,,,,N008,digit,5,"['6', '7', '8', '9']","['1', '2', '3', '4']",1,2023.2.3,harveydigits,2.1,[],8,0.75,
2,digit,0.3,['dot'],['big_1'],black,0,14,14,14,,,7.30021595954895,7.000556945800781,7.3173699378967285,"[[-0.0013719949189217873, 0.18785850342716212]]",['DejaVu Sans'],[0.9],,,,N008,digit,5,"['6', '7', '8', '9']","['1', '2', '3', '4']",1,2023.2.3,harveydigits,2.1,[],8,0.75,
0,pause,0.4,None,None,None,0,15,15,15,,,,,,,,,,,,N008,digit,5,"['6', '7', '8', '9']","['1', '2', '3', '4']",1,2023.2.3,harveydigits,2.1,[],8,0.75,
2,digit,0.3,['dot'],['big_1'],black,0,16,16,16,,,8.00021481513977,7.7005438804626465,8.01711893081665,"[[-0.0598567550229642, -0.035339097420063914]]",['DejaVu Sans'],[0.9],,,,N008,digit,5,"['6', '7', '8', '9']","['1', '2', '3', '4']",1,2023.2.3,harveydigits,2.1,[],8,0.75,
0,pause,0.4,None,None,None,0,17,17,17,,,,,,,,,,,,N008,digit,5,"['6', '7', '8', '9']","['1', '2', '3', '4']",1,2023.2.3,harveydigits,2.1,[],8,0.75,
2,digit,0.3,['dot'],['big_1'],black,0,18,18,18,,,8.700217962265015,8.40051794052124,8.717126846313477,"[[0.14099200825605154, -0.11296795923363612]]",['DejaVu Sans'],[0.9],,,,N008,digit,5,"['6', '7', '8', '9']","['1', '2', '3', '4']",1,2023.2.3,harveydigits,2.1,[],8,0.75,
0,pause,0.4,None,None,None,0,19,19,19,,,,,,,,,,,,N008,digit,5,"['6', '7', '8', '9']","['1', '2', '3', '4']",1,2023.2.3,harveydigits,2.1,[],8,0.75,
2,digit,0.3,['dot'],['big_1'],black,0,20,20,20,,,9.400218963623047,9.10059380531311,9.41729187965393,"[[0.08288442209890615, -0.07288601488325055]]",['DejaVu Sans'],[0.9],,,,N008,digit,5,"['6', '7', '8', '9']","['1', '2', '3', '4']",1,2023.2.3,harveydigits,2.1,[],8,0.75,
0,pause,0.4,None,None,None,0,21,21,21,,,,,,,,,,,,N008,digit,5,"['6', '7', '8', '9']","['1', '2', '3', '4']",1,2023.2.3,harveydigits,2.1,[],8,0.75,
2,digit,0.3,['dot'],['big_1'],black,0,22,22,22,,,10.10020399093628,9.800432920455933,10.117220878601074,"[[0.18936471542812297, 0.03624272089540595]]",['DejaVu Sans'],[0.9],,,,N008,digit,5,"['6', '7', '8', '9']","['1', '2', '3', '4']",1,2023.2.3,harveydigits,2.1,[],8,0.75,
0,pause,0.4,None,None,None,0,23,23,23,,,,,,,,,,,,N008,digit,5,"['6', '7', '8', '9']","['1', '2', '3', '4']",1,2023.2.3,harveydigits,2.1,[],8,0.75,
3,digit,0.3,['dot'],['big_1'],black,0,24,24,24,,,10.80019998550415,10.500465869903564,10.817055940628052,"[[0.08146349560718932, 0.018106266721688302]]",['DejaVu Sans'],[0.9],,,,N008,digit,5,"['6', '7', '8', '9']","['1', '2', '3', '4']",1,2023.2.3,harveydigits,2.1,[],8,0.75,
0,pause,0.4,None,None,None,0,25,25,25,,,,,,,,,,,,N008,digit,5,"['6', '7', '8', '9']","['1', '2', '3', '4']",1,2023.2.3,harveydigits,2.1,[],8,0.75,
3,digit,0.3,['dot'],['big_1'],black,0,26,26,26,,,11.500221014022827,11.200412034988403,11.517083883285522,"[[0.012294949498878355, 0.1981549520705428]]",['DejaVu Sans'],[0.9],,,,N008,digit,5,"['6', '7', '8', '9']","['1', '2', '3', '4']",1,2023.2.3,harveydigits,2.1,[],8,0.75,
0,pause,0.4,None,None,None,0,27,27,27,,,,,,,,,,,,N008,digit,5,"['6', '7', '8', '9']","['1', '2', '3', '4']",1,2023.2.3,harveydigits,2.1,[],8,0.75,
3,digit,0.3,['dot'],['big_1'],black,0,28,28,28,,,12.200210809707642,11.900422811508179,12.217044830322266,"[[0.03901663361367458, -0.16854744037859856]]",['DejaVu Sans'],[0.9],,,,N008,digit,5,"['6', '7', '8', '9']","['1', '2', '3', '4']",1,2023.2.3,harveydigits,2.1,[],8,0.75,
0,pause,0.4,None,None,None,0,29,29,29,,,,,,,,,,,,N008,digit,5,"['6', '7', '8', '9']","['1', '2', '3', '4']",1,2023.2.3,harveydigits,2.1,[],8,0.75,
3,digit,0.3,['dot'],['big_1'],black,0,30,30,30,,,12.900218963623047,12.600356817245483,12.91700792312622,"[[-0.016718322772333538, -0.01849947253979456]]",['DejaVu Sans'],[0.9],,,,N008,digit,5,"['6', '7', '8', '9']","['1', '2', '3', '4']",1,2023.2.3,harveydigits,2.1,[],8,0.75,
0,pause,0.4,None,None,None,0,31,31,31,,,,,,,,,,,,N008,digit,5,"['6', '7', '8', '9']","['1', '2', '3', '4']",1,2023.2.3,harveydigits,2.1,[],8,0.75,
3,digit,0.3,['dot'],['big_1'],black,0,32,32,32,,,13.600209951400757,13.30037784576416,13.616966009140015,"[[-0.12517446494535583, -0.10947294177367592]]",['DejaVu Sans'],[0.9],,,,N008,digit,5,"['6', '7', '8', '9']","['1', '2', '3', '4']",1,2023.2.3,harveydigits,2.1,[],8,0.75,
0,pause,0.4,None,None,None,0,33,33,33,,,,,,,,,,,,N008,digit,5,"['6', '7', '8', '9']","['1', '2', '3', '4']",1,2023.2.3,harveydigits,2.1,[],8,0.75,
3,digit,0.3,['dot'],['big_1'],black,0,34,34,34,,,14.300206899642944,14.00032091140747,14.316975831985474,"[[0.08806824309414271, 0.12198828467810188]]",['DejaVu Sans'],[0.9],,,,N008,digit,5,"['6', '7', '8', '9']","['1', '2', '3', '4']",1,2023.2.3,harveydigits,2.1,[],8,0.75,
0,pause,0.4,None,None,None,0,35,35,35,,,,,,,,,,,,N008,digit,5,"['6', '7', '8', '9']","['1', '2', '3', '4']",1,2023.2.3,harveydigits,2.1,[],8,0.75,
4,digit,0.3,['dot'],['big_1'],black,0,36,36,36,,,15.000221967697144,14.700302839279175,15.017091035842896,"[[0.1951804814688808, -0.0003673002136860004]]",['DejaVu Sans'],[0.9],,,,N008,digit,5,"['6', '7', '8', '9']","['1', '2', '3', '4']",1,2023.2.3,harveydigits,2.1,[],8,0.75,
0,pause,0.4,None,None,None,0,37,37,37,,,,,,,,,,,,N008,digit,5,"['6', '7', '8', '9']","['1', '2', '3', '4']",1,2023.2.3,harveydigits,2.1,[],8,0.75,
4,digit,0.3,['dot'],['big_1'],black,0,38,38,38,,,15.70020580291748,15.40029001235962,15.716948986053467,"[[-0.038439470911844464, -0.09356427364836516]]",['DejaVu Sans'],[0.9],,,,N008,digit,5,"['6', '7', '8', '9']","['1', '2', '3', '4']",1,2023.2.3,harveydigits,2.1,[],8,0.75,
0,pause,0.4,None,None,None,0,39,39,39,,,,,,,,,,,,N008,digit,5,"['6', '7', '8', '9']","['1', '2', '3', '4']",1,2023.2.3,harveydigits,2.1,[],8,0.75,
4,digit,0.3,['dot'],['big_1'],black,0,40,40,40,,,16.400203943252563,16.100273847579956,16.416918992996216,"[[0.035893631480554855, 0.1816460392312299]]",['DejaVu Sans'],[0.9],,,,N008,digit,5,"['6', '7', '8', '9']","['1', '2', '3', '4']",1,2023.2.3,harveydigits,2.1,[],8,0.75,
0,pause,0.4,None,None,None,0,41,41,41,,,,,,,,,,,,N008,digit,5,"['6', '7', '8', '9']","['1', '2', '3', '4']",1,2023.2.3,harveydigits,2.1,[],8,0.75,
4,digit,0.3,['dot'],['big_1'],black,0,42,42,42,,,17.100219011306763,16.800232887268066,17.117535829544067,"[[-0.1434820104513588, -0.08167250595410008]]",['DejaVu Sans'],[0.9],,,,N008,digit,5,"['6', '7', '8', '9']","['1', '2', '3', '4']",1,2023.2.3,harveydigits,2.1,[],8,0.75,
0,pause,0.4,None,None,None,0,43,43,43,,,,,,,,,,,,N008,digit,5,"['6', '7', '8', '9']","['1', '2', '3', '4']",1,2023.2.3,harveydigits,2.1,[],8,0.75,
4,digit,0.3,['dot'],['big_1'],black,0,44,44,44,,,17.800215005874634,17.517436981201172,17.8174090385437,"[[0.0010138699862185518, -0.030131536102479206]]",['DejaVu Sans'],[0.9],,,,N008,digit,5,"['6', '7', '8', '9']","['1', '2', '3', '4']",1,2023.2.3,harveydigits,2.1,[],8,0.75,
0,pause,0.4,None,None,None,0,45,45,45,,,,,,,,,,,,N008,digit,5,"['6', '7', '8', '9']","['1', '2', '3', '4']",1,2023.2.3,harveydigits,2.1,[],8,0.75,
4,digit,0.3,['dot'],['big_1'],black,0,46,46,46,,,18.500200033187866,18.217585802078247,18.5173659324646,"[[-0.1260383230033737, -0.14526346495528814]]",['DejaVu Sans'],[0.9],,,,N008,digit,5,"['6', '7', '8', '9']","['1', '2', '3', '4']",1,2023.2.3,harveydigits,2.1,[],8,0.75,
0,pause,0.4,None,None,None,0,47,47,47,,,,,,,,,,,,N008,digit,5,"['6', '7', '8', '9']","['1', '2', '3', '4']",1,2023.2.3,harveydigits,2.1,[],8,0.75,
5,digit,0.3,['dot'],['big_1'],black,0,48,48,48,,,19.200198888778687,18.91741180419922,19.217324018478394,"[[-0.08412640598023761, 0.1374272538496428]]",['DejaVu Sans'],[0.9],,,,N008,digit,5,"['6', '7', '8', '9']","['1', '2', '3', '4']",1,2023.2.3,harveydigits,2.1,[],8,0.75,
0,pause,0.4,None,None,None,0,49,49,49,,,,,,,,,,,,N008,digit,5,"['6', '7', '8', '9']","['1', '2', '3', '4']",1,2023.2.3,harveydigits,2.1,[],8,0.75,
5,digit,0.3,['dot'],['big_1'],black,0,50,50,50,,,19.90020489692688,19.61956286430359,19.919551849365234,"[[-0.08623494307670126, -0.15359050001344488]]",['DejaVu Sans'],[0.9],,,,N008,digit,5,"['6', '7', '8', '9']","['1', '2', '3', '4']",1,2023.2.3,harveydigits,2.1,[],8,0.75,
0,pause,0.4,None,None,None,0,51,51,51,,,,,,,,,,,,N008,digit,5,"['6', '7', '8', '9']","['1', '2', '3', '4']",1,2023.2.3,harveydigits,2.1,[],8,0.75,
5,digit,0.3,['dot'],['big_1'],black,0,52,52,52,,,20.600196838378906,20.319747924804688,20.619542837142944,"[[-0.016790691922508788, 0.011574519251558446]]",['DejaVu Sans'],[0.9],,,,N008,digit,5,"['6', '7', '8', '9']","['1', '2', '3', '4']",1,2023.2.3,harveydigits,2.1,[],8,0.75,
0,pause,0.4,None,None,None,0,53,53,53,,,,,,,,,,,,N008,digit,5,"['6', '7', '8', '9']","['1', '2', '3', '4']",1,2023.2.3,harveydigits,2.1,[],8,0.75,
5,digit,0.3,['dot'],['big_1'],black,0,54,54,54,,,21.300200939178467,21.019654989242554,21.319483995437622,"[[-0.15799694900577965, 0.07267634420294722]]",['DejaVu Sans'],[0.9],,,,N008,digit,5,"['6', '7', '8', '9']","['1', '2', '3', '4']",1,2023.2.3,harveydigits,2.1,[],8,0.75,
0,pause,0.4,None,None,None,0,55,55,55,,,,,,,,,,,,N008,digit,5,"['6', '7', '8', '9']","['1', '2', '3', '4']",1,2023.2.3,harveydigits,2.1,[],8,0.75,
5,digit,0.3,['dot'],['big_1'],black,0,56,56,56,,,22.00020694732666,21.719517946243286,22.01963186264038,"[[0.008463104134322469, 0.045001613462383794]]",['DejaVu Sans'],[0.9],,,,N008,digit,5,"['6', '7', '8', '9']","['1', '2', '3', '4']",1,2023.2.3,harveydigits,2.1,[],8,0.75,
0,pause,0.4,None,None,None,0,57,57,57,,,,,,,,,,,,N008,digit,5,"['6', '7', '8', '9']","['1', '2', '3', '4']",1,2023.2.3,harveydigits,2.1,[],8,0.75,
5,digit,0.3,['dot'],['big_1'],black,0,58,58,58,,,22.700215816497803,22.41958498954773,22.71964693069458,"[[0.1624598170784359, 0.04780936153110733]]",['DejaVu Sans'],[0.9],,,,N008,digit,5,"['6', '7', '8', '9']","['1', '2', '3', '4']",1,2023.2.3,harveydigits,2.1,[],8,0.75,
0,pause,0.4,None,None,None,0,59,59,59,,,,,,,,,,,,N008,digit,5,"['6', '7', '8', '9']","['1', '2', '3', '4']",1,2023.2.3,harveydigits,2.1,[],8,0.75,
6,digit,0.3,['dot'],['big_1'],black,0,60,60,60,,,23.400205850601196,23.11962890625,23.41954493522644,"[[-0.02197859502023483, -0.048890957451153766]]",['DejaVu Sans'],[0.9],,,,N008,digit,5,"['6', '7', '8', '9']","['1', '2', '3', '4']",1,2023.2.3,harveydigits,2.1,[],8,0.75,
0,pause,0.4,None,None,None,0,61,61,61,,,,,,,,,,,,N008,digit,5,"['6', '7', '8', '9']","['1', '2', '3', '4']",1,2023.2.3,harveydigits,2.1,[],8,0.75,
6,digit,0.3,['dot'],['big_1'],black,0,62,62,62,,,24.10020399093628,23.819577932357788,24.11959481239319,"[[0.07870800213960924, -0.07101769527942757]]",['DejaVu Sans'],[0.9],,,,N008,digit,5,"['6', '7', '8', '9']","['1', '2', '3', '4']",1,2023.2.3,harveydigits,2.1,[],8,0.75,
0,pause,0.4,None,None,None,0,63,63,63,,,,,,,,,,,,N008,digit,5,"['6', '7', '8', '9']","['1', '2', '3', '4']",1,2023.2.3,harveydigits,2.1,[],8,0.75,
6,digit,0.3,['dot'],['big_1'],black,0,64,64,64,,,24.800200939178467,24.5195209980011,24.819530963897705,"[[0.019188774768820055, 0.1762919236675235]]",['DejaVu Sans'],[0.9],,,,N008,digit,5,"['6', '7', '8', '9']","['1', '2', '3', '4']",1,2023.2.3,harveydigits,2.1,[],8,0.75,
0,pause,0.4,None,None,None,0,65,65,65,,,,,,,,,,,,N008,digit,5,"['6', '7', '8', '9']","['1', '2', '3', '4']",1,2023.2.3,harveydigits,2.1,[],8,0.75,
6,digit,0.3,['dot'],['big_1'],black,0,66,66,66,,,25.50021481513977,25.219523906707764,25.519513845443726,"[[0.16967161662796879, -0.01633730954367249]]",['DejaVu Sans'],[0.9],,,,N008,digit,5,"['6', '7', '8', '9']","['1', '2', '3', '4']",1,2023.2.3,harveydigits,2.1,[],8,0.75,
0,pause,0.4,None,None,None,0,67,67,67,,,,,,,,,,,,N008,digit,5,"['6', '7', '8', '9']","['1', '2', '3', '4']",1,2023.2.3,harveydigits,2.1,[],8,0.75,
6,digit,0.3,['dot'],['big_1'],black,0,68,68,68,,,26.200204849243164,25.91951084136963,26.21946883201599,"[[-0.15386010279379958, -0.11403138788972429]]",['DejaVu Sans'],[0.9],,,,N008,digit,5,"['6', '7', '8', '9']","['1', '2', '3', '4']",1,2023.2.3,harveydigits,2.1,[],8,0.75,
0,pause,0.4,None,None,None,0,69,69,69,,,,,,,,,,,,N008,digit,5,"['6', '7', '8', '9']","['1', '2', '3', '4']",1,2023.2.3,harveydigits,2.1,[],8,0.75,
6,digit,0.3,['dot'],['big_1'],black,0,70,70,70,,,26.900203943252563,26.619500875473022,26.919484853744507,"[[-0.07350003857383997, -0.11711222791471593]]",['DejaVu Sans'],[0.9],,,,N008,digit,5,"['6', '7', '8', '9']","['1', '2', '3', '4']",1,2023.2.3,harveydigits,2.1,[],8,0.75,
0,pause,0.4,None,None,None,0,71,71,71,,,,,,,,,,,,N008,digit,5,"['6', '7', '8', '9']","['1', '2', '3', '4']",1,2023.2.3,harveydigits,2.1,[],8,0.75,
7,digit,0.3,['dot'],['big_1'],black,0,72,72,72,,,27.600201845169067,27.319435834884644,27.619473934173584,"[[-0.024909047425396402, -0.16617918358823197]]",['DejaVu Sans'],[0.9],,,,N008,digit,5,"['6', '7', '8', '9']","['1', '2', '3', '4']",1,2023.2.3,harveydigits,2.1,[],8,0.75,
0,pause,0.4,None,None,None,0,73,73,73,,,,,,,,,,,,N008,digit,5,"['6', '7', '8', '9']","['1', '2', '3', '4']",1,2023.2.3,harveydigits,2.1,[],8,0.75,
7,digit,0.3,['dot'],['big_1'],black,0,74,74,74,,,28.300221920013428,28.01960301399231,28.319427013397217,"[[0.10165417982764222, -0.056200298844053115]]",['DejaVu Sans'],[0.9],,,,N008,digit,5,"['6', '7', '8', '9']","['1', '2', '3', '4']",1,2023.2.3,harveydigits,2.1,[],8,0.75,
0,pause,0.4,None,None,None,0,75,75,75,,,,,,,,,,,,N008,digit,5,"['6', '7', '8', '9']","['1', '2', '3', '4']",1,2023.2.3,harveydigits,2.1,[],8,0.75,
7,digit,0.3,['dot'],['big_1'],black,0,76,76,76,,,29.00020694732666,28.71951198577881,29.019569873809814,"[[-0.19959360508547574, -0.003911210352416417]]",['DejaVu Sans'],[0.9],,,,N008,digit,5,"['6', '7', '8', '9']","['1', '2', '3', '4']",1,2023.2.3,harveydigits,2.1,[],8,0.75,
0,pause,0.4,None,None,None,0,77,77,77,,,,,,,,,,,,N008,digit,5,"['6', '7', '8', '9']","['1', '2', '3', '4']",1,2023.2.3,harveydigits,2.1,[],8,0.75,
7,digit,0.3,['dot'],['big_1'],black,0,78,78,78,,,29.70020580291748,29.419418811798096,29.719434022903442,"[[-0.1191595384350434, 0.13583608100918404]]",['DejaVu Sans'],[0.9],,,,N008,digit,5,"['6', '7', '8', '9']","['1', '2', '3', '4']",1,2023.2.3,harveydigits,2.1,[],8,0.75,
0,pause,0.4,None,None,None,0,79,79,79,,,,,,,,,,,,N008,digit,5,"['6', '7', '8', '9']","['1', '2', '3', '4']",1,2023.2.3,harveydigits,2.1,[],8,0.75,
7,digit,0.3,['dot'],['big_1'],black,0,80,80,80,,,30.40021800994873,30.11943483352661,30.419355869293213,"[[-0.02559817533164574, 0.05737651606660088]]",['DejaVu Sans'],[0.9],,,,N008,digit,5,"['6', '7', '8', '9']","['1', '2', '3', '4']",1,2023.2.3,harveydigits,2.1,[],8,0.75,
0,pause,0.4,None,None,None,0,81,81,81,,,,,,,,,,,,N008,digit,5,"['6', '7', '8', '9']","['1', '2', '3', '4']",1,2023.2.3,harveydigits,2.1,[],8,0.75,
7,digit,0.3,['dot'],['big_1'],black,0,82,82,82,,,31.1002140045166,30.819523811340332,31.119405031204224,"[[-0.09457024359423673, 0.013230726992657121]]",['DejaVu Sans'],[0.9],,,,N008,digit,5,"['6', '7', '8', '9']","['1', '2', '3', '4']",1,2023.2.3,harveydigits,2.1,[],8,0.75,
0,pause,0.4,None,None,None,0,83,83,83,,,,,,,,,,,,N008,digit,5,"['6', '7', '8', '9']","['1', '2', '3', '4']",1,2023.2.3,harveydigits,2.1,[],8,0.75,
8,digit,0.3,['dot'],['big_1'],black,0,84,84,84,,,31.80020785331726,31.519333839416504,31.819360971450806,"[[-0.1541188720403971, 0.035950589367093166]]",['DejaVu Sans'],[0.9],,,,N008,digit,5,"['6', '7', '8', '9']","['1', '2', '3', '4']",1,2023.2.3,harveydigits,2.1,[],8,0.75,
0,pause,0.4,None,None,None,0,85,85,85,,,,,,,,,,,,N008,digit,5,"['6', '7', '8', '9']","['1', '2', '3', '4']",1,2023.2.3,harveydigits,2.1,[],8,0.75,
8,digit,0.3,['dot'],['big_1'],black,0,86,86,86,,,32.50021481513977,32.22031593322754,32.51931381225586,"[[0.06448894786039858, 0.052392232164226143]]",['DejaVu Sans'],[0.9],,,,N008,digit,5,"['6', '7', '8', '9']","['1', '2', '3', '4']",1,2023.2.3,harveydigits,2.1,[],8,0.75,
0,pause,0.4,None,None,None,0,87,87,87,,,,,,,,,,,,N008,digit,5,"['6', '7', '8', '9']","['1', '2', '3', '4']",1,2023.2.3,harveydigits,2.1,[],8,0.75,
8,digit,0.3,['dot'],['big_1'],black,0,88,88,88,,,33.200206995010376,32.919344902038574,33.22037601470947,"[[0.17920638439901634, 0.06273345320176726]]",['DejaVu Sans'],[0.9],,,,N008,digit,5,"['6', '7', '8', '9']","['1', '2', '3', '4']",1,2023.2.3,harveydigits,2.1,[],8,0.75,
0,pause,0.4,None,None,None,0,89,89,89,,,,,,,,,,,,N008,digit,5,"['6', '7', '8', '9']","['1', '2', '3', '4']",1,2023.2.3,harveydigits,2.1,[],8,0.75,
8,digit,0.3,['dot'],['big_1'],black,0,90,90,90,,,33.90022087097168,33.61931300163269,33.91930603981018,"[[0.16888861555075832, -0.027952950868686516]]",['DejaVu Sans'],[0.9],,,,N008,digit,5,"['6', '7', '8', '9']","['1', '2', '3', '4']",1,2023.2.3,harveydigits,2.1,[],8,0.75,
0,pause,0.4,None,None,None,0,91,91,91,,,,,,,,,,,,N008,digit,5,"['6', '7', '8', '9']","['1', '2', '3', '4']",1,2023.2.3,harveydigits,2.1,[],8,0.75,
8,digit,0.3,['dot'],['big_1'],black,0,92,92,92,,,34.600204944610596,34.3201699256897,34.61928081512451,"[[-0.0693414951224092, -0.08105864715499073]]",['DejaVu Sans'],[0.9],,,,N008,digit,5,"['6', '7', '8', '9']","['1', '2', '3', '4']",1,2023.2.3,harveydigits,2.1,[],8,0.75,
0,pause,0.4,None,None,None,0,93,93,93,,,,,,,,,,,,N008,digit,5,"['6', '7', '8', '9']","['1', '2', '3', '4']",1,2023.2.3,harveydigits,2.1,[],8,0.75,
8,digit,0.3,['dot'],['big_1'],black,0,94,94,94,,,35.300222873687744,35.01942586898804,35.3192298412323,"[[-0.13688739349974618, -0.08839116063946059]]",['DejaVu Sans'],[0.9],,,,N008,digit,5,"['6', '7', '8', '9']","['1', '2', '3', '4']",1,2023.2.3,harveydigits,2.1,[],8,0.75,
0,pause,0.4,None,None,None,0,95,95,95,,,,,,,,,,,,N008,digit,5,"['6', '7', '8', '9']","['1', '2', '3', '4']",1,2023.2.3,harveydigits,2.1,[],8,0.75,
9,digit,0.3,['dot'],['big_1'],black,0,96,96,96,,,36.00020694732666,35.71924591064453,36.01941800117493,"[[-0.027216670752781225, 0.1039120988233185]]",['DejaVu Sans'],[0.9],,,,N008,digit,5,"['6', '7', '8', '9']","['1', '2', '3', '4']",1,2023.2.3,harveydigits,2.1,[],8,0.75,
0,pause,0.4,None,None,None,0,97,97,97,,,,,,,,,,,,N008,digit,5,"['6', '7', '8', '9']","['1', '2', '3', '4']",1,2023.2.3,harveydigits,2.1,[],8,0.75,
9,digit,0.3,['dot'],['big_1'],black,0,98,98,98,,,36.700199842453,36.42016792297363,36.71921396255493,"[[-0.10271614033151794, -0.10838042522133114]]",['DejaVu Sans'],[0.9],,,,N008,digit,5,"['6', '7', '8', '9']","['1', '2', '3', '4']",1,2023.2.3,harveydigits,2.1,[],8,0.75,
0,pause,0.4,None,None,None,0,99,99,99,,,,,,,,,,,,N008,digit,5,"['6', '7', '8', '9']","['1', '2', '3', '4']",1,2023.2.3,harveydigits,2.1,[],8,0.75,
9,digit,0.3,['dot'],['big_1'],black,0,100,100,100,,,37.400216817855835,37.11923789978027,37.41923999786377,"[[-0.09450266203461849, 0.0248301207314352]]",['DejaVu Sans'],[0.9],,,,N008,digit,5,"['6', '7', '8', '9']","['1', '2', '3', '4']",1,2023.2.3,harveydigits,2.1,[],8,0.75,
0,pause,0.4,None,None,None,0,101,101,101,,,,,,,,,,,,N008,digit,5,"['6', '7', '8', '9']","['1', '2', '3', '4']",1,2023.2.3,harveydigits,2.1,[],8,0.75,
9,digit,0.3,['dot'],['big_1'],black,0,102,102,102,,,38.10021090507507,37.819233894348145,38.11918902397156,"[[0.0518777082546906, -0.12114794193662713]]",['DejaVu Sans'],[0.9],,,,N008,digit,5,"['6', '7', '8', '9']","['1', '2', '3', '4']",1,2023.2.3,harveydigits,2.1,[],8,0.75,
0,pause,0.4,None,None,None,0,103,103,103,,,,,,,,,,,,N008,digit,5,"['6', '7', '8', '9']","['1', '2', '3', '4']",1,2023.2.3,harveydigits,2.1,[],8,0.75,
9,digit,0.3,['dot'],['big_1'],black,0,104,104,104,,,38.80022597312927,38.51917791366577,38.81916880607605,"[[-0.1714494314703791, -0.01363390211324235]]",['DejaVu Sans'],[0.9],,,,N008,digit,5,"['6', '7', '8', '9']","['1', '2', '3', '4']",1,2023.2.3,harveydigits,2.1,[],8,0.75,
0,pause,0.4,None,None,None,0,105,105,105,,,,,,,,,,,,N008,digit,5,"['6', '7', '8', '9']","['1', '2', '3', '4']",1,2023.2.3,harveydigits,2.1,[],8,0.75,
9,digit,0.3,['dot'],['big_1'],black,0,106,106,106,,,39.50022792816162,39.219159841537476,39.519115924835205,"[[-0.12601545722203403, 0.01673619739707438]]",['DejaVu Sans'],[0.9],,,,N008,digit,5,"['6', '7', '8', '9']","['1', '2', '3', '4']",1,2023.2.3,harveydigits,2.1,[],8,0.75,
0,pause,0.4,None,None,None,0,107,107,107,,,,,,,,,,,,N008,digit,5,"['6', '7', '8', '9']","['1', '2', '3', '4']",1,2023.2.3,harveydigits,2.1,[],8,0.75,
20,digit,0.3,['dot'],['big_1'],black,0,108,108,108,,,40.20021080970764,39.91920590400696,40.21911382675171,"[[-0.0038816044559352725, 0.19140451451480384]]",['DejaVu Sans'],[0.9],,,,N008,digit,5,"['6', '7', '8', '9']","['1', '2', '3', '4']",1,2023.2.3,harveydigits,2.1,[],8,0.75,
0,pause,0.4,None,None,None,0,109,109,109,,,,,,,,,,,,N008,digit,5,"['6', '7', '8', '9']","['1', '2', '3', '4']",1,2023.2.3,harveydigits,2.1,[],8,0.75,
20,digit,0.3,['dot'],['big_1'],black,0,110,110,110,,,40.900213956832886,40.62006092071533,40.91907787322998,"[[-0.10075264700356529, -0.09313593609969302]]",['DejaVu Sans'],[0.9],,,,N008,digit,5,"['6', '7', '8', '9']","['1', '2', '3', '4']",1,2023.2.3,harveydigits,2.1,[],8,0.75,
0,pause,0.4,None,None,None,0,111,111,111,,,,,,,,,,,,N008,digit,5,"['6', '7', '8', '9']","['1', '2', '3', '4']",1,2023.2.3,harveydigits,2.1,[],8,0.75,
20,digit,0.3,['dot'],['big_1'],black,0,112,112,112,,,41.60021185874939,41.319129943847656,41.619102001190186,"[[0.0651598401182367, -0.1037117038762282]]",['DejaVu Sans'],[0.9],,,,N008,digit,5,"['6', '7', '8', '9']","['1', '2', '3', '4']",1,2023.2.3,harveydigits,2.1,[],8,0.75,
0,pause,0.4,None,None,None,0,113,113,113,,,,,,,,,,,,N008,digit,5,"['6', '7', '8', '9']","['1', '2', '3', '4']",1,2023.2.3,harveydigits,2.1,[],8,0.75,
20,digit,0.3,['dot'],['big_1'],black,0,114,114,114,,,42.30020594596863,42.01909685134888,42.319052934646606,"[[-0.02640541784649711, -0.07868932963267036]]",['DejaVu Sans'],[0.9],,,,N008,digit,5,"['6', '7', '8', '9']","['1', '2', '3', '4']",1,2023.2.3,harveydigits,2.1,[],8,0.75,
0,pause,0.4,None,None,None,0,115,115,115,,,,,,,,,,,,N008,digit,5,"['6', '7', '8', '9']","['1', '2', '3', '4']",1,2023.2.3,harveydigits,2.1,[],8,0.75,
20,digit,0.3,['dot'],['big_1'],black,0,116,116,116,,,43.00021696090698,42.71907687187195,43.01906895637512,"[[-0.0009365705386001344, 0.12901207580730298]]",['DejaVu Sans'],[0.9],,,,N008,digit,5,"['6', '7', '8', '9']","['1', '2', '3', '4']",1,2023.2.3,harveydigits,2.1,[],8,0.75,
0,pause,0.4,None,None,None,0,117,117,117,,,,,,,,,,,,N008,digit,5,"['6', '7', '8', '9']","['1', '2', '3', '4']",1,2023.2.3,harveydigits,2.1,[],8,0.75,
20,digit,0.3,['dot'],['big_1'],black,0,118,118,118,,,43.7002158164978,43.4190399646759,43.71901488304138,"[[-0.1938269101591564, 0.02703429382752974]]",['DejaVu Sans'],[0.9],,,,N008,digit,5,"['6', '7', '8', '9']","['1', '2', '3', '4']",1,2023.2.3,harveydigits,2.1,[],8,0.75,
0,pause,0.4,None,None,None,0,119,119,119,,,,,,,,,,,,N008,digit,5,"['6', '7', '8', '9']","['1', '2', '3', '4']",1,2023.2.3,harveydigits,2.1,[],8,0.75,
20,digit,0.3,['dot'],['big_1'],black,0,120,120,120,,,44.40021800994873,44.11916494369507,44.41901397705078,"[[-0.11186314665000617, -0.07622233411711696]]",['DejaVu Sans'],[0.9],,,,N008,digit,5,"['6', '7', '8', '9']","['1', '2', '3', '4']",1,2023.2.3,harveydigits,2.1,[],8,0.75,
0,pause,0.4,None,None,None,0,121,121,121,,,,,,,,,,,,N008,digit,5,"['6', '7', '8', '9']","['1', '2', '3', '4']",1,2023.2.3,harveydigits,2.1,[],8,0.75,
20,digit,0.3,['dot'],['big_1'],black,0,122,122,122,,,45.10022687911987,44.81902098655701,45.12010383605957,"[[0.011325917254113305, -0.07739339716374169]]",['DejaVu Sans'],[0.9],,,,N008,digit,5,"['6', '7', '8', '9']","['1', '2', '3', '4']",1,2023.2.3,harveydigits,2.1,[],8,0.75,
0,pause,0.4,None,None,None,0,123,123,123,,,,,,,,,,,,N008,digit,5,"['6', '7', '8', '9']","['1', '2', '3', '4']",1,2023.2.3,harveydigits,2.1,[],8,0.75,
20,digit,0.3,['dot'],['big_1'],black,0,124,124,124,,,45.800222873687744,45.51900792121887,45.818989992141724,"[[-0.04503325829365426, -0.11406339746537375]]",['DejaVu Sans'],[0.9],,,,N008,digit,5,"['6', '7', '8', '9']","['1', '2', '3', '4']",1,2023.2.3,harveydigits,2.1,[],8,0.75,
0,pause,0.4,None,None,None,0,125,125,125,,,,,,,,,,,,N008,digit,5,"['6', '7', '8', '9']","['1', '2', '3', '4']",1,2023.2.3,harveydigits,2.1,[],8,0.75,
20,digit,0.3,['dot'],['big_1'],black,0,126,126,126,,,46.50021481513977,46.218997955322266,46.51897096633911,"[[-0.05378470117092457, -0.09401242109958693]]",['DejaVu Sans'],[0.9],,,,N008,digit,5,"['6', '7', '8', '9']","['1', '2', '3', '4']",1,2023.2.3,harveydigits,2.1,[],8,0.75,
0,pause,0.4,None,None,None,0,127,127,127,,,,,,,,,,,,N008,digit,5,"['6', '7', '8', '9']","['1', '2', '3', '4']",1,2023.2.3,harveydigits,2.1,[],8,0.75,
20,digit,0.3,['dot'],['big_1'],black,0,128,128,128,,,47.20020794868469,46.9189670085907,47.218950033187866,"[[-0.0836442088463392, -0.01813506177275273]]",['DejaVu Sans'],[0.9],,,,N008,digit,5,"['6', '7', '8', '9']","['1', '2', '3', '4']",1,2023.2.3,harveydigits,2.1,[],8,0.75,
0,pause,0.4,None,None,None,0,129,129,129,,,,,,,,,,,,N008,digit,5,"['6', '7', '8', '9']","['1', '2', '3', '4']",1,2023.2.3,harveydigits,2.1,[],8,0.75,
20,digit,0.3,['dot'],['big_1'],black,0,130,130,130,,,47.90020990371704,47.61984300613403,47.918903827667236,"[[-0.17537917562523928, 0.052188632063479234]]",['DejaVu Sans'],[0.9],,,,N008,digit,5,"['6', '7', '8', '9']","['1', '2', '3', '4']",1,2023.2.3,harveydigits,2.1,[],8,0.75,
0,pause,0.4,None,None,None,0,131,131,131,,,,,,,,,,,,N008,digit,5,"['6', '7', '8', '9']","['1', '2', '3', '4']",1,2023.2.3,harveydigits,2.1,[],8,0.75,
20,digit,0.3,['dot'],['big_1'],black,0,132,132,132,,,48.60021686553955,48.318893909454346,48.61888384819031,"[[0.18735840349179136, -0.012053866430362707]]",['DejaVu Sans'],[0.9],,,,N008,digit,5,"['6', '7', '8', '9']","['1', '2', '3', '4']",1,2023.2.3,harveydigits,2.1,[],8,0.75,
0,pause,0.4,None,None,None,0,133,133,133,,,,,,,,,,,,N008,digit,5,"['6', '7', '8', '9']","['1', '2', '3', '4']",1,2023.2.3,harveydigits,2.1,[],8,0.75,
20,digit,0.3,['dot'],['big_1'],black,0,134,134,134,,,49.30020499229431,49.01892399787903,49.318904876708984,"[[-0.0232706441248835, 0.06296966668493345]]",['DejaVu Sans'],[0.9],,,,N008,digit,5,"['6', '7', '8', '9']","['1', '2', '3', '4']",1,2023.2.3,harveydigits,2.1,[],8,0.75,
0,pause,0.4,None,None,None,0,135,135,135,,,,,,,,,,,,N008,digit,5,"['6', '7', '8', '9']","['1', '2', '3', '4']",1,2023.2.3,harveydigits,2.1,[],8,0.75,
20,digit,0.3,['dot'],['big_1'],black,0,136,136,136,,,50.00022482872009,49.71982192993164,50.018882036209106,"[[-0.05810712487180075, 0.07393245975240323]]",['DejaVu Sans'],[0.9],,,,N008,digit,5,"['6', '7', '8', '9']","['1', '2', '3', '4']",1,2023.2.3,harveydigits,2.1,[],8,0.75,
0,pause,0.4,None,None,None,0,137,137,137,,,,,,,,,,,,N008,digit,5,"['6', '7', '8', '9']","['1', '2', '3', '4']",1,2023.2.3,harveydigits,2.1,[],8,0.75,
20,digit,0.3,['dot'],['big_1'],black,0,138,138,138,,,50.700209856033325,50.418895959854126,50.71899700164795,"[[-0.100180946248016, -0.000663067924710381]]",['DejaVu Sans'],[0.9],,,,N008,digit,5,"['6', '7', '8', '9']","['1', '2', '3', '4']",1,2023.2.3,harveydigits,2.1,[],8,0.75,
0,pause,0.4,None,None,None,0,139,139,139,,,,,,,,,,,,N008,digit,5,"['6', '7', '8', '9']","['1', '2', '3', '4']",1,2023.2.3,harveydigits,2.1,[],8,0.75,
20,digit,0.3,['dot'],['big_1'],black,0,140,140,140,,,51.40022802352905,51.118958950042725,51.41883897781372,"[[0.12157720951495496, 0.1321652517612421]]",['DejaVu Sans'],[0.9],,,,N008,digit,5,"['6', '7', '8', '9']","['1', '2', '3', '4']",1,2023.2.3,harveydigits,2.1,[],8,0.75,
0,pause,0.4,None,None,None,0,141,141,141,,,,,,,,,,,,N008,digit,5,"['6', '7', '8', '9']","['1', '2', '3', '4']",1,2023.2.3,harveydigits,2.1,[],8,0.75,
20,digit,0.3,['dot'],['big_1'],black,0,142,142,142,,,52.10021686553955,51.818843841552734,52.11882400512695,"[[-0.02974475677682431, -0.1443543791186644]]",['DejaVu Sans'],[0.9],,,,N008,digit,5,"['6', '7', '8', '9']","['1', '2', '3', '4']",1,2023.2.3,harveydigits,2.1,[],8,0.75,
0,pause,0.4,None,None,None,0,143,143,143,,,,,,,,,,,,N008,digit,5,"['6', '7', '8', '9']","['1', '2', '3', '4']",1,2023.2.3,harveydigits,2.1,[],8,0.75,
20,digit,0.3,['dot'],['big_1'],black,0,144,144,144,,,52.80021786689758,52.519737005233765,52.818811893463135,"[[0.10224631371275758, -0.0013504033516795466]]",['DejaVu Sans'],[0.9],,,,N008,digit,5,"['6', '7', '8', '9']","['1', '2', '3', '4']",1,2023.2.3,harveydigits,2.1,[],8,0.75,
0,pause,0.4,None,None,None,0,145,145,145,,,,,,,,,,,,N008,digit,5,"['6', '7', '8', '9']","['1', '2', '3', '4']",1,2023.2.3,harveydigits,2.1,[],8,0.75,
20,digit,0.3,['dot'],['big_1'],black,0,146,146,146,,,53.50022888183594,53.21881294250488,53.519896030426025,"[[0.011845864745463563, 0.07687431557154945]]",['DejaVu Sans'],[0.9],,,,N008,digit,5,"['6', '7', '8', '9']","['1', '2', '3', '4']",1,2023.2.3,harveydigits,2.1,[],8,0.75,
0,pause,0.4,None,None,None,0,147,147,147,,,,,,,,,,,,N008,digit,5,"['6', '7', '8', '9']","['1', '2', '3', '4']",1,2023.2.3,harveydigits,2.1,[],8,0.75,
20,digit,0.3,['dot'],['big_1'],black,0,148,148,148,,,54.20022892951965,53.91878294944763,54.21890592575073,"[[-0.09430962626992909, 0.03954451859849434]]",['DejaVu Sans'],[0.9],,,,N008,digit,5,"['6', '7', '8', '9']","['1', '2', '3', '4']",1,2023.2.3,harveydigits,2.1,[],8,0.75,
0,pause,0.4,None,None,None,0,149,149,149,,,,,,,,,,,,N008,digit,5,"['6', '7', '8', '9']","['1', '2', '3', '4']",1,2023.2.3,harveydigits,2.1,[],8,0.75,
20,digit,0.3,['dot'],['big_1'],black,0,150,150,150,,,54.90022301673889,54.618759870529175,54.91874599456787,"[[0.13322516250564656, 0.0017027399423458212]]",['DejaVu Sans'],[0.9],,,,N008,digit,5,"['6', '7', '8', '9']","['1', '2', '3', '4']",1,2023.2.3,harveydigits,2.1,[],8,0.75,
0,pause,0.4,None,None,None,0,151,151,151,,,,,,,,,,,,N008,digit,5,"['6', '7', '8', '9']","['1', '2', '3', '4']",1,2023.2.3,harveydigits,2.1,[],8,0.75,
20,digit,0.3,['dot'],['big_1'],black,0,152,152,152,,,55.60022187232971,55.31968593597412,55.61982202529907,"[[-0.1560384488991987, -0.11949777428672845]]",['DejaVu Sans'],[0.9],,,,N008,digit,5,"['6', '7', '8', '9']","['1', '2', '3', '4']",1,2023.2.3,harveydigits,2.1,[],8,0.75,
0,pause,0.4,None,None,None,0,153,153,153,,,,,,,,,,,,N008,digit,5,"['6', '7', '8', '9']","['1', '2', '3', '4']",1,2023.2.3,harveydigits,2.1,[],8,0.75,
20,digit,0.3,['dot'],['big_1'],black,0,154,154,154,,,56.300211906433105,56.01878094673157,56.318859815597534,"[[0.00045900193045814164, 0.055925843822641236]]",['DejaVu Sans'],[0.9],,,,N008,digit,5,"['6', '7', '8', '9']","['1', '2', '3', '4']",1,2023.2.3,harveydigits,2.1,[],8,0.75,
0,pause,0.4,None,None,None,0,155,155,155,,,,,,,,,,,,N008,digit,5,"['6', '7', '8', '9']","['1', '2', '3', '4']",1,2023.2.3,harveydigits,2.1,[],8,0.75,
9,digit,0.3,['dot'],['big_1'],black,0,156,156,156,,,57.0002179145813,56.71871590614319,57.018685817718506,"[[0.15782750307344365, -0.09565300496238693]]",['DejaVu Sans'],[0.9],,,,N008,digit,5,"['6', '7', '8', '9']","['1', '2', '3', '4']",1,2023.2.3,harveydigits,2.1,[],8,0.75,
0,pause,0.4,None,None,None,0,157,157,157,,,,,,,,,,,,N008,digit,5,"['6', '7', '8', '9']","['1', '2', '3', '4']",1,2023.2.3,harveydigits,2.1,[],8,0.75,
9,digit,0.3,['dot'],['big_1'],black,0,158,158,158,,,57.700217962265015,57.420254945755005,57.72038793563843,"[[0.039596530701845045, -0.13105280693039106]]",['DejaVu Sans'],[0.9],,,,N008,digit,5,"['6', '7', '8', '9']","['1', '2', '3', '4']",1,2023.2.3,harveydigits,2.1,[],8,0.75,
0,pause,0.4,None,None,None,0,159,159,159,,,,,,,,,,,,N008,digit,5,"['6', '7', '8', '9']","['1', '2', '3', '4']",1,2023.2.3,harveydigits,2.1,[],8,0.75,
9,digit,0.3,['dot'],['big_1'],black,0,160,160,160,,,58.40022397041321,58.118680000305176,58.41865801811218,"[[-0.020566373845198577, 0.02209518176620001]]",['DejaVu Sans'],[0.9],,,,N008,digit,5,"['6', '7', '8', '9']","['1', '2', '3', '4']",1,2023.2.3,harveydigits,2.1,[],8,0.75,
0,pause,0.4,None,None,None,0,161,161,161,,,,,,,,,,,,N008,digit,5,"['6', '7', '8', '9']","['1', '2', '3', '4']",1,2023.2.3,harveydigits,2.1,[],8,0.75,
9,digit,0.3,['dot'],['big_1'],black,0,162,162,162,,,59.10023093223572,58.818678855895996,59.11860394477844,"[[-0.07915977301425386, 0.09567399833326756]]",['DejaVu Sans'],[0.9],,,,N008,digit,5,"['6', '7', '8', '9']","['1', '2', '3', '4']",1,2023.2.3,harveydigits,2.1,[],8,0.75,
0,pause,0.4,None,None,None,0,163,163,163,,,,,,,,,,,,N008,digit,5,"['6', '7', '8', '9']","['1', '2', '3', '4']",1,2023.2.3,harveydigits,2.1,[],8,0.75,
9,digit,0.3,['dot'],['big_1'],black,0,164,164,164,,,59.80023193359375,59.518616914749146,59.818588972091675,"[[0.005507227743422272, 0.13468679800519484]]",['DejaVu Sans'],[0.9],,,,N008,digit,5,"['6', '7', '8', '9']","['1', '2', '3', '4']",1,2023.2.3,harveydigits,2.1,[],8,0.75,
0,pause,0.4,None,None,None,0,165,165,165,,,,,,,,,,,,N008,digit,5,"['6', '7', '8', '9']","['1', '2', '3', '4']",1,2023.2.3,harveydigits,2.1,[],8,0.75,
9,digit,0.3,['dot'],['big_1'],black,0,166,166,166,,,60.500216007232666,60.21859097480774,60.51858401298523,"[[-0.19415443542136565, -0.031188236242405777]]",['DejaVu Sans'],[0.9],,,,N008,digit,5,"['6', '7', '8', '9']","['1', '2', '3', '4']",1,2023.2.3,harveydigits,2.1,[],8,0.75,
0,pause,0.4,None,None,None,0,167,167,167,,,,,,,,,,,,N008,digit,5,"['6', '7', '8', '9']","['1', '2', '3', '4']",1,2023.2.3,harveydigits,2.1,[],8,0.75,
8,digit,0.3,['dot'],['big_1'],black,0,168,168,168,,,61.200209856033325,60.91857194900513,61.21857285499573,"[[-0.10057809100139997, -0.018651959415566882]]",['DejaVu Sans'],[0.9],,,,N008,digit,5,"['6', '7', '8', '9']","['1', '2', '3', '4']",1,2023.2.3,harveydigits,2.1,[],8,0.75,
0,pause,0.4,None,None,None,0,169,169,169,,,,,,,,,,,,N008,digit,5,"['6', '7', '8', '9']","['1', '2', '3', '4']",1,2023.2.3,harveydigits,2.1,[],8,0.75,
8,digit,0.3,['dot'],['big_1'],black,0,170,170,170,,,61.90022897720337,61.618566036224365,61.9196720123291,"[[-0.09815778246039607, 0.08295983564049886]]",['DejaVu Sans'],[0.9],,,,N008,digit,5,"['6', '7', '8', '9']","['1', '2', '3', '4']",1,2023.2.3,harveydigits,2.1,[],8,0.75,
0,pause,0.4,None,None,None,0,171,171,171,,,,,,,,,,,,N008,digit,5,"['6', '7', '8', '9']","['1', '2', '3', '4']",1,2023.2.3,harveydigits,2.1,[],8,0.75,
8,digit,0.3,['dot'],['big_1'],black,0,172,172,172,,,62.60022187232971,62.318557024002075,62.61855602264404,"[[-0.17751484624773903, 0.0347474951961106]]",['DejaVu Sans'],[0.9],,,,N008,digit,5,"['6', '7', '8', '9']","['1', '2', '3', '4']",1,2023.2.3,harveydigits,2.1,[],8,0.75,
0,pause,0.4,None,None,None,0,173,173,173,,,,,,,,,,,,N008,digit,5,"['6', '7', '8', '9']","['1', '2', '3', '4']",1,2023.2.3,harveydigits,2.1,[],8,0.75,
8,digit,0.3,['dot'],['big_1'],black,0,174,174,174,,,63.30020785331726,63.01851487159729,63.318498849868774,"[[0.12202343537567131, -0.08999430409115952]]",['DejaVu Sans'],[0.9],,,,N008,digit,5,"['6', '7', '8', '9']","['1', '2', '3', '4']",1,2023.2.3,harveydigits,2.1,[],8,0.75,
0,pause,0.4,None,None,None,0,175,175,175,,,,,,,,,,,,N008,digit,5,"['6', '7', '8', '9']","['1', '2', '3', '4']",1,2023.2.3,harveydigits,2.1,[],8,0.75,
8,digit,0.3,['dot'],['big_1'],black,0,176,176,176,,,64.00020790100098,63.72057390213013,64.01963591575623,"[[0.03812301421284711, -0.04419605117159281]]",['DejaVu Sans'],[0.9],,,,N008,digit,5,"['6', '7', '8', '9']","['1', '2', '3', '4']",1,2023.2.3,harveydigits,2.1,[],8,0.75,
0,pause,0.4,None,None,None,0,177,177,177,,,,,,,,,,,,N008,digit,5,"['6', '7', '8', '9']","['1', '2', '3', '4']",1,2023.2.3,harveydigits,2.1,[],8,0.75,
8,digit,0.3,['dot'],['big_1'],black,0,178,178,178,,,64.70021390914917,64.41850996017456,64.71850180625916,"[[0.09644676317789405, 0.06652350727574072]]",['DejaVu Sans'],[0.9],,,,N008,digit,5,"['6', '7', '8', '9']","['1', '2', '3', '4']",1,2023.2.3,harveydigits,2.1,[],8,0.75,
0,pause,0.4,None,None,None,0,179,179,179,,,,,,,,,,,,N008,digit,5,"['6', '7', '8', '9']","['1', '2', '3', '4']",1,2023.2.3,harveydigits,2.1,[],8,0.75,
7,digit,0.3,['dot'],['big_1'],black,0,180,180,180,,,65.40022301673889,65.11849999427795,65.41845083236694,"[[0.0515367629243518, -0.09119875715027809]]",['DejaVu Sans'],[0.9],,,,N008,digit,5,"['6', '7', '8', '9']","['1', '2', '3', '4']",1,2023.2.3,harveydigits,2.1,[],8,0.75,
0,pause,0.4,None,None,None,0,181,181,181,,,,,,,,,,,,N008,digit,5,"['6', '7', '8', '9']","['1', '2', '3', '4']",1,2023.2.3,harveydigits,2.1,[],8,0.75,
7,digit,0.3,['dot'],['big_1'],black,0,182,182,182,,,66.1002299785614,65.81844782829285,66.11848402023315,"[[-0.15310259921347827, -0.12561851394748444]]",['DejaVu Sans'],[0.9],,,,N008,digit,5,"['6', '7', '8', '9']","['1', '2', '3', '4']",1,2023.2.3,harveydigits,2.1,[],8,0.75,
0,pause,0.4,None,None,None,0,183,183,183,,,,,,,,,,,,N008,digit,5,"['6', '7', '8', '9']","['1', '2', '3', '4']",1,2023.2.3,harveydigits,2.1,[],8,0.75,
7,digit,0.3,['dot'],['big_1'],black,0,184,184,184,,,66.80022597312927,66.51844882965088,66.81844592094421,"[[-0.06605253718992707, -0.013073298528458566]]",['DejaVu Sans'],[0.9],,,,N008,digit,5,"['6', '7', '8', '9']","['1', '2', '3', '4']",1,2023.2.3,harveydigits,2.1,[],8,0.75,
0,pause,0.4,None,None,None,0,185,185,185,,,,,,,,,,,,N008,digit,5,"['6', '7', '8', '9']","['1', '2', '3', '4']",1,2023.2.3,harveydigits,2.1,[],8,0.75,
7,digit,0.3,['dot'],['big_1'],black,0,186,186,186,,,67.50022101402283,67.21843695640564,67.51840400695801,"[[0.04474661144056466, -0.06198320218161282]]",['DejaVu Sans'],[0.9],,,,N008,digit,5,"['6', '7', '8', '9']","['1', '2', '3', '4']",1,2023.2.3,harveydigits,2.1,[],8,0.75,
0,pause,0.4,None,None,None,0,187,187,187,,,,,,,,,,,,N008,digit,5,"['6', '7', '8', '9']","['1', '2', '3', '4']",1,2023.2.3,harveydigits,2.1,[],8,0.75,
7,digit,0.3,['dot'],['big_1'],black,0,188,188,188,,,68.20020699501038,67.91845798492432,68.21841096878052,"[[-0.10971637531674204, 0.15572642237333903]]",['DejaVu Sans'],[0.9],,,,N008,digit,5,"['6', '7', '8', '9']","['1', '2', '3', '4']",1,2023.2.3,harveydigits,2.1,[],8,0.75,
0,pause,0.4,None,None,None,0,189,189,189,,,,,,,,,,,,N008,digit,5,"['6', '7', '8', '9']","['1', '2', '3', '4']",1,2023.2.3,harveydigits,2.1,[],8,0.75,
7,digit,0.3,['dot'],['big_1'],black,0,190,190,190,,,68.90021681785583,68.61838483810425,68.91841387748718,"[[-0.05126718165411229, -0.10661722984370557]]",['DejaVu Sans'],[0.9],,,,N008,digit,5,"['6', '7', '8', '9']","['1', '2', '3', '4']",1,2023.2.3,harveydigits,2.1,[],8,0.75,
0,pause,0.4,None,None,None,0,191,191,191,,,,,,,,,,,,N008,digit,5,"['6', '7', '8', '9']","['1', '2', '3', '4']",1,2023.2.3,harveydigits,2.1,[],8,0.75,
6,digit,0.3,['dot'],['big_1'],black,0,192,192,192,,,69.6002209186554,69.31841397285461,69.61841583251953,"[[0.11874437968042925, -0.01930036248684802]]",['DejaVu Sans'],[0.9],,,,N008,digit,5,"['6', '7', '8', '9']","['1', '2', '3', '4']",1,2023.2.3,harveydigits,2.1,[],8,0.75,
0,pause,0.4,None,None,None,0,193,193,193,,,,,,,,,,,,N008,digit,5,"['6', '7', '8', '9']","['1', '2', '3', '4']",1,2023.2.3,harveydigits,2.1,[],8,0.75,
6,digit,0.3,['dot'],['big_1'],black,0,194,194,194,,,70.30022692680359,70.018394947052,70.31839299201965,"[[0.1449998883812463, -0.01661798889716143]]",['DejaVu Sans'],[0.9],,,,N008,digit,5,"['6', '7', '8', '9']","['1', '2', '3', '4']",1,2023.2.3,harveydigits,2.1,[],8,0.75,
0,pause,0.4,None,None,None,0,195,195,195,,,,,,,,,,,,N008,digit,5,"['6', '7', '8', '9']","['1', '2', '3', '4']",1,2023.2.3,harveydigits,2.1,[],8,0.75,
6,digit,0.3,['dot'],['big_1'],black,0,196,196,196,,,71.00020694732666,70.71839094161987,71.01837587356567,"[[0.1104223587385437, 0.006232945756289132]]",['DejaVu Sans'],[0.9],,,,N008,digit,5,"['6', '7', '8', '9']","['1', '2', '3', '4']",1,2023.2.3,harveydigits,2.1,[],8,0.75,
0,pause,0.4,None,None,None,0,197,197,197,,,,,,,,,,,,N008,digit,5,"['6', '7', '8', '9']","['1', '2', '3', '4']",1,2023.2.3,harveydigits,2.1,[],8,0.75,
6,digit,0.3,['dot'],['big_1'],black,0,198,198,198,,,71.70021796226501,71.42010998725891,71.71831202507019,"[[0.08821672876977196, 0.04191952314405195]]",['DejaVu Sans'],[0.9],,,,N008,digit,5,"['6', '7', '8', '9']","['1', '2', '3', '4']",1,2023.2.3,harveydigits,2.1,[],8,0.75,
0,pause,0.4,None,None,None,0,199,199,199,,,,,,,,,,,,N008,digit,5,"['6', '7', '8', '9']","['1', '2', '3', '4']",1,2023.2.3,harveydigits,2.1,[],8,0.75,
6,digit,0.3,['dot'],['big_1'],black,0,200,200,200,,,72.40023398399353,72.11830401420593,72.41829299926758,"[[-0.03663869794695457, 0.12639724335488603]]",['DejaVu Sans'],[0.9],,,,N008,digit,5,"['6', '7', '8', '9']","['1', '2', '3', '4']",1,2023.2.3,harveydigits,2.1,[],8,0.75,
0,pause,0.4,None,None,None,0,201,201,201,,,,,,,,,,,,N008,digit,5,"['6', '7', '8', '9']","['1', '2', '3', '4']",1,2023.2.3,harveydigits,2.1,[],8,0.75,
6,digit,0.3,['dot'],['big_1'],black,0,202,202,202,,,73.10021185874939,72.81829690933228,73.11825895309448,"[[0.11075279634789423, -0.11639269850919287]]",['DejaVu Sans'],[0.9],,,,N008,digit,5,"['6', '7', '8', '9']","['1', '2', '3', '4']",1,2023.2.3,harveydigits,2.1,[],8,0.75,
0,pause,0.4,None,None,None,0,203,203,203,,,,,,,,,,,,N008,digit,5,"['6', '7', '8', '9']","['1', '2', '3', '4']",1,2023.2.3,harveydigits,2.1,[],8,0.75,
5,digit,0.3,['dot'],['big_1'],black,0,204,204,204,,,73.80020999908447,73.51824903488159,73.81823682785034,"[[0.033848813556644514, -0.09104824437593226]]",['DejaVu Sans'],[0.9],,,,N008,digit,5,"['6', '7', '8', '9']","['1', '2', '3', '4']",1,2023.2.3,harveydigits,2.1,[],8,0.75,
0,pause,0.4,None,None,None,0,205,205,205,,,,,,,,,,,,N008,digit,5,"['6', '7', '8', '9']","['1', '2', '3', '4']",1,2023.2.3,harveydigits,2.1,[],8,0.75,
5,digit,0.3,['dot'],['big_1'],black,0,206,206,206,,,74.5002088546753,74.2182309627533,74.51820302009583,"[[0.16849156352348774, -0.06557483458211541]]",['DejaVu Sans'],[0.9],,,,N008,digit,5,"['6', '7', '8', '9']","['1', '2', '3', '4']",1,2023.2.3,harveydigits,2.1,[],8,0.75,
0,pause,0.4,None,None,None,0,207,207,207,,,,,,,,,,,,N008,digit,5,"['6', '7', '8', '9']","['1', '2', '3', '4']",1,2023.2.3,harveydigits,2.1,[],8,0.75,
5,digit,0.3,['dot'],['big_1'],black,0,208,208,208,,,75.20022702217102,74.91920685768127,75.21818995475769,"[[0.17891784256152912, 0.05582549850571329]]",['DejaVu Sans'],[0.9],,,,N008,digit,5,"['6', '7', '8', '9']","['1', '2', '3', '4']",1,2023.2.3,harveydigits,2.1,[],8,0.75,
0,pause,0.4,None,None,None,0,209,209,209,,,,,,,,,,,,N008,digit,5,"['6', '7', '8', '9']","['1', '2', '3', '4']",1,2023.2.3,harveydigits,2.1,[],8,0.75,
5,digit,0.3,['dot'],['big_1'],black,0,210,210,210,,,75.90022087097168,75.6181800365448,75.91817784309387,"[[-0.08068950631251254, -0.04362572233958614]]",['DejaVu Sans'],[0.9],,,,N008,digit,5,"['6', '7', '8', '9']","['1', '2', '3', '4']",1,2023.2.3,harveydigits,2.1,[],8,0.75,
0,pause,0.4,None,None,None,0,211,211,211,,,,,,,,,,,,N008,digit,5,"['6', '7', '8', '9']","['1', '2', '3', '4']",1,2023.2.3,harveydigits,2.1,[],8,0.75,
5,digit,0.3,['dot'],['big_1'],black,0,212,212,212,,,76.60021591186523,76.31816601753235,76.61818790435791,"[[0.15235266560178815, -0.03604644048553364]]",['DejaVu Sans'],[0.9],,,,N008,digit,5,"['6', '7', '8', '9']","['1', '2', '3', '4']",1,2023.2.3,harveydigits,2.1,[],8,0.75,
0,pause,0.4,None,None,None,0,213,213,213,,,,,,,,,,,,N008,digit,5,"['6', '7', '8', '9']","['1', '2', '3', '4']",1,2023.2.3,harveydigits,2.1,[],8,0.75,
5,digit,0.3,['dot'],['big_1'],black,0,214,214,214,,,77.30021286010742,77.01818084716797,77.31817102432251,"[[0.1511844925775407, -0.024298979024189357]]",['DejaVu Sans'],[0.9],,,,N008,digit,5,"['6', '7', '8', '9']","['1', '2', '3', '4']",1,2023.2.3,harveydigits,2.1,[],8,0.75,
0,pause,0.4,None,None,None,0,215,215,215,,,,,,,,,,,,N008,digit,5,"['6', '7', '8', '9']","['1', '2', '3', '4']",1,2023.2.3,harveydigits,2.1,[],8,0.75,
4,digit,0.3,['dot'],['big_1'],black,0,216,216,216,,,78.00021481513977,77.71816992759705,78.01815795898438,"[[-0.13960684499761794, -0.06733017798195005]]",['DejaVu Sans'],[0.9],,,,N008,digit,5,"['6', '7', '8', '9']","['1', '2', '3', '4']",1,2023.2.3,harveydigits,2.1,[],8,0.75,
0,pause,0.4,None,None,None,0,217,217,217,,,,,,,,,,,,N008,digit,5,"['6', '7', '8', '9']","['1', '2', '3', '4']",1,2023.2.3,harveydigits,2.1,[],8,0.75,
4,digit,0.3,['dot'],['big_1'],black,0,218,218,218,,,78.70023703575134,78.4181318283081,78.71811890602112,"[[0.15058481722003644, -0.03726089347803782]]",['DejaVu Sans'],[0.9],,,,N008,digit,5,"['6', '7', '8', '9']","['1', '2', '3', '4']",1,2023.2.3,harveydigits,2.1,[],8,0.75,
0,pause,0.4,None,None,None,0,219,219,219,,,,,,,,,,,,N008,digit,5,"['6', '7', '8', '9']","['1', '2', '3', '4']",1,2023.2.3,harveydigits,2.1,[],8,0.75,
4,digit,0.3,['dot'],['big_1'],black,0,220,220,220,,,79.40021395683289,79.11810898780823,79.41808700561523,"[[0.006833875428576247, -0.13558364037518034]]",['DejaVu Sans'],[0.9],,,,N008,digit,5,"['6', '7', '8', '9']","['1', '2', '3', '4']",1,2023.2.3,harveydigits,2.1,[],8,0.75,
0,pause,0.4,None,None,None,0,221,221,221,,,,,,,,,,,,N008,digit,5,"['6', '7', '8', '9']","['1', '2', '3', '4']",1,2023.2.3,harveydigits,2.1,[],8,0.75,
4,digit,0.3,['dot'],['big_1'],black,0,222,222,222,,,80.10022592544556,79.81809592247009,80.1181128025055,"[[0.1576694073384585, 0.10043945536908355]]",['DejaVu Sans'],[0.9],,,,N008,digit,5,"['6', '7', '8', '9']","['1', '2', '3', '4']",1,2023.2.3,harveydigits,2.1,[],8,0.75,
0,pause,0.4,None,None,None,0,223,223,223,,,,,,,,,,,,N008,digit,5,"['6', '7', '8', '9']","['1', '2', '3', '4']",1,2023.2.3,harveydigits,2.1,[],8,0.75,
4,digit,0.3,['dot'],['big_1'],black,0,224,224,224,,,80.80021500587463,80.51812696456909,80.81810283660889,"[[0.18860875550472314, 0.047540472133467335]]",['DejaVu Sans'],[0.9],,,,N008,digit,5,"['6', '7', '8', '9']","['1', '2', '3', '4']",1,2023.2.3,harveydigits,2.1,[],8,0.75,
0,pause,0.4,None,None,None,0,225,225,225,,,,,,,,,,,,N008,digit,5,"['6', '7', '8', '9']","['1', '2', '3', '4']",1,2023.2.3,harveydigits,2.1,[],8,0.75,
4,digit,0.3,['dot'],['big_1'],black,0,226,226,226,,,81.50022292137146,81.21810102462769,81.51806092262268,"[[-0.06283716684701854, 0.005122903624890207]]",['DejaVu Sans'],[0.9],,,,N008,digit,5,"['6', '7', '8', '9']","['1', '2', '3', '4']",1,2023.2.3,harveydigits,2.1,[],8,0.75,
0,pause,0.4,None,None,None,0,227,227,227,,,,,,,,,,,,N008,digit,5,"['6', '7', '8', '9']","['1', '2', '3', '4']",1,2023.2.3,harveydigits,2.1,[],8,0.75,
3,digit,0.3,['dot'],['big_1'],black,0,228,228,228,,,82.20022892951965,81.91807699203491,82.21803092956543,"[[0.07540098159280287, 0.057448248884302555]]",['DejaVu Sans'],[0.9],,,,N008,digit,5,"['6', '7', '8', '9']","['1', '2', '3', '4']",1,2023.2.3,harveydigits,2.1,[],8,0.75,
0,pause,0.4,None,None,None,0,229,229,229,,,,,,,,,,,,N008,digit,5,"['6', '7', '8', '9']","['1', '2', '3', '4']",1,2023.2.3,harveydigits,2.1,[],8,0.75,
3,digit,0.3,['dot'],['big_1'],black,0,230,230,230,,,82.90022301673889,82.61805391311646,82.91805386543274,"[[0.03135040610079515, 0.18859530551119041]]",['DejaVu Sans'],[0.9],,,,N008,digit,5,"['6', '7', '8', '9']","['1', '2', '3', '4']",1,2023.2.3,harveydigits,2.1,[],8,0.75,
0,pause,0.4,None,None,None,0,231,231,231,,,,,,,,,,,,N008,digit,5,"['6', '7', '8', '9']","['1', '2', '3', '4']",1,2023.2.3,harveydigits,2.1,[],8,0.75,
3,digit,0.3,['dot'],['big_1'],black,0,232,232,232,,,83.6002209186554,83.3179829120636,83.61797285079956,"[[-0.07210274664303687, 0.014243436686803196]]",['DejaVu Sans'],[0.9],,,,N008,digit,5,"['6', '7', '8', '9']","['1', '2', '3', '4']",1,2023.2.3,harveydigits,2.1,[],8,0.75,
0,pause,0.4,None,None,None,0,233,233,233,,,,,,,,,,,,N008,digit,5,"['6', '7', '8', '9']","['1', '2', '3', '4']",1,2023.2.3,harveydigits,2.1,[],8,0.75,
3,digit,0.3,['dot'],['big_1'],black,0,234,234,234,,,84.30022883415222,84.01799702644348,84.31796002388,"[[-0.08314831133749417, -0.12103268738284893]]",['DejaVu Sans'],[0.9],,,,N008,digit,5,"['6', '7', '8', '9']","['1', '2', '3', '4']",1,2023.2.3,harveydigits,2.1,[],8,0.75,
0,pause,0.4,None,None,None,0,235,235,235,,,,,,,,,,,,N008,digit,5,"['6', '7', '8', '9']","['1', '2', '3', '4']",1,2023.2.3,harveydigits,2.1,[],8,0.75,
3,digit,0.3,['dot'],['big_1'],black,0,236,236,236,,,85.00022888183594,84.71796298027039,85.0179488658905,"[[0.17149408253730822, 0.03617390377660239]]",['DejaVu Sans'],[0.9],,,,N008,digit,5,"['6', '7', '8', '9']","['1', '2', '3', '4']",1,2023.2.3,harveydigits,2.1,[],8,0.75,
0,pause,0.4,None,None,None,0,237,237,237,,,,,,,,,,,,N008,digit,5,"['6', '7', '8', '9']","['1', '2', '3', '4']",1,2023.2.3,harveydigits,2.1,[],8,0.75,
3,digit,0.3,['dot'],['big_1'],black,0,238,238,238,,,85.70021080970764,85.4179368019104,85.71790885925293,"[[0.14746303126353574, 0.1297505965086006]]",['DejaVu Sans'],[0.9],,,,N008,digit,5,"['6', '7', '8', '9']","['1', '2', '3', '4']",1,2023.2.3,harveydigits,2.1,[],8,0.75,
0,pause,0.4,None,None,None,0,239,239,239,,,,,,,,,,,,N008,digit,5,"['6', '7', '8', '9']","['1', '2', '3', '4']",1,2023.2.3,harveydigits,2.1,[],8,0.75,
2,digit,0.3,['dot'],['big_1'],black,0,240,240,240,,,86.40022802352905,86.11790585517883,86.41789603233337,"[[0.1300046637291911, 0.0038785422333189323]]",['DejaVu Sans'],[0.9],,,,N008,digit,5,"['6', '7', '8', '9']","['1', '2', '3', '4']",1,2023.2.3,harveydigits,2.1,[],8,0.75,
0,pause,0.4,None,None,None,0,241,241,241,,,,,,,,,,,,N008,digit,5,"['6', '7', '8', '9']","['1', '2', '3', '4']",1,2023.2.3,harveydigits,2.1,[],8,0.75,
2,digit,0.3,['dot'],['big_1'],black,0,242,242,242,,,87.10023784637451,86.81789684295654,87.11787486076355,"[[0.11713037962174103, -0.08882809792612281]]",['DejaVu Sans'],[0.9],,,,N008,digit,5,"['6', '7', '8', '9']","['1', '2', '3', '4']",1,2023.2.3,harveydigits,2.1,[],8,0.75,
0,pause,0.4,None,None,None,0,243,243,243,,,,,,,,,,,,N008,digit,5,"['6', '7', '8', '9']","['1', '2', '3', '4']",1,2023.2.3,harveydigits,2.1,[],8,0.75,
2,digit,0.3,['dot'],['big_1'],black,0,244,244,244,,,87.80024003982544,87.51944184303284,87.81785488128662,"[[0.018539340659852466, -0.10213990168809205]]",['DejaVu Sans'],[0.9],,,,N008,digit,5,"['6', '7', '8', '9']","['1', '2', '3', '4']",1,2023.2.3,harveydigits,2.1,[],8,0.75,
0,pause,0.4,None,None,None,0,245,245,245,,,,,,,,,,,,N008,digit,5,"['6', '7', '8', '9']","['1', '2', '3', '4']",1,2023.2.3,harveydigits,2.1,[],8,0.75,
2,digit,0.3,['dot'],['big_1'],black,0,246,246,246,,,88.50023698806763,88.21791696548462,88.51787495613098,"[[0.019922913073607607, -0.16672614940507233]]",['DejaVu Sans'],[0.9],,,,N008,digit,5,"['6', '7', '8', '9']","['1', '2', '3', '4']",1,2023.2.3,harveydigits,2.1,[],8,0.75,
0,pause,0.4,None,None,None,0,247,247,247,,,,,,,,,,,,N008,digit,5,"['6', '7', '8', '9']","['1', '2', '3', '4']",1,2023.2.3,harveydigits,2.1,[],8,0.75,
2,digit,0.3,['dot'],['big_1'],black,0,248,248,248,,,89.20021891593933,88.91874194145203,89.2178590297699,"[[-0.16937325070872195, 0.005862000413149396]]",['DejaVu Sans'],[0.9],,,,N008,digit,5,"['6', '7', '8', '9']","['1', '2', '3', '4']",1,2023.2.3,harveydigits,2.1,[],8,0.75,
0,pause,0.4,None,None,None,0,249,249,249,,,,,,,,,,,,N008,digit,5,"['6', '7', '8', '9']","['1', '2', '3', '4']",1,2023.2.3,harveydigits,2.1,[],8,0.75,
2,digit,0.3,['dot'],['big_1'],black,0,250,250,250,,,89.90021991729736,89.6178469657898,89.91785883903503,"[[0.10107620003535148, 0.0876040434387706]]",['DejaVu Sans'],[0.9],,,,N008,digit,5,"['6', '7', '8', '9']","['1', '2', '3', '4']",1,2023.2.3,harveydigits,2.1,[],8,0.75,
0,pause,0.4,None,None,None,0,251,251,251,,,,,,,,,,,,N008,digit,5,"['6', '7', '8', '9']","['1', '2', '3', '4']",1,2023.2.3,harveydigits,2.1,[],8,0.75,
1,digit,0.3,['dot'],['big_1'],black,0,252,252,252,,,90.60022497177124,90.3178288936615,90.6193368434906,"[[0.08794630773657106, 0.06105382507958576]]",['DejaVu Sans'],[0.9],,,,N008,digit,5,"['6', '7', '8', '9']","['1', '2', '3', '4']",1,2023.2.3,harveydigits,2.1,[],8,0.75,
0,pause,0.4,None,None,None,0,253,253,253,,,,,,,,,,,,N008,digit,5,"['6', '7', '8', '9']","['1', '2', '3', '4']",1,2023.2.3,harveydigits,2.1,[],8,0.75,
1,digit,0.3,['dot'],['big_1'],black,0,254,254,254,,,91.30021286010742,91.01780581474304,91.31782388687134,"[[-0.163471287404089, -0.05076839561929977]]",['DejaVu Sans'],[0.9],,,,N008,digit,5,"['6', '7', '8', '9']","['1', '2', '3', '4']",1,2023.2.3,harveydigits,2.1,[],8,0.75,
0,pause,0.4,None,None,None,0,255,255,255,,,,,,,,,,,,N008,digit,5,"['6', '7', '8', '9']","['1', '2', '3', '4']",1,2023.2.3,harveydigits,2.1,[],8,0.75,
1,digit,0.3,['dot'],['big_1'],black,0,256,256,256,,,92.00022792816162,91.71779894828796,92.01775097846985,"[[-0.17383847785752388, 0.021435215445853917]]",['DejaVu Sans'],[0.9],,,,N008,digit,5,"['6', '7', '8', '9']","['1', '2', '3', '4']",1,2023.2.3,harveydigits,2.1,[],8,0.75,
0,pause,0.4,None,None,None,0,257,257,257,,,,,,,,,,,,N008,digit,5,"['6', '7', '8', '9']","['1', '2', '3', '4']",1,2023.2.3,harveydigits,2.1,[],8,0.75,
1,digit,0.3,['dot'],['big_1'],black,0,258,258,258,,,92.70023703575134,92.41773796081543,92.71775603294373,"[[0.10045879905647467, 0.0570846132588986]]",['DejaVu Sans'],[0.9],,,,N008,digit,5,"['6', '7', '8', '9']","['1', '2', '3', '4']",1,2023.2.3,harveydigits,2.1,[],8,0.75,
0,pause,0.4,None,None,None,0,259,259,259,,,,,,,,,,,,N008,digit,5,"['6', '7', '8', '9']","['1', '2', '3', '4']",1,2023.2.3,harveydigits,2.1,[],8,0.75,
1,digit,0.3,['dot'],['big_1'],black,0,260,260,260,,,93.40023899078369,93.12149596214294,93.41771388053894,"[[0.15451906388766903, 0.10500734436105158]]",['DejaVu Sans'],[0.9],,,,N008,digit,5,"['6', '7', '8', '9']","['1', '2', '3', '4']",1,2023.2.3,harveydigits,2.1,[],8,0.75,
0,pause,0.4,None,None,None,0,261,261,261,,,,,,,,,,,,N008,digit,5,"['6', '7', '8', '9']","['1', '2', '3', '4']",1,2023.2.3,harveydigits,2.1,[],8,0.75,
1,digit,0.3,['dot'],['big_1'],black,0,262,262,262,,,94.10021591186523,93.81776595115662,94.1177339553833,"[[0.044157283607484527, 0.0050766783461266285]]",['DejaVu Sans'],[0.9],,,,N008,digit,5,"['6', '7', '8', '9']","['1', '2', '3', '4']",1,2023.2.3,harveydigits,2.1,[],8,0.75,
0,pause,0.4,None,None,None,0,263,263,263,,,,,,,,,,,,N008,digit,5,"['6', '7', '8', '9']","['1', '2', '3', '4']",1,2023.2.3,harveydigits,2.1,[],8,0.75,
20,digit,0.3,['dot'],['big_1'],black,0,264,264,264,,,94.80023503303528,94.51770901679993,94.8176908493042,"[[-0.10709154815055649, -0.05847741788502904]]",['DejaVu Sans'],[0.9],,,,N008,digit,5,"['6', '7', '8', '9']","['1', '2', '3', '4']",1,2023.2.3,harveydigits,2.1,[],8,0.75,
0,pause,0.4,None,None,None,0,265,265,265,,,,,,,,,,,,N008,digit,5,"['6', '7', '8', '9']","['1', '2', '3', '4']",1,2023.2.3,harveydigits,2.1,[],8,0.75,
20,digit,0.3,['dot'],['big_1'],black,0,266,266,266,,,95.50024390220642,95.21769189834595,95.51767992973328,"[[-0.06844704738144833, 0.1414948521678172]]",['DejaVu Sans'],[0.9],,,,N008,digit,5,"['6', '7', '8', '9']","['1', '2', '3', '4']",1,2023.2.3,harveydigits,2.1,[],8,0.75,
0,pause,0.4,None,None,None,0,267,267,267,,,,,,,,,,,,N008,digit,5,"['6', '7', '8', '9']","['1', '2', '3', '4']",1,2023.2.3,harveydigits,2.1,[],8,0.75,
20,digit,0.3,['dot'],['big_1'],black,0,268,268,268,,,96.20021796226501,95.91858100891113,96.2176468372345,"[[0.14630633637806575, 0.1312778772283051]]",['DejaVu Sans'],[0.9],,,,N008,digit,5,"['6', '7', '8', '9']","['1', '2', '3', '4']",1,2023.2.3,harveydigits,2.1,[],8,0.75,
0,pause,0.4,None,None,None,0,269,269,269,,,,,,,,,,,,N008,digit,5,"['6', '7', '8', '9']","['1', '2', '3', '4']",1,2023.2.3,harveydigits,2.1,[],8,0.75,
20,digit,0.3,['dot'],['big_1'],black,0,270,270,270,,,96.90022587776184,96.61762595176697,96.91767597198486,"[[0.09558435211336994, -0.05586092742121622]]",['DejaVu Sans'],[0.9],,,,N008,digit,5,"['6', '7', '8', '9']","['1', '2', '3', '4']",1,2023.2.3,harveydigits,2.1,[],8,0.75,
0,pause,0.4,None,None,None,0,271,271,271,,,,,,,,,,,,N008,digit,5,"['6', '7', '8', '9']","['1', '2', '3', '4']",1,2023.2.3,harveydigits,2.1,[],8,0.75,
20,digit,0.3,['dot'],['big_1'],black,0,272,272,272,,,97.60024189949036,97.31765389442444,97.61766195297241,"[[0.17230416120050981, 0.05091642092736373]]",['DejaVu Sans'],[0.9],,,,N008,digit,5,"['6', '7', '8', '9']","['1', '2', '3', '4']",1,2023.2.3,harveydigits,2.1,[],8,0.75,
0,pause,0.4,None,None,None,0,273,273,273,,,,,,,,,,,,N008,digit,5,"['6', '7', '8', '9']","['1', '2', '3', '4']",1,2023.2.3,harveydigits,2.1,[],8,0.75,
20,digit,0.3,['dot'],['big_1'],black,0,274,274,274,,,98.3002359867096,98.01763486862183,98.31762290000916,"[[0.1449970684640879, 0.03753406713347063]]",['DejaVu Sans'],[0.9],,,,N008,digit,5,"['6', '7', '8', '9']","['1', '2', '3', '4']",1,2023.2.3,harveydigits,2.1,[],8,0.75,
0,pause,0.4,None,None,None,0,275,275,275,,,,,,,,,,,,N008,digit,5,"['6', '7', '8', '9']","['1', '2', '3', '4']",1,2023.2.3,harveydigits,2.1,[],8,0.75,
20,digit,0.3,['dot'],['big_1'],black,0,276,276,276,,,99.0002179145813,98.71760296821594,99.01762795448303,"[[-0.13514201622566566, 0.08743682521550916]]",['DejaVu Sans'],[0.9],,,,N008,digit,5,"['6', '7', '8', '9']","['1', '2', '3', '4']",1,2023.2.3,harveydigits,2.1,[],8,0.75,
0,pause,0.4,None,None,None,0,277,277,277,,,,,,,,,,,,N008,digit,5,"['6', '7', '8', '9']","['1', '2', '3', '4']",1,2023.2.3,harveydigits,2.1,[],8,0.75,
20,digit,0.3,['dot'],['big_1'],black,0,278,278,278,,,99.70021796226501,99.41756892204285,99.71754503250122,"[[-0.15997957287597012, -0.08948101132190003]]",['DejaVu Sans'],[0.9],,,,N008,digit,5,"['6', '7', '8', '9']","['1', '2', '3', '4']",1,2023.2.3,harveydigits,2.1,[],8,0.75,
0,pause,0.4,None,None,None,0,279,279,279,,,,,,,,,,,,N008,digit,5,"['6', '7', '8', '9']","['1', '2', '3', '4']",1,2023.2.3,harveydigits,2.1,[],8,0.75,
20,digit,0.3,['dot'],['big_1'],black,0,280,280,280,,,100.40021991729736,100.11754894256592,100.41752290725708,"[[0.0616482350895812, -0.13630271377817663]]",['DejaVu Sans'],[0.9],,,,N008,digit,5,"['6', '7', '8', '9']","['1', '2', '3', '4']",1,2023.2.3,harveydigits,2.1,[],8,0.75,
0,pause,0.4,None,None,None,0,281,281,281,,,,,,,,,,,,N008,digit,5,"['6', '7', '8', '9']","['1', '2', '3', '4']",1,2023.2.3,harveydigits,2.1,[],8,0.75,
20,digit,0.3,['dot'],['big_1'],black,0,282,282,282,,,101.10023903846741,100.81750202178955,101.1175389289856,"[[-0.010604884013653143, 0.011120613069541208]]",['DejaVu Sans'],[0.9],,,,N008,digit,5,"['6', '7', '8', '9']","['1', '2', '3', '4']",1,2023.2.3,harveydigits,2.1,[],8,0.75,
0,pause,0.4,None,None,None,0,283,283,283,,,,,,,,,,,,N008,digit,5,"['6', '7', '8', '9']","['1', '2', '3', '4']",1,2023.2.3,harveydigits,2.1,[],8,0.75,
20,digit,0.3,['dot'],['big_1'],black,0,284,284,284,,,101.80021595954895,101.51752591133118,101.81754183769226,"[[-0.04685744669420017, 0.16414180286714278]]",['DejaVu Sans'],[0.9],,,,N008,digit,5,"['6', '7', '8', '9']","['1', '2', '3', '4']",1,2023.2.3,harveydigits,2.1,[],8,0.75,
0,pause,0.4,None,None,None,0,285,285,285,,,,,,,,,,,,N008,digit,5,"['6', '7', '8', '9']","['1', '2', '3', '4']",1,2023.2.3,harveydigits,2.1,[],8,0.75,
20,digit,0.3,['dot'],['big_1'],black,0,286,286,286,,,102.50021195411682,102.21841382980347,102.51750183105469,"[[0.02847190592577964, 0.14882862571929206]]",['DejaVu Sans'],[0.9],,,,N008,digit,5,"['6', '7', '8', '9']","['1', '2', '3', '4']",1,2023.2.3,harveydigits,2.1,[],8,0.75,
0,pause,0.4,None,None,None,0,287,287,287,,,,,,,,,,,,N008,digit,5,"['6', '7', '8', '9']","['1', '2', '3', '4']",1,2023.2.3,harveydigits,2.1,[],8,0.75,
20,digit,0.3,['dot'],['big_1'],black,0,288,288,288,,,103.20024394989014,102.9175078868866,103.21748781204224,"[[-0.13536488802139715, -0.016169153372381506]]",['DejaVu Sans'],[0.9],,,,N008,digit,5,"['6', '7', '8', '9']","['1', '2', '3', '4']",1,2023.2.3,harveydigits,2.1,[],8,0.75,
0,pause,0.4,None,None,None,0,289,289,289,,,,,,,,,,,,N008,digit,5,"['6', '7', '8', '9']","['1', '2', '3', '4']",1,2023.2.3,harveydigits,2.1,[],8,0.75,
20,digit,0.3,['dot'],['big_1'],black,0,290,290,290,,,103.90023493766785,103.61748003959656,103.9174690246582,"[[-0.148621938065273, -0.010956245875871046]]",['DejaVu Sans'],[0.9],,,,N008,digit,5,"['6', '7', '8', '9']","['1', '2', '3', '4']",1,2023.2.3,harveydigits,2.1,[],8,0.75,
0,pause,0.4,None,None,None,0,291,291,291,,,,,,,,,,,,N008,digit,5,"['6', '7', '8', '9']","['1', '2', '3', '4']",1,2023.2.3,harveydigits,2.1,[],8,0.75,
20,digit,0.3,['dot'],['big_1'],black,0,292,292,292,,,104.60022783279419,104.31747484207153,104.61741995811462,"[[0.13779124085084657, 0.09301696870391668]]",['DejaVu Sans'],[0.9],,,,N008,digit,5,"['6', '7', '8', '9']","['1', '2', '3', '4']",1,2023.2.3,harveydigits,2.1,[],8,0.75,
0,pause,0.4,None,None,None,0,293,293,293,,,,,,,,,,,,N008,digit,5,"['6', '7', '8', '9']","['1', '2', '3', '4']",1,2023.2.3,harveydigits,2.1,[],8,0.75,
20,digit,0.3,['dot'],['big_1'],black,0,294,294,294,,,105.30022192001343,105.01745581626892,105.31790685653687,"[[0.03197750147403561, -0.17873748630275707]]",['DejaVu Sans'],[0.9],,,,N008,digit,5,"['6', '7', '8', '9']","['1', '2', '3', '4']",1,2023.2.3,harveydigits,2.1,[],8,0.75,
0,pause,0.4,None,None,None,0,295,295,295,,,,,,,,,,,,N008,digit,5,"['6', '7', '8', '9']","['1', '2', '3', '4']",1,2023.2.3,harveydigits,2.1,[],8,0.75,
20,digit,0.3,['dot'],['big_1'],black,0,296,296,296,,,106.00021600723267,105.71744203567505,106.01739192008972,"[[0.043374594034389424, -0.11781176814203406]]",['DejaVu Sans'],[0.9],,,,N008,digit,5,"['6', '7', '8', '9']","['1', '2', '3', '4']",1,2023.2.3,harveydigits,2.1,[],8,0.75,
0,pause,0.4,None,None,None,0,297,297,297,,,,,,,,,,,,N008,digit,5,"['6', '7', '8', '9']","['1', '2', '3', '4']",1,2023.2.3,harveydigits,2.1,[],8,0.75,
20,digit,0.3,['dot'],['big_1'],black,0,298,298,298,,,106.70024085044861,106.41741895675659,106.71741080284119,"[[0.027038506079774427, 0.009141984000560488]]",['DejaVu Sans'],[0.9],,,,N008,digit,5,"['6', '7', '8', '9']","['1', '2', '3', '4']",1,2023.2.3,harveydigits,2.1,[],8,0.75,
0,pause,0.4,None,None,None,0,299,299,299,,,,,,,,,,,,N008,digit,5,"['6', '7', '8', '9']","['1', '2', '3', '4']",1,2023.2.3,harveydigits,2.1,[],8,0.75,
20,digit,0.3,['dot'],['big_1'],black,0,300,300,300,,,107.40024495124817,107.11740493774414,107.41846895217896,"[[0.1296280970338424, -0.030884961590596685]]",['DejaVu Sans'],[0.9],,,,N008,digit,5,"['6', '7', '8', '9']","['1', '2', '3', '4']",1,2023.2.3,harveydigits,2.1,[],8,0.75,
0,pause,0.4,None,None,None,0,301,301,301,,,,,,,,,,,,N008,digit,5,"['6', '7', '8', '9']","['1', '2', '3', '4']",1,2023.2.3,harveydigits,2.1,[],8,0.75,
20,digit,0.3,['dot'],['big_1'],black,0,302,302,302,,,108.10024189949036,107.81737494468689,108.11733984947205,"[[-0.02397851262648376, -0.08917158595294362]]",['DejaVu Sans'],[0.9],,,,N008,digit,5,"['6', '7', '8', '9']","['1', '2', '3', '4']",1,2023.2.3,harveydigits,2.1,[],8,0.75,
0,pause,0.4,None,None,None,0,303,303,303,,,,,,,,,,,,N008,digit,5,"['6', '7', '8', '9']","['1', '2', '3', '4']",1,2023.2.3,harveydigits,2.1,[],8,0.75,
20,digit,0.3,['dot'],['big_1'],black,0,304,304,304,,,108.8002278804779,108.51734280586243,108.81733798980713,"[[0.1575527593525902, -0.021727842032335493]]",['DejaVu Sans'],[0.9],,,,N008,digit,5,"['6', '7', '8', '9']","['1', '2', '3', '4']",1,2023.2.3,harveydigits,2.1,[],8,0.75,
0,pause,0.4,None,None,None,0,305,305,305,,,,,,,,,,,,N008,digit,5,"['6', '7', '8', '9']","['1', '2', '3', '4']",1,2023.2.3,harveydigits,2.1,[],8,0.75,
20,digit,0.3,['dot'],['big_1'],black,0,306,306,306,,,109.50022602081299,109.21732997894287,109.5173180103302,"[[-0.17991934029796014, -0.023374446579902175]]",['DejaVu Sans'],[0.9],,,,N008,digit,5,"['6', '7', '8', '9']","['1', '2', '3', '4']",1,2023.2.3,harveydigits,2.1,[],8,0.75,
0,pause,0.4,None,None,None,0,307,307,307,,,,,,,,,,,,N008,digit,5,"['6', '7', '8', '9']","['1', '2', '3', '4']",1,2023.2.3,harveydigits,2.1,[],8,0.75,
20,digit,0.3,['dot'],['big_1'],black,0,308,308,308,,,110.20021796226501,109.9173150062561,110.21731495857239,"[[0.11958562476438014, -0.012128347072194845]]",['DejaVu Sans'],[0.9],,,,N008,digit,5,"['6', '7', '8', '9']","['1', '2', '3', '4']",1,2023.2.3,harveydigits,2.1,[],8,0.75,
0,pause,0.4,None,None,None,0,309,309,309,,,,,,,,,,,,N008,digit,5,"['6', '7', '8', '9']","['1', '2', '3', '4']",1,2023.2.3,harveydigits,2.1,[],8,0.75,
20,digit,0.3,['dot'],['big_1'],black,0,310,310,310,,,110.90022683143616,110.61732482910156,110.91839981079102,"[[-0.01676058988034429, -0.175598202839088]]",['DejaVu Sans'],[0.9],,,,N008,digit,5,"['6', '7', '8', '9']","['1', '2', '3', '4']",1,2023.2.3,harveydigits,2.1,[],8,0.75,
0,pause,0.4,None,None,None,0,311,311,311,,,,,,,,,,,,N008,digit,5,"['6', '7', '8', '9']","['1', '2', '3', '4']",1,2023.2.3,harveydigits,2.1,[],8,0.75,
1,digit,0.3,['dot'],['small_1'],black,0,312,312,312,,,111.60023903846741,111.31730699539185,111.6173038482666,"[[0.07940578124524433, -0.1016464423670061]]",['DejaVu Sans'],[0.6],,,,N008,digit,5,"['6', '7', '8', '9']","['1', '2', '3', '4']",1,2023.2.3,harveydigits,2.1,[],8,0.75,
0,pause,0.4,None,None,None,0,313,313,313,,,,,,,,,,,,N008,digit,5,"['6', '7', '8', '9']","['1', '2', '3', '4']",1,2023.2.3,harveydigits,2.1,[],8,0.75,
1,digit,0.3,['dot'],['small_1'],black,0,314,314,314,,,112.30022692680359,112.01834797859192,112.31727600097656,"[[0.1485010981364443, -0.1121547532123928]]",['DejaVu Sans'],[0.6],,,,N008,digit,5,"['6', '7', '8', '9']","['1', '2', '3', '4']",1,2023.2.3,harveydigits,2.1,[],8,0.75,
0,pause,0.4,None,None,None,0,315,315,315,,,,,,,,,,,,N008,digit,5,"['6', '7', '8', '9']","['1', '2', '3', '4']",1,2023.2.3,harveydigits,2.1,[],8,0.75,
1,digit,0.3,['dot'],['small_1'],black,0,316,316,316,,,113.00023984909058,112.7172749042511,113.01726293563843,"[[0.12196122820120914, 0.12194895347733736]]",['DejaVu Sans'],[0.6],,,,N008,digit,5,"['6', '7', '8', '9']","['1', '2', '3', '4']",1,2023.2.3,harveydigits,2.1,[],8,0.75,
0,pause,0.4,None,None,None,0,317,317,317,,,,,,,,,,,,N008,digit,5,"['6', '7', '8', '9']","['1', '2', '3', '4']",1,2023.2.3,harveydigits,2.1,[],8,0.75,
1,digit,0.3,['dot'],['small_1'],black,0,318,318,318,,,113.70022201538086,113.41724801063538,113.71725082397461,"[[0.01293871376180461, 0.256695929404233]]",['DejaVu Sans'],[0.6],,,,N008,digit,5,"['6', '7', '8', '9']","['1', '2', '3', '4']",1,2023.2.3,harveydigits,2.1,[],8,0.75,
0,pause,0.4,None,None,None,0,319,319,319,,,,,,,,,,,,N008,digit,5,"['6', '7', '8', '9']","['1', '2', '3', '4']",1,2023.2.3,harveydigits,2.1,[],8,0.75,
1,digit,0.3,['dot'],['small_1'],black,0,320,320,320,,,114.40022492408752,114.11722493171692,114.41720700263977,"[[-0.31969172410985924, 0.1305763162522134]]",['DejaVu Sans'],[0.6],,,,N008,digit,5,"['6', '7', '8', '9']","['1', '2', '3', '4']",1,2023.2.3,harveydigits,2.1,[],8,0.75,
0,pause,0.4,None,None,None,0,321,321,321,,,,,,,,,,,,N008,digit,5,"['6', '7', '8', '9']","['1', '2', '3', '4']",1,2023.2.3,harveydigits,2.1,[],8,0.75,
1,digit,0.3,['dot'],['small_1'],black,0,322,322,322,,,115.10021781921387,114.81721901893616,115.11810183525085,"[[-0.0678954162562227, 0.12061477262016107]]",['DejaVu Sans'],[0.6],,,,N008,digit,5,"['6', '7', '8', '9']","['1', '2', '3', '4']",1,2023.2.3,harveydigits,2.1,[],8,0.75,
0,pause,0.4,None,None,None,0,323,323,323,,,,,,,,,,,,N008,digit,5,"['6', '7', '8', '9']","['1', '2', '3', '4']",1,2023.2.3,harveydigits,2.1,[],8,0.75,
2,digit,0.3,['dot'],['small_1'],black,0,324,324,324,,,115.8002278804779,115.51719284057617,115.81716799736023,"[[0.34161052914815704, -0.014580974403823041]]",['DejaVu Sans'],[0.6],,,,N008,digit,5,"['6', '7', '8', '9']","['1', '2', '3', '4']",1,2023.2.3,harveydigits,2.1,[],8,0.75,
0,pause,0.4,None,None,None,0,325,325,325,,,,,,,,,,,,N008,digit,5,"['6', '7', '8', '9']","['1', '2', '3', '4']",1,2023.2.3,harveydigits,2.1,[],8,0.75,
2,digit,0.3,['dot'],['small_1'],black,0,326,326,326,,,116.50024700164795,116.21718788146973,116.5171549320221,"[[-0.048221619346058064, -0.21624407782071253]]",['DejaVu Sans'],[0.6],,,,N008,digit,5,"['6', '7', '8', '9']","['1', '2', '3', '4']",1,2023.2.3,harveydigits,2.1,[],8,0.75,
0,pause,0.4,None,None,None,0,327,327,327,,,,,,,,,,,,N008,digit,5,"['6', '7', '8', '9']","['1', '2', '3', '4']",1,2023.2.3,harveydigits,2.1,[],8,0.75,
2,digit,0.3,['dot'],['small_1'],black,0,328,328,328,,,117.20023798942566,116.91715097427368,117.21711492538452,"[[-0.2999783438757966, -0.163429757720349]]",['DejaVu Sans'],[0.6],,,,N008,digit,5,"['6', '7', '8', '9']","['1', '2', '3', '4']",1,2023.2.3,harveydigits,2.1,[],8,0.75,
0,pause,0.4,None,None,None,0,329,329,329,,,,,,,,,,,,N008,digit,5,"['6', '7', '8', '9']","['1', '2', '3', '4']",1,2023.2.3,harveydigits,2.1,[],8,0.75,
2,digit,0.3,['dot'],['small_1'],black,0,330,330,330,,,117.90022587776184,117.61713099479675,117.91709089279175,"[[-0.23157874880189258, 0.009642945469317155]]",['DejaVu Sans'],[0.6],,,,N008,digit,5,"['6', '7', '8', '9']","['1', '2', '3', '4']",1,2023.2.3,harveydigits,2.1,[],8,0.75,
0,pause,0.4,None,None,None,0,331,331,331,,,,,,,,,,,,N008,digit,5,"['6', '7', '8', '9']","['1', '2', '3', '4']",1,2023.2.3,harveydigits,2.1,[],8,0.75,
2,digit,0.3,['dot'],['small_1'],black,0,332,332,332,,,118.60022592544556,118.31710481643677,118.6171019077301,"[[0.13548508086997313, 0.14119815208854325]]",['DejaVu Sans'],[0.6],,,,N008,digit,5,"['6', '7', '8', '9']","['1', '2', '3', '4']",1,2023.2.3,harveydigits,2.1,[],8,0.75,
0,pause,0.4,None,None,None,0,333,333,333,,,,,,,,,,,,N008,digit,5,"['6', '7', '8', '9']","['1', '2', '3', '4']",1,2023.2.3,harveydigits,2.1,[],8,0.75,
2,digit,0.3,['dot'],['small_1'],black,0,334,334,334,,,119.30022692680359,119.01709198951721,119.31707096099854,"[[0.05808217159756612, 0.12825277452981265]]",['DejaVu Sans'],[0.6],,,,N008,digit,5,"['6', '7', '8', '9']","['1', '2', '3', '4']",1,2023.2.3,harveydigits,2.1,[],8,0.75,
0,pause,0.4,None,None,None,0,335,335,335,,,,,,,,,,,,N008,digit,5,"['6', '7', '8', '9']","['1', '2', '3', '4']",1,2023.2.3,harveydigits,2.1,[],8,0.75,
3,digit,0.3,['dot'],['small_1'],black,0,336,336,336,,,120.00023794174194,119.71706700325012,120.01705598831177,"[[0.217307257587683, -0.033304090488510296]]",['DejaVu Sans'],[0.6],,,,N008,digit,5,"['6', '7', '8', '9']","['1', '2', '3', '4']",1,2023.2.3,harveydigits,2.1,[],8,0.75,
0,pause,0.4,None,None,None,0,337,337,337,,,,,,,,,,,,N008,digit,5,"['6', '7', '8', '9']","['1', '2', '3', '4']",1,2023.2.3,harveydigits,2.1,[],8,0.75,
3,digit,0.3,['dot'],['small_1'],black,0,338,338,338,,,120.70023703575134,120.41796088218689,120.71702194213867,"[[0.09836126151639885, -0.015231223705439001]]",['DejaVu Sans'],[0.6],,,,N008,digit,5,"['6', '7', '8', '9']","['1', '2', '3', '4']",1,2023.2.3,harveydigits,2.1,[],8,0.75,
0,pause,0.4,None,None,None,0,339,339,339,,,,,,,,,,,,N008,digit,5,"['6', '7', '8', '9']","['1', '2', '3', '4']",1,2023.2.3,harveydigits,2.1,[],8,0.75,
3,digit,0.3,['dot'],['small_1'],black,0,340,340,340,,,121.40024399757385,121.11701083183289,121.41698384284973,"[[0.2651670195624213, -0.1500923875801215]]",['DejaVu Sans'],[0.6],,,,N008,digit,5,"['6', '7', '8', '9']","['1', '2', '3', '4']",1,2023.2.3,harveydigits,2.1,[],8,0.75,
0,pause,0.4,None,None,None,0,341,341,341,,,,,,,,,,,,N008,digit,5,"['6', '7', '8', '9']","['1', '2', '3', '4']",1,2023.2.3,harveydigits,2.1,[],8,0.75,
3,digit,0.3,['dot'],['small_1'],black,0,342,342,342,,,122.1002209186554,121.81809782981873,122.11699199676514,"[[0.23042922223735007, 0.2598522003728927]]",['DejaVu Sans'],[0.6],,,,N008,digit,5,"['6', '7', '8', '9']","['1', '2', '3', '4']",1,2023.2.3,harveydigits,2.1,[],8,0.75,
0,pause,0.4,None,None,None,0,343,343,343,,,,,,,,,,,,N008,digit,5,"['6', '7', '8', '9']","['1', '2', '3', '4']",1,2023.2.3,harveydigits,2.1,[],8,0.75,
3,digit,0.3,['dot'],['small_1'],black,0,344,344,344,,,122.80024695396423,122.51699781417847,122.81697297096252,"[[-0.3071507758135269, 0.16450657728457993]]",['DejaVu Sans'],[0.6],,,,N008,digit,5,"['6', '7', '8', '9']","['1', '2', '3', '4']",1,2023.2.3,harveydigits,2.1,[],8,0.75,
0,pause,0.4,None,None,None,0,345,345,345,,,,,,,,,,,,N008,digit,5,"['6', '7', '8', '9']","['1', '2', '3', '4']",1,2023.2.3,harveydigits,2.1,[],8,0.75,
3,digit,0.3,['dot'],['small_1'],black,0,346,346,346,,,123.50021600723267,123.21698594093323,123.51696991920471,"[[0.30005844802546977, -0.12455292905337995]]",['DejaVu Sans'],[0.6],,,,N008,digit,5,"['6', '7', '8', '9']","['1', '2', '3', '4']",1,2023.2.3,harveydigits,2.1,[],8,0.75,
0,pause,0.4,None,None,None,0,347,347,347,,,,,,,,,,,,N008,digit,5,"['6', '7', '8', '9']","['1', '2', '3', '4']",1,2023.2.3,harveydigits,2.1,[],8,0.75,
4,digit,0.3,['dot'],['small_1'],black,0,348,348,348,,,124.20022892951965,123.91694903373718,124.21693897247314,"[[-0.3222376844320834, -0.06557261498704578]]",['DejaVu Sans'],[0.6],,,,N008,digit,5,"['6', '7', '8', '9']","['1', '2', '3', '4']",1,2023.2.3,harveydigits,2.1,[],8,0.75,
0,pause,0.4,None,None,None,0,349,349,349,,,,,,,,,,,,N008,digit,5,"['6', '7', '8', '9']","['1', '2', '3', '4']",1,2023.2.3,harveydigits,2.1,[],8,0.75,
4,digit,0.3,['dot'],['small_1'],black,0,350,350,350,,,124.90024590492249,124.61694192886353,124.91693496704102,"[[0.2900229885540906, 0.16012598696744854]]",['DejaVu Sans'],[0.6],,,,N008,digit,5,"['6', '7', '8', '9']","['1', '2', '3', '4']",1,2023.2.3,harveydigits,2.1,[],8,0.75,
0,pause,0.4,None,None,None,0,351,351,351,,,,,,,,,,,,N008,digit,5,"['6', '7', '8', '9']","['1', '2', '3', '4']",1,2023.2.3,harveydigits,2.1,[],8,0.75,
4,digit,0.3,['dot'],['small_1'],black,0,352,352,352,,,125.60023403167725,125.3169310092926,125.61691403388977,"[[0.013183465719192211, -0.20239023427733574]]",['DejaVu Sans'],[0.6],,,,N008,digit,5,"['6', '7', '8', '9']","['1', '2', '3', '4']",1,2023.2.3,harveydigits,2.1,[],8,0.75,
0,pause,0.4,None,None,None,0,353,353,353,,,,,,,,,,,,N008,digit,5,"['6', '7', '8', '9']","['1', '2', '3', '4']",1,2023.2.3,harveydigits,2.1,[],8,0.75,
4,digit,0.3,['dot'],['small_1'],black,0,354,354,354,,,126.30024790763855,126.01690602302551,126.31689286231995,"[[0.3473552540815348, -0.006890731997549374]]",['DejaVu Sans'],[0.6],,,,N008,digit,5,"['6', '7', '8', '9']","['1', '2', '3', '4']",1,2023.2.3,harveydigits,2.1,[],8,0.75,
0,pause,0.4,None,None,None,0,355,355,355,,,,,,,,,,,,N008,digit,5,"['6', '7', '8', '9']","['1', '2', '3', '4']",1,2023.2.3,harveydigits,2.1,[],8,0.75,
4,digit,0.3,['dot'],['small_1'],black,0,356,356,356,,,127.0002429485321,126.71704983711243,127.01689195632935,"[[0.15871548197417362, 0.19855832372244248]]",['DejaVu Sans'],[0.6],,,,N008,digit,5,"['6', '7', '8', '9']","['1', '2', '3', '4']",1,2023.2.3,harveydigits,2.1,[],8,0.75,
0,pause,0.4,None,None,None,0,357,357,357,,,,,,,,,,,,N008,digit,5,"['6', '7', '8', '9']","['1', '2', '3', '4']",1,2023.2.3,harveydigits,2.1,[],8,0.75,
4,digit,0.3,['dot'],['small_1'],black,0,358,358,358,,,127.70024299621582,127.41687083244324,127.71684885025024,"[[-0.19160682625876907, 0.1664956271783849]]",['DejaVu Sans'],[0.6],,,,N008,digit,5,"['6', '7', '8', '9']","['1', '2', '3', '4']",1,2023.2.3,harveydigits,2.1,[],8,0.75,
0,pause,0.4,None,None,None,0,359,359,359,,,,,,,,,,,,N008,digit,5,"['6', '7', '8', '9']","['1', '2', '3', '4']",1,2023.2.3,harveydigits,2.1,[],8,0.75,
5,digit,0.3,['dot'],['small_1'],black,0,360,360,360,,,128.40022492408752,128.11684894561768,128.41683292388916,"[[-0.34313899840686174, 0.006875053644640541]]",['DejaVu Sans'],[0.6],,,,N008,digit,5,"['6', '7', '8', '9']","['1', '2', '3', '4']",1,2023.2.3,harveydigits,2.1,[],8,0.75,
0,pause,0.4,None,None,None,0,361,361,361,,,,,,,,,,,,N008,digit,5,"['6', '7', '8', '9']","['1', '2', '3', '4']",1,2023.2.3,harveydigits,2.1,[],8,0.75,
5,digit,0.3,['dot'],['small_1'],black,0,362,362,362,,,129.1002390384674,128.81681394577026,129.1179268360138,"[[0.06982194607278103, -0.11841155947568116]]",['DejaVu Sans'],[0.6],,,,N008,digit,5,"['6', '7', '8', '9']","['1', '2', '3', '4']",1,2023.2.3,harveydigits,2.1,[],8,0.75,
0,pause,0.4,None,None,None,0,363,363,363,,,,,,,,,,,,N008,digit,5,"['6', '7', '8', '9']","['1', '2', '3', '4']",1,2023.2.3,harveydigits,2.1,[],8,0.75,
5,digit,0.3,['dot'],['small_1'],black,0,364,364,364,,,129.80023288726807,129.51685190200806,129.81790900230408,"[[-0.25905406016985916, -0.2074186412168419]]",['DejaVu Sans'],[0.6],,,,N008,digit,5,"['6', '7', '8', '9']","['1', '2', '3', '4']",1,2023.2.3,harveydigits,2.1,[],8,0.75,
0,pause,0.4,None,None,None,0,365,365,365,,,,,,,,,,,,N008,digit,5,"['6', '7', '8', '9']","['1', '2', '3', '4']",1,2023.2.3,harveydigits,2.1,[],8,0.75,
5,digit,0.3,['dot'],['small_1'],black,0,366,366,366,,,130.50024795532227,130.2168209552765,130.51679301261902,"[[0.13070885160599927, 0.018714589909896884]]",['DejaVu Sans'],[0.6],,,,N008,digit,5,"['6', '7', '8', '9']","['1', '2', '3', '4']",1,2023.2.3,harveydigits,2.1,[],8,0.75,
0,pause,0.4,None,None,None,0,367,367,367,,,,,,,,,,,,N008,digit,5,"['6', '7', '8', '9']","['1', '2', '3', '4']",1,2023.2.3,harveydigits,2.1,[],8,0.75,
5,digit,0.3,['dot'],['small_1'],black,0,368,368,368,,,131.20024180412292,130.91680002212524,131.21676588058472,"[[-0.019177143658269946, 0.1022263497553359]]",['DejaVu Sans'],[0.6],,,,N008,digit,5,"['6', '7', '8', '9']","['1', '2', '3', '4']",1,2023.2.3,harveydigits,2.1,[],8,0.75,
0,pause,0.4,None,None,None,0,369,369,369,,,,,,,,,,,,N008,digit,5,"['6', '7', '8', '9']","['1', '2', '3', '4']",1,2023.2.3,harveydigits,2.1,[],8,0.75,
5,digit,0.3,['dot'],['small_1'],black,0,370,370,370,,,131.90023493766785,131.61680603027344,131.91677403450012,"[[0.29263154667497104, -0.006324248468376453]]",['DejaVu Sans'],[0.6],,,,N008,digit,5,"['6', '7', '8', '9']","['1', '2', '3', '4']",1,2023.2.3,harveydigits,2.1,[],8,0.75,
0,pause,0.4,None,None,None,0,371,371,371,,,,,,,,,,,,N008,digit,5,"['6', '7', '8', '9']","['1', '2', '3', '4']",1,2023.2.3,harveydigits,2.1,[],8,0.75,
6,digit,0.3,['dot'],['small_1'],black,0,372,372,372,,,132.6002299785614,132.31677293777466,132.616760969162,"[[0.33880887943446925, 0.016853857506662795]]",['DejaVu Sans'],[0.6],,,,N008,digit,5,"['6', '7', '8', '9']","['1', '2', '3', '4']",1,2023.2.3,harveydigits,2.1,[],8,0.75,
0,pause,0.4,None,None,None,0,373,373,373,,,,,,,,,,,,N008,digit,5,"['6', '7', '8', '9']","['1', '2', '3', '4']",1,2023.2.3,harveydigits,2.1,[],8,0.75,
6,digit,0.3,['dot'],['small_1'],black,0,374,374,374,,,133.3002209663391,133.01763701438904,133.31670880317688,"[[0.34374114570919256, 0.024032307480030768]]",['DejaVu Sans'],[0.6],,,,N008,digit,5,"['6', '7', '8', '9']","['1', '2', '3', '4']",1,2023.2.3,harveydigits,2.1,[],8,0.75,
0,pause,0.4,None,None,None,0,375,375,375,,,,,,,,,,,,N008,digit,5,"['6', '7', '8', '9']","['1', '2', '3', '4']",1,2023.2.3,harveydigits,2.1,[],8,0.75,
6,digit,0.3,['dot'],['small_1'],black,0,376,376,376,,,134.0002248287201,133.7167088985443,134.01671981811523,"[[0.15541176802890722, 0.24887220965192464]]",['DejaVu Sans'],[0.6],,,,N008,digit,5,"['6', '7', '8', '9']","['1', '2', '3', '4']",1,2023.2.3,harveydigits,2.1,[],8,0.75,
0,pause,0.4,None,None,None,0,377,377,377,,,,,,,,,,,,N008,digit,5,"['6', '7', '8', '9']","['1', '2', '3', '4']",1,2023.2.3,harveydigits,2.1,[],8,0.75,
6,digit,0.3,['dot'],['small_1'],black,0,378,378,378,,,134.70023393630981,134.41672086715698,134.71670198440552,"[[0.12220170845205497, 0.13369562170785187]]",['DejaVu Sans'],[0.6],,,,N008,digit,5,"['6', '7', '8', '9']","['1', '2', '3', '4']",1,2023.2.3,harveydigits,2.1,[],8,0.75,
0,pause,0.4,None,None,None,0,379,379,379,,,,,,,,,,,,N008,digit,5,"['6', '7', '8', '9']","['1', '2', '3', '4']",1,2023.2.3,harveydigits,2.1,[],8,0.75,
6,digit,0.3,['dot'],['small_1'],black,0,380,380,380,,,135.400230884552,135.11761498451233,135.4166820049286,"[[-0.1431481440077968, -0.11706146701883785]]",['DejaVu Sans'],[0.6],,,,N008,digit,5,"['6', '7', '8', '9']","['1', '2', '3', '4']",1,2023.2.3,harveydigits,2.1,[],8,0.75,
0,pause,0.4,None,None,None,0,381,381,381,,,,,,,,,,,,N008,digit,5,"['6', '7', '8', '9']","['1', '2', '3', '4']",1,2023.2.3,harveydigits,2.1,[],8,0.75,
6,digit,0.3,['dot'],['small_1'],black,0,382,382,382,,,136.1002299785614,135.8175609111786,136.11663794517517,"[[-0.1778879734512429, 0.16441929616901002]]",['DejaVu Sans'],[0.6],,,,N008,digit,5,"['6', '7', '8', '9']","['1', '2', '3', '4']",1,2023.2.3,harveydigits,2.1,[],8,0.75,
0,pause,0.4,None,None,None,0,383,383,383,,,,,,,,,,,,N008,digit,5,"['6', '7', '8', '9']","['1', '2', '3', '4']",1,2023.2.3,harveydigits,2.1,[],8,0.75,
7,digit,0.3,['dot'],['small_1'],black,0,384,384,384,,,136.80023503303528,136.51663184165955,136.81661891937256,"[[0.3280566000090239, -0.0569420631765436]]",['DejaVu Sans'],[0.6],,,,N008,digit,5,"['6', '7', '8', '9']","['1', '2', '3', '4']",1,2023.2.3,harveydigits,2.1,[],8,0.75,
0,pause,0.4,None,None,None,0,385,385,385,,,,,,,,,,,,N008,digit,5,"['6', '7', '8', '9']","['1', '2', '3', '4']",1,2023.2.3,harveydigits,2.1,[],8,0.75,
7,digit,0.3,['dot'],['small_1'],black,0,386,386,386,,,137.50024795532227,137.21662998199463,137.51659393310547,"[[-0.21836471327023513, -0.15237407150439441]]",['DejaVu Sans'],[0.6],,,,N008,digit,5,"['6', '7', '8', '9']","['1', '2', '3', '4']",1,2023.2.3,harveydigits,2.1,[],8,0.75,
0,pause,0.4,None,None,None,0,387,387,387,,,,,,,,,,,,N008,digit,5,"['6', '7', '8', '9']","['1', '2', '3', '4']",1,2023.2.3,harveydigits,2.1,[],8,0.75,
7,digit,0.3,['dot'],['small_1'],black,0,388,388,388,,,138.2002398967743,137.9166078567505,138.21658301353455,"[[0.27072708838879833, 0.1427009164389976]]",['DejaVu Sans'],[0.6],,,,N008,digit,5,"['6', '7', '8', '9']","['1', '2', '3', '4']",1,2023.2.3,harveydigits,2.1,[],8,0.75,
0,pause,0.4,None,None,None,0,389,389,389,,,,,,,,,,,,N008,digit,5,"['6', '7', '8', '9']","['1', '2', '3', '4']",1,2023.2.3,harveydigits,2.1,[],8,0.75,
7,digit,0.3,['dot'],['small_1'],black,0,390,390,390,,,138.90023589134216,138.61658191680908,138.91657900810242,"[[-0.28640289241964606, 0.10517908061519565]]",['DejaVu Sans'],[0.6],,,,N008,digit,5,"['6', '7', '8', '9']","['1', '2', '3', '4']",1,2023.2.3,harveydigits,2.1,[],8,0.75,
0,pause,0.4,None,None,None,0,391,391,391,,,,,,,,,,,,N008,digit,5,"['6', '7', '8', '9']","['1', '2', '3', '4']",1,2023.2.3,harveydigits,2.1,[],8,0.75,
7,digit,0.3,['dot'],['small_1'],black,0,392,392,392,,,139.60024785995483,139.31657099723816,139.61653685569763,"[[0.16831843072239838, 0.16608401232224063]]",['DejaVu Sans'],[0.6],,,,N008,digit,5,"['6', '7', '8', '9']","['1', '2', '3', '4']",1,2023.2.3,harveydigits,2.1,[],8,0.75,
0,pause,0.4,None,None,None,0,393,393,393,,,,,,,,,,,,N008,digit,5,"['6', '7', '8', '9']","['1', '2', '3', '4']",1,2023.2.3,harveydigits,2.1,[],8,0.75,
7,digit,0.3,['dot'],['small_1'],black,0,394,394,394,,,140.3002369403839,140.01656103134155,140.3165318965912,"[[-0.04200353258199502, -0.30525127300323696]]",['DejaVu Sans'],[0.6],,,,N008,digit,5,"['6', '7', '8', '9']","['1', '2', '3', '4']",1,2023.2.3,harveydigits,2.1,[],8,0.75,
0,pause,0.4,None,None,None,0,395,395,395,,,,,,,,,,,,N008,digit,5,"['6', '7', '8', '9']","['1', '2', '3', '4']",1,2023.2.3,harveydigits,2.1,[],8,0.75,
8,digit,0.3,['dot'],['small_1'],black,0,396,396,396,,,141.0002498626709,140.71652603149414,141.01651096343994,"[[-0.22869871212993137, 0.22296295422477896]]",['DejaVu Sans'],[0.6],,,,N008,digit,5,"['6', '7', '8', '9']","['1', '2', '3', '4']",1,2023.2.3,harveydigits,2.1,[],8,0.75,
0,pause,0.4,None,None,None,0,397,397,397,,,,,,,,,,,,N008,digit,5,"['6', '7', '8', '9']","['1', '2', '3', '4']",1,2023.2.3,harveydigits,2.1,[],8,0.75,
8,digit,0.3,['dot'],['small_1'],black,0,398,398,398,,,141.7002329826355,141.41651797294617,141.71650886535645,"[[0.13320392896734645, 0.18962824939601147]]",['DejaVu Sans'],[0.6],,,,N008,digit,5,"['6', '7', '8', '9']","['1', '2', '3', '4']",1,2023.2.3,harveydigits,2.1,[],8,0.75,
0,pause,0.4,None,None,None,0,399,399,399,,,,,,,,,,,,N008,digit,5,"['6', '7', '8', '9']","['1', '2', '3', '4']",1,2023.2.3,harveydigits,2.1,[],8,0.75,
8,digit,0.3,['dot'],['small_1'],black,0,400,400,400,,,142.400249004364,142.11649298667908,142.41647291183472,"[[0.12447206155548096, -0.06734170961695285]]",['DejaVu Sans'],[0.6],,,,N008,digit,5,"['6', '7', '8', '9']","['1', '2', '3', '4']",1,2023.2.3,harveydigits,2.1,[],8,0.75,
0,pause,0.4,None,None,None,0,401,401,401,,,,,,,,,,,,N008,digit,5,"['6', '7', '8', '9']","['1', '2', '3', '4']",1,2023.2.3,harveydigits,2.1,[],8,0.75,
8,digit,0.3,['dot'],['small_1'],black,0,402,402,402,,,143.10023999214172,142.81841397285461,143.1164529323578,"[[0.07972482740599734, 0.19258383706493293]]",['DejaVu Sans'],[0.6],,,,N008,digit,5,"['6', '7', '8', '9']","['1', '2', '3', '4']",1,2023.2.3,harveydigits,2.1,[],8,0.75,
0,pause,0.4,None,None,None,0,403,403,403,,,,,,,,,,,,N008,digit,5,"['6', '7', '8', '9']","['1', '2', '3', '4']",1,2023.2.3,harveydigits,2.1,[],8,0.75,
8,digit,0.3,['dot'],['small_1'],black,0,404,404,404,,,143.8002209663391,143.5164589881897,143.81648302078247,"[[0.12341092094205658, -0.03722651814385031]]",['DejaVu Sans'],[0.6],,,,N008,digit,5,"['6', '7', '8', '9']","['1', '2', '3', '4']",1,2023.2.3,harveydigits,2.1,[],8,0.75,
0,pause,0.4,None,None,None,0,405,405,405,,,,,,,,,,,,N008,digit,5,"['6', '7', '8', '9']","['1', '2', '3', '4']",1,2023.2.3,harveydigits,2.1,[],8,0.75,
8,digit,0.3,['dot'],['small_1'],black,0,406,406,406,,,144.5002408027649,144.2164328098297,144.51642298698425,"[[0.012419714162320405, -0.001631262646268783]]",['DejaVu Sans'],[0.6],,,,N008,digit,5,"['6', '7', '8', '9']","['1', '2', '3', '4']",1,2023.2.3,harveydigits,2.1,[],8,0.75,
0,pause,0.4,None,None,None,0,407,407,407,,,,,,,,,,,,N008,digit,5,"['6', '7', '8', '9']","['1', '2', '3', '4']",1,2023.2.3,harveydigits,2.1,[],8,0.75,
9,digit,0.3,['dot'],['small_1'],black,0,408,408,408,,,145.20023202896118,144.91640400886536,145.2163918018341,"[[0.037233674897462044, 0.03077823602942731]]",['DejaVu Sans'],[0.6],,,,N008,digit,5,"['6', '7', '8', '9']","['1', '2', '3', '4']",1,2023.2.3,harveydigits,2.1,[],8,0.75,
0,pause,0.4,None,None,None,0,409,409,409,,,,,,,,,,,,N008,digit,5,"['6', '7', '8', '9']","['1', '2', '3', '4']",1,2023.2.3,harveydigits,2.1,[],8,0.75,
9,digit,0.3,['dot'],['small_1'],black,0,410,410,410,,,145.9002468585968,145.61641001701355,145.91638493537903,"[[0.2630500246251458, -0.12891434319769948]]",['DejaVu Sans'],[0.6],,,,N008,digit,5,"['6', '7', '8', '9']","['1', '2', '3', '4']",1,2023.2.3,harveydigits,2.1,[],8,0.75,
0,pause,0.4,None,None,None,0,411,411,411,,,,,,,,,,,,N008,digit,5,"['6', '7', '8', '9']","['1', '2', '3', '4']",1,2023.2.3,harveydigits,2.1,[],8,0.75,
9,digit,0.3,['dot'],['small_1'],black,0,412,412,412,,,146.60024690628052,146.31638884544373,146.61637496948242,"[[-0.019796811200618936, -0.23607632385790203]]",['DejaVu Sans'],[0.6],,,,N008,digit,5,"['6', '7', '8', '9']","['1', '2', '3', '4']",1,2023.2.3,harveydigits,2.1,[],8,0.75,
0,pause,0.4,None,None,None,0,413,413,413,,,,,,,,,,,,N008,digit,5,"['6', '7', '8', '9']","['1', '2', '3', '4']",1,2023.2.3,harveydigits,2.1,[],8,0.75,
9,digit,0.3,['dot'],['small_1'],black,0,414,414,414,,,147.3002519607544,147.01636481285095,147.31634497642517,"[[0.3438631384075852, 0.021594852035276904]]",['DejaVu Sans'],[0.6],,,,N008,digit,5,"['6', '7', '8', '9']","['1', '2', '3', '4']",1,2023.2.3,harveydigits,2.1,[],8,0.75,
0,pause,0.4,None,None,None,0,415,415,415,,,,,,,,,,,,N008,digit,5,"['6', '7', '8', '9']","['1', '2', '3', '4']",1,2023.2.3,harveydigits,2.1,[],8,0.75,
9,digit,0.3,['dot'],['small_1'],black,0,416,416,416,,,148.0002520084381,147.71635603904724,148.01633381843567,"[[-0.2773960687072771, -0.13565420586051424]]",['DejaVu Sans'],[0.6],,,,N008,digit,5,"['6', '7', '8', '9']","['1', '2', '3', '4']",1,2023.2.3,harveydigits,2.1,[],8,0.75,
0,pause,0.4,None,None,None,0,417,417,417,,,,,,,,,,,,N008,digit,5,"['6', '7', '8', '9']","['1', '2', '3', '4']",1,2023.2.3,harveydigits,2.1,[],8,0.75,
9,digit,0.3,['dot'],['small_1'],black,0,418,418,418,,,148.7002408504486,148.41633796691895,148.7163369655609,"[[0.13315130699501626, 0.3153271398867793]]",['DejaVu Sans'],[0.6],,,,N008,digit,5,"['6', '7', '8', '9']","['1', '2', '3', '4']",1,2023.2.3,harveydigits,2.1,[],8,0.75,
0,pause,0.4,None,None,None,0,419,419,419,,,,,,,,,,,,N008,digit,5,"['6', '7', '8', '9']","['1', '2', '3', '4']",1,2023.2.3,harveydigits,2.1,[],8,0.75,
20,digit,0.3,['dot'],['small_1'],black,0,420,420,420,,,149.400230884552,149.11632084846497,149.41630482673645,"[[-0.21011064954330008, 0.12066458438815231]]",['DejaVu Sans'],[0.6],,,,N008,digit,5,"['6', '7', '8', '9']","['1', '2', '3', '4']",1,2023.2.3,harveydigits,2.1,[],8,0.75,
0,pause,0.4,None,None,None,0,421,421,421,,,,,,,,,,,,N008,digit,5,"['6', '7', '8', '9']","['1', '2', '3', '4']",1,2023.2.3,harveydigits,2.1,[],8,0.75,
20,digit,0.3,['dot'],['small_1'],black,0,422,422,422,,,150.1002218723297,149.8163149356842,150.1162679195404,"[[-0.07827695215495195, 0.05503813377644401]]",['DejaVu Sans'],[0.6],,,,N008,digit,5,"['6', '7', '8', '9']","['1', '2', '3', '4']",1,2023.2.3,harveydigits,2.1,[],8,0.75,
0,pause,0.4,None,None,None,0,423,423,423,,,,,,,,,,,,N008,digit,5,"['6', '7', '8', '9']","['1', '2', '3', '4']",1,2023.2.3,harveydigits,2.1,[],8,0.75,
20,digit,0.3,['dot'],['small_1'],black,0,424,424,424,,,150.80023097991943,150.51627898216248,150.81625890731812,"[[-0.24510518710868565, -0.1540177354352662]]",['DejaVu Sans'],[0.6],,,,N008,digit,5,"['6', '7', '8', '9']","['1', '2', '3', '4']",1,2023.2.3,harveydigits,2.1,[],8,0.75,
0,pause,0.4,None,None,None,0,425,425,425,,,,,,,,,,,,N008,digit,5,"['6', '7', '8', '9']","['1', '2', '3', '4']",1,2023.2.3,harveydigits,2.1,[],8,0.75,
20,digit,0.3,['dot'],['small_1'],black,0,426,426,426,,,151.50022387504578,151.21623992919922,151.5172998905182,"[[0.15953116573285409, 0.08085824777491452]]",['DejaVu Sans'],[0.6],,,,N008,digit,5,"['6', '7', '8', '9']","['1', '2', '3', '4']",1,2023.2.3,harveydigits,2.1,[],8,0.75,
0,pause,0.4,None,None,None,0,427,427,427,,,,,,,,,,,,N008,digit,5,"['6', '7', '8', '9']","['1', '2', '3', '4']",1,2023.2.3,harveydigits,2.1,[],8,0.75,
20,digit,0.3,['dot'],['small_1'],black,0,428,428,428,,,152.2002308368683,151.91625094413757,152.21624088287354,"[[-0.1860094288609207, -0.14218261110717886]]",['DejaVu Sans'],[0.6],,,,N008,digit,5,"['6', '7', '8', '9']","['1', '2', '3', '4']",1,2023.2.3,harveydigits,2.1,[],8,0.75,
0,pause,0.4,None,None,None,0,429,429,429,,,,,,,,,,,,N008,digit,5,"['6', '7', '8', '9']","['1', '2', '3', '4']",1,2023.2.3,harveydigits,2.1,[],8,0.75,
20,digit,0.3,['dot'],['small_1'],black,0,430,430,430,,,152.90022492408752,152.61622595787048,152.91621088981628,"[[0.038749876390521354, -0.017899183910007277]]",['DejaVu Sans'],[0.6],,,,N008,digit,5,"['6', '7', '8', '9']","['1', '2', '3', '4']",1,2023.2.3,harveydigits,2.1,[],8,0.75,
0,pause,0.4,None,None,None,0,431,431,431,,,,,,,,,,,,N008,digit,5,"['6', '7', '8', '9']","['1', '2', '3', '4']",1,2023.2.3,harveydigits,2.1,[],8,0.75,
20,digit,0.3,['dot'],['small_1'],black,0,432,432,432,,,153.60023093223572,153.31622982025146,153.6161859035492,"[[0.313247923068415, -0.01203456595007632]]",['DejaVu Sans'],[0.6],,,,N008,digit,5,"['6', '7', '8', '9']","['1', '2', '3', '4']",1,2023.2.3,harveydigits,2.1,[],8,0.75,
0,pause,0.4,None,None,None,0,433,433,433,,,,,,,,,,,,N008,digit,5,"['6', '7', '8', '9']","['1', '2', '3', '4']",1,2023.2.3,harveydigits,2.1,[],8,0.75,
20,digit,0.3,['dot'],['small_1'],black,0,434,434,434,,,154.30024981498718,154.01619791984558,154.31619596481323,"[[0.09751081650494509, 0.007201535309806828]]",['DejaVu Sans'],[0.6],,,,N008,digit,5,"['6', '7', '8', '9']","['1', '2', '3', '4']",1,2023.2.3,harveydigits,2.1,[],8,0.75,
0,pause,0.4,None,None,None,0,435,435,435,,,,,,,,,,,,N008,digit,5,"['6', '7', '8', '9']","['1', '2', '3', '4']",1,2023.2.3,harveydigits,2.1,[],8,0.75,
20,digit,0.3,['dot'],['small_1'],black,0,436,436,436,,,155.0002679824829,154.71617889404297,155.01614785194397,"[[0.07736397825434271, -0.2896050844161003]]",['DejaVu Sans'],[0.6],,,,N008,digit,5,"['6', '7', '8', '9']","['1', '2', '3', '4']",1,2023.2.3,harveydigits,2.1,[],8,0.75,
0,pause,0.4,None,None,None,0,437,437,437,,,,,,,,,,,,N008,digit,5,"['6', '7', '8', '9']","['1', '2', '3', '4']",1,2023.2.3,harveydigits,2.1,[],8,0.75,
20,digit,0.3,['dot'],['small_1'],black,0,438,438,438,,,155.7002329826355,155.41614198684692,155.7161328792572,"[[0.12197290827887791, 0.3122596678097211]]",['DejaVu Sans'],[0.6],,,,N008,digit,5,"['6', '7', '8', '9']","['1', '2', '3', '4']",1,2023.2.3,harveydigits,2.1,[],8,0.75,
0,pause,0.4,None,None,None,0,439,439,439,,,,,,,,,,,,N008,digit,5,"['6', '7', '8', '9']","['1', '2', '3', '4']",1,2023.2.3,harveydigits,2.1,[],8,0.75,
20,digit,0.3,['dot'],['small_1'],black,0,440,440,440,,,156.4002468585968,156.1161389350891,156.41611003875732,"[[0.28877604297998427, -0.011180107789477978]]",['DejaVu Sans'],[0.6],,,,N008,digit,5,"['6', '7', '8', '9']","['1', '2', '3', '4']",1,2023.2.3,harveydigits,2.1,[],8,0.75,
0,pause,0.4,None,None,None,0,441,441,441,,,,,,,,,,,,N008,digit,5,"['6', '7', '8', '9']","['1', '2', '3', '4']",1,2023.2.3,harveydigits,2.1,[],8,0.75,
20,digit,0.3,['dot'],['small_1'],black,0,442,442,442,,,157.10022902488708,156.81612086296082,157.1160969734192,"[[-0.12938009315012497, -0.26973144273899535]]",['DejaVu Sans'],[0.6],,,,N008,digit,5,"['6', '7', '8', '9']","['1', '2', '3', '4']",1,2023.2.3,harveydigits,2.1,[],8,0.75,
0,pause,0.4,None,None,None,0,443,443,443,,,,,,,,,,,,N008,digit,5,"['6', '7', '8', '9']","['1', '2', '3', '4']",1,2023.2.3,harveydigits,2.1,[],8,0.75,
20,digit,0.3,['dot'],['small_1'],white,0,444,444,444,,,157.80022883415222,157.51609301567078,157.81606888771057,"[[0.03915369007505137, -0.3348348833732093]]",['DejaVu Sans'],[0.6],,,,N008,digit,5,"['6', '7', '8', '9']","['1', '2', '3', '4']",1,2023.2.3,harveydigits,2.1,[],8,0.75,
0,pause,0.4,None,None,None,0,445,445,445,,,,,,,,,,,,N008,digit,5,"['6', '7', '8', '9']","['1', '2', '3', '4']",1,2023.2.3,harveydigits,2.1,[],8,0.75,
20,digit,0.3,['dot'],['small_1'],white,0,446,446,446,,,158.50024890899658,158.21610283851624,158.5160779953003,"[[-0.3444244357856805, 0.015530634653559049]]",['DejaVu Sans'],[0.6],,,,N008,digit,5,"['6', '7', '8', '9']","['1', '2', '3', '4']",1,2023.2.3,harveydigits,2.1,[],8,0.75,
0,pause,0.4,None,None,None,0,447,447,447,,,,,,,,,,,,N008,digit,5,"['6', '7', '8', '9']","['1', '2', '3', '4']",1,2023.2.3,harveydigits,2.1,[],8,0.75,
20,digit,0.3,['dot'],['small_1'],white,0,448,448,448,,,159.2002398967743,158.9160590171814,159.21715903282166,"[[-0.07227421085937213, -0.295007940812682]]",['DejaVu Sans'],[0.6],,,,N008,digit,5,"['6', '7', '8', '9']","['1', '2', '3', '4']",1,2023.2.3,harveydigits,2.1,[],8,0.75,
0,pause,0.4,None,None,None,0,449,449,449,,,,,,,,,,,,N008,digit,5,"['6', '7', '8', '9']","['1', '2', '3', '4']",1,2023.2.3,harveydigits,2.1,[],8,0.75,
20,digit,0.3,['dot'],['small_1'],white,0,450,450,450,,,159.90023684501648,159.61603593826294,159.9159939289093,"[[-0.18768301420081923, -0.1721806149382099]]",['DejaVu Sans'],[0.6],,,,N008,digit,5,"['6', '7', '8', '9']","['1', '2', '3', '4']",1,2023.2.3,harveydigits,2.1,[],8,0.75,
0,pause,0.4,None,None,None,0,451,451,451,,,,,,,,,,,,N008,digit,5,"['6', '7', '8', '9']","['1', '2', '3', '4']",1,2023.2.3,harveydigits,2.1,[],8,0.75,
20,digit,0.3,['dot'],['small_1'],white,0,452,452,452,,,160.60024499893188,160.31601786613464,160.61601400375366,"[[0.09885330388953972, 0.21804895002580038]]",['DejaVu Sans'],[0.6],,,,N008,digit,5,"['6', '7', '8', '9']","['1', '2', '3', '4']",1,2023.2.3,harveydigits,2.1,[],8,0.75,
0,pause,0.4,None,None,None,0,453,453,453,,,,,,,,,,,,N008,digit,5,"['6', '7', '8', '9']","['1', '2', '3', '4']",1,2023.2.3,harveydigits,2.1,[],8,0.75,
20,digit,0.3,['dot'],['small_1'],white,0,454,454,454,,,161.30025601387024,161.01603984832764,161.31598782539368,"[[0.3179516329156966, 0.07476134257473]]",['DejaVu Sans'],[0.6],,,,N008,digit,5,"['6', '7', '8', '9']","['1', '2', '3', '4']",1,2023.2.3,harveydigits,2.1,[],8,0.75,
0,pause,0.4,None,None,None,0,455,455,455,,,,,,,,,,,,N008,digit,5,"['6', '7', '8', '9']","['1', '2', '3', '4']",1,2023.2.3,harveydigits,2.1,[],8,0.75,
20,digit,0.3,['dot'],['small_1'],black,0,456,456,456,,,162.00025391578674,161.71600794792175,162.01595997810364,"[[-0.297936531432932, 0.01588621211475616]]",['DejaVu Sans'],[0.6],,,,N008,digit,5,"['6', '7', '8', '9']","['1', '2', '3', '4']",1,2023.2.3,harveydigits,2.1,[],8,0.75,
0,pause,0.4,None,None,None,0,457,457,457,,,,,,,,,,,,N008,digit,5,"['6', '7', '8', '9']","['1', '2', '3', '4']",1,2023.2.3,harveydigits,2.1,[],8,0.75,
20,digit,0.3,['dot'],['small_1'],black,0,458,458,458,,,162.70024991035461,162.41597080230713,162.71597003936768,"[[-0.10451118840234022, -0.09142803996445334]]",['DejaVu Sans'],[0.6],,,,N008,digit,5,"['6', '7', '8', '9']","['1', '2', '3', '4']",1,2023.2.3,harveydigits,2.1,[],8,0.75,
0,pause,0.4,None,None,None,0,459,459,459,,,,,,,,,,,,N008,digit,5,"['6', '7', '8', '9']","['1', '2', '3', '4']",1,2023.2.3,harveydigits,2.1,[],8,0.75,
20,digit,0.3,['dot'],['small_1'],black,0,460,460,460,,,163.40022683143616,163.11595582962036,163.4159288406372,"[[0.2671479175010302, 0.10036040586545855]]",['DejaVu Sans'],[0.6],,,,N008,digit,5,"['6', '7', '8', '9']","['1', '2', '3', '4']",1,2023.2.3,harveydigits,2.1,[],8,0.75,
0,pause,0.4,None,None,None,0,461,461,461,,,,,,,,,,,,N008,digit,5,"['6', '7', '8', '9']","['1', '2', '3', '4']",1,2023.2.3,harveydigits,2.1,[],8,0.75,
20,digit,0.3,['dot'],['small_1'],black,0,462,462,462,,,164.1002538204193,163.81592893600464,164.11591792106628,"[[0.11284341338322806, 0.12301813099881587]]",['DejaVu Sans'],[0.6],,,,N008,digit,5,"['6', '7', '8', '9']","['1', '2', '3', '4']",1,2023.2.3,harveydigits,2.1,[],8,0.75,
0,pause,0.4,None,None,None,0,463,463,463,,,,,,,,,,,,N008,digit,5,"['6', '7', '8', '9']","['1', '2', '3', '4']",1,2023.2.3,harveydigits,2.1,[],8,0.75,
20,digit,0.3,['dot'],['small_1'],black,0,464,464,464,,,164.80025696754456,164.51640796661377,164.81591296195984,"[[-0.2446692735947248, 0.021373322041887854]]",['DejaVu Sans'],[0.6],,,,N008,digit,5,"['6', '7', '8', '9']","['1', '2', '3', '4']",1,2023.2.3,harveydigits,2.1,[],8,0.75,
0,pause,0.4,None,None,None,0,465,465,465,,,,,,,,,,,,N008,digit,5,"['6', '7', '8', '9']","['1', '2', '3', '4']",1,2023.2.3,harveydigits,2.1,[],8,0.75,
