num,mod,duration,shape,ll_cond,colors,.thisRepN,.thisTrialN,.thisN,.thisIndex,thisRow.t,notes,raw_global_time,t_start,t_stop,pos,fonts,size,button,answer,RT,participant,session,starting_run,left button (match/odd),right button (non-match/even),samples_per_block,psychopy version,expName,offset,audio,number_runs,radius,
1,digit,0.3,['dot'],['big_1'],black,0,0,0,0,,,2.4002039432525635,2.1024398803710938,2.402458906173706,"[[0.13574160091417384, -0.009649304698686995]]",['DejaVu Sans'],[0.9],,,,N008,digit,5,"['6', '7', '8', '9']","['1', '2', '3', '4']",1,2023.2.3,harveydigits,2.1,[],8,0.75,
0,pause,0.4,None,None,None,0,1,1,1,,,,,,,,,,,,N008,digit,5,"['6', '7', '8', '9']","['1', '2', '3', '4']",1,2023.2.3,harveydigits,2.1,[],8,0.75,
1,digit,0.3,['dot'],['big_1'],black,0,2,2,2,,,3.100214958190918,2.8022990226745605,3.1194188594818115,"[[-0.1746667327672087, -0.08370014301474561]]",['DejaVu Sans'],[0.9],,,,N008,digit,5,"['6', '7', '8', '9']","['1', '2', '3', '4']",1,2023.2.3,harveydigits,2.1,[],8,0.75,
0,pause,0.4,None,None,None,0,3,3,3,,,,,,,,,,,,N008,digit,5,"['6', '7', '8', '9']","['1', '2', '3', '4']",1,2023.2.3,harveydigits,2.1,[],8,0.75,
1,digit,0.3,['dot'],['big_1'],black,0,4,4,4,,,3.8002119064331055,3.5028140544891357,3.819406032562256,"[[-0.11785456866975114, -0.13403841576189673]]",['DejaVu Sans'],[0.9],,,,N008,digit,5,"['6', '7', '8', '9']","['1', '2', '3', '4']",1,2023.2.3,harveydigits,2.1,[],8,0.75,
0,pause,0.4,None,None,None,0,5,5,5,,,,,,,,,,,,N008,digit,5,"['6', '7', '8', '9']","['1', '2', '3', '4']",1,2023.2.3,harveydigits,2.1,[],8,0.75,
1,digit,0.3,['dot'],['big_1'],black,0,6,6,6,,,4.500213861465454,4.20276403427124,4.519425868988037,"[[-0.06298159912322587, 0.1812315117018565]]",['DejaVu Sans'],[0.9],,,,N008,digit,5,"['6', '7', '8', '9']","['1', '2', '3', '4']",1,2023.2.3,harveydigits,2.1,[],8,0.75,
0,pause,0.4,None,None,None,0,7,7,7,,,,,,,,,,,,N008,digit,5,"['6', '7', '8', '9']","['1', '2', '3', '4']",1,2023.2.3,harveydigits,2.1,[],8,0.75,
1,digit,0.3,['dot'],['big_1'],black,0,8,8,8,,,5.200193881988525,4.902719974517822,5.219403028488159,"[[-0.1366286657761442, 0.024982198317408305]]",['DejaVu Sans'],[0.9],,,,N008,digit,5,"['6', '7', '8', '9']","['1', '2', '3', '4']",1,2023.2.3,harveydigits,2.1,[],8,0.75,
0,pause,0.4,None,None,None,0,9,9,9,,,,,,,,,,,,N008,digit,5,"['6', '7', '8', '9']","['1', '2', '3', '4']",1,2023.2.3,harveydigits,2.1,[],8,0.75,
1,digit,0.3,['dot'],['big_1'],black,0,10,10,10,,,5.900193929672241,5.602741956710815,5.921688079833984,"[[0.017832482885847323, 0.022863626275497678]]",['DejaVu Sans'],[0.9],,,,N008,digit,5,"['6', '7', '8', '9']","['1', '2', '3', '4']",1,2023.2.3,harveydigits,2.1,[],8,0.75,
0,pause,0.4,None,None,None,0,11,11,11,,,,,,,,,,,,N008,digit,5,"['6', '7', '8', '9']","['1', '2', '3', '4']",1,2023.2.3,harveydigits,2.1,[],8,0.75,
2,digit,0.3,['dot'],['big_1'],black,0,12,12,12,,,6.60019588470459,6.304948091506958,6.62171196937561,"[[-0.13406299575335756, -0.13740972074225563]]",['DejaVu Sans'],[0.9],,,,N008,digit,5,"['6', '7', '8', '9']","['1', '2', '3', '4']",1,2023.2.3,harveydigits,2.1,[],8,0.75,
0,pause,0.4,None,None,None,0,13,13,13,,,,,,,,,,,,N008,digit,5,"['6', '7', '8', '9']","['1', '2', '3', '4']",1,2023.2.3,harveydigits,2.1,[],8,0.75,
2,digit,0.3,['dot'],['big_1'],black,0,14,14,14,,,7.300203084945679,7.006232023239136,7.321696996688843,"[[0.1288936346226119, 0.12875008412525932]]",['DejaVu Sans'],[0.9],,,,N008,digit,5,"['6', '7', '8', '9']","['1', '2', '3', '4']",1,2023.2.3,harveydigits,2.1,[],8,0.75,
0,pause,0.4,None,None,None,0,15,15,15,,,,,,,,,,,,N008,digit,5,"['6', '7', '8', '9']","['1', '2', '3', '4']",1,2023.2.3,harveydigits,2.1,[],8,0.75,
2,digit,0.3,['dot'],['big_1'],black,0,16,16,16,,,8.000205039978027,7.7049560546875,8.021682977676392,"[[-0.11954585063450376, -0.11521562892156499]]",['DejaVu Sans'],[0.9],,,,N008,digit,5,"['6', '7', '8', '9']","['1', '2', '3', '4']",1,2023.2.3,harveydigits,2.1,[],8,0.75,
0,pause,0.4,None,None,None,0,17,17,17,,,,,,,,,,,,N008,digit,5,"['6', '7', '8', '9']","['1', '2', '3', '4']",1,2023.2.3,harveydigits,2.1,[],8,0.75,
2,digit,0.3,['dot'],['big_1'],black,0,18,18,18,,,8.70019793510437,8.40487289428711,8.721638917922974,"[[-0.0803629513237471, 0.05746200918676181]]",['DejaVu Sans'],[0.9],,,,N008,digit,5,"['6', '7', '8', '9']","['1', '2', '3', '4']",1,2023.2.3,harveydigits,2.1,[],8,0.75,
0,pause,0.4,None,None,None,0,19,19,19,,,,,,,,,,,,N008,digit,5,"['6', '7', '8', '9']","['1', '2', '3', '4']",1,2023.2.3,harveydigits,2.1,[],8,0.75,
2,digit,0.3,['dot'],['big_1'],black,0,20,20,20,,,9.400215864181519,9.10490894317627,9.421633958816528,"[[0.07008171082400907, -0.007052543881440082]]",['DejaVu Sans'],[0.9],,,,N008,digit,5,"['6', '7', '8', '9']","['1', '2', '3', '4']",1,2023.2.3,harveydigits,2.1,[],8,0.75,
0,pause,0.4,None,None,None,0,21,21,21,,,,,,,,,,,,N008,digit,5,"['6', '7', '8', '9']","['1', '2', '3', '4']",1,2023.2.3,harveydigits,2.1,[],8,0.75,
2,digit,0.3,['dot'],['big_1'],black,0,22,22,22,,,10.100200891494751,9.80483889579773,10.121572017669678,"[[0.052929980474716726, 0.16252263096038919]]",['DejaVu Sans'],[0.9],,,,N008,digit,5,"['6', '7', '8', '9']","['1', '2', '3', '4']",1,2023.2.3,harveydigits,2.1,[],8,0.75,
0,pause,0.4,None,None,None,0,23,23,23,,,,,,,,,,,,N008,digit,5,"['6', '7', '8', '9']","['1', '2', '3', '4']",1,2023.2.3,harveydigits,2.1,[],8,0.75,
3,digit,0.3,['dot'],['big_1'],black,0,24,24,24,,,10.800214052200317,10.521549940109253,10.821538925170898,"[[-0.10148274740896332, 0.08986943311276441]]",['DejaVu Sans'],[0.9],,,,N008,digit,5,"['6', '7', '8', '9']","['1', '2', '3', '4']",1,2023.2.3,harveydigits,2.1,[],8,0.75,
0,pause,0.4,None,None,None,0,25,25,25,,,,,,,,,,,,N008,digit,5,"['6', '7', '8', '9']","['1', '2', '3', '4']",1,2023.2.3,harveydigits,2.1,[],8,0.75,
3,digit,0.3,['dot'],['big_1'],black,0,26,26,26,,,11.500207901000977,11.22154688835144,11.521537065505981,"[[0.016430720417298345, -0.0006702872724232145]]",['DejaVu Sans'],[0.9],,,,N008,digit,5,"['6', '7', '8', '9']","['1', '2', '3', '4']",1,2023.2.3,harveydigits,2.1,[],8,0.75,
0,pause,0.4,None,None,None,0,27,27,27,,,,,,,,,,,,N008,digit,5,"['6', '7', '8', '9']","['1', '2', '3', '4']",1,2023.2.3,harveydigits,2.1,[],8,0.75,
3,digit,0.3,['dot'],['big_1'],black,0,28,28,28,,,12.200205087661743,11.921536922454834,12.221529960632324,"[[0.115366277929461, -0.03674530073881238]]",['DejaVu Sans'],[0.9],,,,N008,digit,5,"['6', '7', '8', '9']","['1', '2', '3', '4']",1,2023.2.3,harveydigits,2.1,[],8,0.75,
0,pause,0.4,None,None,None,0,29,29,29,,,,,,,,,,,,N008,digit,5,"['6', '7', '8', '9']","['1', '2', '3', '4']",1,2023.2.3,harveydigits,2.1,[],8,0.75,
3,digit,0.3,['dot'],['big_1'],black,0,30,30,30,,,12.900218963623047,12.605921030044556,12.921494960784912,"[[0.15712057099790203, -0.11268388372037184]]",['DejaVu Sans'],[0.9],,,,N008,digit,5,"['6', '7', '8', '9']","['1', '2', '3', '4']",1,2023.2.3,harveydigits,2.1,[],8,0.75,
0,pause,0.4,None,None,None,0,31,31,31,,,,,,,,,,,,N008,digit,5,"['6', '7', '8', '9']","['1', '2', '3', '4']",1,2023.2.3,harveydigits,2.1,[],8,0.75,
3,digit,0.3,['dot'],['big_1'],black,0,32,32,32,,,13.600219011306763,13.321558952331543,13.621490001678467,"[[0.13646178756648988, -0.13233378296190082]]",['DejaVu Sans'],[0.9],,,,N008,digit,5,"['6', '7', '8', '9']","['1', '2', '3', '4']",1,2023.2.3,harveydigits,2.1,[],8,0.75,
0,pause,0.4,None,None,None,0,33,33,33,,,,,,,,,,,,N008,digit,5,"['6', '7', '8', '9']","['1', '2', '3', '4']",1,2023.2.3,harveydigits,2.1,[],8,0.75,
3,digit,0.3,['dot'],['big_1'],black,0,34,34,34,,,14.300198078155518,14.021491050720215,14.321465015411377,"[[0.17101128568746501, -0.02225929173074244]]",['DejaVu Sans'],[0.9],,,,N008,digit,5,"['6', '7', '8', '9']","['1', '2', '3', '4']",1,2023.2.3,harveydigits,2.1,[],8,0.75,
0,pause,0.4,None,None,None,0,35,35,35,,,,,,,,,,,,N008,digit,5,"['6', '7', '8', '9']","['1', '2', '3', '4']",1,2023.2.3,harveydigits,2.1,[],8,0.75,
4,digit,0.3,['dot'],['big_1'],black,0,36,36,36,,,15.000211954116821,14.721463918685913,15.02151608467102,"[[-0.18883976738945696, 0.02922618184365991]]",['DejaVu Sans'],[0.9],,,,N008,digit,5,"['6', '7', '8', '9']","['1', '2', '3', '4']",1,2023.2.3,harveydigits,2.1,[],8,0.75,
0,pause,0.4,None,None,None,0,37,37,37,,,,,,,,,,,,N008,digit,5,"['6', '7', '8', '9']","['1', '2', '3', '4']",1,2023.2.3,harveydigits,2.1,[],8,0.75,
4,digit,0.3,['dot'],['big_1'],black,0,38,38,38,,,15.700200080871582,15.421446084976196,15.721428871154785,"[[0.11634945864703786, 0.10832009755140679]]",['DejaVu Sans'],[0.9],,,,N008,digit,5,"['6', '7', '8', '9']","['1', '2', '3', '4']",1,2023.2.3,harveydigits,2.1,[],8,0.75,
0,pause,0.4,None,None,None,0,39,39,39,,,,,,,,,,,,N008,digit,5,"['6', '7', '8', '9']","['1', '2', '3', '4']",1,2023.2.3,harveydigits,2.1,[],8,0.75,
4,digit,0.3,['dot'],['big_1'],black,0,40,40,40,,,16.400214910507202,16.121427059173584,16.42140793800354,"[[-0.15785413945063811, -0.06723489475486606]]",['DejaVu Sans'],[0.9],,,,N008,digit,5,"['6', '7', '8', '9']","['1', '2', '3', '4']",1,2023.2.3,harveydigits,2.1,[],8,0.75,
0,pause,0.4,None,None,None,0,41,41,41,,,,,,,,,,,,N008,digit,5,"['6', '7', '8', '9']","['1', '2', '3', '4']",1,2023.2.3,harveydigits,2.1,[],8,0.75,
4,digit,0.3,['dot'],['big_1'],black,0,42,42,42,,,17.10022497177124,16.82146406173706,17.121591091156006,"[[0.12219646185192859, -0.07667051166405264]]",['DejaVu Sans'],[0.9],,,,N008,digit,5,"['6', '7', '8', '9']","['1', '2', '3', '4']",1,2023.2.3,harveydigits,2.1,[],8,0.75,
0,pause,0.4,None,None,None,0,43,43,43,,,,,,,,,,,,N008,digit,5,"['6', '7', '8', '9']","['1', '2', '3', '4']",1,2023.2.3,harveydigits,2.1,[],8,0.75,
4,digit,0.3,['dot'],['big_1'],black,0,44,44,44,,,17.80019497871399,17.521373987197876,17.821351051330566,"[[0.15686536378016883, -0.025194098163096673]]",['DejaVu Sans'],[0.9],,,,N008,digit,5,"['6', '7', '8', '9']","['1', '2', '3', '4']",1,2023.2.3,harveydigits,2.1,[],8,0.75,
0,pause,0.4,None,None,None,0,45,45,45,,,,,,,,,,,,N008,digit,5,"['6', '7', '8', '9']","['1', '2', '3', '4']",1,2023.2.3,harveydigits,2.1,[],8,0.75,
4,digit,0.3,['dot'],['big_1'],black,0,46,46,46,,,18.500205039978027,18.221370935440063,18.521350860595703,"[[0.044239370755767476, -0.007599650465699048]]",['DejaVu Sans'],[0.9],,,,N008,digit,5,"['6', '7', '8', '9']","['1', '2', '3', '4']",1,2023.2.3,harveydigits,2.1,[],8,0.75,
0,pause,0.4,None,None,None,0,47,47,47,,,,,,,,,,,,N008,digit,5,"['6', '7', '8', '9']","['1', '2', '3', '4']",1,2023.2.3,harveydigits,2.1,[],8,0.75,
5,digit,0.3,['dot'],['big_1'],white,0,48,48,48,,,19.20020604133606,18.921437978744507,19.221389055252075,"[[-0.16512523288775507, -0.026202958752375896]]",['DejaVu Sans'],[0.9],,,,N008,digit,5,"['6', '7', '8', '9']","['1', '2', '3', '4']",1,2023.2.3,harveydigits,2.1,[],8,0.75,
0,pause,0.4,None,None,None,0,49,49,49,,,,,,,,,,,,N008,digit,5,"['6', '7', '8', '9']","['1', '2', '3', '4']",1,2023.2.3,harveydigits,2.1,[],8,0.75,
5,digit,0.3,['dot'],['big_1'],white,0,50,50,50,,,19.900228023529053,19.621368885040283,19.92132306098938,"[[0.17748306045315956, -0.0516717814792948]]",['DejaVu Sans'],[0.9],left,odd,19.654290914535522,N008,digit,5,"['6', '7', '8', '9']","['1', '2', '3', '4']",1,2023.2.3,harveydigits,2.1,[],8,0.75,
0,pause,0.4,None,None,None,0,51,51,51,,,,,,,,,,,,N008,digit,5,"['6', '7', '8', '9']","['1', '2', '3', '4']",1,2023.2.3,harveydigits,2.1,[],8,0.75,
5,digit,0.3,['dot'],['big_1'],white,0,52,52,52,,,20.60020399093628,20.32132887840271,20.621299028396606,"[[-0.006292971468169706, -0.1617689097769411]]",['DejaVu Sans'],[0.9],,,,N008,digit,5,"['6', '7', '8', '9']","['1', '2', '3', '4']",1,2023.2.3,harveydigits,2.1,[],8,0.75,
0,pause,0.4,None,None,None,0,53,53,53,,,,,,,,,,,,N008,digit,5,"['6', '7', '8', '9']","['1', '2', '3', '4']",1,2023.2.3,harveydigits,2.1,[],8,0.75,
5,digit,0.3,['dot'],['big_1'],white,0,54,54,54,,,21.300206899642944,21.021274089813232,21.321271896362305,"[[0.1299177782210814, 0.07978561167723391]]",['DejaVu Sans'],[0.9],,,,N008,digit,5,"['6', '7', '8', '9']","['1', '2', '3', '4']",1,2023.2.3,harveydigits,2.1,[],8,0.75,
0,pause,0.4,None,None,None,0,55,55,55,,,,,,,,,,,,N008,digit,5,"['6', '7', '8', '9']","['1', '2', '3', '4']",1,2023.2.3,harveydigits,2.1,[],8,0.75,
5,digit,0.3,['dot'],['big_1'],white,0,56,56,56,,,22.000221014022827,21.721268892288208,22.021254062652588,"[[-0.02825884461385586, 0.19250037282708973]]",['DejaVu Sans'],[0.9],,,,N008,digit,5,"['6', '7', '8', '9']","['1', '2', '3', '4']",1,2023.2.3,harveydigits,2.1,[],8,0.75,
0,pause,0.4,None,None,None,0,57,57,57,,,,,,,,,,,,N008,digit,5,"['6', '7', '8', '9']","['1', '2', '3', '4']",1,2023.2.3,harveydigits,2.1,[],8,0.75,
5,digit,0.3,['dot'],['big_1'],white,0,58,58,58,,,22.700210094451904,22.421252965927124,22.721229076385498,"[[-0.15644533338619068, -0.07445896498293164]]",['DejaVu Sans'],[0.9],,,,N008,digit,5,"['6', '7', '8', '9']","['1', '2', '3', '4']",1,2023.2.3,harveydigits,2.1,[],8,0.75,
0,pause,0.4,None,None,None,0,59,59,59,,,,,,,,,,,,N008,digit,5,"['6', '7', '8', '9']","['1', '2', '3', '4']",1,2023.2.3,harveydigits,2.1,[],8,0.75,
6,digit,0.3,['dot'],['big_1'],black,0,60,60,60,,,23.400202989578247,23.12123203277588,23.421228885650635,"[[-0.150553322248046, 0.10784814759312544]]",['DejaVu Sans'],[0.9],,,,N008,digit,5,"['6', '7', '8', '9']","['1', '2', '3', '4']",1,2023.2.3,harveydigits,2.1,[],8,0.75,
0,pause,0.4,None,None,None,0,61,61,61,,,,,,,,,,,,N008,digit,5,"['6', '7', '8', '9']","['1', '2', '3', '4']",1,2023.2.3,harveydigits,2.1,[],8,0.75,
6,digit,0.3,['dot'],['big_1'],black,0,62,62,62,,,24.1001980304718,23.82122802734375,24.12120008468628,"[[-0.17142946653059177, -0.07993773378414373]]",['DejaVu Sans'],[0.9],,,,N008,digit,5,"['6', '7', '8', '9']","['1', '2', '3', '4']",1,2023.2.3,harveydigits,2.1,[],8,0.75,
0,pause,0.4,None,None,None,0,63,63,63,,,,,,,,,,,,N008,digit,5,"['6', '7', '8', '9']","['1', '2', '3', '4']",1,2023.2.3,harveydigits,2.1,[],8,0.75,
6,digit,0.3,['dot'],['big_1'],black,0,64,64,64,,,24.800199031829834,24.52124309539795,24.82124090194702,"[[0.10187306259517279, 0.10776734647091946]]",['DejaVu Sans'],[0.9],,,,N008,digit,5,"['6', '7', '8', '9']","['1', '2', '3', '4']",1,2023.2.3,harveydigits,2.1,[],8,0.75,
0,pause,0.4,None,None,None,0,65,65,65,,,,,,,,,,,,N008,digit,5,"['6', '7', '8', '9']","['1', '2', '3', '4']",1,2023.2.3,harveydigits,2.1,[],8,0.75,
6,digit,0.3,['dot'],['big_1'],black,0,66,66,66,,,25.500216007232666,25.22125005722046,25.521183967590332,"[[-0.17414243906183835, -0.061378246491210035]]",['DejaVu Sans'],[0.9],,,,N008,digit,5,"['6', '7', '8', '9']","['1', '2', '3', '4']",1,2023.2.3,harveydigits,2.1,[],8,0.75,
0,pause,0.4,None,None,None,0,67,67,67,,,,,,,,,,,,N008,digit,5,"['6', '7', '8', '9']","['1', '2', '3', '4']",1,2023.2.3,harveydigits,2.1,[],8,0.75,
6,digit,0.3,['dot'],['big_1'],black,0,68,68,68,,,26.200214862823486,25.921177864074707,26.22115707397461,"[[-0.05354384423986941, 0.1631300722742521]]",['DejaVu Sans'],[0.9],,,,N008,digit,5,"['6', '7', '8', '9']","['1', '2', '3', '4']",1,2023.2.3,harveydigits,2.1,[],8,0.75,
0,pause,0.4,None,None,None,0,69,69,69,,,,,,,,,,,,N008,digit,5,"['6', '7', '8', '9']","['1', '2', '3', '4']",1,2023.2.3,harveydigits,2.1,[],8,0.75,
6,digit,0.3,['dot'],['big_1'],black,0,70,70,70,,,26.900219917297363,26.621142864227295,26.921199083328247,"[[-0.10773072301140112, 0.0019084352987156217]]",['DejaVu Sans'],[0.9],,,,N008,digit,5,"['6', '7', '8', '9']","['1', '2', '3', '4']",1,2023.2.3,harveydigits,2.1,[],8,0.75,
0,pause,0.4,None,None,None,0,71,71,71,,,,,,,,,,,,N008,digit,5,"['6', '7', '8', '9']","['1', '2', '3', '4']",1,2023.2.3,harveydigits,2.1,[],8,0.75,
7,digit,0.3,['dot'],['big_1'],black,0,72,72,72,,,27.600202083587646,27.321131944656372,27.62110996246338,"[[0.07975942846940001, 0.06392019239450056]]",['DejaVu Sans'],[0.9],,,,N008,digit,5,"['6', '7', '8', '9']","['1', '2', '3', '4']",1,2023.2.3,harveydigits,2.1,[],8,0.75,
0,pause,0.4,None,None,None,0,73,73,73,,,,,,,,,,,,N008,digit,5,"['6', '7', '8', '9']","['1', '2', '3', '4']",1,2023.2.3,harveydigits,2.1,[],8,0.75,
7,digit,0.3,['dot'],['big_1'],black,0,74,74,74,,,28.300195932388306,28.021118879318237,28.32110285758972,"[[-0.16840144647992797, 0.07072816224273944]]",['DejaVu Sans'],[0.9],,,,N008,digit,5,"['6', '7', '8', '9']","['1', '2', '3', '4']",1,2023.2.3,harveydigits,2.1,[],8,0.75,
0,pause,0.4,None,None,None,0,75,75,75,,,,,,,,,,,,N008,digit,5,"['6', '7', '8', '9']","['1', '2', '3', '4']",1,2023.2.3,harveydigits,2.1,[],8,0.75,
7,digit,0.3,['dot'],['big_1'],black,0,76,76,76,,,29.000213861465454,28.72110605239868,29.0210599899292,"[[-0.18101164870635744, 0.026292439237874277]]",['DejaVu Sans'],[0.9],,,,N008,digit,5,"['6', '7', '8', '9']","['1', '2', '3', '4']",1,2023.2.3,harveydigits,2.1,[],8,0.75,
0,pause,0.4,None,None,None,0,77,77,77,,,,,,,,,,,,N008,digit,5,"['6', '7', '8', '9']","['1', '2', '3', '4']",1,2023.2.3,harveydigits,2.1,[],8,0.75,
7,digit,0.3,['dot'],['big_1'],black,0,78,78,78,,,29.7002170085907,29.42108702659607,29.721123933792114,"[[-0.14807238286759733, 0.017302242477022944]]",['DejaVu Sans'],[0.9],,,,N008,digit,5,"['6', '7', '8', '9']","['1', '2', '3', '4']",1,2023.2.3,harveydigits,2.1,[],8,0.75,
0,pause,0.4,None,None,None,0,79,79,79,,,,,,,,,,,,N008,digit,5,"['6', '7', '8', '9']","['1', '2', '3', '4']",1,2023.2.3,harveydigits,2.1,[],8,0.75,
7,digit,0.3,['dot'],['big_1'],black,0,80,80,80,,,30.40022301673889,30.121083974838257,30.421082019805908,"[[0.11880029705473735, -0.1326751550061614]]",['DejaVu Sans'],[0.9],,,,N008,digit,5,"['6', '7', '8', '9']","['1', '2', '3', '4']",1,2023.2.3,harveydigits,2.1,[],8,0.75,
0,pause,0.4,None,None,None,0,81,81,81,,,,,,,,,,,,N008,digit,5,"['6', '7', '8', '9']","['1', '2', '3', '4']",1,2023.2.3,harveydigits,2.1,[],8,0.75,
7,digit,0.3,['dot'],['big_1'],black,0,82,82,82,,,31.10020089149475,30.82119107246399,31.121217012405396,"[[-0.04337477777418988, 0.01700020028983787]]",['DejaVu Sans'],[0.9],,,,N008,digit,5,"['6', '7', '8', '9']","['1', '2', '3', '4']",1,2023.2.3,harveydigits,2.1,[],8,0.75,
0,pause,0.4,None,None,None,0,83,83,83,,,,,,,,,,,,N008,digit,5,"['6', '7', '8', '9']","['1', '2', '3', '4']",1,2023.2.3,harveydigits,2.1,[],8,0.75,
8,digit,0.3,['dot'],['big_1'],black,0,84,84,84,,,31.800220012664795,31.521080017089844,31.821043014526367,"[[0.16148244257184938, -0.09631029384604249]]",['DejaVu Sans'],[0.9],,,,N008,digit,5,"['6', '7', '8', '9']","['1', '2', '3', '4']",1,2023.2.3,harveydigits,2.1,[],8,0.75,
0,pause,0.4,None,None,None,0,85,85,85,,,,,,,,,,,,N008,digit,5,"['6', '7', '8', '9']","['1', '2', '3', '4']",1,2023.2.3,harveydigits,2.1,[],8,0.75,
8,digit,0.3,['dot'],['big_1'],black,0,86,86,86,,,32.50021505355835,32.221216917037964,32.520997047424316,"[[0.10020570855034658, 0.030005498165708328]]",['DejaVu Sans'],[0.9],,,,N008,digit,5,"['6', '7', '8', '9']","['1', '2', '3', '4']",1,2023.2.3,harveydigits,2.1,[],8,0.75,
0,pause,0.4,None,None,None,0,87,87,87,,,,,,,,,,,,N008,digit,5,"['6', '7', '8', '9']","['1', '2', '3', '4']",1,2023.2.3,harveydigits,2.1,[],8,0.75,
8,digit,0.3,['dot'],['big_1'],black,0,88,88,88,,,33.200201988220215,32.92100191116333,33.22096395492554,"[[0.1632220176350301, 0.04059915731172095]]",['DejaVu Sans'],[0.9],,,,N008,digit,5,"['6', '7', '8', '9']","['1', '2', '3', '4']",1,2023.2.3,harveydigits,2.1,[],8,0.75,
0,pause,0.4,None,None,None,0,89,89,89,,,,,,,,,,,,N008,digit,5,"['6', '7', '8', '9']","['1', '2', '3', '4']",1,2023.2.3,harveydigits,2.1,[],8,0.75,
8,digit,0.3,['dot'],['big_1'],black,0,90,90,90,,,33.90022087097168,33.62094187736511,33.92093801498413,"[[-0.1379590771455431, -0.0775962821600639]]",['DejaVu Sans'],[0.9],,,,N008,digit,5,"['6', '7', '8', '9']","['1', '2', '3', '4']",1,2023.2.3,harveydigits,2.1,[],8,0.75,
0,pause,0.4,None,None,None,0,91,91,91,,,,,,,,,,,,N008,digit,5,"['6', '7', '8', '9']","['1', '2', '3', '4']",1,2023.2.3,harveydigits,2.1,[],8,0.75,
8,digit,0.3,['dot'],['big_1'],black,0,92,92,92,,,34.600199937820435,34.32094192504883,34.62090301513672,"[[0.09698097462461011, 0.07925609111332127]]",['DejaVu Sans'],[0.9],,,,N008,digit,5,"['6', '7', '8', '9']","['1', '2', '3', '4']",1,2023.2.3,harveydigits,2.1,[],8,0.75,
0,pause,0.4,None,None,None,0,93,93,93,,,,,,,,,,,,N008,digit,5,"['6', '7', '8', '9']","['1', '2', '3', '4']",1,2023.2.3,harveydigits,2.1,[],8,0.75,
8,digit,0.3,['dot'],['big_1'],black,0,94,94,94,,,35.300204038619995,35.02095007896423,35.32091403007507,"[[-0.19856497615323868, -0.01867812865346448]]",['DejaVu Sans'],[0.9],,,,N008,digit,5,"['6', '7', '8', '9']","['1', '2', '3', '4']",1,2023.2.3,harveydigits,2.1,[],8,0.75,
0,pause,0.4,None,None,None,0,95,95,95,,,,,,,,,,,,N008,digit,5,"['6', '7', '8', '9']","['1', '2', '3', '4']",1,2023.2.3,harveydigits,2.1,[],8,0.75,
9,digit,0.3,['dot'],['big_1'],black,0,96,96,96,,,36.00020503997803,35.72089505195618,36.02090001106262,"[[-0.11206381011483177, 0.14008816797084497]]",['DejaVu Sans'],[0.9],,,,N008,digit,5,"['6', '7', '8', '9']","['1', '2', '3', '4']",1,2023.2.3,harveydigits,2.1,[],8,0.75,
0,pause,0.4,None,None,None,0,97,97,97,,,,,,,,,,,,N008,digit,5,"['6', '7', '8', '9']","['1', '2', '3', '4']",1,2023.2.3,harveydigits,2.1,[],8,0.75,
9,digit,0.3,['dot'],['big_1'],black,0,98,98,98,,,36.70021295547485,36.42089796066284,36.7209210395813,"[[-0.012622332223452576, -0.1745794642830687]]",['DejaVu Sans'],[0.9],,,,N008,digit,5,"['6', '7', '8', '9']","['1', '2', '3', '4']",1,2023.2.3,harveydigits,2.1,[],8,0.75,
0,pause,0.4,None,None,None,0,99,99,99,,,,,,,,,,,,N008,digit,5,"['6', '7', '8', '9']","['1', '2', '3', '4']",1,2023.2.3,harveydigits,2.1,[],8,0.75,
9,digit,0.3,['dot'],['big_1'],black,0,100,100,100,,,37.400217056274414,37.120882987976074,37.42087697982788,"[[-0.19089991321230967, 0.0038672974344212893]]",['DejaVu Sans'],[0.9],,,,N008,digit,5,"['6', '7', '8', '9']","['1', '2', '3', '4']",1,2023.2.3,harveydigits,2.1,[],8,0.75,
0,pause,0.4,None,None,None,0,101,101,101,,,,,,,,,,,,N008,digit,5,"['6', '7', '8', '9']","['1', '2', '3', '4']",1,2023.2.3,harveydigits,2.1,[],8,0.75,
9,digit,0.3,['dot'],['big_1'],black,0,102,102,102,,,38.10022306442261,37.8208589553833,38.12085795402527,"[[-0.11899127896377432, 0.12342245174472877]]",['DejaVu Sans'],[0.9],,,,N008,digit,5,"['6', '7', '8', '9']","['1', '2', '3', '4']",1,2023.2.3,harveydigits,2.1,[],8,0.75,
0,pause,0.4,None,None,None,0,103,103,103,,,,,,,,,,,,N008,digit,5,"['6', '7', '8', '9']","['1', '2', '3', '4']",1,2023.2.3,harveydigits,2.1,[],8,0.75,
9,digit,0.3,['dot'],['big_1'],black,0,104,104,104,,,38.80021691322327,38.52085900306702,38.820838928222656,"[[0.02642622931495006, 0.07265397299128704]]",['DejaVu Sans'],[0.9],,,,N008,digit,5,"['6', '7', '8', '9']","['1', '2', '3', '4']",1,2023.2.3,harveydigits,2.1,[],8,0.75,
0,pause,0.4,None,None,None,0,105,105,105,,,,,,,,,,,,N008,digit,5,"['6', '7', '8', '9']","['1', '2', '3', '4']",1,2023.2.3,harveydigits,2.1,[],8,0.75,
9,digit,0.3,['dot'],['big_1'],black,0,106,106,106,,,39.50021004676819,39.22080397605896,39.52078604698181,"[[0.14144718086009714, 0.08923280352152943]]",['DejaVu Sans'],[0.9],,,,N008,digit,5,"['6', '7', '8', '9']","['1', '2', '3', '4']",1,2023.2.3,harveydigits,2.1,[],8,0.75,
0,pause,0.4,None,None,None,0,107,107,107,,,,,,,,,,,,N008,digit,5,"['6', '7', '8', '9']","['1', '2', '3', '4']",1,2023.2.3,harveydigits,2.1,[],8,0.75,
20,digit,0.3,['dot'],['big_1'],black,0,108,108,108,,,40.200217962265015,39.92079496383667,40.220792055130005,"[[0.11508542535719082, 0.13310385927760573]]",['DejaVu Sans'],[0.9],,,,N008,digit,5,"['6', '7', '8', '9']","['1', '2', '3', '4']",1,2023.2.3,harveydigits,2.1,[],8,0.75,
0,pause,0.4,None,None,None,0,109,109,109,,,,,,,,,,,,N008,digit,5,"['6', '7', '8', '9']","['1', '2', '3', '4']",1,2023.2.3,harveydigits,2.1,[],8,0.75,
20,digit,0.3,['dot'],['big_1'],black,0,110,110,110,,,40.900217056274414,40.620792865753174,40.92076086997986,"[[0.03119736174859336, 0.03132101404661447]]",['DejaVu Sans'],[0.9],,,,N008,digit,5,"['6', '7', '8', '9']","['1', '2', '3', '4']",1,2023.2.3,harveydigits,2.1,[],8,0.75,
0,pause,0.4,None,None,None,0,111,111,111,,,,,,,,,,,,N008,digit,5,"['6', '7', '8', '9']","['1', '2', '3', '4']",1,2023.2.3,harveydigits,2.1,[],8,0.75,
20,digit,0.3,['dot'],['big_1'],black,0,112,112,112,,,41.600208044052124,41.320761919021606,41.62074589729309,"[[-0.043603715170086405, -0.04477253568350256]]",['DejaVu Sans'],[0.9],,,,N008,digit,5,"['6', '7', '8', '9']","['1', '2', '3', '4']",1,2023.2.3,harveydigits,2.1,[],8,0.75,
0,pause,0.4,None,None,None,0,113,113,113,,,,,,,,,,,,N008,digit,5,"['6', '7', '8', '9']","['1', '2', '3', '4']",1,2023.2.3,harveydigits,2.1,[],8,0.75,
20,digit,0.3,['dot'],['big_1'],black,0,114,114,114,,,42.30020308494568,42.020719051361084,42.32162690162659,"[[-0.028806394128227775, -0.07682332019211326]]",['DejaVu Sans'],[0.9],,,,N008,digit,5,"['6', '7', '8', '9']","['1', '2', '3', '4']",1,2023.2.3,harveydigits,2.1,[],8,0.75,
0,pause,0.4,None,None,None,0,115,115,115,,,,,,,,,,,,N008,digit,5,"['6', '7', '8', '9']","['1', '2', '3', '4']",1,2023.2.3,harveydigits,2.1,[],8,0.75,
20,digit,0.3,['dot'],['big_1'],black,0,116,116,116,,,43.00020098686218,42.720913887023926,43.02072095870972,"[[0.02850050796311815, 0.03270445384209514]]",['DejaVu Sans'],[0.9],,,,N008,digit,5,"['6', '7', '8', '9']","['1', '2', '3', '4']",1,2023.2.3,harveydigits,2.1,[],8,0.75,
0,pause,0.4,None,None,None,0,117,117,117,,,,,,,,,,,,N008,digit,5,"['6', '7', '8', '9']","['1', '2', '3', '4']",1,2023.2.3,harveydigits,2.1,[],8,0.75,
20,digit,0.3,['dot'],['big_1'],black,0,118,118,118,,,43.70020508766174,43.42074799537659,43.720731019973755,"[[-0.09290551659079428, -0.008047208926004912]]",['DejaVu Sans'],[0.9],,,,N008,digit,5,"['6', '7', '8', '9']","['1', '2', '3', '4']",1,2023.2.3,harveydigits,2.1,[],8,0.75,
0,pause,0.4,None,None,None,0,119,119,119,,,,,,,,,,,,N008,digit,5,"['6', '7', '8', '9']","['1', '2', '3', '4']",1,2023.2.3,harveydigits,2.1,[],8,0.75,
20,digit,0.3,['dot'],['big_1'],black,0,120,120,120,,,44.40021109580994,44.12071394920349,44.42072796821594,"[[0.13117018799310912, 0.02710024840017186]]",['DejaVu Sans'],[0.9],,,,N008,digit,5,"['6', '7', '8', '9']","['1', '2', '3', '4']",1,2023.2.3,harveydigits,2.1,[],8,0.75,
0,pause,0.4,None,None,None,0,121,121,121,,,,,,,,,,,,N008,digit,5,"['6', '7', '8', '9']","['1', '2', '3', '4']",1,2023.2.3,harveydigits,2.1,[],8,0.75,
20,digit,0.3,['dot'],['big_1'],black,0,122,122,122,,,45.1002140045166,44.82069802284241,45.12066888809204,"[[-0.05009669559269109, -0.018460244075548]]",['DejaVu Sans'],[0.9],,,,N008,digit,5,"['6', '7', '8', '9']","['1', '2', '3', '4']",1,2023.2.3,harveydigits,2.1,[],8,0.75,
0,pause,0.4,None,None,None,0,123,123,123,,,,,,,,,,,,N008,digit,5,"['6', '7', '8', '9']","['1', '2', '3', '4']",1,2023.2.3,harveydigits,2.1,[],8,0.75,
20,digit,0.3,['dot'],['big_1'],black,0,124,124,124,,,45.80020499229431,45.520681858062744,45.82063007354736,"[[-0.08766294680636631, -0.030806392797957605]]",['DejaVu Sans'],[0.9],,,,N008,digit,5,"['6', '7', '8', '9']","['1', '2', '3', '4']",1,2023.2.3,harveydigits,2.1,[],8,0.75,
0,pause,0.4,None,None,None,0,125,125,125,,,,,,,,,,,,N008,digit,5,"['6', '7', '8', '9']","['1', '2', '3', '4']",1,2023.2.3,harveydigits,2.1,[],8,0.75,
20,digit,0.3,['dot'],['big_1'],black,0,126,126,126,,,46.50022006034851,46.22063994407654,46.520684003829956,"[[-0.05220914377276248, 0.04462144518437447]]",['DejaVu Sans'],[0.9],,,,N008,digit,5,"['6', '7', '8', '9']","['1', '2', '3', '4']",1,2023.2.3,harveydigits,2.1,[],8,0.75,
0,pause,0.4,None,None,None,0,127,127,127,,,,,,,,,,,,N008,digit,5,"['6', '7', '8', '9']","['1', '2', '3', '4']",1,2023.2.3,harveydigits,2.1,[],8,0.75,
20,digit,0.3,['dot'],['big_1'],black,0,128,128,128,,,47.2002170085907,46.92065691947937,47.2205970287323,"[[0.02249010286899672, 0.035211439736411165]]",['DejaVu Sans'],[0.9],,,,N008,digit,5,"['6', '7', '8', '9']","['1', '2', '3', '4']",1,2023.2.3,harveydigits,2.1,[],8,0.75,
0,pause,0.4,None,None,None,0,129,129,129,,,,,,,,,,,,N008,digit,5,"['6', '7', '8', '9']","['1', '2', '3', '4']",1,2023.2.3,harveydigits,2.1,[],8,0.75,
20,digit,0.3,['dot'],['big_1'],black,0,130,130,130,,,47.90020298957825,47.62058687210083,47.92057490348816,"[[-0.1504692769472773, 0.02508556496951278]]",['DejaVu Sans'],[0.9],,,,N008,digit,5,"['6', '7', '8', '9']","['1', '2', '3', '4']",1,2023.2.3,harveydigits,2.1,[],8,0.75,
0,pause,0.4,None,None,None,0,131,131,131,,,,,,,,,,,,N008,digit,5,"['6', '7', '8', '9']","['1', '2', '3', '4']",1,2023.2.3,harveydigits,2.1,[],8,0.75,
20,digit,0.3,['dot'],['big_1'],black,0,132,132,132,,,48.60020709037781,48.32061290740967,48.62058401107788,"[[0.1835862430417847, 0.07437882849080442]]",['DejaVu Sans'],[0.9],,,,N008,digit,5,"['6', '7', '8', '9']","['1', '2', '3', '4']",1,2023.2.3,harveydigits,2.1,[],8,0.75,
0,pause,0.4,None,None,None,0,133,133,133,,,,,,,,,,,,N008,digit,5,"['6', '7', '8', '9']","['1', '2', '3', '4']",1,2023.2.3,harveydigits,2.1,[],8,0.75,
20,digit,0.3,['dot'],['big_1'],black,0,134,134,134,,,49.300222873687744,49.020703077316284,49.320695877075195,"[[-0.182354423905981, 0.021255978070597425]]",['DejaVu Sans'],[0.9],,,,N008,digit,5,"['6', '7', '8', '9']","['1', '2', '3', '4']",1,2023.2.3,harveydigits,2.1,[],8,0.75,
0,pause,0.4,None,None,None,0,135,135,135,,,,,,,,,,,,N008,digit,5,"['6', '7', '8', '9']","['1', '2', '3', '4']",1,2023.2.3,harveydigits,2.1,[],8,0.75,
20,digit,0.3,['dot'],['big_1'],black,0,136,136,136,,,50.000223875045776,49.72068786621094,50.020668029785156,"[[-0.1585945028900383, 0.051478952576326814]]",['DejaVu Sans'],[0.9],,,,N008,digit,5,"['6', '7', '8', '9']","['1', '2', '3', '4']",1,2023.2.3,harveydigits,2.1,[],8,0.75,
0,pause,0.4,None,None,None,0,137,137,137,,,,,,,,,,,,N008,digit,5,"['6', '7', '8', '9']","['1', '2', '3', '4']",1,2023.2.3,harveydigits,2.1,[],8,0.75,
20,digit,0.3,['dot'],['big_1'],black,0,138,138,138,,,50.70021605491638,50.42053294181824,50.72055387496948,"[[-0.09583245106199238, 0.02339783148037064]]",['DejaVu Sans'],[0.9],,,,N008,digit,5,"['6', '7', '8', '9']","['1', '2', '3', '4']",1,2023.2.3,harveydigits,2.1,[],8,0.75,
0,pause,0.4,None,None,None,0,139,139,139,,,,,,,,,,,,N008,digit,5,"['6', '7', '8', '9']","['1', '2', '3', '4']",1,2023.2.3,harveydigits,2.1,[],8,0.75,
20,digit,0.3,['dot'],['big_1'],black,0,140,140,140,,,51.400222063064575,51.120651960372925,51.42063593864441,"[[0.005627989979409165, 0.06779545324379133]]",['DejaVu Sans'],[0.9],,,,N008,digit,5,"['6', '7', '8', '9']","['1', '2', '3', '4']",1,2023.2.3,harveydigits,2.1,[],8,0.75,
0,pause,0.4,None,None,None,0,141,141,141,,,,,,,,,,,,N008,digit,5,"['6', '7', '8', '9']","['1', '2', '3', '4']",1,2023.2.3,harveydigits,2.1,[],8,0.75,
20,digit,0.3,['dot'],['big_1'],black,0,142,142,142,,,52.100229024887085,51.820483922958374,52.12048602104187,"[[-0.026397039986350374, 0.017262712694882665]]",['DejaVu Sans'],[0.9],,,,N008,digit,5,"['6', '7', '8', '9']","['1', '2', '3', '4']",1,2023.2.3,harveydigits,2.1,[],8,0.75,
0,pause,0.4,None,None,None,0,143,143,143,,,,,,,,,,,,N008,digit,5,"['6', '7', '8', '9']","['1', '2', '3', '4']",1,2023.2.3,harveydigits,2.1,[],8,0.75,
20,digit,0.3,['dot'],['big_1'],black,0,144,144,144,,,52.80021905899048,52.52046298980713,52.820470094680786,"[[-0.044123388643753564, 0.1534232697472568]]",['DejaVu Sans'],[0.9],,,,N008,digit,5,"['6', '7', '8', '9']","['1', '2', '3', '4']",1,2023.2.3,harveydigits,2.1,[],8,0.75,
0,pause,0.4,None,None,None,0,145,145,145,,,,,,,,,,,,N008,digit,5,"['6', '7', '8', '9']","['1', '2', '3', '4']",1,2023.2.3,harveydigits,2.1,[],8,0.75,
20,digit,0.3,['dot'],['big_1'],black,0,146,146,146,,,53.50022006034851,53.22045087814331,53.52042102813721,"[[0.021198496061031413, -0.017082335750097183]]",['DejaVu Sans'],[0.9],,,,N008,digit,5,"['6', '7', '8', '9']","['1', '2', '3', '4']",1,2023.2.3,harveydigits,2.1,[],8,0.75,
0,pause,0.4,None,None,None,0,147,147,147,,,,,,,,,,,,N008,digit,5,"['6', '7', '8', '9']","['1', '2', '3', '4']",1,2023.2.3,harveydigits,2.1,[],8,0.75,
20,digit,0.3,['dot'],['big_1'],black,0,148,148,148,,,54.20022487640381,53.92050099372864,54.22043204307556,"[[-0.19506860022403585, -0.034779078072595615]]",['DejaVu Sans'],[0.9],,,,N008,digit,5,"['6', '7', '8', '9']","['1', '2', '3', '4']",1,2023.2.3,harveydigits,2.1,[],8,0.75,
0,pause,0.4,None,None,None,0,149,149,149,,,,,,,,,,,,N008,digit,5,"['6', '7', '8', '9']","['1', '2', '3', '4']",1,2023.2.3,harveydigits,2.1,[],8,0.75,
20,digit,0.3,['dot'],['big_1'],black,0,150,150,150,,,54.90021204948425,54.62045407295227,54.920387983322144,"[[-0.06653244720067322, -0.07601045336304563]]",['DejaVu Sans'],[0.9],,,,N008,digit,5,"['6', '7', '8', '9']","['1', '2', '3', '4']",1,2023.2.3,harveydigits,2.1,[],8,0.75,
0,pause,0.4,None,None,None,0,151,151,151,,,,,,,,,,,,N008,digit,5,"['6', '7', '8', '9']","['1', '2', '3', '4']",1,2023.2.3,harveydigits,2.1,[],8,0.75,
20,digit,0.3,['dot'],['big_1'],black,0,152,152,152,,,55.600208044052124,55.32037901878357,55.62037205696106,"[[0.1004424840901704, -0.11418091578669351]]",['DejaVu Sans'],[0.9],,,,N008,digit,5,"['6', '7', '8', '9']","['1', '2', '3', '4']",1,2023.2.3,harveydigits,2.1,[],8,0.75,
0,pause,0.4,None,None,None,0,153,153,153,,,,,,,,,,,,N008,digit,5,"['6', '7', '8', '9']","['1', '2', '3', '4']",1,2023.2.3,harveydigits,2.1,[],8,0.75,
20,digit,0.3,['dot'],['big_1'],black,0,154,154,154,,,56.300222873687744,56.020461082458496,56.32040786743164,"[[0.16142184883081648, -0.01112255284386908]]",['DejaVu Sans'],[0.9],,,,N008,digit,5,"['6', '7', '8', '9']","['1', '2', '3', '4']",1,2023.2.3,harveydigits,2.1,[],8,0.75,
0,pause,0.4,None,None,None,0,155,155,155,,,,,,,,,,,,N008,digit,5,"['6', '7', '8', '9']","['1', '2', '3', '4']",1,2023.2.3,harveydigits,2.1,[],8,0.75,
9,digit,0.3,['dot'],['big_1'],black,0,156,156,156,,,57.00022506713867,56.72042202949524,57.0204119682312,"[[-0.19969150884524087, 0.010892392158484763]]",['DejaVu Sans'],[0.9],,,,N008,digit,5,"['6', '7', '8', '9']","['1', '2', '3', '4']",1,2023.2.3,harveydigits,2.1,[],8,0.75,
0,pause,0.4,None,None,None,0,157,157,157,,,,,,,,,,,,N008,digit,5,"['6', '7', '8', '9']","['1', '2', '3', '4']",1,2023.2.3,harveydigits,2.1,[],8,0.75,
9,digit,0.3,['dot'],['big_1'],black,0,158,158,158,,,57.70022487640381,57.42042088508606,57.720349073410034,"[[-0.11957891963904246, -0.11040947420356949]]",['DejaVu Sans'],[0.9],,,,N008,digit,5,"['6', '7', '8', '9']","['1', '2', '3', '4']",1,2023.2.3,harveydigits,2.1,[],8,0.75,
0,pause,0.4,None,None,None,0,159,159,159,,,,,,,,,,,,N008,digit,5,"['6', '7', '8', '9']","['1', '2', '3', '4']",1,2023.2.3,harveydigits,2.1,[],8,0.75,
9,digit,0.3,['dot'],['big_1'],black,0,160,160,160,,,58.40020704269409,58.12046504020691,58.42033004760742,"[[-0.04757779402537357, 0.13961005113094416]]",['DejaVu Sans'],[0.9],,,,N008,digit,5,"['6', '7', '8', '9']","['1', '2', '3', '4']",1,2023.2.3,harveydigits,2.1,[],8,0.75,
0,pause,0.4,None,None,None,0,161,161,161,,,,,,,,,,,,N008,digit,5,"['6', '7', '8', '9']","['1', '2', '3', '4']",1,2023.2.3,harveydigits,2.1,[],8,0.75,
9,digit,0.3,['dot'],['big_1'],black,0,162,162,162,,,59.10021901130676,58.82030391693115,59.12030792236328,"[[-0.17539342463345875, 0.05330506416229559]]",['DejaVu Sans'],[0.9],,,,N008,digit,5,"['6', '7', '8', '9']","['1', '2', '3', '4']",1,2023.2.3,harveydigits,2.1,[],8,0.75,
0,pause,0.4,None,None,None,0,163,163,163,,,,,,,,,,,,N008,digit,5,"['6', '7', '8', '9']","['1', '2', '3', '4']",1,2023.2.3,harveydigits,2.1,[],8,0.75,
9,digit,0.3,['dot'],['big_1'],black,0,164,164,164,,,59.80021691322327,59.52031898498535,59.820295095443726,"[[-0.13002602107479258, -0.07049188226982693]]",['DejaVu Sans'],[0.9],,,,N008,digit,5,"['6', '7', '8', '9']","['1', '2', '3', '4']",1,2023.2.3,harveydigits,2.1,[],8,0.75,
0,pause,0.4,None,None,None,0,165,165,165,,,,,,,,,,,,N008,digit,5,"['6', '7', '8', '9']","['1', '2', '3', '4']",1,2023.2.3,harveydigits,2.1,[],8,0.75,
9,digit,0.3,['dot'],['big_1'],black,0,166,166,166,,,60.500218868255615,60.220277070999146,60.52030897140503,"[[-0.05457180108244425, -0.03857383498259154]]",['DejaVu Sans'],[0.9],,,,N008,digit,5,"['6', '7', '8', '9']","['1', '2', '3', '4']",1,2023.2.3,harveydigits,2.1,[],8,0.75,
0,pause,0.4,None,None,None,0,167,167,167,,,,,,,,,,,,N008,digit,5,"['6', '7', '8', '9']","['1', '2', '3', '4']",1,2023.2.3,harveydigits,2.1,[],8,0.75,
8,digit,0.3,['dot'],['big_1'],black,0,168,168,168,,,61.20020389556885,60.92021894454956,61.220216035842896,"[[-0.07747862204174302, -0.03041492979572094]]",['DejaVu Sans'],[0.9],,,,N008,digit,5,"['6', '7', '8', '9']","['1', '2', '3', '4']",1,2023.2.3,harveydigits,2.1,[],8,0.75,
0,pause,0.4,None,None,None,0,169,169,169,,,,,,,,,,,,N008,digit,5,"['6', '7', '8', '9']","['1', '2', '3', '4']",1,2023.2.3,harveydigits,2.1,[],8,0.75,
8,digit,0.3,['dot'],['big_1'],black,0,170,170,170,,,61.900206089019775,61.62024998664856,61.920214891433716,"[[0.17455643153010572, -0.017959185636018782]]",['DejaVu Sans'],[0.9],,,,N008,digit,5,"['6', '7', '8', '9']","['1', '2', '3', '4']",1,2023.2.3,harveydigits,2.1,[],8,0.75,
0,pause,0.4,None,None,None,0,171,171,171,,,,,,,,,,,,N008,digit,5,"['6', '7', '8', '9']","['1', '2', '3', '4']",1,2023.2.3,harveydigits,2.1,[],8,0.75,
8,digit,0.3,['dot'],['big_1'],black,0,172,172,172,,,62.600218057632446,62.320236921310425,62.62023687362671,"[[-0.04549885294284434, 0.13801883263235118]]",['DejaVu Sans'],[0.9],,,,N008,digit,5,"['6', '7', '8', '9']","['1', '2', '3', '4']",1,2023.2.3,harveydigits,2.1,[],8,0.75,
0,pause,0.4,None,None,None,0,173,173,173,,,,,,,,,,,,N008,digit,5,"['6', '7', '8', '9']","['1', '2', '3', '4']",1,2023.2.3,harveydigits,2.1,[],8,0.75,
8,digit,0.3,['dot'],['big_1'],black,0,174,174,174,,,63.30021786689758,63.020267963409424,63.320175886154175,"[[0.16046405102837022, -0.062491925022889507]]",['DejaVu Sans'],[0.9],,,,N008,digit,5,"['6', '7', '8', '9']","['1', '2', '3', '4']",1,2023.2.3,harveydigits,2.1,[],8,0.75,
0,pause,0.4,None,None,None,0,175,175,175,,,,,,,,,,,,N008,digit,5,"['6', '7', '8', '9']","['1', '2', '3', '4']",1,2023.2.3,harveydigits,2.1,[],8,0.75,
8,digit,0.3,['dot'],['big_1'],black,0,176,176,176,,,64.00021600723267,63.72017288208008,64.02015495300293,"[[-0.050031140912611016, 0.03486778901027679]]",['DejaVu Sans'],[0.9],,,,N008,digit,5,"['6', '7', '8', '9']","['1', '2', '3', '4']",1,2023.2.3,harveydigits,2.1,[],8,0.75,
0,pause,0.4,None,None,None,0,177,177,177,,,,,,,,,,,,N008,digit,5,"['6', '7', '8', '9']","['1', '2', '3', '4']",1,2023.2.3,harveydigits,2.1,[],8,0.75,
8,digit,0.3,['dot'],['big_1'],black,0,178,178,178,,,64.70021104812622,64.4201819896698,64.72018790245056,"[[-0.09254130081929865, -0.0050626142888073045]]",['DejaVu Sans'],[0.9],,,,N008,digit,5,"['6', '7', '8', '9']","['1', '2', '3', '4']",1,2023.2.3,harveydigits,2.1,[],8,0.75,
0,pause,0.4,None,None,None,0,179,179,179,,,,,,,,,,,,N008,digit,5,"['6', '7', '8', '9']","['1', '2', '3', '4']",1,2023.2.3,harveydigits,2.1,[],8,0.75,
7,digit,0.3,['dot'],['big_1'],black,0,180,180,180,,,65.40022993087769,65.1201958656311,65.42011404037476,"[[0.14328116459893878, -0.02311371572752806]]",['DejaVu Sans'],[0.9],,,,N008,digit,5,"['6', '7', '8', '9']","['1', '2', '3', '4']",1,2023.2.3,harveydigits,2.1,[],8,0.75,
0,pause,0.4,None,None,None,0,181,181,181,,,,,,,,,,,,N008,digit,5,"['6', '7', '8', '9']","['1', '2', '3', '4']",1,2023.2.3,harveydigits,2.1,[],8,0.75,
7,digit,0.3,['dot'],['big_1'],black,0,182,182,182,,,66.10021805763245,65.82009291648865,66.12007808685303,"[[-0.009318647969988852, 0.09798451824834623]]",['DejaVu Sans'],[0.9],,,,N008,digit,5,"['6', '7', '8', '9']","['1', '2', '3', '4']",1,2023.2.3,harveydigits,2.1,[],8,0.75,
0,pause,0.4,None,None,None,0,183,183,183,,,,,,,,,,,,N008,digit,5,"['6', '7', '8', '9']","['1', '2', '3', '4']",1,2023.2.3,harveydigits,2.1,[],8,0.75,
7,digit,0.3,['dot'],['big_1'],black,0,184,184,184,,,66.80020499229431,66.52008390426636,66.82014894485474,"[[-0.02779733712826346, -0.15801985392166604]]",['DejaVu Sans'],[0.9],,,,N008,digit,5,"['6', '7', '8', '9']","['1', '2', '3', '4']",1,2023.2.3,harveydigits,2.1,[],8,0.75,
0,pause,0.4,None,None,None,0,185,185,185,,,,,,,,,,,,N008,digit,5,"['6', '7', '8', '9']","['1', '2', '3', '4']",1,2023.2.3,harveydigits,2.1,[],8,0.75,
7,digit,0.3,['dot'],['big_1'],black,0,186,186,186,,,67.5002110004425,67.22005891799927,67.52006506919861,"[[-0.06929407186615455, 0.1437497140065307]]",['DejaVu Sans'],[0.9],,,,N008,digit,5,"['6', '7', '8', '9']","['1', '2', '3', '4']",1,2023.2.3,harveydigits,2.1,[],8,0.75,
0,pause,0.4,None,None,None,0,187,187,187,,,,,,,,,,,,N008,digit,5,"['6', '7', '8', '9']","['1', '2', '3', '4']",1,2023.2.3,harveydigits,2.1,[],8,0.75,
7,digit,0.3,['dot'],['big_1'],black,0,188,188,188,,,68.20020604133606,67.92008090019226,68.220046043396,"[[-0.18345124206679186, -0.0698416230617232]]",['DejaVu Sans'],[0.9],,,,N008,digit,5,"['6', '7', '8', '9']","['1', '2', '3', '4']",1,2023.2.3,harveydigits,2.1,[],8,0.75,
0,pause,0.4,None,None,None,0,189,189,189,,,,,,,,,,,,N008,digit,5,"['6', '7', '8', '9']","['1', '2', '3', '4']",1,2023.2.3,harveydigits,2.1,[],8,0.75,
7,digit,0.3,['dot'],['big_1'],black,0,190,190,190,,,68.900230884552,68.62001585960388,68.92010307312012,"[[0.05554234765171165, 0.07209901496914392]]",['DejaVu Sans'],[0.9],,,,N008,digit,5,"['6', '7', '8', '9']","['1', '2', '3', '4']",1,2023.2.3,harveydigits,2.1,[],8,0.75,
0,pause,0.4,None,None,None,0,191,191,191,,,,,,,,,,,,N008,digit,5,"['6', '7', '8', '9']","['1', '2', '3', '4']",1,2023.2.3,harveydigits,2.1,[],8,0.75,
6,digit,0.3,['dot'],['big_1'],black,0,192,192,192,,,69.60022497177124,69.32010293006897,69.62016606330872,"[[-0.1884271499912779, 0.05555758815041503]]",['DejaVu Sans'],[0.9],,,,N008,digit,5,"['6', '7', '8', '9']","['1', '2', '3', '4']",1,2023.2.3,harveydigits,2.1,[],8,0.75,
0,pause,0.4,None,None,None,0,193,193,193,,,,,,,,,,,,N008,digit,5,"['6', '7', '8', '9']","['1', '2', '3', '4']",1,2023.2.3,harveydigits,2.1,[],8,0.75,
6,digit,0.3,['dot'],['big_1'],black,0,194,194,194,,,70.30020689964294,70.02016091346741,70.32017588615417,"[[0.15993501797426388, -0.0883653959960698]]",['DejaVu Sans'],[0.9],,,,N008,digit,5,"['6', '7', '8', '9']","['1', '2', '3', '4']",1,2023.2.3,harveydigits,2.1,[],8,0.75,
0,pause,0.4,None,None,None,0,195,195,195,,,,,,,,,,,,N008,digit,5,"['6', '7', '8', '9']","['1', '2', '3', '4']",1,2023.2.3,harveydigits,2.1,[],8,0.75,
6,digit,0.3,['dot'],['big_1'],black,0,196,196,196,,,71.00020909309387,70.71999287605286,71.0201530456543,"[[0.10111903872024139, -0.026586081301515213]]",['DejaVu Sans'],[0.9],,,,N008,digit,5,"['6', '7', '8', '9']","['1', '2', '3', '4']",1,2023.2.3,harveydigits,2.1,[],8,0.75,
0,pause,0.4,None,None,None,0,197,197,197,,,,,,,,,,,,N008,digit,5,"['6', '7', '8', '9']","['1', '2', '3', '4']",1,2023.2.3,harveydigits,2.1,[],8,0.75,
6,digit,0.3,['dot'],['big_1'],black,0,198,198,198,,,71.70023488998413,71.42000699043274,71.72009897232056,"[[-0.13821517950092263, 0.055371344594075306]]",['DejaVu Sans'],[0.9],,,,N008,digit,5,"['6', '7', '8', '9']","['1', '2', '3', '4']",1,2023.2.3,harveydigits,2.1,[],8,0.75,
0,pause,0.4,None,None,None,0,199,199,199,,,,,,,,,,,,N008,digit,5,"['6', '7', '8', '9']","['1', '2', '3', '4']",1,2023.2.3,harveydigits,2.1,[],8,0.75,
6,digit,0.3,['dot'],['big_1'],black,0,200,200,200,,,72.40022087097168,72.12009596824646,72.41997194290161,"[[0.1999657427451164, 1.6314870630090503e-06]]",['DejaVu Sans'],[0.9],,,,N008,digit,5,"['6', '7', '8', '9']","['1', '2', '3', '4']",1,2023.2.3,harveydigits,2.1,[],8,0.75,
0,pause,0.4,None,None,None,0,201,201,201,,,,,,,,,,,,N008,digit,5,"['6', '7', '8', '9']","['1', '2', '3', '4']",1,2023.2.3,harveydigits,2.1,[],8,0.75,
6,digit,0.3,['dot'],['big_1'],black,0,202,202,202,,,73.10023188591003,72.81994295120239,73.11995005607605,"[[-0.17879659895813224, -0.050484679933210125]]",['DejaVu Sans'],[0.9],,,,N008,digit,5,"['6', '7', '8', '9']","['1', '2', '3', '4']",1,2023.2.3,harveydigits,2.1,[],8,0.75,
0,pause,0.4,None,None,None,0,203,203,203,,,,,,,,,,,,N008,digit,5,"['6', '7', '8', '9']","['1', '2', '3', '4']",1,2023.2.3,harveydigits,2.1,[],8,0.75,
5,digit,0.3,['dot'],['big_1'],black,0,204,204,204,,,73.80020999908447,73.51989388465881,73.81988906860352,"[[-0.011810746917637449, 0.19255047259207964]]",['DejaVu Sans'],[0.9],,,,N008,digit,5,"['6', '7', '8', '9']","['1', '2', '3', '4']",1,2023.2.3,harveydigits,2.1,[],8,0.75,
0,pause,0.4,None,None,None,0,205,205,205,,,,,,,,,,,,N008,digit,5,"['6', '7', '8', '9']","['1', '2', '3', '4']",1,2023.2.3,harveydigits,2.1,[],8,0.75,
5,digit,0.3,['dot'],['big_1'],black,0,206,206,206,,,74.50022196769714,74.21988701820374,74.51985192298889,"[[0.06265380629857173, 0.18200158910154737]]",['DejaVu Sans'],[0.9],,,,N008,digit,5,"['6', '7', '8', '9']","['1', '2', '3', '4']",1,2023.2.3,harveydigits,2.1,[],8,0.75,
0,pause,0.4,None,None,None,0,207,207,207,,,,,,,,,,,,N008,digit,5,"['6', '7', '8', '9']","['1', '2', '3', '4']",1,2023.2.3,harveydigits,2.1,[],8,0.75,
5,digit,0.3,['dot'],['big_1'],black,0,208,208,208,,,75.20022892951965,74.91985297203064,75.2198429107666,"[[0.05537779514275873, -0.1119090413032564]]",['DejaVu Sans'],[0.9],,,,N008,digit,5,"['6', '7', '8', '9']","['1', '2', '3', '4']",1,2023.2.3,harveydigits,2.1,[],8,0.75,
0,pause,0.4,None,None,None,0,209,209,209,,,,,,,,,,,,N008,digit,5,"['6', '7', '8', '9']","['1', '2', '3', '4']",1,2023.2.3,harveydigits,2.1,[],8,0.75,
5,digit,0.3,['dot'],['big_1'],black,0,210,210,210,,,75.90022993087769,75.61982798576355,75.91981506347656,"[[-0.008927827928422088, 0.055333772155893024]]",['DejaVu Sans'],[0.9],,,,N008,digit,5,"['6', '7', '8', '9']","['1', '2', '3', '4']",1,2023.2.3,harveydigits,2.1,[],8,0.75,
0,pause,0.4,None,None,None,0,211,211,211,,,,,,,,,,,,N008,digit,5,"['6', '7', '8', '9']","['1', '2', '3', '4']",1,2023.2.3,harveydigits,2.1,[],8,0.75,
5,digit,0.3,['dot'],['big_1'],black,0,212,212,212,,,76.60022497177124,76.31984901428223,76.6198000907898,"[[0.021016464731619472, -0.09819861203066108]]",['DejaVu Sans'],[0.9],,,,N008,digit,5,"['6', '7', '8', '9']","['1', '2', '3', '4']",1,2023.2.3,harveydigits,2.1,[],8,0.75,
0,pause,0.4,None,None,None,0,213,213,213,,,,,,,,,,,,N008,digit,5,"['6', '7', '8', '9']","['1', '2', '3', '4']",1,2023.2.3,harveydigits,2.1,[],8,0.75,
5,digit,0.3,['dot'],['big_1'],black,0,214,214,214,,,77.30021905899048,77.0197970867157,77.3197820186615,"[[0.0988949459753232, 0.015154352600483811]]",['DejaVu Sans'],[0.9],,,,N008,digit,5,"['6', '7', '8', '9']","['1', '2', '3', '4']",1,2023.2.3,harveydigits,2.1,[],8,0.75,
0,pause,0.4,None,None,None,0,215,215,215,,,,,,,,,,,,N008,digit,5,"['6', '7', '8', '9']","['1', '2', '3', '4']",1,2023.2.3,harveydigits,2.1,[],8,0.75,
4,digit,0.3,['dot'],['big_1'],black,0,216,216,216,,,78.0002338886261,77.71978092193604,78.01978087425232,"[[-0.1187684308866275, -0.026870979358258357]]",['DejaVu Sans'],[0.9],,,,N008,digit,5,"['6', '7', '8', '9']","['1', '2', '3', '4']",1,2023.2.3,harveydigits,2.1,[],8,0.75,
0,pause,0.4,None,None,None,0,217,217,217,,,,,,,,,,,,N008,digit,5,"['6', '7', '8', '9']","['1', '2', '3', '4']",1,2023.2.3,harveydigits,2.1,[],8,0.75,
4,digit,0.3,['dot'],['big_1'],black,0,218,218,218,,,78.7002170085907,78.41981196403503,78.71977686882019,"[[0.0932469639923447, 0.16570474752457492]]",['DejaVu Sans'],[0.9],,,,N008,digit,5,"['6', '7', '8', '9']","['1', '2', '3', '4']",1,2023.2.3,harveydigits,2.1,[],8,0.75,
0,pause,0.4,None,None,None,0,219,219,219,,,,,,,,,,,,N008,digit,5,"['6', '7', '8', '9']","['1', '2', '3', '4']",1,2023.2.3,harveydigits,2.1,[],8,0.75,
4,digit,0.3,['dot'],['big_1'],black,0,220,220,220,,,79.400230884552,79.11990809440613,79.41975593566895,"[[0.024721646279068865, -0.15999571261040693]]",['DejaVu Sans'],[0.9],,,,N008,digit,5,"['6', '7', '8', '9']","['1', '2', '3', '4']",1,2023.2.3,harveydigits,2.1,[],8,0.75,
0,pause,0.4,None,None,None,0,221,221,221,,,,,,,,,,,,N008,digit,5,"['6', '7', '8', '9']","['1', '2', '3', '4']",1,2023.2.3,harveydigits,2.1,[],8,0.75,
4,digit,0.3,['dot'],['big_1'],black,0,222,222,222,,,80.10020995140076,79.81975507736206,80.1197669506073,"[[0.1799927679336699, -0.053568959310849144]]",['DejaVu Sans'],[0.9],,,,N008,digit,5,"['6', '7', '8', '9']","['1', '2', '3', '4']",1,2023.2.3,harveydigits,2.1,[],8,0.75,
0,pause,0.4,None,None,None,0,223,223,223,,,,,,,,,,,,N008,digit,5,"['6', '7', '8', '9']","['1', '2', '3', '4']",1,2023.2.3,harveydigits,2.1,[],8,0.75,
4,digit,0.3,['dot'],['big_1'],black,0,224,224,224,,,80.80022096633911,80.51974987983704,80.81971907615662,"[[0.05003022720459496, -0.19093355367447107]]",['DejaVu Sans'],[0.9],,,,N008,digit,5,"['6', '7', '8', '9']","['1', '2', '3', '4']",1,2023.2.3,harveydigits,2.1,[],8,0.75,
0,pause,0.4,None,None,None,0,225,225,225,,,,,,,,,,,,N008,digit,5,"['6', '7', '8', '9']","['1', '2', '3', '4']",1,2023.2.3,harveydigits,2.1,[],8,0.75,
4,digit,0.3,['dot'],['big_1'],black,0,226,226,226,,,81.5002269744873,81.21971797943115,81.51971292495728,"[[0.0013734543430996005, -0.12797056075447755]]",['DejaVu Sans'],[0.9],,,,N008,digit,5,"['6', '7', '8', '9']","['1', '2', '3', '4']",1,2023.2.3,harveydigits,2.1,[],8,0.75,
0,pause,0.4,None,None,None,0,227,227,227,,,,,,,,,,,,N008,digit,5,"['6', '7', '8', '9']","['1', '2', '3', '4']",1,2023.2.3,harveydigits,2.1,[],8,0.75,
3,digit,0.3,['dot'],['big_1'],black,0,228,228,228,,,82.20022892951965,81.91969394683838,82.21969199180603,"[[-0.14249798654382984, 0.055849103852816606]]",['DejaVu Sans'],[0.9],,,,N008,digit,5,"['6', '7', '8', '9']","['1', '2', '3', '4']",1,2023.2.3,harveydigits,2.1,[],8,0.75,
0,pause,0.4,None,None,None,0,229,229,229,,,,,,,,,,,,N008,digit,5,"['6', '7', '8', '9']","['1', '2', '3', '4']",1,2023.2.3,harveydigits,2.1,[],8,0.75,
3,digit,0.3,['dot'],['big_1'],black,0,230,230,230,,,82.90022492408752,82.61970901489258,82.91969990730286,"[[-0.030459629537667426, 0.07839280741075297]]",['DejaVu Sans'],[0.9],,,,N008,digit,5,"['6', '7', '8', '9']","['1', '2', '3', '4']",1,2023.2.3,harveydigits,2.1,[],8,0.75,
0,pause,0.4,None,None,None,0,231,231,231,,,,,,,,,,,,N008,digit,5,"['6', '7', '8', '9']","['1', '2', '3', '4']",1,2023.2.3,harveydigits,2.1,[],8,0.75,
3,digit,0.3,['dot'],['big_1'],black,0,232,232,232,,,83.6002368927002,83.31970286369324,83.61968302726746,"[[0.00965733031902688, 0.18223017770835695]]",['DejaVu Sans'],[0.9],,,,N008,digit,5,"['6', '7', '8', '9']","['1', '2', '3', '4']",1,2023.2.3,harveydigits,2.1,[],8,0.75,
0,pause,0.4,None,None,None,0,233,233,233,,,,,,,,,,,,N008,digit,5,"['6', '7', '8', '9']","['1', '2', '3', '4']",1,2023.2.3,harveydigits,2.1,[],8,0.75,
3,digit,0.3,['dot'],['big_1'],black,0,234,234,234,,,84.3002278804779,84.01964998245239,84.32071685791016,"[[0.10246277005468488, 0.05530134400372716]]",['DejaVu Sans'],[0.9],,,,N008,digit,5,"['6', '7', '8', '9']","['1', '2', '3', '4']",1,2023.2.3,harveydigits,2.1,[],8,0.75,
0,pause,0.4,None,None,None,0,235,235,235,,,,,,,,,,,,N008,digit,5,"['6', '7', '8', '9']","['1', '2', '3', '4']",1,2023.2.3,harveydigits,2.1,[],8,0.75,
3,digit,0.3,['dot'],['big_1'],black,0,236,236,236,,,85.00021004676819,84.71977496147156,85.01974987983704,"[[-0.15360986373102992, -0.10218237608988646]]",['DejaVu Sans'],[0.9],,,,N008,digit,5,"['6', '7', '8', '9']","['1', '2', '3', '4']",1,2023.2.3,harveydigits,2.1,[],8,0.75,
0,pause,0.4,None,None,None,0,237,237,237,,,,,,,,,,,,N008,digit,5,"['6', '7', '8', '9']","['1', '2', '3', '4']",1,2023.2.3,harveydigits,2.1,[],8,0.75,
3,digit,0.3,['dot'],['big_1'],black,0,238,238,238,,,85.7002100944519,85.41975498199463,85.71973586082458,"[[0.1432195943829436, -0.010807672891440773]]",['DejaVu Sans'],[0.9],,,,N008,digit,5,"['6', '7', '8', '9']","['1', '2', '3', '4']",1,2023.2.3,harveydigits,2.1,[],8,0.75,
0,pause,0.4,None,None,None,0,239,239,239,,,,,,,,,,,,N008,digit,5,"['6', '7', '8', '9']","['1', '2', '3', '4']",1,2023.2.3,harveydigits,2.1,[],8,0.75,
2,digit,0.3,['dot'],['big_1'],black,0,240,240,240,,,86.40023899078369,86.11975193023682,86.41960096359253,"[[0.007740680855435833, 0.04180339152427329]]",['DejaVu Sans'],[0.9],,,,N008,digit,5,"['6', '7', '8', '9']","['1', '2', '3', '4']",1,2023.2.3,harveydigits,2.1,[],8,0.75,
0,pause,0.4,None,None,None,0,241,241,241,,,,,,,,,,,,N008,digit,5,"['6', '7', '8', '9']","['1', '2', '3', '4']",1,2023.2.3,harveydigits,2.1,[],8,0.75,
2,digit,0.3,['dot'],['big_1'],black,0,242,242,242,,,87.10022401809692,86.81974601745605,87.11960291862488,"[[0.1816447051351023, 0.07657762776752598]]",['DejaVu Sans'],[0.9],,,,N008,digit,5,"['6', '7', '8', '9']","['1', '2', '3', '4']",1,2023.2.3,harveydigits,2.1,[],8,0.75,
0,pause,0.4,None,None,None,0,243,243,243,,,,,,,,,,,,N008,digit,5,"['6', '7', '8', '9']","['1', '2', '3', '4']",1,2023.2.3,harveydigits,2.1,[],8,0.75,
2,digit,0.3,['dot'],['big_1'],black,0,244,244,244,,,87.80022096633911,87.51959204673767,87.81956791877747,"[[-0.13749852870968493, 0.04056874709474931]]",['DejaVu Sans'],[0.9],,,,N008,digit,5,"['6', '7', '8', '9']","['1', '2', '3', '4']",1,2023.2.3,harveydigits,2.1,[],8,0.75,
0,pause,0.4,None,None,None,0,245,245,245,,,,,,,,,,,,N008,digit,5,"['6', '7', '8', '9']","['1', '2', '3', '4']",1,2023.2.3,harveydigits,2.1,[],8,0.75,
2,digit,0.3,['dot'],['big_1'],black,0,246,246,246,,,88.50023198127747,88.21956491470337,88.51954698562622,"[[-0.030646080479954263, -0.16406932010130296]]",['DejaVu Sans'],[0.9],,,,N008,digit,5,"['6', '7', '8', '9']","['1', '2', '3', '4']",1,2023.2.3,harveydigits,2.1,[],8,0.75,
0,pause,0.4,None,None,None,0,247,247,247,,,,,,,,,,,,N008,digit,5,"['6', '7', '8', '9']","['1', '2', '3', '4']",1,2023.2.3,harveydigits,2.1,[],8,0.75,
2,digit,0.3,['dot'],['big_1'],black,0,248,248,248,,,89.20021986961365,88.91954588890076,89.21952605247498,"[[-0.17850601352946488, -0.09018593748164226]]",['DejaVu Sans'],[0.9],,,,N008,digit,5,"['6', '7', '8', '9']","['1', '2', '3', '4']",1,2023.2.3,harveydigits,2.1,[],8,0.75,
0,pause,0.4,None,None,None,0,249,249,249,,,,,,,,,,,,N008,digit,5,"['6', '7', '8', '9']","['1', '2', '3', '4']",1,2023.2.3,harveydigits,2.1,[],8,0.75,
2,digit,0.3,['dot'],['big_1'],black,0,250,250,250,,,89.9002320766449,89.61953806877136,89.91952109336853,"[[-0.14916710184638682, 0.05982600580048647]]",['DejaVu Sans'],[0.9],,,,N008,digit,5,"['6', '7', '8', '9']","['1', '2', '3', '4']",1,2023.2.3,harveydigits,2.1,[],8,0.75,
0,pause,0.4,None,None,None,0,251,251,251,,,,,,,,,,,,N008,digit,5,"['6', '7', '8', '9']","['1', '2', '3', '4']",1,2023.2.3,harveydigits,2.1,[],8,0.75,
1,digit,0.3,['dot'],['big_1'],black,0,252,252,252,,,90.60023403167725,90.31951594352722,90.61949300765991,"[[0.004026439356049849, 0.17828991412568362]]",['DejaVu Sans'],[0.9],,,,N008,digit,5,"['6', '7', '8', '9']","['1', '2', '3', '4']",1,2023.2.3,harveydigits,2.1,[],8,0.75,
0,pause,0.4,None,None,None,0,253,253,253,,,,,,,,,,,,N008,digit,5,"['6', '7', '8', '9']","['1', '2', '3', '4']",1,2023.2.3,harveydigits,2.1,[],8,0.75,
1,digit,0.3,['dot'],['big_1'],black,0,254,254,254,,,91.3002119064331,91.01948094367981,91.3194670677185,"[[0.1229757893258219, 0.054057414539387116]]",['DejaVu Sans'],[0.9],,,,N008,digit,5,"['6', '7', '8', '9']","['1', '2', '3', '4']",1,2023.2.3,harveydigits,2.1,[],8,0.75,
0,pause,0.4,None,None,None,0,255,255,255,,,,,,,,,,,,N008,digit,5,"['6', '7', '8', '9']","['1', '2', '3', '4']",1,2023.2.3,harveydigits,2.1,[],8,0.75,
1,digit,0.3,['dot'],['big_1'],black,0,256,256,256,,,92.00022506713867,91.71946692466736,92.01945686340332,"[[-0.15033910234809233, 0.11378695143271866]]",['DejaVu Sans'],[0.9],,,,N008,digit,5,"['6', '7', '8', '9']","['1', '2', '3', '4']",1,2023.2.3,harveydigits,2.1,[],8,0.75,
0,pause,0.4,None,None,None,0,257,257,257,,,,,,,,,,,,N008,digit,5,"['6', '7', '8', '9']","['1', '2', '3', '4']",1,2023.2.3,harveydigits,2.1,[],8,0.75,
1,digit,0.3,['dot'],['big_1'],black,0,258,258,258,,,92.70022106170654,92.41941595077515,92.71940493583679,"[[0.13780950187171623, -0.014198879279419263]]",['DejaVu Sans'],[0.9],,,,N008,digit,5,"['6', '7', '8', '9']","['1', '2', '3', '4']",1,2023.2.3,harveydigits,2.1,[],8,0.75,
0,pause,0.4,None,None,None,0,259,259,259,,,,,,,,,,,,N008,digit,5,"['6', '7', '8', '9']","['1', '2', '3', '4']",1,2023.2.3,harveydigits,2.1,[],8,0.75,
1,digit,0.3,['dot'],['big_1'],black,0,260,260,260,,,93.40021896362305,93.11960196495056,93.41940093040466,"[[0.18572044719238154, 0.025491165200218976]]",['DejaVu Sans'],[0.9],,,,N008,digit,5,"['6', '7', '8', '9']","['1', '2', '3', '4']",1,2023.2.3,harveydigits,2.1,[],8,0.75,
0,pause,0.4,None,None,None,0,261,261,261,,,,,,,,,,,,N008,digit,5,"['6', '7', '8', '9']","['1', '2', '3', '4']",1,2023.2.3,harveydigits,2.1,[],8,0.75,
1,digit,0.3,['dot'],['big_1'],black,0,262,262,262,,,94.10021686553955,93.81963992118835,94.11960101127625,"[[-0.17616705084404213, -0.09341471475907497]]",['DejaVu Sans'],[0.9],,,,N008,digit,5,"['6', '7', '8', '9']","['1', '2', '3', '4']",1,2023.2.3,harveydigits,2.1,[],8,0.75,
0,pause,0.4,None,None,None,0,263,263,263,,,,,,,,,,,,N008,digit,5,"['6', '7', '8', '9']","['1', '2', '3', '4']",1,2023.2.3,harveydigits,2.1,[],8,0.75,
20,digit,0.3,['dot'],['big_1'],black,0,264,264,264,,,94.80021286010742,94.51932287216187,94.81933498382568,"[[0.11283581199764223, 0.005911563206207532]]",['DejaVu Sans'],[0.9],,,,N008,digit,5,"['6', '7', '8', '9']","['1', '2', '3', '4']",1,2023.2.3,harveydigits,2.1,[],8,0.75,
0,pause,0.4,None,None,None,0,265,265,265,,,,,,,,,,,,N008,digit,5,"['6', '7', '8', '9']","['1', '2', '3', '4']",1,2023.2.3,harveydigits,2.1,[],8,0.75,
20,digit,0.3,['dot'],['big_1'],black,0,266,266,266,,,95.500235080719,95.21944808959961,95.5193440914154,"[[0.11113104261093096, -0.08008016836706483]]",['DejaVu Sans'],[0.9],,,,N008,digit,5,"['6', '7', '8', '9']","['1', '2', '3', '4']",1,2023.2.3,harveydigits,2.1,[],8,0.75,
0,pause,0.4,None,None,None,0,267,267,267,,,,,,,,,,,,N008,digit,5,"['6', '7', '8', '9']","['1', '2', '3', '4']",1,2023.2.3,harveydigits,2.1,[],8,0.75,
20,digit,0.3,['dot'],['big_1'],black,0,268,268,268,,,96.20022797584534,95.91930389404297,96.2192850112915,"[[0.07013029567197246, 0.009188816320622906]]",['DejaVu Sans'],[0.9],,,,N008,digit,5,"['6', '7', '8', '9']","['1', '2', '3', '4']",1,2023.2.3,harveydigits,2.1,[],8,0.75,
0,pause,0.4,None,None,None,0,269,269,269,,,,,,,,,,,,N008,digit,5,"['6', '7', '8', '9']","['1', '2', '3', '4']",1,2023.2.3,harveydigits,2.1,[],8,0.75,
20,digit,0.3,['dot'],['big_1'],black,0,270,270,270,,,96.90024089813232,96.61931586265564,96.91926097869873,"[[-0.10592400188344046, -0.1445663655535423]]",['DejaVu Sans'],[0.9],,,,N008,digit,5,"['6', '7', '8', '9']","['1', '2', '3', '4']",1,2023.2.3,harveydigits,2.1,[],8,0.75,
0,pause,0.4,None,None,None,0,271,271,271,,,,,,,,,,,,N008,digit,5,"['6', '7', '8', '9']","['1', '2', '3', '4']",1,2023.2.3,harveydigits,2.1,[],8,0.75,
20,digit,0.3,['dot'],['big_1'],black,0,272,272,272,,,97.60023999214172,97.3193039894104,97.61931896209717,"[[0.06367414566832139, -0.05971568457046439]]",['DejaVu Sans'],[0.9],,,,N008,digit,5,"['6', '7', '8', '9']","['1', '2', '3', '4']",1,2023.2.3,harveydigits,2.1,[],8,0.75,
0,pause,0.4,None,None,None,0,273,273,273,,,,,,,,,,,,N008,digit,5,"['6', '7', '8', '9']","['1', '2', '3', '4']",1,2023.2.3,harveydigits,2.1,[],8,0.75,
20,digit,0.3,['dot'],['big_1'],black,0,274,274,274,,,98.3002200126648,98.01924300193787,98.31922888755798,"[[0.15369734012496425, 0.06280139782422203]]",['DejaVu Sans'],[0.9],,,,N008,digit,5,"['6', '7', '8', '9']","['1', '2', '3', '4']",1,2023.2.3,harveydigits,2.1,[],8,0.75,
0,pause,0.4,None,None,None,0,275,275,275,,,,,,,,,,,,N008,digit,5,"['6', '7', '8', '9']","['1', '2', '3', '4']",1,2023.2.3,harveydigits,2.1,[],8,0.75,
20,digit,0.3,['dot'],['big_1'],black,0,276,276,276,,,99.00021600723267,98.71923995018005,99.01937699317932,"[[0.016169333380734757, -0.08609974163599989]]",['DejaVu Sans'],[0.9],,,,N008,digit,5,"['6', '7', '8', '9']","['1', '2', '3', '4']",1,2023.2.3,harveydigits,2.1,[],8,0.75,
0,pause,0.4,None,None,None,0,277,277,277,,,,,,,,,,,,N008,digit,5,"['6', '7', '8', '9']","['1', '2', '3', '4']",1,2023.2.3,harveydigits,2.1,[],8,0.75,
20,digit,0.3,['dot'],['big_1'],black,0,278,278,278,,,99.70021891593933,99.4193708896637,99.71937108039856,"[[0.0969627350444813, -0.14793805219830386]]",['DejaVu Sans'],[0.9],,,,N008,digit,5,"['6', '7', '8', '9']","['1', '2', '3', '4']",1,2023.2.3,harveydigits,2.1,[],8,0.75,
0,pause,0.4,None,None,None,0,279,279,279,,,,,,,,,,,,N008,digit,5,"['6', '7', '8', '9']","['1', '2', '3', '4']",1,2023.2.3,harveydigits,2.1,[],8,0.75,
20,digit,0.3,['dot'],['big_1'],black,0,280,280,280,,,100.40021705627441,100.11935806274414,100.41935300827026,"[[-0.006837943010236547, 0.10220182360471561]]",['DejaVu Sans'],[0.9],,,,N008,digit,5,"['6', '7', '8', '9']","['1', '2', '3', '4']",1,2023.2.3,harveydigits,2.1,[],8,0.75,
0,pause,0.4,None,None,None,0,281,281,281,,,,,,,,,,,,N008,digit,5,"['6', '7', '8', '9']","['1', '2', '3', '4']",1,2023.2.3,harveydigits,2.1,[],8,0.75,
20,digit,0.3,['dot'],['big_1'],black,0,282,282,282,,,101.10021805763245,100.81921887397766,101.11931586265564,"[[0.07807451713158306, 0.03615757086730456]]",['DejaVu Sans'],[0.9],,,,N008,digit,5,"['6', '7', '8', '9']","['1', '2', '3', '4']",1,2023.2.3,harveydigits,2.1,[],8,0.75,
0,pause,0.4,None,None,None,0,283,283,283,,,,,,,,,,,,N008,digit,5,"['6', '7', '8', '9']","['1', '2', '3', '4']",1,2023.2.3,harveydigits,2.1,[],8,0.75,
20,digit,0.3,['dot'],['big_1'],black,0,284,284,284,,,101.80023002624512,101.51917886734009,101.81920886039734,"[[0.035816823813678456, 0.09911275105691086]]",['DejaVu Sans'],[0.9],,,,N008,digit,5,"['6', '7', '8', '9']","['1', '2', '3', '4']",1,2023.2.3,harveydigits,2.1,[],8,0.75,
0,pause,0.4,None,None,None,0,285,285,285,,,,,,,,,,,,N008,digit,5,"['6', '7', '8', '9']","['1', '2', '3', '4']",1,2023.2.3,harveydigits,2.1,[],8,0.75,
20,digit,0.3,['dot'],['big_1'],black,0,286,286,286,,,102.50023794174194,102.21913886070251,102.51914191246033,"[[0.14935099465825777, -0.009985104249503121]]",['DejaVu Sans'],[0.9],,,,N008,digit,5,"['6', '7', '8', '9']","['1', '2', '3', '4']",1,2023.2.3,harveydigits,2.1,[],8,0.75,
0,pause,0.4,None,None,None,0,287,287,287,,,,,,,,,,,,N008,digit,5,"['6', '7', '8', '9']","['1', '2', '3', '4']",1,2023.2.3,harveydigits,2.1,[],8,0.75,
20,digit,0.3,['dot'],['big_1'],black,0,288,288,288,,,103.2002420425415,102.91913509368896,103.2190990447998,"[[-0.1540071515613853, -0.05632335889846861]]",['DejaVu Sans'],[0.9],,,,N008,digit,5,"['6', '7', '8', '9']","['1', '2', '3', '4']",1,2023.2.3,harveydigits,2.1,[],8,0.75,
0,pause,0.4,None,None,None,0,289,289,289,,,,,,,,,,,,N008,digit,5,"['6', '7', '8', '9']","['1', '2', '3', '4']",1,2023.2.3,harveydigits,2.1,[],8,0.75,
20,digit,0.3,['dot'],['big_1'],black,0,290,290,290,,,103.90023994445801,103.61911702156067,103.91911506652832,"[[-0.008461824309144939, -0.006297589404036852]]",['DejaVu Sans'],[0.9],,,,N008,digit,5,"['6', '7', '8', '9']","['1', '2', '3', '4']",1,2023.2.3,harveydigits,2.1,[],8,0.75,
0,pause,0.4,None,None,None,0,291,291,291,,,,,,,,,,,,N008,digit,5,"['6', '7', '8', '9']","['1', '2', '3', '4']",1,2023.2.3,harveydigits,2.1,[],8,0.75,
20,digit,0.3,['dot'],['big_1'],black,0,292,292,292,,,104.60021686553955,104.31913089752197,104.61912798881531,"[[-0.06512747570049265, 0.09789073515799288]]",['DejaVu Sans'],[0.9],,,,N008,digit,5,"['6', '7', '8', '9']","['1', '2', '3', '4']",1,2023.2.3,harveydigits,2.1,[],8,0.75,
0,pause,0.4,None,None,None,0,293,293,293,,,,,,,,,,,,N008,digit,5,"['6', '7', '8', '9']","['1', '2', '3', '4']",1,2023.2.3,harveydigits,2.1,[],8,0.75,
20,digit,0.3,['dot'],['big_1'],black,0,294,294,294,,,105.30024194717407,105.01904487609863,105.31904196739197,"[[-0.10078757212316374, 0.07698621009206272]]",['DejaVu Sans'],[0.9],,,,N008,digit,5,"['6', '7', '8', '9']","['1', '2', '3', '4']",1,2023.2.3,harveydigits,2.1,[],8,0.75,
0,pause,0.4,None,None,None,0,295,295,295,,,,,,,,,,,,N008,digit,5,"['6', '7', '8', '9']","['1', '2', '3', '4']",1,2023.2.3,harveydigits,2.1,[],8,0.75,
20,digit,0.3,['dot'],['big_1'],black,0,296,296,296,,,106.00021600723267,105.71906304359436,106.0190269947052,"[[-0.14198953700961614, 0.021655556750074606]]",['DejaVu Sans'],[0.9],,,,N008,digit,5,"['6', '7', '8', '9']","['1', '2', '3', '4']",1,2023.2.3,harveydigits,2.1,[],8,0.75,
0,pause,0.4,None,None,None,0,297,297,297,,,,,,,,,,,,N008,digit,5,"['6', '7', '8', '9']","['1', '2', '3', '4']",1,2023.2.3,harveydigits,2.1,[],8,0.75,
20,digit,0.3,['dot'],['big_1'],black,0,298,298,298,,,106.70022702217102,106.41910099983215,106.7190489768982,"[[-0.046689680304592945, 0.16691707357206795]]",['DejaVu Sans'],[0.9],,,,N008,digit,5,"['6', '7', '8', '9']","['1', '2', '3', '4']",1,2023.2.3,harveydigits,2.1,[],8,0.75,
0,pause,0.4,None,None,None,0,299,299,299,,,,,,,,,,,,N008,digit,5,"['6', '7', '8', '9']","['1', '2', '3', '4']",1,2023.2.3,harveydigits,2.1,[],8,0.75,
20,digit,0.3,['dot'],['big_1'],black,0,300,300,300,,,107.40022587776184,107.11901903152466,107.41899800300598,"[[0.14192599441116163, 0.10106780855847111]]",['DejaVu Sans'],[0.9],,,,N008,digit,5,"['6', '7', '8', '9']","['1', '2', '3', '4']",1,2023.2.3,harveydigits,2.1,[],8,0.75,
0,pause,0.4,None,None,None,0,301,301,301,,,,,,,,,,,,N008,digit,5,"['6', '7', '8', '9']","['1', '2', '3', '4']",1,2023.2.3,harveydigits,2.1,[],8,0.75,
20,digit,0.3,['dot'],['big_1'],black,0,302,302,302,,,108.1002368927002,107.81898593902588,108.11900591850281,"[[0.08510878718590367, 0.0019223418569733197]]",['DejaVu Sans'],[0.9],,,,N008,digit,5,"['6', '7', '8', '9']","['1', '2', '3', '4']",1,2023.2.3,harveydigits,2.1,[],8,0.75,
0,pause,0.4,None,None,None,0,303,303,303,,,,,,,,,,,,N008,digit,5,"['6', '7', '8', '9']","['1', '2', '3', '4']",1,2023.2.3,harveydigits,2.1,[],8,0.75,
20,digit,0.3,['dot'],['big_1'],black,0,304,304,304,,,108.80024290084839,108.51912593841553,108.81912088394165,"[[-0.1258822404850874, -0.01431950638574031]]",['DejaVu Sans'],[0.9],,,,N008,digit,5,"['6', '7', '8', '9']","['1', '2', '3', '4']",1,2023.2.3,harveydigits,2.1,[],8,0.75,
0,pause,0.4,None,None,None,0,305,305,305,,,,,,,,,,,,N008,digit,5,"['6', '7', '8', '9']","['1', '2', '3', '4']",1,2023.2.3,harveydigits,2.1,[],8,0.75,
20,digit,0.3,['dot'],['big_1'],black,0,306,306,306,,,109.500235080719,109.2189838886261,109.51891803741455,"[[0.19513477441339724, 0.0255320995237671]]",['DejaVu Sans'],[0.9],,,,N008,digit,5,"['6', '7', '8', '9']","['1', '2', '3', '4']",1,2023.2.3,harveydigits,2.1,[],8,0.75,
0,pause,0.4,None,None,None,0,307,307,307,,,,,,,,,,,,N008,digit,5,"['6', '7', '8', '9']","['1', '2', '3', '4']",1,2023.2.3,harveydigits,2.1,[],8,0.75,
20,digit,0.3,['dot'],['big_1'],black,0,308,308,308,,,110.20023798942566,109.91892600059509,110.21894598007202,"[[-0.09254283706304837, 0.10469190869508374]]",['DejaVu Sans'],[0.9],,,,N008,digit,5,"['6', '7', '8', '9']","['1', '2', '3', '4']",1,2023.2.3,harveydigits,2.1,[],8,0.75,
0,pause,0.4,None,None,None,0,309,309,309,,,,,,,,,,,,N008,digit,5,"['6', '7', '8', '9']","['1', '2', '3', '4']",1,2023.2.3,harveydigits,2.1,[],8,0.75,
20,digit,0.3,['dot'],['big_1'],black,0,310,310,310,,,110.90022492408752,110.61912393569946,110.91910195350647,"[[0.16613978543824906, -0.05586960619270696]]",['DejaVu Sans'],[0.9],,,,N008,digit,5,"['6', '7', '8', '9']","['1', '2', '3', '4']",1,2023.2.3,harveydigits,2.1,[],8,0.75,
0,pause,0.4,None,None,None,0,311,311,311,,,,,,,,,,,,N008,digit,5,"['6', '7', '8', '9']","['1', '2', '3', '4']",1,2023.2.3,harveydigits,2.1,[],8,0.75,
1,digit,0.3,['dot'],['small_1'],black,0,312,312,312,,,111.60022497177124,111.3189308643341,111.61896991729736,"[[-0.2953827687462117, 0.0186919682009542]]",['DejaVu Sans'],[0.6],,,,N008,digit,5,"['6', '7', '8', '9']","['1', '2', '3', '4']",1,2023.2.3,harveydigits,2.1,[],8,0.75,
0,pause,0.4,None,None,None,0,313,313,313,,,,,,,,,,,,N008,digit,5,"['6', '7', '8', '9']","['1', '2', '3', '4']",1,2023.2.3,harveydigits,2.1,[],8,0.75,
1,digit,0.3,['dot'],['small_1'],black,0,314,314,314,,,112.30023097991943,112.01889491081238,112.3189549446106,"[[0.15887858972049518, -0.06359307752899532]]",['DejaVu Sans'],[0.6],,,,N008,digit,5,"['6', '7', '8', '9']","['1', '2', '3', '4']",1,2023.2.3,harveydigits,2.1,[],8,0.75,
0,pause,0.4,None,None,None,0,315,315,315,,,,,,,,,,,,N008,digit,5,"['6', '7', '8', '9']","['1', '2', '3', '4']",1,2023.2.3,harveydigits,2.1,[],8,0.75,
1,digit,0.3,['dot'],['small_1'],black,0,316,316,316,,,113.0002429485321,112.71884799003601,113.01884508132935,"[[0.048647450570989126, 0.21558535930174905]]",['DejaVu Sans'],[0.6],,,,N008,digit,5,"['6', '7', '8', '9']","['1', '2', '3', '4']",1,2023.2.3,harveydigits,2.1,[],8,0.75,
0,pause,0.4,None,None,None,0,317,317,317,,,,,,,,,,,,N008,digit,5,"['6', '7', '8', '9']","['1', '2', '3', '4']",1,2023.2.3,harveydigits,2.1,[],8,0.75,
1,digit,0.3,['dot'],['small_1'],black,0,318,318,318,,,113.70022296905518,113.41990804672241,113.71882891654968,"[[-0.07270999980628834, -0.1711446815340474]]",['DejaVu Sans'],[0.6],,,,N008,digit,5,"['6', '7', '8', '9']","['1', '2', '3', '4']",1,2023.2.3,harveydigits,2.1,[],8,0.75,
0,pause,0.4,None,None,None,0,319,319,319,,,,,,,,,,,,N008,digit,5,"['6', '7', '8', '9']","['1', '2', '3', '4']",1,2023.2.3,harveydigits,2.1,[],8,0.75,
1,digit,0.3,['dot'],['small_1'],black,0,320,320,320,,,114.40022301673889,114.11888289451599,114.41885590553284,"[[0.07516875342218704, 0.2751762224412842]]",['DejaVu Sans'],[0.6],,,,N008,digit,5,"['6', '7', '8', '9']","['1', '2', '3', '4']",1,2023.2.3,harveydigits,2.1,[],8,0.75,
0,pause,0.4,None,None,None,0,321,321,321,,,,,,,,,,,,N008,digit,5,"['6', '7', '8', '9']","['1', '2', '3', '4']",1,2023.2.3,harveydigits,2.1,[],8,0.75,
1,digit,0.3,['dot'],['small_1'],black,0,322,322,322,,,115.10023999214172,114.8188099861145,115.11879897117615,"[[0.2989413797216445, 0.04800700599917429]]",['DejaVu Sans'],[0.6],,,,N008,digit,5,"['6', '7', '8', '9']","['1', '2', '3', '4']",1,2023.2.3,harveydigits,2.1,[],8,0.75,
0,pause,0.4,None,None,None,0,323,323,323,,,,,,,,,,,,N008,digit,5,"['6', '7', '8', '9']","['1', '2', '3', '4']",1,2023.2.3,harveydigits,2.1,[],8,0.75,
2,digit,0.3,['dot'],['small_1'],black,0,324,324,324,,,115.80024003982544,115.51881098747253,115.8188009262085,"[[-0.14897665617258882, -0.29752403919517945]]",['DejaVu Sans'],[0.6],,,,N008,digit,5,"['6', '7', '8', '9']","['1', '2', '3', '4']",1,2023.2.3,harveydigits,2.1,[],8,0.75,
0,pause,0.4,None,None,None,0,325,325,325,,,,,,,,,,,,N008,digit,5,"['6', '7', '8', '9']","['1', '2', '3', '4']",1,2023.2.3,harveydigits,2.1,[],8,0.75,
2,digit,0.3,['dot'],['small_1'],black,0,326,326,326,,,116.50021600723267,116.21882605552673,116.51883792877197,"[[-0.1762367233181979, -0.13096116287327536]]",['DejaVu Sans'],[0.6],,,,N008,digit,5,"['6', '7', '8', '9']","['1', '2', '3', '4']",1,2023.2.3,harveydigits,2.1,[],8,0.75,
0,pause,0.4,None,None,None,0,327,327,327,,,,,,,,,,,,N008,digit,5,"['6', '7', '8', '9']","['1', '2', '3', '4']",1,2023.2.3,harveydigits,2.1,[],8,0.75,
2,digit,0.3,['dot'],['small_1'],black,0,328,328,328,,,117.20022296905518,116.9187479019165,117.218740940094,"[[-0.13068254399442447, -0.2922211661875479]]",['DejaVu Sans'],[0.6],,,,N008,digit,5,"['6', '7', '8', '9']","['1', '2', '3', '4']",1,2023.2.3,harveydigits,2.1,[],8,0.75,
0,pause,0.4,None,None,None,0,329,329,329,,,,,,,,,,,,N008,digit,5,"['6', '7', '8', '9']","['1', '2', '3', '4']",1,2023.2.3,harveydigits,2.1,[],8,0.75,
2,digit,0.3,['dot'],['small_1'],black,0,330,330,330,,,117.90021800994873,117.61872792243958,117.91870594024658,"[[-0.31688584536499176, 0.08192363454453142]]",['DejaVu Sans'],[0.6],,,,N008,digit,5,"['6', '7', '8', '9']","['1', '2', '3', '4']",1,2023.2.3,harveydigits,2.1,[],8,0.75,
0,pause,0.4,None,None,None,0,331,331,331,,,,,,,,,,,,N008,digit,5,"['6', '7', '8', '9']","['1', '2', '3', '4']",1,2023.2.3,harveydigits,2.1,[],8,0.75,
2,digit,0.3,['dot'],['small_1'],black,0,332,332,332,,,118.60022306442261,118.31871104240417,118.61867594718933,"[[-0.238659959052883, 0.16720396594807008]]",['DejaVu Sans'],[0.6],,,,N008,digit,5,"['6', '7', '8', '9']","['1', '2', '3', '4']",1,2023.2.3,harveydigits,2.1,[],8,0.75,
0,pause,0.4,None,None,None,0,333,333,333,,,,,,,,,,,,N008,digit,5,"['6', '7', '8', '9']","['1', '2', '3', '4']",1,2023.2.3,harveydigits,2.1,[],8,0.75,
2,digit,0.3,['dot'],['small_1'],black,0,334,334,334,,,119.30022597312927,119.01870894432068,119.31870102882385,"[[0.08179845836236549, -0.01671400939188128]]",['DejaVu Sans'],[0.6],,,,N008,digit,5,"['6', '7', '8', '9']","['1', '2', '3', '4']",1,2023.2.3,harveydigits,2.1,[],8,0.75,
0,pause,0.4,None,None,None,0,335,335,335,,,,,,,,,,,,N008,digit,5,"['6', '7', '8', '9']","['1', '2', '3', '4']",1,2023.2.3,harveydigits,2.1,[],8,0.75,
3,digit,0.3,['dot'],['small_1'],black,0,336,336,336,,,120.0002179145813,119.71867609024048,120.01867008209229,"[[0.03404316314763678, -0.20779012929405702]]",['DejaVu Sans'],[0.6],,,,N008,digit,5,"['6', '7', '8', '9']","['1', '2', '3', '4']",1,2023.2.3,harveydigits,2.1,[],8,0.75,
0,pause,0.4,None,None,None,0,337,337,337,,,,,,,,,,,,N008,digit,5,"['6', '7', '8', '9']","['1', '2', '3', '4']",1,2023.2.3,harveydigits,2.1,[],8,0.75,
3,digit,0.3,['dot'],['small_1'],black,0,338,338,338,,,120.70023989677429,120.41867303848267,120.71863007545471,"[[-0.07879787033909241, 0.28778091945714757]]",['DejaVu Sans'],[0.6],,,,N008,digit,5,"['6', '7', '8', '9']","['1', '2', '3', '4']",1,2023.2.3,harveydigits,2.1,[],8,0.75,
0,pause,0.4,None,None,None,0,339,339,339,,,,,,,,,,,,N008,digit,5,"['6', '7', '8', '9']","['1', '2', '3', '4']",1,2023.2.3,harveydigits,2.1,[],8,0.75,
3,digit,0.3,['dot'],['small_1'],black,0,340,340,340,,,121.40022492408752,121.11868405342102,121.41862106323242,"[[0.16630896568731968, -0.2619424195139506]]",['DejaVu Sans'],[0.6],,,,N008,digit,5,"['6', '7', '8', '9']","['1', '2', '3', '4']",1,2023.2.3,harveydigits,2.1,[],8,0.75,
0,pause,0.4,None,None,None,0,341,341,341,,,,,,,,,,,,N008,digit,5,"['6', '7', '8', '9']","['1', '2', '3', '4']",1,2023.2.3,harveydigits,2.1,[],8,0.75,
3,digit,0.3,['dot'],['small_1'],black,0,342,342,342,,,122.10021686553955,121.81862306594849,122.11862087249756,"[[-0.32947896177443375, 0.03182215458848353]]",['DejaVu Sans'],[0.6],,,,N008,digit,5,"['6', '7', '8', '9']","['1', '2', '3', '4']",1,2023.2.3,harveydigits,2.1,[],8,0.75,
0,pause,0.4,None,None,None,0,343,343,343,,,,,,,,,,,,N008,digit,5,"['6', '7', '8', '9']","['1', '2', '3', '4']",1,2023.2.3,harveydigits,2.1,[],8,0.75,
3,digit,0.3,['dot'],['small_1'],black,0,344,344,344,,,122.8002200126648,122.51862096786499,122.8186149597168,"[[-0.10956033561697912, -0.07855973641967662]]",['DejaVu Sans'],[0.6],,,,N008,digit,5,"['6', '7', '8', '9']","['1', '2', '3', '4']",1,2023.2.3,harveydigits,2.1,[],8,0.75,
0,pause,0.4,None,None,None,0,345,345,345,,,,,,,,,,,,N008,digit,5,"['6', '7', '8', '9']","['1', '2', '3', '4']",1,2023.2.3,harveydigits,2.1,[],8,0.75,
3,digit,0.3,['dot'],['small_1'],black,0,346,346,346,,,123.50022196769714,123.21860599517822,123.51872491836548,"[[0.31281183790151745, -0.12034164279682294]]",['DejaVu Sans'],[0.6],,,,N008,digit,5,"['6', '7', '8', '9']","['1', '2', '3', '4']",1,2023.2.3,harveydigits,2.1,[],8,0.75,
0,pause,0.4,None,None,None,0,347,347,347,,,,,,,,,,,,N008,digit,5,"['6', '7', '8', '9']","['1', '2', '3', '4']",1,2023.2.3,harveydigits,2.1,[],8,0.75,
4,digit,0.3,['dot'],['small_1'],black,0,348,348,348,,,124.2002260684967,123.9187068939209,124.2185730934143,"[[-0.22357449166317722, 0.24052416256609105]]",['DejaVu Sans'],[0.6],,,,N008,digit,5,"['6', '7', '8', '9']","['1', '2', '3', '4']",1,2023.2.3,harveydigits,2.1,[],8,0.75,
0,pause,0.4,None,None,None,0,349,349,349,,,,,,,,,,,,N008,digit,5,"['6', '7', '8', '9']","['1', '2', '3', '4']",1,2023.2.3,harveydigits,2.1,[],8,0.75,
4,digit,0.3,['dot'],['small_1'],black,0,350,350,350,,,124.90022587776184,124.61856698989868,124.91855788230896,"[[-0.1780594355672713, 0.2146052096351015]]",['DejaVu Sans'],[0.6],,,,N008,digit,5,"['6', '7', '8', '9']","['1', '2', '3', '4']",1,2023.2.3,harveydigits,2.1,[],8,0.75,
0,pause,0.4,None,None,None,0,351,351,351,,,,,,,,,,,,N008,digit,5,"['6', '7', '8', '9']","['1', '2', '3', '4']",1,2023.2.3,harveydigits,2.1,[],8,0.75,
4,digit,0.3,['dot'],['small_1'],black,0,352,352,352,,,125.60022687911987,125.31853008270264,125.61857199668884,"[[0.2684106850871092, -0.0867786306405279]]",['DejaVu Sans'],[0.6],,,,N008,digit,5,"['6', '7', '8', '9']","['1', '2', '3', '4']",1,2023.2.3,harveydigits,2.1,[],8,0.75,
0,pause,0.4,None,None,None,0,353,353,353,,,,,,,,,,,,N008,digit,5,"['6', '7', '8', '9']","['1', '2', '3', '4']",1,2023.2.3,harveydigits,2.1,[],8,0.75,
4,digit,0.3,['dot'],['small_1'],black,0,354,354,354,,,126.30023694038391,126.01851105690002,126.31850099563599,"[[-0.31625177255524195, -0.1289498515146882]]",['DejaVu Sans'],[0.6],,,,N008,digit,5,"['6', '7', '8', '9']","['1', '2', '3', '4']",1,2023.2.3,harveydigits,2.1,[],8,0.75,
0,pause,0.4,None,None,None,0,355,355,355,,,,,,,,,,,,N008,digit,5,"['6', '7', '8', '9']","['1', '2', '3', '4']",1,2023.2.3,harveydigits,2.1,[],8,0.75,
4,digit,0.3,['dot'],['small_1'],black,0,356,356,356,,,127.0002498626709,126.718505859375,127.018483877182,"[[-0.101138908329333, 0.2038770359852427]]",['DejaVu Sans'],[0.6],,,,N008,digit,5,"['6', '7', '8', '9']","['1', '2', '3', '4']",1,2023.2.3,harveydigits,2.1,[],8,0.75,
0,pause,0.4,None,None,None,0,357,357,357,,,,,,,,,,,,N008,digit,5,"['6', '7', '8', '9']","['1', '2', '3', '4']",1,2023.2.3,harveydigits,2.1,[],8,0.75,
4,digit,0.3,['dot'],['small_1'],black,0,358,358,358,,,127.70022392272949,127.41847491264343,127.71849608421326,"[[-0.01000102064795061, 0.2983150335004374]]",['DejaVu Sans'],[0.6],,,,N008,digit,5,"['6', '7', '8', '9']","['1', '2', '3', '4']",1,2023.2.3,harveydigits,2.1,[],8,0.75,
0,pause,0.4,None,None,None,0,359,359,359,,,,,,,,,,,,N008,digit,5,"['6', '7', '8', '9']","['1', '2', '3', '4']",1,2023.2.3,harveydigits,2.1,[],8,0.75,
5,digit,0.3,['dot'],['small_1'],black,0,360,360,360,,,128.40021896362305,128.1185019016266,128.418447971344,"[[0.21207710233758914, 0.13089191356173463]]",['DejaVu Sans'],[0.6],,,,N008,digit,5,"['6', '7', '8', '9']","['1', '2', '3', '4']",1,2023.2.3,harveydigits,2.1,[],8,0.75,
0,pause,0.4,None,None,None,0,361,361,361,,,,,,,,,,,,N008,digit,5,"['6', '7', '8', '9']","['1', '2', '3', '4']",1,2023.2.3,harveydigits,2.1,[],8,0.75,
5,digit,0.3,['dot'],['small_1'],black,0,362,362,362,,,129.10022687911987,128.8184540271759,129.11843991279602,"[[0.19280738205140657, -0.18442021791372554]]",['DejaVu Sans'],[0.6],,,,N008,digit,5,"['6', '7', '8', '9']","['1', '2', '3', '4']",1,2023.2.3,harveydigits,2.1,[],8,0.75,
0,pause,0.4,None,None,None,0,363,363,363,,,,,,,,,,,,N008,digit,5,"['6', '7', '8', '9']","['1', '2', '3', '4']",1,2023.2.3,harveydigits,2.1,[],8,0.75,
5,digit,0.3,['dot'],['small_1'],black,0,364,364,364,,,129.80023288726807,129.5184609889984,129.81844806671143,"[[-0.2949468584578916, 0.17379382416195305]]",['DejaVu Sans'],[0.6],,,,N008,digit,5,"['6', '7', '8', '9']","['1', '2', '3', '4']",1,2023.2.3,harveydigits,2.1,[],8,0.75,
0,pause,0.4,None,None,None,0,365,365,365,,,,,,,,,,,,N008,digit,5,"['6', '7', '8', '9']","['1', '2', '3', '4']",1,2023.2.3,harveydigits,2.1,[],8,0.75,
5,digit,0.3,['dot'],['small_1'],black,0,366,366,366,,,130.50024700164795,130.21837997436523,130.51837992668152,"[[0.08413602290170796, -0.2991199822722298]]",['DejaVu Sans'],[0.6],,,,N008,digit,5,"['6', '7', '8', '9']","['1', '2', '3', '4']",1,2023.2.3,harveydigits,2.1,[],8,0.75,
0,pause,0.4,None,None,None,0,367,367,367,,,,,,,,,,,,N008,digit,5,"['6', '7', '8', '9']","['1', '2', '3', '4']",1,2023.2.3,harveydigits,2.1,[],8,0.75,
5,digit,0.3,['dot'],['small_1'],black,0,368,368,368,,,131.20021605491638,130.91837406158447,131.21834707260132,"[[0.11844872809399959, -0.28538808888949324]]",['DejaVu Sans'],[0.6],,,,N008,digit,5,"['6', '7', '8', '9']","['1', '2', '3', '4']",1,2023.2.3,harveydigits,2.1,[],8,0.75,
0,pause,0.4,None,None,None,0,369,369,369,,,,,,,,,,,,N008,digit,5,"['6', '7', '8', '9']","['1', '2', '3', '4']",1,2023.2.3,harveydigits,2.1,[],8,0.75,
5,digit,0.3,['dot'],['small_1'],black,0,370,370,370,,,131.90022802352905,131.61839604377747,131.91834902763367,"[[0.28854388834473554, -0.09537301449475931]]",['DejaVu Sans'],[0.6],,,,N008,digit,5,"['6', '7', '8', '9']","['1', '2', '3', '4']",1,2023.2.3,harveydigits,2.1,[],8,0.75,
0,pause,0.4,None,None,None,0,371,371,371,,,,,,,,,,,,N008,digit,5,"['6', '7', '8', '9']","['1', '2', '3', '4']",1,2023.2.3,harveydigits,2.1,[],8,0.75,
6,digit,0.3,['dot'],['small_1'],black,0,372,372,372,,,132.60024189949036,132.3183479309082,132.6183340549469,"[[0.02591373863305968, -0.3361025695041412]]",['DejaVu Sans'],[0.6],,,,N008,digit,5,"['6', '7', '8', '9']","['1', '2', '3', '4']",1,2023.2.3,harveydigits,2.1,[],8,0.75,
0,pause,0.4,None,None,None,0,373,373,373,,,,,,,,,,,,N008,digit,5,"['6', '7', '8', '9']","['1', '2', '3', '4']",1,2023.2.3,harveydigits,2.1,[],8,0.75,
6,digit,0.3,['dot'],['small_1'],black,0,374,374,374,,,133.30024600028992,133.01831793785095,133.3183000087738,"[[0.18432141212034903, -0.0005062952049994518]]",['DejaVu Sans'],[0.6],,,,N008,digit,5,"['6', '7', '8', '9']","['1', '2', '3', '4']",1,2023.2.3,harveydigits,2.1,[],8,0.75,
0,pause,0.4,None,None,None,0,375,375,375,,,,,,,,,,,,N008,digit,5,"['6', '7', '8', '9']","['1', '2', '3', '4']",1,2023.2.3,harveydigits,2.1,[],8,0.75,
6,digit,0.3,['dot'],['small_1'],black,0,376,376,376,,,134.00023889541626,133.7182879447937,134.0182740688324,"[[-0.1566458012850383, -0.019092549515736357]]",['DejaVu Sans'],[0.6],,,,N008,digit,5,"['6', '7', '8', '9']","['1', '2', '3', '4']",1,2023.2.3,harveydigits,2.1,[],8,0.75,
0,pause,0.4,None,None,None,0,377,377,377,,,,,,,,,,,,N008,digit,5,"['6', '7', '8', '9']","['1', '2', '3', '4']",1,2023.2.3,harveydigits,2.1,[],8,0.75,
6,digit,0.3,['dot'],['small_1'],black,0,378,378,378,,,134.70022201538086,134.41827297210693,134.71830105781555,"[[0.008741357468139643, -0.12873312017067157]]",['DejaVu Sans'],[0.6],,,,N008,digit,5,"['6', '7', '8', '9']","['1', '2', '3', '4']",1,2023.2.3,harveydigits,2.1,[],8,0.75,
0,pause,0.4,None,None,None,0,379,379,379,,,,,,,,,,,,N008,digit,5,"['6', '7', '8', '9']","['1', '2', '3', '4']",1,2023.2.3,harveydigits,2.1,[],8,0.75,
6,digit,0.3,['dot'],['small_1'],black,0,380,380,380,,,135.40024304389954,135.11824989318848,135.41823601722717,"[[0.02175899137331, 0.05118239246704198]]",['DejaVu Sans'],[0.6],,,,N008,digit,5,"['6', '7', '8', '9']","['1', '2', '3', '4']",1,2023.2.3,harveydigits,2.1,[],8,0.75,
0,pause,0.4,None,None,None,0,381,381,381,,,,,,,,,,,,N008,digit,5,"['6', '7', '8', '9']","['1', '2', '3', '4']",1,2023.2.3,harveydigits,2.1,[],8,0.75,
6,digit,0.3,['dot'],['small_1'],black,0,382,382,382,,,136.10023403167725,135.81824898719788,136.118234872818,"[[0.13221061386798577, -0.20170494285002677]]",['DejaVu Sans'],[0.6],,,,N008,digit,5,"['6', '7', '8', '9']","['1', '2', '3', '4']",1,2023.2.3,harveydigits,2.1,[],8,0.75,
0,pause,0.4,None,None,None,0,383,383,383,,,,,,,,,,,,N008,digit,5,"['6', '7', '8', '9']","['1', '2', '3', '4']",1,2023.2.3,harveydigits,2.1,[],8,0.75,
7,digit,0.3,['dot'],['small_1'],white,0,384,384,384,,,136.80023407936096,136.51822805404663,136.81822991371155,"[[-0.1707335096965888, 0.24625443838523664]]",['DejaVu Sans'],[0.6],,,,N008,digit,5,"['6', '7', '8', '9']","['1', '2', '3', '4']",1,2023.2.3,harveydigits,2.1,[],8,0.75,
0,pause,0.4,None,None,None,0,385,385,385,,,,,,,,,,,,N008,digit,5,"['6', '7', '8', '9']","['1', '2', '3', '4']",1,2023.2.3,harveydigits,2.1,[],8,0.75,
7,digit,0.3,['dot'],['small_1'],white,0,386,386,386,,,137.5002498626709,137.2182400226593,137.5181908607483,"[[-0.034614769882558905, -0.03025390702705333]]",['DejaVu Sans'],[0.6],,,,N008,digit,5,"['6', '7', '8', '9']","['1', '2', '3', '4']",1,2023.2.3,harveydigits,2.1,[],8,0.75,
0,pause,0.4,None,None,None,0,387,387,387,,,,,,,,,,,,N008,digit,5,"['6', '7', '8', '9']","['1', '2', '3', '4']",1,2023.2.3,harveydigits,2.1,[],8,0.75,
7,digit,0.3,['dot'],['small_1'],white,0,388,388,388,,,138.20026803016663,137.91820693016052,138.21823596954346,"[[-0.04414817944019023, 0.1942614634952825]]",['DejaVu Sans'],[0.6],left,odd,137.5975558757782,N008,digit,5,"['6', '7', '8', '9']","['1', '2', '3', '4']",1,2023.2.3,harveydigits,2.1,[],8,0.75,
0,pause,0.4,None,None,None,0,389,389,389,,,,,,,,,,,,N008,digit,5,"['6', '7', '8', '9']","['1', '2', '3', '4']",1,2023.2.3,harveydigits,2.1,[],8,0.75,
7,digit,0.3,['dot'],['small_1'],white,0,390,390,390,,,138.9002239704132,138.61821293830872,138.91821789741516,"[[-0.026219975810845175, 0.3387709307582342]]",['DejaVu Sans'],[0.6],,,,N008,digit,5,"['6', '7', '8', '9']","['1', '2', '3', '4']",1,2023.2.3,harveydigits,2.1,[],8,0.75,
0,pause,0.4,None,None,None,0,391,391,391,,,,,,,,,,,,N008,digit,5,"['6', '7', '8', '9']","['1', '2', '3', '4']",1,2023.2.3,harveydigits,2.1,[],8,0.75,
7,digit,0.3,['dot'],['small_1'],white,0,392,392,392,,,139.60022807121277,139.3182029724121,139.61815404891968,"[[0.04590274794723187, 0.328088591695337]]",['DejaVu Sans'],[0.6],,,,N008,digit,5,"['6', '7', '8', '9']","['1', '2', '3', '4']",1,2023.2.3,harveydigits,2.1,[],8,0.75,
0,pause,0.4,None,None,None,0,393,393,393,,,,,,,,,,,,N008,digit,5,"['6', '7', '8', '9']","['1', '2', '3', '4']",1,2023.2.3,harveydigits,2.1,[],8,0.75,
7,digit,0.3,['dot'],['small_1'],white,0,394,394,394,,,140.30023503303528,140.0181760787964,140.31815195083618,"[[-0.30162561598960197, -0.1359961741551745]]",['DejaVu Sans'],[0.6],,,,N008,digit,5,"['6', '7', '8', '9']","['1', '2', '3', '4']",1,2023.2.3,harveydigits,2.1,[],8,0.75,
0,pause,0.4,None,None,None,0,395,395,395,,,,,,,,,,,,N008,digit,5,"['6', '7', '8', '9']","['1', '2', '3', '4']",1,2023.2.3,harveydigits,2.1,[],8,0.75,
8,digit,0.3,['dot'],['small_1'],black,0,396,396,396,,,141.00023102760315,140.71818900108337,141.01817202568054,"[[-0.3430781216108357, 0.04190007280171239]]",['DejaVu Sans'],[0.6],,,,N008,digit,5,"['6', '7', '8', '9']","['1', '2', '3', '4']",1,2023.2.3,harveydigits,2.1,[],8,0.75,
0,pause,0.4,None,None,None,0,397,397,397,,,,,,,,,,,,N008,digit,5,"['6', '7', '8', '9']","['1', '2', '3', '4']",1,2023.2.3,harveydigits,2.1,[],8,0.75,
8,digit,0.3,['dot'],['small_1'],black,0,398,398,398,,,141.7002489566803,141.4180920124054,141.71811699867249,"[[0.1373248897626344, 0.22267875514624536]]",['DejaVu Sans'],[0.6],,,,N008,digit,5,"['6', '7', '8', '9']","['1', '2', '3', '4']",1,2023.2.3,harveydigits,2.1,[],8,0.75,
0,pause,0.4,None,None,None,0,399,399,399,,,,,,,,,,,,N008,digit,5,"['6', '7', '8', '9']","['1', '2', '3', '4']",1,2023.2.3,harveydigits,2.1,[],8,0.75,
8,digit,0.3,['dot'],['small_1'],black,0,400,400,400,,,142.40022587776184,142.11815905570984,142.41813588142395,"[[0.33961445237389043, 0.043856298678060915]]",['DejaVu Sans'],[0.6],,,,N008,digit,5,"['6', '7', '8', '9']","['1', '2', '3', '4']",1,2023.2.3,harveydigits,2.1,[],8,0.75,
0,pause,0.4,None,None,None,0,401,401,401,,,,,,,,,,,,N008,digit,5,"['6', '7', '8', '9']","['1', '2', '3', '4']",1,2023.2.3,harveydigits,2.1,[],8,0.75,
8,digit,0.3,['dot'],['small_1'],black,0,402,402,402,,,143.10024690628052,142.81804990768433,143.11812901496887,"[[-0.016079549911657554, 0.1045629167380786]]",['DejaVu Sans'],[0.6],,,,N008,digit,5,"['6', '7', '8', '9']","['1', '2', '3', '4']",1,2023.2.3,harveydigits,2.1,[],8,0.75,
0,pause,0.4,None,None,None,0,403,403,403,,,,,,,,,,,,N008,digit,5,"['6', '7', '8', '9']","['1', '2', '3', '4']",1,2023.2.3,harveydigits,2.1,[],8,0.75,
8,digit,0.3,['dot'],['small_1'],black,0,404,404,404,,,143.80023288726807,143.51804208755493,143.81805992126465,"[[0.2079215648719791, -0.11069478016768411]]",['DejaVu Sans'],[0.6],,,,N008,digit,5,"['6', '7', '8', '9']","['1', '2', '3', '4']",1,2023.2.3,harveydigits,2.1,[],8,0.75,
0,pause,0.4,None,None,None,0,405,405,405,,,,,,,,,,,,N008,digit,5,"['6', '7', '8', '9']","['1', '2', '3', '4']",1,2023.2.3,harveydigits,2.1,[],8,0.75,
8,digit,0.3,['dot'],['small_1'],black,0,406,406,406,,,144.50024700164795,144.21806693077087,144.51804304122925,"[[-0.03126451539622582, 0.03063817084347842]]",['DejaVu Sans'],[0.6],,,,N008,digit,5,"['6', '7', '8', '9']","['1', '2', '3', '4']",1,2023.2.3,harveydigits,2.1,[],8,0.75,
0,pause,0.4,None,None,None,0,407,407,407,,,,,,,,,,,,N008,digit,5,"['6', '7', '8', '9']","['1', '2', '3', '4']",1,2023.2.3,harveydigits,2.1,[],8,0.75,
9,digit,0.3,['dot'],['small_1'],black,0,408,408,408,,,145.2002398967743,144.9182050228119,145.21820187568665,"[[0.2952314927971791, 0.15365585343500585]]",['DejaVu Sans'],[0.6],,,,N008,digit,5,"['6', '7', '8', '9']","['1', '2', '3', '4']",1,2023.2.3,harveydigits,2.1,[],8,0.75,
0,pause,0.4,None,None,None,0,409,409,409,,,,,,,,,,,,N008,digit,5,"['6', '7', '8', '9']","['1', '2', '3', '4']",1,2023.2.3,harveydigits,2.1,[],8,0.75,
9,digit,0.3,['dot'],['small_1'],black,0,410,410,410,,,145.9002239704132,145.6180338859558,145.91825699806213,"[[0.004634274241169245, -0.322834477792493]]",['DejaVu Sans'],[0.6],,,,N008,digit,5,"['6', '7', '8', '9']","['1', '2', '3', '4']",1,2023.2.3,harveydigits,2.1,[],8,0.75,
0,pause,0.4,None,None,None,0,411,411,411,,,,,,,,,,,,N008,digit,5,"['6', '7', '8', '9']","['1', '2', '3', '4']",1,2023.2.3,harveydigits,2.1,[],8,0.75,
9,digit,0.3,['dot'],['small_1'],black,0,412,412,412,,,146.6002368927002,146.31824493408203,146.61798691749573,"[[-0.22603844664591957, -0.014415122570019923]]",['DejaVu Sans'],[0.6],,,,N008,digit,5,"['6', '7', '8', '9']","['1', '2', '3', '4']",1,2023.2.3,harveydigits,2.1,[],8,0.75,
0,pause,0.4,None,None,None,0,413,413,413,,,,,,,,,,,,N008,digit,5,"['6', '7', '8', '9']","['1', '2', '3', '4']",1,2023.2.3,harveydigits,2.1,[],8,0.75,
9,digit,0.3,['dot'],['small_1'],black,0,414,414,414,,,147.30023193359375,147.0180139541626,147.31796598434448,"[[0.1813980187084583, -0.044264793019070936]]",['DejaVu Sans'],[0.6],,,,N008,digit,5,"['6', '7', '8', '9']","['1', '2', '3', '4']",1,2023.2.3,harveydigits,2.1,[],8,0.75,
0,pause,0.4,None,None,None,0,415,415,415,,,,,,,,,,,,N008,digit,5,"['6', '7', '8', '9']","['1', '2', '3', '4']",1,2023.2.3,harveydigits,2.1,[],8,0.75,
9,digit,0.3,['dot'],['small_1'],black,0,416,416,416,,,148.00024700164795,147.71794390678406,148.0179798603058,"[[0.20043651223119974, -0.21043081779046496]]",['DejaVu Sans'],[0.6],,,,N008,digit,5,"['6', '7', '8', '9']","['1', '2', '3', '4']",1,2023.2.3,harveydigits,2.1,[],8,0.75,
0,pause,0.4,None,None,None,0,417,417,417,,,,,,,,,,,,N008,digit,5,"['6', '7', '8', '9']","['1', '2', '3', '4']",1,2023.2.3,harveydigits,2.1,[],8,0.75,
9,digit,0.3,['dot'],['small_1'],black,0,418,418,418,,,148.70023202896118,148.41790509223938,148.7179660797119,"[[-0.004836551331011019, -0.21771867262190459]]",['DejaVu Sans'],[0.6],,,,N008,digit,5,"['6', '7', '8', '9']","['1', '2', '3', '4']",1,2023.2.3,harveydigits,2.1,[],8,0.75,
0,pause,0.4,None,None,None,0,419,419,419,,,,,,,,,,,,N008,digit,5,"['6', '7', '8', '9']","['1', '2', '3', '4']",1,2023.2.3,harveydigits,2.1,[],8,0.75,
20,digit,0.3,['dot'],['small_1'],black,0,420,420,420,,,149.4002480506897,149.11791491508484,149.4179449081421,"[[0.2925519456454547, 0.006517577650779399]]",['DejaVu Sans'],[0.6],,,,N008,digit,5,"['6', '7', '8', '9']","['1', '2', '3', '4']",1,2023.2.3,harveydigits,2.1,[],8,0.75,
0,pause,0.4,None,None,None,0,421,421,421,,,,,,,,,,,,N008,digit,5,"['6', '7', '8', '9']","['1', '2', '3', '4']",1,2023.2.3,harveydigits,2.1,[],8,0.75,
20,digit,0.3,['dot'],['small_1'],black,0,422,422,422,,,150.10022807121277,149.81789588928223,150.11792993545532,"[[-0.08170050253215672, -0.10539356543820036]]",['DejaVu Sans'],[0.6],,,,N008,digit,5,"['6', '7', '8', '9']","['1', '2', '3', '4']",1,2023.2.3,harveydigits,2.1,[],8,0.75,
0,pause,0.4,None,None,None,0,423,423,423,,,,,,,,,,,,N008,digit,5,"['6', '7', '8', '9']","['1', '2', '3', '4']",1,2023.2.3,harveydigits,2.1,[],8,0.75,
20,digit,0.3,['dot'],['small_1'],black,0,424,424,424,,,150.80022287368774,150.51792907714844,150.8178219795227,"[[0.2784431256535722, 0.12436161558146308]]",['DejaVu Sans'],[0.6],,,,N008,digit,5,"['6', '7', '8', '9']","['1', '2', '3', '4']",1,2023.2.3,harveydigits,2.1,[],8,0.75,
0,pause,0.4,None,None,None,0,425,425,425,,,,,,,,,,,,N008,digit,5,"['6', '7', '8', '9']","['1', '2', '3', '4']",1,2023.2.3,harveydigits,2.1,[],8,0.75,
20,digit,0.3,['dot'],['small_1'],black,0,426,426,426,,,151.50022101402283,151.2179980278015,151.5179738998413,"[[-0.024525368678686377, -0.07491375167481062]]",['DejaVu Sans'],[0.6],,,,N008,digit,5,"['6', '7', '8', '9']","['1', '2', '3', '4']",1,2023.2.3,harveydigits,2.1,[],8,0.75,
0,pause,0.4,None,None,None,0,427,427,427,,,,,,,,,,,,N008,digit,5,"['6', '7', '8', '9']","['1', '2', '3', '4']",1,2023.2.3,harveydigits,2.1,[],8,0.75,
20,digit,0.3,['dot'],['small_1'],black,0,428,428,428,,,152.20025086402893,151.91802406311035,152.21783709526062,"[[-0.0935034123470293, -0.010961737394581672]]",['DejaVu Sans'],[0.6],,,,N008,digit,5,"['6', '7', '8', '9']","['1', '2', '3', '4']",1,2023.2.3,harveydigits,2.1,[],8,0.75,
0,pause,0.4,None,None,None,0,429,429,429,,,,,,,,,,,,N008,digit,5,"['6', '7', '8', '9']","['1', '2', '3', '4']",1,2023.2.3,harveydigits,2.1,[],8,0.75,
20,digit,0.3,['dot'],['small_1'],black,0,430,430,430,,,152.90024399757385,152.6180019378662,152.9179458618164,"[[-0.14090186729977086, -0.2916638164131872]]",['DejaVu Sans'],[0.6],,,,N008,digit,5,"['6', '7', '8', '9']","['1', '2', '3', '4']",1,2023.2.3,harveydigits,2.1,[],8,0.75,
0,pause,0.4,None,None,None,0,431,431,431,,,,,,,,,,,,N008,digit,5,"['6', '7', '8', '9']","['1', '2', '3', '4']",1,2023.2.3,harveydigits,2.1,[],8,0.75,
20,digit,0.3,['dot'],['small_1'],black,0,432,432,432,,,153.60024094581604,153.31786489486694,153.6177749633789,"[[0.24989254171958142, 0.14975045517368465]]",['DejaVu Sans'],[0.6],,,,N008,digit,5,"['6', '7', '8', '9']","['1', '2', '3', '4']",1,2023.2.3,harveydigits,2.1,[],8,0.75,
0,pause,0.4,None,None,None,0,433,433,433,,,,,,,,,,,,N008,digit,5,"['6', '7', '8', '9']","['1', '2', '3', '4']",1,2023.2.3,harveydigits,2.1,[],8,0.75,
20,digit,0.3,['dot'],['small_1'],black,0,434,434,434,,,154.30022501945496,154.01792192459106,154.31776905059814,"[[-0.1793489601572834, -0.13355522443901174]]",['DejaVu Sans'],[0.6],,,,N008,digit,5,"['6', '7', '8', '9']","['1', '2', '3', '4']",1,2023.2.3,harveydigits,2.1,[],8,0.75,
0,pause,0.4,None,None,None,0,435,435,435,,,,,,,,,,,,N008,digit,5,"['6', '7', '8', '9']","['1', '2', '3', '4']",1,2023.2.3,harveydigits,2.1,[],8,0.75,
20,digit,0.3,['dot'],['small_1'],black,0,436,436,436,,,155.000226020813,154.71780586242676,155.01779198646545,"[[-0.10204514117972213, 0.12505821631654473]]",['DejaVu Sans'],[0.6],,,,N008,digit,5,"['6', '7', '8', '9']","['1', '2', '3', '4']",1,2023.2.3,harveydigits,2.1,[],8,0.75,
0,pause,0.4,None,None,None,0,437,437,437,,,,,,,,,,,,N008,digit,5,"['6', '7', '8', '9']","['1', '2', '3', '4']",1,2023.2.3,harveydigits,2.1,[],8,0.75,
20,digit,0.3,['dot'],['small_1'],black,0,438,438,438,,,155.70023488998413,155.41777205467224,155.7177140712738,"[[-0.0641887003091165, -0.05179353562631167]]",['DejaVu Sans'],[0.6],,,,N008,digit,5,"['6', '7', '8', '9']","['1', '2', '3', '4']",1,2023.2.3,harveydigits,2.1,[],8,0.75,
0,pause,0.4,None,None,None,0,439,439,439,,,,,,,,,,,,N008,digit,5,"['6', '7', '8', '9']","['1', '2', '3', '4']",1,2023.2.3,harveydigits,2.1,[],8,0.75,
20,digit,0.3,['dot'],['small_1'],black,0,440,440,440,,,156.40022706985474,156.11771893501282,156.41770100593567,"[[0.06500031073953555, 0.23239205264618157]]",['DejaVu Sans'],[0.6],,,,N008,digit,5,"['6', '7', '8', '9']","['1', '2', '3', '4']",1,2023.2.3,harveydigits,2.1,[],8,0.75,
0,pause,0.4,None,None,None,0,441,441,441,,,,,,,,,,,,N008,digit,5,"['6', '7', '8', '9']","['1', '2', '3', '4']",1,2023.2.3,harveydigits,2.1,[],8,0.75,
20,digit,0.3,['dot'],['small_1'],black,0,442,442,442,,,157.10022592544556,156.81771302223206,157.11774492263794,"[[-0.0014220006419100595, 0.1415196750660212]]",['DejaVu Sans'],[0.6],,,,N008,digit,5,"['6', '7', '8', '9']","['1', '2', '3', '4']",1,2023.2.3,harveydigits,2.1,[],8,0.75,
0,pause,0.4,None,None,None,0,443,443,443,,,,,,,,,,,,N008,digit,5,"['6', '7', '8', '9']","['1', '2', '3', '4']",1,2023.2.3,harveydigits,2.1,[],8,0.75,
20,digit,0.3,['dot'],['small_1'],black,0,444,444,444,,,157.8002450466156,157.5176920890808,157.81768608093262,"[[-0.3429573670661633, -0.011565933660487492]]",['DejaVu Sans'],[0.6],,,,N008,digit,5,"['6', '7', '8', '9']","['1', '2', '3', '4']",1,2023.2.3,harveydigits,2.1,[],8,0.75,
0,pause,0.4,None,None,None,0,445,445,445,,,,,,,,,,,,N008,digit,5,"['6', '7', '8', '9']","['1', '2', '3', '4']",1,2023.2.3,harveydigits,2.1,[],8,0.75,
20,digit,0.3,['dot'],['small_1'],black,0,446,446,446,,,158.50024700164795,158.2176399230957,158.51765608787537,"[[0.07738530420580464, 0.08412121929703453]]",['DejaVu Sans'],[0.6],,,,N008,digit,5,"['6', '7', '8', '9']","['1', '2', '3', '4']",1,2023.2.3,harveydigits,2.1,[],8,0.75,
0,pause,0.4,None,None,None,0,447,447,447,,,,,,,,,,,,N008,digit,5,"['6', '7', '8', '9']","['1', '2', '3', '4']",1,2023.2.3,harveydigits,2.1,[],8,0.75,
20,digit,0.3,['dot'],['small_1'],black,0,448,448,448,,,159.20025396347046,158.91779088974,159.2176489830017,"[[0.29649900432885246, 0.002469922749874981]]",['DejaVu Sans'],[0.6],,,,N008,digit,5,"['6', '7', '8', '9']","['1', '2', '3', '4']",1,2023.2.3,harveydigits,2.1,[],8,0.75,
0,pause,0.4,None,None,None,0,449,449,449,,,,,,,,,,,,N008,digit,5,"['6', '7', '8', '9']","['1', '2', '3', '4']",1,2023.2.3,harveydigits,2.1,[],8,0.75,
20,digit,0.3,['dot'],['small_1'],black,0,450,450,450,,,159.90023493766785,159.61777591705322,159.91775488853455,"[[-0.00561105308081894, 0.29428316990379716]]",['DejaVu Sans'],[0.6],,,,N008,digit,5,"['6', '7', '8', '9']","['1', '2', '3', '4']",1,2023.2.3,harveydigits,2.1,[],8,0.75,
0,pause,0.4,None,None,None,0,451,451,451,,,,,,,,,,,,N008,digit,5,"['6', '7', '8', '9']","['1', '2', '3', '4']",1,2023.2.3,harveydigits,2.1,[],8,0.75,
20,digit,0.3,['dot'],['small_1'],black,0,452,452,452,,,160.60025191307068,160.3177490234375,160.61760306358337,"[[0.3338807328361969, -0.07381241475992553]]",['DejaVu Sans'],[0.6],,,,N008,digit,5,"['6', '7', '8', '9']","['1', '2', '3', '4']",1,2023.2.3,harveydigits,2.1,[],8,0.75,
0,pause,0.4,None,None,None,0,453,453,453,,,,,,,,,,,,N008,digit,5,"['6', '7', '8', '9']","['1', '2', '3', '4']",1,2023.2.3,harveydigits,2.1,[],8,0.75,
20,digit,0.3,['dot'],['small_1'],black,0,454,454,454,,,161.30025005340576,161.01759791374207,161.31772589683533,"[[0.16793985186223515, -0.2545876556452854]]",['DejaVu Sans'],[0.6],,,,N008,digit,5,"['6', '7', '8', '9']","['1', '2', '3', '4']",1,2023.2.3,harveydigits,2.1,[],8,0.75,
0,pause,0.4,None,None,None,0,455,455,455,,,,,,,,,,,,N008,digit,5,"['6', '7', '8', '9']","['1', '2', '3', '4']",1,2023.2.3,harveydigits,2.1,[],8,0.75,
20,digit,0.3,['dot'],['small_1'],black,0,456,456,456,,,162.0002360343933,161.71772289276123,162.01769304275513,"[[-0.06633418105962152, -0.01857755403246325]]",['DejaVu Sans'],[0.6],,,,N008,digit,5,"['6', '7', '8', '9']","['1', '2', '3', '4']",1,2023.2.3,harveydigits,2.1,[],8,0.75,
0,pause,0.4,None,None,None,0,457,457,457,,,,,,,,,,,,N008,digit,5,"['6', '7', '8', '9']","['1', '2', '3', '4']",1,2023.2.3,harveydigits,2.1,[],8,0.75,
20,digit,0.3,['dot'],['small_1'],black,0,458,458,458,,,162.70025300979614,162.4175510406494,162.7175259590149,"[[0.17165799795805525, 0.2899779136865047]]",['DejaVu Sans'],[0.6],,,,N008,digit,5,"['6', '7', '8', '9']","['1', '2', '3', '4']",1,2023.2.3,harveydigits,2.1,[],8,0.75,
0,pause,0.4,None,None,None,0,459,459,459,,,,,,,,,,,,N008,digit,5,"['6', '7', '8', '9']","['1', '2', '3', '4']",1,2023.2.3,harveydigits,2.1,[],8,0.75,
20,digit,0.3,['dot'],['small_1'],black,0,460,460,460,,,163.400230884552,163.11751699447632,163.41750597953796,"[[0.17225173608234956, 0.19707796938029076]]",['DejaVu Sans'],[0.6],,,,N008,digit,5,"['6', '7', '8', '9']","['1', '2', '3', '4']",1,2023.2.3,harveydigits,2.1,[],8,0.75,
0,pause,0.4,None,None,None,0,461,461,461,,,,,,,,,,,,N008,digit,5,"['6', '7', '8', '9']","['1', '2', '3', '4']",1,2023.2.3,harveydigits,2.1,[],8,0.75,
20,digit,0.3,['dot'],['small_1'],black,0,462,462,462,,,164.10025000572205,163.81750297546387,164.11749505996704,"[[-0.16346654948587627, -0.20387401221505824]]",['DejaVu Sans'],[0.6],,,,N008,digit,5,"['6', '7', '8', '9']","['1', '2', '3', '4']",1,2023.2.3,harveydigits,2.1,[],8,0.75,
0,pause,0.4,None,None,None,0,463,463,463,,,,,,,,,,,,N008,digit,5,"['6', '7', '8', '9']","['1', '2', '3', '4']",1,2023.2.3,harveydigits,2.1,[],8,0.75,
20,digit,0.3,['dot'],['small_1'],black,0,464,464,464,,,164.80025601387024,164.5174810886383,164.81750893592834,"[[0.17926547028723416, -0.06552214574414625]]",['DejaVu Sans'],[0.6],,,,N008,digit,5,"['6', '7', '8', '9']","['1', '2', '3', '4']",1,2023.2.3,harveydigits,2.1,[],8,0.75,
