num,mod,duration,shape,ll_cond,colors,.thisRepN,.thisTrialN,.thisN,.thisIndex,thisRow.t,notes,raw_global_time,t_start,t_stop,shapes,size,pos,cond,color,button,RT,participant,session,starting_run,left button (match/odd),right button (non-match/even),samples_per_block,psychopy version,expName,offset,audio,number_runs,radius,
1,dot,0.3,['dot'],['density'],black,0,0,0,0,,,2.400207042694092,2.112128973007202,2.4120359420776367,dot,[0.08],"[0.00661777001411412, 0.39634766145863237]",density,black,,,N011,visual,1,[],"['1', '2', '3', '4']",1,2023.2.3,harveyvisual,2.1,[],8,0.75,
0,pause,0.4,None,None,None,0,1,1,1,,,,,,,,,,,,,N011,visual,1,[],"['1', '2', '3', '4']",1,2023.2.3,harveyvisual,2.1,[],8,0.75,
1,dot,0.3,['dot'],['density'],black,0,2,2,2,,,3.100187063217163,2.812062978744507,3.111872911453247,dot,[0.1],"[-0.31757534052014, 0.30709612076893067]",density,black,,,N011,visual,1,[],"['1', '2', '3', '4']",1,2023.2.3,harveyvisual,2.1,[],8,0.75,
0,pause,0.4,None,None,None,0,3,3,3,,,,,,,,,,,,,N011,visual,1,[],"['1', '2', '3', '4']",1,2023.2.3,harveyvisual,2.1,[],8,0.75,
1,dot,0.3,['dot'],['density'],black,0,4,4,4,,,3.8002068996429443,3.511871099472046,3.8118600845336914,dot,[0.06],"[-0.1989246115662565, -0.15069844343359862]",density,black,,,N011,visual,1,[],"['1', '2', '3', '4']",1,2023.2.3,harveyvisual,2.1,[],8,0.75,
0,pause,0.4,None,None,None,0,5,5,5,,,,,,,,,,,,,N011,visual,1,[],"['1', '2', '3', '4']",1,2023.2.3,harveyvisual,2.1,[],8,0.75,
1,dot,0.3,['dot'],['density'],white,0,6,6,6,,,4.5001890659332275,4.211890935897827,4.51188588142395,dot,[0.1],"[-0.4309303250570785, -0.37878052449928096]",density,white,,,N011,visual,1,[],"['1', '2', '3', '4']",1,2023.2.3,harveyvisual,2.1,[],8,0.75,
0,pause,0.4,None,None,None,0,7,7,7,,,,,,,,,,,1,4.1700520515441895,N011,visual,1,[],"['1', '2', '3', '4']",1,2023.2.3,harveyvisual,2.1,[],8,0.75,
1,dot,0.3,['dot'],['density'],black,0,8,8,8,,,5.200196027755737,4.912610054016113,5.212889909744263,dot,[0.1],"[-0.0300711363278092, -0.16168860719337894]",density,black,,,N011,visual,1,[],"['1', '2', '3', '4']",1,2023.2.3,harveyvisual,2.1,[],8,0.75,
0,pause,0.4,None,None,None,0,9,9,9,,,,,,,,,,,,,N011,visual,1,[],"['1', '2', '3', '4']",1,2023.2.3,harveyvisual,2.1,[],8,0.75,
1,dot,0.3,['dot'],['density'],black,0,10,10,10,,,5.9001898765563965,5.612323045730591,5.912306070327759,dot,[0.08],"[0.1049869166116724, 0.1335000464341748]",density,black,,,N011,visual,1,[],"['1', '2', '3', '4']",1,2023.2.3,harveyvisual,2.1,[],8,0.75,
0,pause,0.4,None,None,None,0,11,11,11,,,,,,,,,,,,,N011,visual,1,[],"['1', '2', '3', '4']",1,2023.2.3,harveyvisual,2.1,[],8,0.75,
2,dot,0.3,['dot'],['density'],black,0,12,12,12,,,6.600193977355957,6.312294006347656,6.61228609085083,dot,"[0.1, 0.1]","[[0.1734117655345296, 0.46860731914486053], [-0.01847566562869785, 0.52581935004857]]",density,black,,,N011,visual,1,[],"['1', '2', '3', '4']",1,2023.2.3,harveyvisual,2.1,[],8,0.75,
0,pause,0.4,None,None,None,0,13,13,13,,,,,,,,,,,,,N011,visual,1,[],"['1', '2', '3', '4']",1,2023.2.3,harveyvisual,2.1,[],8,0.75,
2,dot,0.3,['dot'],['density'],black,0,14,14,14,,,7.300191879272461,7.012279033660889,7.312268018722534,dot,"[0.08, 0.08]","[[0.500151128333041, 0.1656925720118866], [0.3771979967144504, 0.3235340638115745]]",density,black,,,N011,visual,1,[],"['1', '2', '3', '4']",1,2023.2.3,harveyvisual,2.1,[],8,0.75,
0,pause,0.4,None,None,None,0,15,15,15,,,,,,,,,,,,,N011,visual,1,[],"['1', '2', '3', '4']",1,2023.2.3,harveyvisual,2.1,[],8,0.75,
2,dot,0.3,['dot'],['density'],white,0,16,16,16,,,8.000207901000977,7.714561939239502,8.014563083648682,dot,"[0.08, 0.1]","[[-0.15001882639889116, 0.48719053997247297], [-0.1736568080125972, 0.28835755901726084]]",density,white,,,N011,visual,1,[],"['1', '2', '3', '4']",1,2023.2.3,harveyvisual,2.1,[],8,0.75,
0,pause,0.4,None,None,None,0,17,17,17,,,,,,,,,,,1,7.591459035873413,N011,visual,1,[],"['1', '2', '3', '4']",1,2023.2.3,harveyvisual,2.1,[],8,0.75,
2,dot,0.3,['dot'],['density'],black,0,18,18,18,,,8.700195074081421,8.414541006088257,8.714534044265747,dot,"[0.08, 0.1]","[[-0.03288134563171543, -0.4238564918242606], [-0.10611641736664675, -0.2370354775439666]]",density,black,,,N011,visual,1,[],"['1', '2', '3', '4']",1,2023.2.3,harveyvisual,2.1,[],8,0.75,
0,pause,0.4,None,None,None,0,19,19,19,,,,,,,,,,,,,N011,visual,1,[],"['1', '2', '3', '4']",1,2023.2.3,harveyvisual,2.1,[],8,0.75,
2,dot,0.3,['dot'],['density'],black,0,20,20,20,,,9.400216102600098,9.11452603340149,9.414520025253296,dot,"[0.06, 0.06]","[[0.17083311991776792, -0.05558111512160733], [0.1461049568064877, -0.25438559320493304]]",density,black,,,N011,visual,1,[],"['1', '2', '3', '4']",1,2023.2.3,harveyvisual,2.1,[],8,0.75,
0,pause,0.4,None,None,None,0,21,21,21,,,,,,,,,,,,,N011,visual,1,[],"['1', '2', '3', '4']",1,2023.2.3,harveyvisual,2.1,[],8,0.75,
2,dot,0.3,['dot'],['density'],black,0,22,22,22,,,10.100212097167969,9.814507007598877,10.114496946334839,dot,"[0.08, 0.08]","[[0.45098141687762733, -0.20237638590572143], [0.5433504117931098, -0.02475258047346216]]",density,black,,,N011,visual,1,[],"['1', '2', '3', '4']",1,2023.2.3,harveyvisual,2.1,[],8,0.75,
0,pause,0.4,None,None,None,0,23,23,23,,,,,,,,,,,,,N011,visual,1,[],"['1', '2', '3', '4']",1,2023.2.3,harveyvisual,2.1,[],8,0.75,
3,dot,0.3,['dot'],['density'],black,0,24,24,24,,,10.800198078155518,10.515798091888428,10.814495086669922,dot,"[0.08, 0.06, 0.1]","[[0.06695044750400271, -0.4036822973150869], [0.2898428615912539, -0.43752325319744867], [0.2484486434572057, -0.2241911098289173]]",density,black,,,N011,visual,1,[],"['1', '2', '3', '4']",1,2023.2.3,harveyvisual,2.1,[],8,0.75,
0,pause,0.4,None,None,None,0,25,25,25,,,,,,,,,,,,,N011,visual,1,[],"['1', '2', '3', '4']",1,2023.2.3,harveyvisual,2.1,[],8,0.75,
3,dot,0.3,['dot'],['density'],black,0,26,26,26,,,11.500202894210815,11.214487075805664,11.514555931091309,dot,"[0.08, 0.1, 0.06]","[[-0.36641147837046456, 0.28339849123565264], [-0.19108570342652328, 0.4628134959899303], [-0.16564092668537764, 0.24926372681875647]]",density,black,,,N011,visual,1,[],"['1', '2', '3', '4']",1,2023.2.3,harveyvisual,2.1,[],8,0.75,
0,pause,0.4,None,None,None,0,27,27,27,,,,,,,,,,,,,N011,visual,1,[],"['1', '2', '3', '4']",1,2023.2.3,harveyvisual,2.1,[],8,0.75,
3,dot,0.3,['dot'],['density'],black,0,28,28,28,,,12.200206995010376,11.914496898651123,12.214545965194702,dot,"[0.06, 0.1, 0.08]","[[-0.015545778166788895, 0.3668732894324268], [-0.08169376046335623, 0.5804400028356697], [-0.24536523618143577, 0.46292967544173164]]",density,black,,,N011,visual,1,[],"['1', '2', '3', '4']",1,2023.2.3,harveyvisual,2.1,[],8,0.75,
0,pause,0.4,None,None,None,0,29,29,29,,,,,,,,,,,,,N011,visual,1,[],"['1', '2', '3', '4']",1,2023.2.3,harveyvisual,2.1,[],8,0.75,
3,dot,0.3,['dot'],['density'],black,0,30,30,30,,,12.900212049484253,12.614561080932617,12.914501905441284,dot,"[0.06, 0.06, 0.08]","[[0.16698284004709638, 0.14340522813657522], [0.014382160343152013, -0.0120418799203457], [0.17626274868444566, -0.13037823744598942]]",density,black,,,N011,visual,1,[],"['1', '2', '3', '4']",1,2023.2.3,harveyvisual,2.1,[],8,0.75,
0,pause,0.4,None,None,None,0,31,31,31,,,,,,,,,,,,,N011,visual,1,[],"['1', '2', '3', '4']",1,2023.2.3,harveyvisual,2.1,[],8,0.75,
3,dot,0.3,['dot'],['density'],black,0,32,32,32,,,13.600215911865234,13.314416885375977,13.614397048950195,dot,"[0.08, 0.08, 0.08]","[[-0.021384933427115945, -0.26055744462645497], [0.16478637362895734, -0.404980755917603], [-0.025077849445719256, -0.48190209473619267]]",density,black,,,N011,visual,1,[],"['1', '2', '3', '4']",1,2023.2.3,harveyvisual,2.1,[],8,0.75,
0,pause,0.4,None,None,None,0,33,33,33,,,,,,,,,,,,,N011,visual,1,[],"['1', '2', '3', '4']",1,2023.2.3,harveyvisual,2.1,[],8,0.75,
3,dot,0.3,['dot'],['density'],black,0,34,34,34,,,14.300206899642944,14.014405965805054,14.31439208984375,dot,"[0.08, 0.08, 0.1]","[[-0.18534860244577742, 0.5145019772121514], [0.05660586421610542, 0.42456432010350276], [-0.11463700911578348, 0.31489985189225056]]",density,black,,,N011,visual,1,[],"['1', '2', '3', '4']",1,2023.2.3,harveyvisual,2.1,[],8,0.75,
0,pause,0.4,None,None,None,0,35,35,35,,,,,,,,,,,,,N011,visual,1,[],"['1', '2', '3', '4']",1,2023.2.3,harveyvisual,2.1,[],8,0.75,
4,dot,0.3,['dot'],['density'],black,0,36,36,36,,,15.000205039978027,14.714438915252686,15.014450073242188,dot,"[0.06, 0.06, 0.08, 0.1]","[[0.17852470546651972, -0.2012438881607824], [-0.031034799765910746, -0.12466087783573923], [0.008996399474264666, -0.3229379719524122], [0.15114343287780646, 0.03986859122442722]]",density,black,,,N011,visual,1,[],"['1', '2', '3', '4']",1,2023.2.3,harveyvisual,2.1,[],8,0.75,
0,pause,0.4,None,None,None,0,37,37,37,,,,,,,,,,,,,N011,visual,1,[],"['1', '2', '3', '4']",1,2023.2.3,harveyvisual,2.1,[],8,0.75,
4,dot,0.3,['dot'],['density'],black,0,38,38,38,,,15.700198888778687,15.414454936981201,15.71435809135437,dot,"[0.1, 0.06, 0.1, 0.1]","[[0.06241226843583792, -0.3147100539198924], [0.2553405417111816, -0.24584579293690137], [0.0027514156828475403, -0.09786489187307437], [0.1660279615748852, 0.026007470517245626]]",density,black,,,N011,visual,1,[],"['1', '2', '3', '4']",1,2023.2.3,harveyvisual,2.1,[],8,0.75,
0,pause,0.4,None,None,None,0,39,39,39,,,,,,,,,,,,,N011,visual,1,[],"['1', '2', '3', '4']",1,2023.2.3,harveyvisual,2.1,[],8,0.75,
4,dot,0.3,['dot'],['density'],black,0,40,40,40,,,16.400211095809937,16.114356994628906,16.41432809829712,dot,"[0.06, 0.06, 0.06, 0.1]","[[-0.43942495523079517, -0.22401056498097033], [-0.009260832099230759, -0.1633376679159051], [-0.21598309108097546, -0.10172603009605206], [-0.2278206133413005, -0.33154874685782076]]",density,black,,,N011,visual,1,[],"['1', '2', '3', '4']",1,2023.2.3,harveyvisual,2.1,[],8,0.75,
0,pause,0.4,None,None,None,0,41,41,41,,,,,,,,,,,,,N011,visual,1,[],"['1', '2', '3', '4']",1,2023.2.3,harveyvisual,2.1,[],8,0.75,
4,dot,0.3,['dot'],['density'],black,0,42,42,42,,,17.100202083587646,16.814316987991333,17.114312887191772,dot,"[0.06, 0.06, 0.06, 0.08]","[[0.041567121943163726, -0.05225384285034155], [-0.0805660347394345, -0.3501797602382367], [-0.1695568067340664, -0.0700859275369407], [0.1361950610904954, -0.2628340353233457]]",density,black,,,N011,visual,1,[],"['1', '2', '3', '4']",1,2023.2.3,harveyvisual,2.1,[],8,0.75,
0,pause,0.4,None,None,None,0,43,43,43,,,,,,,,,,,,,N011,visual,1,[],"['1', '2', '3', '4']",1,2023.2.3,harveyvisual,2.1,[],8,0.75,
4,dot,0.3,['dot'],['density'],black,0,44,44,44,,,17.800194025039673,17.51430606842041,17.814305067062378,dot,"[0.08, 0.06, 0.08, 0.06]","[[0.14909032788103166, -0.4768554918693636], [0.26071220381864263, -0.20018841858473793], [0.02634252458519163, -0.30967292471165575], [0.3541358554053611, -0.43808560323820217]]",density,black,,,N011,visual,1,[],"['1', '2', '3', '4']",1,2023.2.3,harveyvisual,2.1,[],8,0.75,
0,pause,0.4,None,None,None,0,45,45,45,,,,,,,,,,,,,N011,visual,1,[],"['1', '2', '3', '4']",1,2023.2.3,harveyvisual,2.1,[],8,0.75,
4,dot,0.3,['dot'],['density'],black,0,46,46,46,,,18.50019907951355,18.21429991722107,18.514326095581055,dot,"[0.06, 0.1, 0.08, 0.06]","[[-0.1266132934267609, -0.4419116806690939], [0.09906976576587005, -0.33923851916676484], [0.1053941350115203, -0.5768907290059295], [0.29145715672269834, -0.49787884973145785]]",density,black,,,N011,visual,1,[],"['1', '2', '3', '4']",1,2023.2.3,harveyvisual,2.1,[],8,0.75,
0,pause,0.4,None,None,None,0,47,47,47,,,,,,,,,,,,,N011,visual,1,[],"['1', '2', '3', '4']",1,2023.2.3,harveyvisual,2.1,[],8,0.75,
5,dot,0.3,['dot'],['density'],black,0,48,48,48,,,19.200215101242065,18.914278984069824,19.214256048202515,dot,"[0.08, 0.06, 0.08, 0.1, 0.08]","[[-0.416197921377668, -0.28619329865683824], [-0.20866628843358032, -0.3460647126262422], [-0.5570429559765239, -0.05989317214741584], [-0.28028983240144106, -0.12146425093182346], [-0.3531870384577651, 0.07845006904085886]]",density,black,,,N011,visual,1,[],"['1', '2', '3', '4']",1,2023.2.3,harveyvisual,2.1,[],8,0.75,
0,pause,0.4,None,None,None,0,49,49,49,,,,,,,,,,,,,N011,visual,1,[],"['1', '2', '3', '4']",1,2023.2.3,harveyvisual,2.1,[],8,0.75,
5,dot,0.3,['dot'],['density'],black,0,50,50,50,,,19.900206089019775,19.61425805091858,19.91423988342285,dot,"[0.08, 0.06, 0.1, 0.1, 0.08]","[[0.07471778162596296, -0.10525453490666745], [0.30258431325283514, -0.18125951612401361], [-0.10797831538154114, 0.025200229490558432], [0.07898181201564736, 0.11749757771993925], [0.31731369449760916, 0.032388289652815004]]",density,black,,,N011,visual,1,[],"['1', '2', '3', '4']",1,2023.2.3,harveyvisual,2.1,[],8,0.75,
0,pause,0.4,None,None,None,0,51,51,51,,,,,,,,,,,,,N011,visual,1,[],"['1', '2', '3', '4']",1,2023.2.3,harveyvisual,2.1,[],8,0.75,
5,dot,0.3,['dot'],['density'],black,0,52,52,52,,,20.6002140045166,20.31424307823181,20.61423110961914,dot,"[0.1, 0.08, 0.1, 0.1, 0.06]","[[0.4409169755572007, 0.017856988789309493], [0.10933872532765951, -0.20637645515835812], [0.27728831588229885, 0.198954967346464], [0.3100556643305453, -0.16532657838491105], [0.11148968869271939, 0.006469487304542018]]",density,black,,,N011,visual,1,[],"['1', '2', '3', '4']",1,2023.2.3,harveyvisual,2.1,[],8,0.75,
0,pause,0.4,None,None,None,0,53,53,53,,,,,,,,,,,,,N011,visual,1,[],"['1', '2', '3', '4']",1,2023.2.3,harveyvisual,2.1,[],8,0.75,
5,dot,0.3,['dot'],['density'],black,0,54,54,54,,,21.300216913223267,21.016820907592773,21.31449294090271,dot,"[0.08, 0.1, 0.06, 0.1, 0.1]","[[-0.3632963637400461, -0.33792544526642676], [-0.48189922448633543, -0.036156829306921726], [-0.2958020468624338, 0.07292024124872273], [-0.10639492237515816, -0.0008972940205680791], [-0.20818262001932955, -0.17666930306052683]]",density,black,,,N011,visual,1,[],"['1', '2', '3', '4']",1,2023.2.3,harveyvisual,2.1,[],8,0.75,
0,pause,0.4,None,None,None,0,55,55,55,,,,,,,,,,,,,N011,visual,1,[],"['1', '2', '3', '4']",1,2023.2.3,harveyvisual,2.1,[],8,0.75,
5,dot,0.3,['dot'],['density'],black,0,56,56,56,,,22.000192880630493,21.714471101760864,22.014211893081665,dot,"[0.08, 0.06, 0.08, 0.06, 0.1]","[[-0.5348211864270219, -0.08335004612931018], [-0.428892633085643, 0.14758700623805307], [-0.3277098387322906, -0.27887202276080253], [-0.29687101947458117, -0.03792463078145938], [-0.23363771935579355, 0.21194794904782605]]",density,black,,,N011,visual,1,[],"['1', '2', '3', '4']",1,2023.2.3,harveyvisual,2.1,[],8,0.75,
0,pause,0.4,None,None,None,0,57,57,57,,,,,,,,,,,,,N011,visual,1,[],"['1', '2', '3', '4']",1,2023.2.3,harveyvisual,2.1,[],8,0.75,
5,dot,0.3,['dot'],['density'],black,0,58,58,58,,,22.700191020965576,22.414448976516724,22.714416027069092,dot,"[0.1, 0.1, 0.06, 0.06, 0.1]","[[-0.19096480170835262, 0.2202776521134577], [0.009488999043989208, 0.5721548226574139], [0.16477125949827795, 0.3732973518003487], [0.07476286221063107, 0.1476230553836633], [-0.051949696108355745, 0.36609537475325354]]",density,black,,,N011,visual,1,[],"['1', '2', '3', '4']",1,2023.2.3,harveyvisual,2.1,[],8,0.75,
0,pause,0.4,None,None,None,0,59,59,59,,,,,,,,,,,,,N011,visual,1,[],"['1', '2', '3', '4']",1,2023.2.3,harveyvisual,2.1,[],8,0.75,
6,dot,0.3,['dot'],['density'],black,0,60,60,60,,,23.40019989013672,23.114422082901,23.414413928985596,dot,"[0.08, 0.06, 0.1, 0.06, 0.06, 0.06]","[[0.1442800129286608, -0.025670240792647715], [-0.253335145558221, 0.06312541807928282], [0.15340240856287354, 0.2410349392962658], [-0.1639657784688781, 0.25075335361279655], [-0.07910231793701084, -0.12784096878077061], [-0.011661193723423325, 0.11361106492824657]]",density,black,,,N011,visual,1,[],"['1', '2', '3', '4']",1,2023.2.3,harveyvisual,2.1,[],8,0.75,
0,pause,0.4,None,None,None,0,61,61,61,,,,,,,,,,,,,N011,visual,1,[],"['1', '2', '3', '4']",1,2023.2.3,harveyvisual,2.1,[],8,0.75,
6,dot,0.3,['dot'],['density'],black,0,62,62,62,,,24.100210905075073,23.814208030700684,24.11432194709778,dot,"[0.1, 0.1, 0.08, 0.1, 0.06, 0.08]","[[-0.2094991805307552, 0.08302354111181451], [0.09557258300728075, 0.3458622669714129], [0.22056408800171526, -0.017094369341425636], [0.026601936584830878, 0.1297564650757722], [-0.11681768564656844, 0.2726391152528644], [-0.03570146891163527, -0.09222923444939024]]",density,black,,,N011,visual,1,[],"['1', '2', '3', '4']",1,2023.2.3,harveyvisual,2.1,[],8,0.75,
0,pause,0.4,None,None,None,0,63,63,63,,,,,,,,,,,,,N011,visual,1,[],"['1', '2', '3', '4']",1,2023.2.3,harveyvisual,2.1,[],8,0.75,
6,dot,0.3,['dot'],['density'],black,0,64,64,64,,,24.800204038619995,24.514132022857666,24.814109086990356,dot,"[0.1, 0.06, 0.1, 0.08, 0.08, 0.1]","[[0.1344939073868, 0.11682503965153783], [0.2622842826516073, -0.1576809643807538], [0.491422654665352, 0.2653315688189552], [0.5669231994484553, 0.0667155191364867], [0.2299276458131091, 0.29835232047215776], [0.3356420801536577, 0.10517090915368521]]",density,black,,,N011,visual,1,[],"['1', '2', '3', '4']",1,2023.2.3,harveyvisual,2.1,[],8,0.75,
0,pause,0.4,None,None,None,0,65,65,65,,,,,,,,,,,,,N011,visual,1,[],"['1', '2', '3', '4']",1,2023.2.3,harveyvisual,2.1,[],8,0.75,
6,dot,0.3,['dot'],['density'],black,0,66,66,66,,,25.500205993652344,25.21418309211731,25.514095067977905,dot,"[0.1, 0.06, 0.06, 0.08, 0.08, 0.1]","[[0.500827999951601, -0.23304028533624072], [0.20916386845998064, 0.08030245107060778], [0.27809793757338463, -0.1905950399710685], [0.08327260932553728, -0.13599284299194644], [0.16768982653485215, -0.38480252821003114], [0.4174962964646186, 0.01069632702004041]]",density,black,,,N011,visual,1,[],"['1', '2', '3', '4']",1,2023.2.3,harveyvisual,2.1,[],8,0.75,
0,pause,0.4,None,None,None,0,67,67,67,,,,,,,,,,,,,N011,visual,1,[],"['1', '2', '3', '4']",1,2023.2.3,harveyvisual,2.1,[],8,0.75,
6,dot,0.3,['dot'],['density'],black,0,68,68,68,,,26.200206995010376,25.91408610343933,26.21406888961792,dot,"[0.06, 0.06, 0.1, 0.1, 0.1, 0.06]","[[-0.3495133471434448, -0.27378397825191725], [-0.13100446626766318, 0.13866361521721876], [-0.5155090776439144, 0.11776884681908774], [-0.4780287848267884, -0.11588239978167382], [-0.11897161770401087, -0.0933943475842369], [-0.303431097341306, -0.010759678588622423]]",density,black,,,N011,visual,1,[],"['1', '2', '3', '4']",1,2023.2.3,harveyvisual,2.1,[],8,0.75,
0,pause,0.4,None,None,None,0,69,69,69,,,,,,,,,,,,,N011,visual,1,[],"['1', '2', '3', '4']",1,2023.2.3,harveyvisual,2.1,[],8,0.75,
6,dot,0.3,['dot'],['density'],black,0,70,70,70,,,26.900201082229614,26.614070892333984,26.914047956466675,dot,"[0.08, 0.1, 0.06, 0.06, 0.06, 0.1]","[[-0.36904347190091025, 0.2789229011504548], [-0.01038079434194998, 0.053649704929766846], [-0.08735338951653393, 0.578282782753283], [5.153534382930422e-05, 0.38446941554394387], [-0.22753401468201206, 0.43210907521897474], [-0.14647282530567177, 0.24517240432070728]]",density,black,,,N011,visual,1,[],"['1', '2', '3', '4']",1,2023.2.3,harveyvisual,2.1,[],8,0.75,
0,pause,0.4,None,None,None,0,71,71,71,,,,,,,,,,,,,N011,visual,1,[],"['1', '2', '3', '4']",1,2023.2.3,harveyvisual,2.1,[],8,0.75,
7,dot,0.3,['dot'],['density'],black,0,72,72,72,,,27.600209951400757,27.314054012298584,27.61405897140503,dot,"[0.1, 0.08, 0.06, 0.1, 0.08, 0.08, 0.08]","[[-0.23675386446936744, -0.019099737415117023], [-0.3793299299598963, 0.3840296974489508], [0.16444052853698826, 0.25964081185693966], [-0.17441972694422359, 0.2376971805458075], [0.025313303261310992, 0.0859287266400301], [-0.3760941870171968, 0.1722047307528389], [-0.012854506600276856, 0.3778399739802858]]",density,black,,,N011,visual,1,[],"['1', '2', '3', '4']",1,2023.2.3,harveyvisual,2.1,[],8,0.75,
0,pause,0.4,None,None,None,0,73,73,73,,,,,,,,,,,,,N011,visual,1,[],"['1', '2', '3', '4']",1,2023.2.3,harveyvisual,2.1,[],8,0.75,
7,dot,0.3,['dot'],['density'],black,0,74,74,74,,,28.300195932388306,28.014029026031494,28.314011096954346,dot,"[0.06, 0.1, 0.08, 0.08, 0.06, 0.06, 0.1]","[[-0.026372969700101213, 0.05085620782211805], [-0.16304282038196347, -0.3616501386780019], [-0.013762327205412121, -0.14910430285435466], [0.14729449770710015, -0.3647544547161306], [-0.22494517313234175, -0.12035103032643314], [-0.36514670174418407, -0.33057163197754225], [0.21417125919861074, -0.06627923590771367]]",density,black,,,N011,visual,1,[],"['1', '2', '3', '4']",1,2023.2.3,harveyvisual,2.1,[],8,0.75,
0,pause,0.4,None,None,None,0,75,75,75,,,,,,,,,,,,,N011,visual,1,[],"['1', '2', '3', '4']",1,2023.2.3,harveyvisual,2.1,[],8,0.75,
7,dot,0.3,['dot'],['density'],black,0,76,76,76,,,29.000216960906982,28.714009046554565,29.01402497291565,dot,"[0.1, 0.08, 0.06, 0.08, 0.1, 0.08, 0.06]","[[-0.03978284138183809, -0.43963729991580147], [0.2770736023028816, -0.4460091285183096], [0.4264240077257641, -0.26124456405115876], [0.04351789842027954, -0.004572294527936195], [0.08491707485555088, -0.26540219852266356], [0.2274622265833728, -0.10044916879814345], [0.4232844185721205, -0.050742783717769746]]",density,black,,,N011,visual,1,[],"['1', '2', '3', '4']",1,2023.2.3,harveyvisual,2.1,[],8,0.75,
0,pause,0.4,None,None,None,0,77,77,77,,,,,,,,,,,,,N011,visual,1,[],"['1', '2', '3', '4']",1,2023.2.3,harveyvisual,2.1,[],8,0.75,
7,dot,0.3,['dot'],['density'],black,0,78,78,78,,,29.70019793510437,29.41405987739563,29.714051961898804,dot,"[0.1, 0.08, 0.1, 0.08, 0.06, 0.06, 0.06]","[[-0.3025445156539714, -0.42280529123536587], [0.12162933753582021, -0.2851722644810181], [-0.2753205641105948, -0.038672864930592576], [-0.4202189534315163, -0.18742991959605093], [-0.15636117447925973, -0.27217203193286355], [-0.09967880665522989, -0.47242523529006747], [-0.06261398545311019, -0.08879309989794046]]",density,black,,,N011,visual,1,[],"['1', '2', '3', '4']",1,2023.2.3,harveyvisual,2.1,[],8,0.75,
0,pause,0.4,None,None,None,0,79,79,79,,,,,,,,,,,,,N011,visual,1,[],"['1', '2', '3', '4']",1,2023.2.3,harveyvisual,2.1,[],8,0.75,
7,dot,0.3,['dot'],['density'],black,0,80,80,80,,,30.400201082229614,30.113976001739502,30.41395592689514,dot,"[0.1, 0.1, 0.1, 0.1, 0.06, 0.06, 0.08]","[[-0.2822174821233986, 0.002117056236134186], [-0.10673242512413421, 0.4781556216085482], [-0.18432519539246728, 0.19072201575640843], [-0.4524596318479574, 0.13966285650530724], [0.06907010423411483, 0.2912708813513049], [-0.07412436007020941, -0.021022205933558278], [-0.3208835015251209, 0.3986768431743725]]",density,black,,,N011,visual,1,[],"['1', '2', '3', '4']",1,2023.2.3,harveyvisual,2.1,[],8,0.75,
0,pause,0.4,None,None,None,0,81,81,81,,,,,,,,,,,,,N011,visual,1,[],"['1', '2', '3', '4']",1,2023.2.3,harveyvisual,2.1,[],8,0.75,
7,dot,0.3,['dot'],['density'],black,0,82,82,82,,,31.10021710395813,30.81395196914673,31.113980054855347,dot,"[0.06, 0.06, 0.1, 0.08, 0.06, 0.1, 0.1]","[[0.12902113605384963, -0.35167066519854956], [0.3838909825822851, -0.05572740120406059], [-0.02857767273637445, 0.1549795872955612], [0.19333287999408408, 0.10698923431715611], [-0.08146847087507005, -0.06064403559207536], [0.18020694687254563, -0.15550905334431223], [-0.07225335190945896, -0.28606481362007624]]",density,black,,,N011,visual,1,[],"['1', '2', '3', '4']",1,2023.2.3,harveyvisual,2.1,[],8,0.75,
0,pause,0.4,None,None,None,0,83,83,83,,,,,,,,,,,,,N011,visual,1,[],"['1', '2', '3', '4']",1,2023.2.3,harveyvisual,2.1,[],8,0.75,
8,dot,0.3,['dot'],['density'],black,0,84,84,84,,,31.800211906433105,31.513964891433716,31.813996076583862,dot,"[0.06, 0.1, 0.06, 0.08, 0.06, 0.06, 0.08, 0.06]","[[0.32983457944800887, -0.09988122376634187], [0.002544499336209532, 0.05447162498302279], [0.49322357980250997, 0.04173156098678792], [0.3398992085464782, -0.3241559212022164], [0.12656458423521935, -0.36323236959635974], [0.5072737450674915, -0.19500703868861743], [0.06482113683766944, -0.1422911224505784], [0.25865538318477954, 0.20042726536108785]]",density,black,,,N011,visual,1,[],"['1', '2', '3', '4']",1,2023.2.3,harveyvisual,2.1,[],8,0.75,
0,pause,0.4,None,None,None,0,85,85,85,,,,,,,,,,,,,N011,visual,1,[],"['1', '2', '3', '4']",1,2023.2.3,harveyvisual,2.1,[],8,0.75,
8,dot,0.3,['dot'],['density'],white,0,86,86,86,,,32.50019407272339,32.21397304534912,32.513952016830444,dot,"[0.06, 0.08, 0.1, 0.1, 0.1, 0.1, 0.1, 0.08]","[[-0.4639556696772753, 0.10472599959088454], [-0.22970357876872852, 0.24758381400794424], [-0.060094057158436125, -0.14613975383200573], [-0.022569829209962654, 0.2677975872319761], [-0.3077859326170116, -0.10488986274105515], [-0.16040535020917, 0.031608708128470005], [-0.5175577931920246, -0.20517812764611504], [0.1194024413118107, 0.007837779916585986]]",density,white,,,N011,visual,1,[],"['1', '2', '3', '4']",1,2023.2.3,harveyvisual,2.1,[],8,0.75,
0,pause,0.4,None,None,None,0,87,87,87,,,,,,,,,,,1,32.16650700569153,N011,visual,1,[],"['1', '2', '3', '4']",1,2023.2.3,harveyvisual,2.1,[],8,0.75,
8,dot,0.3,['dot'],['density'],black,0,88,88,88,,,33.2002010345459,32.91390895843506,33.21390390396118,dot,"[0.08, 0.06, 0.08, 0.08, 0.06, 0.06, 0.06, 0.06]","[[-0.08486713456805763, -0.4233549652310786], [-0.34121661687321897, 0.009931669871959016], [0.06179899905610707, -0.01287726204627424], [-0.01080387642187049, -0.20774715314808884], [-0.2259787915635077, -0.2257096572683263], [-0.31087639520469923, -0.4457762681120083], [-0.07938707884489006, 0.17996906985975966], [-0.13919465900414296, -0.03133413505419433]]",density,black,,,N011,visual,1,[],"['1', '2', '3', '4']",1,2023.2.3,harveyvisual,2.1,[],8,0.75,
0,pause,0.4,None,None,None,0,89,89,89,,,,,,,,,,,,,N011,visual,1,[],"['1', '2', '3', '4']",1,2023.2.3,harveyvisual,2.1,[],8,0.75,
8,dot,0.3,['dot'],['density'],black,0,90,90,90,,,33.90021800994873,33.61395001411438,33.91391611099243,dot,"[0.08, 0.1, 0.06, 0.1, 0.08, 0.1, 0.06, 0.1]","[[0.4107983822504989, -0.04783789354839145], [-0.06954892783911702, 0.20421019801840873], [0.19287329246680035, -0.23674413065931216], [-0.04658255687897442, -0.27568538913083557], [0.19478566210173015, -0.00965484605936359], [-0.04069516991009335, -0.04900998707948758], [0.17921022995035232, 0.2044367826380957], [-0.22871454517575843, 0.05025111546696341]]",density,black,,,N011,visual,1,[],"['1', '2', '3', '4']",1,2023.2.3,harveyvisual,2.1,[],8,0.75,
0,pause,0.4,None,None,None,0,91,91,91,,,,,,,,,,,,,N011,visual,1,[],"['1', '2', '3', '4']",1,2023.2.3,harveyvisual,2.1,[],8,0.75,
8,dot,0.3,['dot'],['density'],black,0,92,92,92,,,34.600215911865234,34.31392788887024,34.61391091346741,dot,"[0.06, 0.1, 0.1, 0.06, 0.1, 0.06, 0.08, 0.08]","[[0.17295790489511154, -0.46037743866749825], [0.1416591427765588, 0.05421051799673566], [0.21994266958916148, -0.13656690113679631], [0.3639906379971415, 0.0627265571221228], [0.015481321741344221, -0.13916897583717935], [0.440802488837635, -0.2883976186876931], [0.5157567705321767, -0.08800602901884749], [0.24768837887357187, 0.24424825162618136]]",density,black,,,N011,visual,1,[],"['1', '2', '3', '4']",1,2023.2.3,harveyvisual,2.1,[],8,0.75,
0,pause,0.4,None,None,None,0,93,93,93,,,,,,,,,,,,,N011,visual,1,[],"['1', '2', '3', '4']",1,2023.2.3,harveyvisual,2.1,[],8,0.75,
8,dot,0.3,['dot'],['density'],white,0,94,94,94,,,35.30021595954895,35.01396894454956,35.313857078552246,dot,"[0.08, 0.1, 0.1, 0.1, 0.08, 0.06, 0.06, 0.08]","[[-0.20800618360187478, -0.297823595680997], [0.0208603014005115, -0.46570844314230314], [-0.33947416747489917, -0.46414587466331364], [-0.2657502487478435, -0.0024929956194721667], [-0.07971030345085922, -0.1368829558420488], [0.12327021606192319, -0.12614842517591618], [-0.10944837079043952, 0.12795643756026515], [-0.4050023469846894, -0.16101207847090707]]",density,white,,,N011,visual,1,[],"['1', '2', '3', '4']",1,2023.2.3,harveyvisual,2.1,[],8,0.75,
0,pause,0.4,None,None,None,0,95,95,95,,,,,,,,,,,1,34.904824018478394,N011,visual,1,[],"['1', '2', '3', '4']",1,2023.2.3,harveyvisual,2.1,[],8,0.75,
9,dot,0.3,['dot'],['density'],black,0,96,96,96,,,36.00019407272339,35.713841915130615,36.01383090019226,dot,"[0.06, 0.1, 0.1, 0.06, 0.06, 0.06, 0.06, 0.06, 0.1]","[[0.27429149071172837, 0.34251676390746333], [0.46797507249945486, 0.005491811463162166], [0.21235580877939833, 0.08757146436558581], [0.046223583492975936, 0.2932249054251131], [0.07051592556679111, -0.0704922843318231], [0.30438918969270623, -0.13028831600800136], [0.11534598117609637, 0.5236829685630697], [-0.06673610159464062, 0.12515255452502297], [-0.14439101605953233, -0.1332028051536465]]",density,black,,,N011,visual,1,[],"['1', '2', '3', '4']",1,2023.2.3,harveyvisual,2.1,[],8,0.75,
0,pause,0.4,None,None,None,0,97,97,97,,,,,,,,,,,,,N011,visual,1,[],"['1', '2', '3', '4']",1,2023.2.3,harveyvisual,2.1,[],8,0.75,
9,dot,0.3,['dot'],['density'],black,0,98,98,98,,,36.70019888877869,36.41383099555969,36.713809967041016,dot,"[0.08, 0.06, 0.06, 0.1, 0.1, 0.08, 0.1, 0.06, 0.1]","[[0.4433726728065019, 0.22320554513198193], [0.1026133663954636, -0.050786049565613584], [0.20022034484770485, 0.4412403735117007], [0.45250313802570796, 0.010227273383000257], [0.037500571895399265, 0.24935285809920393], [0.23874579090912346, 0.11348512554989887], [0.25013734113836505, -0.23502010549412247], [0.4599692436892986, -0.2536974682823114], [0.04694731086691962, -0.2548367103293993]]",density,black,,,N011,visual,1,[],"['1', '2', '3', '4']",1,2023.2.3,harveyvisual,2.1,[],8,0.75,
0,pause,0.4,None,None,None,0,99,99,99,,,,,,,,,,,,,N011,visual,1,[],"['1', '2', '3', '4']",1,2023.2.3,harveyvisual,2.1,[],8,0.75,
9,dot,0.3,['dot'],['density'],black,0,100,100,100,,,37.400197982788086,37.113802909851074,37.4137818813324,dot,"[0.08, 0.08, 0.1, 0.08, 0.08, 0.06, 0.1, 0.06, 0.1]","[[0.34043128493099817, 0.2271075800100716], [0.2702764120171402, -0.10456749967376819], [-0.1274635928921129, -0.04210317806044915], [-0.03460273614387521, 0.1795356259369138], [0.14470969472881007, 0.3391925298523705], [0.06761060508642219, 0.0060094309834155335], [0.5117869412029185, -0.12050585585317111], [0.07404675892906432, -0.22660478390602867], [0.35723900661310204, -0.3185591288757]]",density,black,,,N011,visual,1,[],"['1', '2', '3', '4']",1,2023.2.3,harveyvisual,2.1,[],8,0.75,
0,pause,0.4,None,None,None,0,101,101,101,,,,,,,,,,,,,N011,visual,1,[],"['1', '2', '3', '4']",1,2023.2.3,harveyvisual,2.1,[],8,0.75,
9,dot,0.3,['dot'],['density'],black,0,102,102,102,,,38.10019302368164,37.81376910209656,38.11375904083252,dot,"[0.1, 0.06, 0.06, 0.08, 0.08, 0.08, 0.08, 0.1, 0.1]","[[0.23250081832313607, -0.03448075506690146], [0.3034476098774822, 0.1830296703973891], [-0.18904104685434053, 0.18833284185042862], [0.2553794676357457, 0.5314352583170906], [0.16363099535363254, 0.3461022642192175], [-0.0841935017478271, 0.3664174397160571], [-0.26748786402911323, -0.05736109653727262], [0.043842773669028334, 0.577246673499167], [0.02102957219118283, 0.0979254794926055]]",density,black,,,N011,visual,1,[],"['1', '2', '3', '4']",1,2023.2.3,harveyvisual,2.1,[],8,0.75,
0,pause,0.4,None,None,None,0,103,103,103,,,,,,,,,,,,,N011,visual,1,[],"['1', '2', '3', '4']",1,2023.2.3,harveyvisual,2.1,[],8,0.75,
9,dot,0.3,['dot'],['density'],black,0,104,104,104,,,38.80021905899048,38.51379990577698,38.81373405456543,dot,"[0.1, 0.06, 0.06, 0.08, 0.08, 0.06, 0.08, 0.06, 0.08]","[[-0.2844843713072754, 0.22325415166673976], [-0.1819235275981482, -0.2724209396165719], [-0.4663757242286994, 0.0951888680112534], [-0.002662519752874684, 0.12526046944360225], [-0.2804516333182533, -0.07461618094684651], [-0.06266188203573825, -0.10246171469469513], [0.05562179911838863, -0.3774952117829348], [-0.29777175193284133, -0.43797360937606633], [-0.44596842075831894, -0.24145786298940805]]",density,black,,,N011,visual,1,[],"['1', '2', '3', '4']",1,2023.2.3,harveyvisual,2.1,[],8,0.75,
0,pause,0.4,None,None,None,0,105,105,105,,,,,,,,,,,,,N011,visual,1,[],"['1', '2', '3', '4']",1,2023.2.3,harveyvisual,2.1,[],8,0.75,
9,dot,0.3,['dot'],['density'],black,0,106,106,106,,,39.500211000442505,39.21373701095581,39.51376390457153,dot,"[0.06, 0.06, 0.06, 0.06, 0.1, 0.1, 0.1, 0.1, 0.1]","[[-0.011980588702785358, -0.14271344386551676], [-0.15345504415890063, -0.3599837049237609], [0.2909474261289129, -0.3591516282942406], [0.16239073734315843, -0.5386624114967425], [0.2227638828830022, -0.11271380419745088], [0.06426208015886789, 0.04859175461581491], [-0.3648571389210414, -0.3413683676300365], [0.3831858227582706, 0.019718563726728144], [0.06479696894599615, -0.3534524636945761]]",density,black,,,N011,visual,1,[],"['1', '2', '3', '4']",1,2023.2.3,harveyvisual,2.1,[],8,0.75,
0,pause,0.4,None,None,None,0,107,107,107,,,,,,,,,,,,,N011,visual,1,[],"['1', '2', '3', '4']",1,2023.2.3,harveyvisual,2.1,[],8,0.75,
20,dot,0.3,['dot'],['density'],black,0,108,108,108,,,40.20022010803223,39.91374397277832,40.213732957839966,dot,"[0.06, 0.06, 0.1, 0.06, 0.08, 0.1, 0.06, 0.08, 0.08, 0.1, 0.08, 0.06, 0.08, 0.1, 0.06, 0.1, 0.1, 0.1, 0.06, 0.06]","[[-0.22837854427703713, -0.5389389877510566], [0.5062781475510659, 0.3259232458439801], [-0.5894385741683973, -0.027014978400486903], [0.07361298147659456, 0.14170363910395578], [-0.44838060390914863, -0.23353177132112254], [0.2679557178506199, 0.27212459938690214], [0.1683629186602421, -0.38613128459902213], [-0.11058915177272627, 0.4395448581108974], [-0.027353039707615934, -0.5847289057216458], [0.4025160139531173, -0.27036314940532546], [-0.24255846815293464, 0.04792398479070492], [-0.3275729793830027, 0.5056411101342178], [0.07604516023876506, 0.36630264475669505], [-0.5222671756520224, 0.22323205605366803], [0.01087691232061394, -0.07424800924381136], [-0.1193024445996072, -0.2572064377910815], [0.5874918598829656, 0.00031618489718782117], [0.32432576362356025, -0.01567373250065196], [-0.25318441721776763, 0.2925459284931383], [0.2013107400508145, -0.1876986357665596]]",density,black,,,N011,visual,1,[],"['1', '2', '3', '4']",1,2023.2.3,harveyvisual,2.1,[],8,0.75,
0,pause,0.4,None,None,None,0,109,109,109,,,,,,,,,,,,,N011,visual,1,[],"['1', '2', '3', '4']",1,2023.2.3,harveyvisual,2.1,[],8,0.75,
20,dot,0.3,['dot'],['density'],white,0,110,110,110,,,40.90022110939026,40.61369490623474,40.913678884506226,dot,"[0.1, 0.08, 0.06, 0.06, 0.06, 0.06, 0.08, 0.06, 0.06, 0.06, 0.06, 0.06, 0.08, 0.1, 0.1, 0.08, 0.1, 0.06, 0.06, 0.08]","[[0.1758778945636762, -0.47311934800678673], [-0.5436620667586005, 0.12206635870046023], [-0.02285270079063917, -0.03432346878396919], [-0.2830645877433296, -0.2225312377110571], [-0.5900872882092789, -0.09846875594349891], [0.4860280878290396, 0.2093503270013587], [-0.36092915781688883, 0.01656699677373541], [0.36477287892632115, -0.08111320279835477], [0.342591005848944, -0.3531137583805347], [0.08430670468648027, 0.4682830414862741], [-0.1140168137241897, 0.5671376715592175], [0.19269828289589996, 0.29375264809780166], [-0.49785354020589623, -0.3404740514763559], [-0.1613008660784595, 0.3098882391291564], [0.5599259076001516, 0.024815536973626623], [-0.10823325733798361, -0.49636500270573347], [-0.31223285619891505, -0.49184733409672415], [-0.00686591161416672, -0.3151052264779645], [0.526758970046879, -0.2780889789438155], [-0.3343600872419137, 0.38698776832238446]]",density,white,,,N011,visual,1,[],"['1', '2', '3', '4']",1,2023.2.3,harveyvisual,2.1,[],8,0.75,
0,pause,0.4,None,None,None,0,111,111,111,,,,,,,,,,,1,40.538511991500854,N011,visual,1,[],"['1', '2', '3', '4']",1,2023.2.3,harveyvisual,2.1,[],8,0.75,
20,dot,0.3,['dot'],['density'],black,0,112,112,112,,,41.600199937820435,41.31367588043213,41.61366605758667,dot,"[0.1, 0.06, 0.1, 0.08, 0.08, 0.1, 0.06, 0.06, 0.1, 0.06, 0.1, 0.1, 0.08, 0.08, 0.08, 0.08, 0.1, 0.08, 0.1, 0.06]","[[-0.13127816862249114, -0.33521667385358], [-0.437174106558336, -0.28739196454067184], [0.05032434970338395, 0.044991572987309714], [0.3659271426913884, -0.08198419469323476], [0.2352006284748307, -0.5181039800240808], [-0.5976214547450067, -0.02429345933979027], [-0.35315114221928967, -0.1170029869187812], [0.5849029752374667, -0.03651970565084248], [0.4375081753807225, -0.40511474210738924], [-0.24606987086429177, -0.5113647154244986], [0.2648197097807168, 0.43660923257917506], [-0.31260661192058764, 0.14052122377231735], [0.23763030960905318, -0.3144474691215492], [0.5537778559365584, 0.160543175425861], [-0.12939521690234324, 0.5419429742253002], [-0.08843161684420475, 0.35412497360554906], [0.2614239990512024, 0.22365047950251593], [-0.3676082729648278, 0.38305629384162077], [0.003392190757232405, -0.5763383437264741], [-0.5479622652950882, 0.1737032670813991]]",density,black,,,N011,visual,1,[],"['1', '2', '3', '4']",1,2023.2.3,harveyvisual,2.1,[],8,0.75,
0,pause,0.4,None,None,None,0,113,113,113,,,,,,,,,,,,,N011,visual,1,[],"['1', '2', '3', '4']",1,2023.2.3,harveyvisual,2.1,[],8,0.75,
20,dot,0.3,['dot'],['density'],black,0,114,114,114,,,42.30019688606262,42.013668060302734,42.313719034194946,dot,"[0.1, 0.1, 0.08, 0.08, 0.1, 0.1, 0.08, 0.1, 0.1, 0.08, 0.1, 0.08, 0.06, 0.08, 0.1, 0.06, 0.1, 0.06, 0.06, 0.06]","[[0.25540908731154865, -0.36071458315087745], [-0.3051818858466811, -0.3533639032692093], [0.42678181516385105, -0.14218665780774042], [-0.02024694229575219, 0.0018467132368021888], [0.08302309273235808, 0.5087616634279434], [-0.08951141555068531, -0.5671430830961067], [-0.5423737318743688, -0.16584850183028416], [-0.14422542341532957, 0.5307311099093096], [0.27874201603621673, 0.5347590877348931], [-0.0834570005490648, 0.22680355624818793], [0.24080458396125148, 0.20530540566637323], [-0.05427192855915575, -0.3735547544432293], [0.6018385864484262, 0.051712319869129234], [-0.4081147312574994, 0.19356416984137625], [0.4172608868157509, 0.09806883005724576], [0.18586994990177585, -0.10260911834083136], [-0.29217577228817565, -0.04182340014141994], [0.5066697687565013, 0.3230661619473513], [0.49150223510654445, -0.3238086331321508], [0.15141907267020271, -0.5734744599059572]]",density,black,,,N011,visual,1,[],"['1', '2', '3', '4']",1,2023.2.3,harveyvisual,2.1,[],8,0.75,
0,pause,0.4,None,None,None,0,115,115,115,,,,,,,,,,,,,N011,visual,1,[],"['1', '2', '3', '4']",1,2023.2.3,harveyvisual,2.1,[],8,0.75,
20,dot,0.3,['dot'],['density'],black,0,116,116,116,,,43.00020408630371,42.71369791030884,43.01368999481201,dot,"[0.08, 0.1, 0.06, 0.06, 0.06, 0.1, 0.1, 0.1, 0.06, 0.1, 0.08, 0.06, 0.06, 0.08, 0.1, 0.08, 0.08, 0.08, 0.06, 0.1]","[[0.38505000372262865, -0.41516340674389784], [-0.0774689043200737, 0.42753601464374325], [0.33716236345771033, 0.027926406453504193], [-0.19394952827620837, -0.10378088929481094], [-0.3260184858730653, 0.4880853237819116], [-0.4735301359161424, 0.03969532964260564], [0.08520141376939794, -0.1489927502011345], [0.168882012883397, -0.5287675179399809], [-0.16405272823323752, -0.33873788899101476], [0.21784706623715988, 0.2234999969790723], [0.22881298743101208, 0.4509948391832598], [0.5283266063613118, -0.29065858376127685], [0.5676649128303858, 0.09813068311302076], [-0.48799947783044906, 0.3237205217008388], [-0.3713600491294838, -0.24083366398877692], [-0.2151463221529511, -0.561617112633558], [0.06844185650763268, 0.04526410584455387], [0.05626732467568041, 0.5766932766218614], [0.30441973882617035, -0.19370153470089102], [-0.28144508524562145, 0.28934305473311117]]",density,black,,,N011,visual,1,[],"['1', '2', '3', '4']",1,2023.2.3,harveyvisual,2.1,[],8,0.75,
0,pause,0.4,None,None,None,0,117,117,117,,,,,,,,,,,,,N011,visual,1,[],"['1', '2', '3', '4']",1,2023.2.3,harveyvisual,2.1,[],8,0.75,
20,dot,0.3,['dot'],['density'],black,0,118,118,118,,,43.700196981430054,43.41365599632263,43.71377491950989,dot,"[0.06, 0.08, 0.1, 0.1, 0.08, 0.06, 0.1, 0.08, 0.08, 0.06, 0.06, 0.06, 0.08, 0.08, 0.1, 0.06, 0.06, 0.06, 0.08, 0.06]","[[0.19713598479442407, -0.42567378385919447], [-0.26402075182302176, 0.3560793619793374], [-0.5410297441964984, 0.21252130660095198], [-0.18785994394332683, -0.19125225455013617], [0.588568524040363, 0.012436933701818503], [-0.2863750573217094, -0.4440811468297824], [-0.5045813104648191, 0.008871668559389367], [0.11652025074367767, 0.524659532720715], [0.45254520699959955, -0.178065881866719], [-0.24056354224576526, 0.00788991839522113], [-0.11890464293333275, 0.1654741199485521], [0.2784088599340109, 0.05328073878414963], [0.2539908380062741, -0.1702995741327244], [-0.13828240585061258, 0.5012483422698283], [-0.04337810250098595, -0.039607397979170345], [-0.4775192738181936, -0.25378797809023146], [-0.02184948782532814, -0.37454985211808656], [0.4732434525643955, 0.23227342632945464], [-0.01010463192922395, -0.5908007178406804], [0.09036176697947396, 0.1195332741991122]]",density,black,,,N011,visual,1,[],"['1', '2', '3', '4']",1,2023.2.3,harveyvisual,2.1,[],8,0.75,
0,pause,0.4,None,None,None,0,119,119,119,,,,,,,,,,,,,N011,visual,1,[],"['1', '2', '3', '4']",1,2023.2.3,harveyvisual,2.1,[],8,0.75,
20,dot,0.3,['dot'],['density'],black,0,120,120,120,,,44.40019488334656,44.1136748790741,44.41363191604614,dot,"[0.06, 0.06, 0.08, 0.08, 0.1, 0.1, 0.1, 0.1, 0.06, 0.08, 0.1, 0.08, 0.06, 0.1, 0.08, 0.1, 0.06, 0.08, 0.08, 0.08]","[[0.4048162485030914, 0.1130939466610214], [-0.09415276480182355, -0.2102839978348156], [0.3078503223303297, -0.5094453200047301], [-0.009170801848867982, 0.5281149510136322], [-0.5544908207956709, -0.10525403291172114], [-0.29264635135216377, 0.23905168603588944], [0.3869907276796116, -0.2926899247957302], [0.24709257710103305, -0.11735427621121819], [0.1972531491801276, 0.22619723887677456], [0.11051536867930156, -0.34549925587537267], [0.6023573121333962, -0.04903376091198093], [-0.323910708866577, -0.06418502924088437], [0.03877313119843395, -0.03637377203428016], [0.2484357460451213, 0.44394396304563344], [-0.5925243720482529, 0.0941587957556372], [-0.10029100109195388, 0.23142364757795042], [-0.3642668000155464, -0.346498323877393], [-0.4375862177806171, 0.3661607750455161], [-0.07645736387224433, -0.5629569591709531], [-0.21421369196548945, 0.5533741023374097]]",density,black,,,N011,visual,1,[],"['1', '2', '3', '4']",1,2023.2.3,harveyvisual,2.1,[],8,0.75,
0,pause,0.4,None,None,None,0,121,121,121,,,,,,,,,,,,,N011,visual,1,[],"['1', '2', '3', '4']",1,2023.2.3,harveyvisual,2.1,[],8,0.75,
20,dot,0.3,['dot'],['density'],black,0,122,122,122,,,45.1001980304718,44.81362795829773,45.11378002166748,dot,"[0.08, 0.08, 0.1, 0.06, 0.08, 0.06, 0.08, 0.1, 0.1, 0.1, 0.06, 0.06, 0.06, 0.1, 0.08, 0.06, 0.1, 0.1, 0.08, 0.06]","[[0.534706198039293, -0.16315962527291128], [0.22522972451059653, -0.3458739520787314], [0.5586714753673533, 0.19426777597652917], [0.18030095042814376, -0.0396389637234299], [0.16813044061858473, -0.5599594931714235], [-0.4828024033151005, 0.2640707340948728], [-0.1951990561002186, 0.23958216260802911], [-0.1749374834642693, 0.0024752322918657477], [-0.04837052664020436, -0.4038317151878519], [-0.599338949721605, -0.03379898184400111], [-0.38127801365314684, 0.42953400087795307], [0.07883097050665344, 0.3851067501211667], [-0.08116896581441746, -0.171821696593904], [-0.19300899870183336, 0.5527502287255271], [0.41628717025233264, -0.32971047028129175], [0.3228439445309601, 0.3388817476868219], [0.06460436408938985, 0.5962327677410527], [-0.5405078510110766, -0.21442285645194542], [-0.39260995969331036, 0.08907058224393322], [-0.26037763947658804, -0.28733678362087417]]",density,black,,,N011,visual,1,[],"['1', '2', '3', '4']",1,2023.2.3,harveyvisual,2.1,[],8,0.75,
0,pause,0.4,None,None,None,0,123,123,123,,,,,,,,,,,,,N011,visual,1,[],"['1', '2', '3', '4']",1,2023.2.3,harveyvisual,2.1,[],8,0.75,
20,dot,0.3,['dot'],['density'],black,0,124,124,124,,,45.80021095275879,45.513750076293945,45.813607931137085,dot,"[0.1, 0.1, 0.08, 0.08, 0.06, 0.06, 0.08, 0.1, 0.08, 0.08, 0.06, 0.08, 0.06, 0.08, 0.06, 0.06, 0.1, 0.1, 0.1, 0.08]","[[0.5819005394765199, -0.0238313785701999], [-0.5505589247859339, -0.004128281907601006], [0.4052572854015727, -0.13665338482196565], [-0.12051841681091319, 0.05725428242538533], [0.17725734180692798, -0.3849891880463784], [0.4916895642949294, 0.322807928571669], [-0.11604692959824542, -0.4612504193876153], [-0.06921742985604107, 0.2629015521206999], [0.21347928249087755, 0.29793571322136403], [-0.48602103729806634, 0.300322843790905], [0.21754806300394858, -0.17392094206035952], [-0.14261852026659438, -0.21933256729455108], [0.08759498632076079, 0.4673498962130692], [-0.47908660587491947, -0.29183818069310374], [0.2783650153275763, 0.012010015195658141], [-0.3560597929457995, -0.05612012609470762], [-0.28736469534434766, 0.1784111557702842], [0.4139077197769586, -0.32634745621823213], [0.07613306813097198, 0.0952031441087855], [-0.2049678606101793, 0.5078929959302196]]",density,black,,,N011,visual,1,[],"['1', '2', '3', '4']",1,2023.2.3,harveyvisual,2.1,[],8,0.75,
0,pause,0.4,None,None,None,0,125,125,125,,,,,,,,,,,,,N011,visual,1,[],"['1', '2', '3', '4']",1,2023.2.3,harveyvisual,2.1,[],8,0.75,
20,dot,0.3,['dot'],['density'],black,0,126,126,126,,,46.500200033187866,46.21357989311218,46.51355791091919,dot,"[0.08, 0.06, 0.08, 0.08, 0.1, 0.1, 0.08, 0.06, 0.06, 0.06, 0.06, 0.1, 0.08, 0.08, 0.06, 0.08, 0.08, 0.08, 0.08, 0.06]","[[0.4723074662825034, -0.06329434932472783], [0.4686143016252352, -0.3679022192010591], [-0.562683164278501, 0.05412223185743825], [0.19450823050995514, 0.05012070077633324], [0.34154969007704805, 0.46925926792059725], [-0.38570814530921926, 0.3791413077258599], [0.04198245798007749, -0.5686966443988373], [-0.028028003695200865, 0.5745834644882052], [-0.10166276919504913, 0.05785261846576084], [-0.49488178027125995, -0.17343622048181714], [0.0338676922168023, -0.30161327697944507], [-0.2664834583242391, -0.5175789197591479], [-0.035530138239774245, 0.2739703732715938], [0.15635643639545538, 0.5279033211933573], [0.5649654127422706, 0.16665594088536892], [-0.2763573317740618, -0.06163542352269841], [-0.5162763023282432, 0.2412001584637029], [0.384648053604721, 0.27589291053233045], [0.17847294753671272, -0.17518913243841483], [0.24965516862981108, -0.37799965876420205]]",density,black,,,N011,visual,1,[],"['1', '2', '3', '4']",1,2023.2.3,harveyvisual,2.1,[],8,0.75,
0,pause,0.4,None,None,None,0,127,127,127,,,,,,,,,,,,,N011,visual,1,[],"['1', '2', '3', '4']",1,2023.2.3,harveyvisual,2.1,[],8,0.75,
20,dot,0.3,['dot'],['density'],black,0,128,128,128,,,47.20019602775574,46.91354703903198,47.213545083999634,dot,"[0.06, 0.06, 0.06, 0.1, 0.1, 0.06, 0.1, 0.06, 0.06, 0.1, 0.06, 0.1, 0.1, 0.06, 0.08, 0.08, 0.1, 0.1, 0.1, 0.06]","[[0.36976773599566093, 0.009668457978969924], [0.529456890714466, 0.20381861047211863], [-0.30016894621345186, -0.1573713490635038], [-0.35353920160690433, 0.31053011839221045], [0.5873677540542878, -0.013349870252301554], [0.1418705896627368, -0.4722046459304656], [0.4194488650284859, -0.33890802943815607], [-0.10462093279566054, -0.0008283408130649317], [-0.2543401317312767, -0.4860374774149159], [-0.05789720222324557, -0.37931631828996304], [-0.5873821522851067, -0.021507678790906218], [-0.3641306091802191, 0.09864456439036828], [0.4032741447673921, 0.4273392449911978], [0.1789333007206403, 0.38729997420880447], [-0.4752098624264621, -0.324846765924574], [-0.07250283809542879, 0.4691210403576769], [-0.07872793763544517, 0.26436640504315256], [0.1960484925594329, -0.12907350629201086], [0.2496724684120245, 0.20603404489087906], [-0.525742155148065, 0.2270044037340801]]",density,black,,,N011,visual,1,[],"['1', '2', '3', '4']",1,2023.2.3,harveyvisual,2.1,[],8,0.75,
0,pause,0.4,None,None,None,0,129,129,129,,,,,,,,,,,,,N011,visual,1,[],"['1', '2', '3', '4']",1,2023.2.3,harveyvisual,2.1,[],8,0.75,
20,dot,0.3,['dot'],['density'],black,0,130,130,130,,,47.90020489692688,47.613502979278564,47.913525104522705,dot,"[0.08, 0.06, 0.1, 0.06, 0.1, 0.06, 0.06, 0.08, 0.08, 0.1, 0.1, 0.08, 0.08, 0.06, 0.1, 0.08, 0.1, 0.06, 0.1, 0.06]","[[0.025468667311871362, 0.5493975196540026], [0.48661988031646486, -0.08774496874239818], [-0.07229686068663987, -0.35233746439694463], [-0.49240226066209336, -0.05568909772207137], [-0.28144302234296503, -0.49137034374341365], [-0.07697652375379516, 0.006221958150699258], [-0.21642173983627327, 0.5619784074911857], [0.3972612811167616, 0.32473423880036045], [0.08150426265427801, 0.19571422451420317], [-0.2760764615197499, 0.3201274166857385], [0.12778405775063184, 0.3836613952794884], [-0.5166970102717393, -0.2872745330542652], [0.2982650185464024, 0.15265333453944496], [0.15021465242013066, -0.10109224312448861], [0.5254151163295305, -0.2805426133007339], [0.19140384242391584, -0.3357183248380893], [0.5174194105523763, 0.12129357084580017], [0.033194772804019834, -0.5955200387241487], [-0.5049996309305068, 0.21833850291377144], [-0.2680656774156444, -0.12618113034204664]]",density,black,,,N011,visual,1,[],"['1', '2', '3', '4']",1,2023.2.3,harveyvisual,2.1,[],8,0.75,
0,pause,0.4,None,None,None,0,131,131,131,,,,,,,,,,,,,N011,visual,1,[],"['1', '2', '3', '4']",1,2023.2.3,harveyvisual,2.1,[],8,0.75,
20,dot,0.3,['dot'],['density'],black,0,132,132,132,,,48.60019898414612,48.313544034957886,48.61353302001953,dot,"[0.08, 0.1, 0.06, 0.1, 0.1, 0.06, 0.08, 0.1, 0.06, 0.08, 0.08, 0.06, 0.1, 0.08, 0.08, 0.06, 0.06, 0.08, 0.1, 0.06]","[[-0.47633700332469175, -0.03303287386075904], [0.23536259276075977, 0.04055129701706184], [0.18526543279850738, 0.3682475263581789], [0.46626201045241966, 0.1384031511438243], [0.11133788335122197, -0.2652193967504064], [-0.00950847870518401, -0.5928972376222151], [0.24947776666162624, -0.4864769951528446], [-0.5068628006029983, -0.23670534874685234], [-0.18052642249995093, 0.5520492012854084], [-0.09342170337304334, 0.20010866441615704], [-0.4087498076552837, 0.21910029683422066], [0.46749731166454966, -0.09536706601882478], [0.43726163169320464, 0.366593363235654], [-0.1583596506723291, -0.13207823298833404], [-0.2273084271517159, -0.5191950319201543], [-0.3019799115042085, -0.32534675960185466], [0.12779254850764954, 0.5666098531427348], [0.31902044650054384, -0.2239133295819662], [0.4771988884951729, -0.3343359743089647], [-0.002499947121233914, -3.2238519388938514e-05]]",density,black,,,N011,visual,1,[],"['1', '2', '3', '4']",1,2023.2.3,harveyvisual,2.1,[],8,0.75,
0,pause,0.4,None,None,None,0,133,133,133,,,,,,,,,,,,,N011,visual,1,[],"['1', '2', '3', '4']",1,2023.2.3,harveyvisual,2.1,[],8,0.75,
20,dot,0.3,['dot'],['density'],black,0,134,134,134,,,49.300209045410156,49.01353597640991,49.31353998184204,dot,"[0.08, 0.08, 0.1, 0.08, 0.08, 0.08, 0.08, 0.1, 0.08, 0.06, 0.08, 0.06, 0.06, 0.1, 0.1, 0.1, 0.08, 0.08, 0.08, 0.06]","[[-0.5514132324228982, 0.23030376302308017], [-0.3436630080378077, 0.021177371058883288], [0.5331222587474737, 0.15306192150451742], [-0.231995187412323, -0.35676746587794517], [0.05369914042372104, 0.02871915964474614], [0.19185871609778604, -0.3121127924427076], [0.28040508159334343, -0.015595896484082994], [-0.01571483754831915, -0.3408551849270595], [0.4001436517433442, -0.35931578020696486], [-0.10157725973974574, 0.3005563121754392], [0.4284875532496736, 0.38612590500223476], [-0.007217185422380035, 0.5217997975131881], [-0.20199882838540112, 0.5342053810893619], [-0.3984006383398513, 0.4145703794196958], [0.18669160996543166, 0.1858478685531575], [0.1403901337002893, -0.5030350227674147], [-0.17372821118502174, -0.1034276353953692], [0.20634887266408852, 0.5125598801143093], [-0.5359741749764528, -0.24986692178100825], [-0.6002478491821319, 0.012480554636852118]]",density,black,,,N011,visual,1,[],"['1', '2', '3', '4']",1,2023.2.3,harveyvisual,2.1,[],8,0.75,
0,pause,0.4,None,None,None,0,135,135,135,,,,,,,,,,,,,N011,visual,1,[],"['1', '2', '3', '4']",1,2023.2.3,harveyvisual,2.1,[],8,0.75,
20,dot,0.3,['dot'],['density'],black,0,136,136,136,,,50.00020790100098,49.713457107543945,50.0134699344635,dot,"[0.06, 0.08, 0.1, 0.08, 0.06, 0.06, 0.1, 0.08, 0.1, 0.1, 0.08, 0.1, 0.1, 0.08, 0.06, 0.08, 0.06, 0.06, 0.06, 0.1]","[[0.019784818421336836, 0.25874544477488337], [0.2524093301755297, -0.21779136622019607], [0.024105490538539498, -0.021584658449213534], [0.5329463761541443, -0.13255827384780824], [0.3001550371013043, -0.02441285750559896], [0.41041292136330954, 0.16778154697178072], [-0.40573059675175627, -0.0017079586768197763], [0.07479816675817941, 0.505885508181023], [0.3040213326205503, -0.4759374656543083], [-0.4990731210747329, -0.18578705181721442], [-0.24121335158090496, 0.5017928919614665], [-0.2990431490490665, 0.24619043206264546], [-0.13903865322456915, -0.4257861705118404], [0.06072350540736293, -0.6000327318784291], [-0.3798188038993585, -0.46802070441504223], [-0.5731234078447864, 0.1285477290347667], [0.34150838348453627, 0.4192012502669199], [-0.19854978135263152, -0.017362583776483587], [0.2131418821823562, 0.1616185160771879], [-0.3099712664675944, -0.26494099114791325]]",density,black,,,N011,visual,1,[],"['1', '2', '3', '4']",1,2023.2.3,harveyvisual,2.1,[],8,0.75,
0,pause,0.4,None,None,None,0,137,137,137,,,,,,,,,,,,,N011,visual,1,[],"['1', '2', '3', '4']",1,2023.2.3,harveyvisual,2.1,[],8,0.75,
20,dot,0.3,['dot'],['density'],black,0,138,138,138,,,50.70020294189453,50.41347289085388,50.71346306800842,dot,"[0.1, 0.1, 0.1, 0.1, 0.08, 0.08, 0.06, 0.06, 0.08, 0.08, 0.1, 0.08, 0.1, 0.1, 0.06, 0.08, 0.1, 0.1, 0.1, 0.1]","[[-0.12106361750164124, -0.45119418063468797], [0.1306395161412569, -0.299361105431266], [-0.41434853617634665, -0.4105009931347014], [-0.17976305873386095, 0.1282797222872557], [0.0791649938708735, -0.08698008712727678], [-0.5932049326600843, -0.003313350583555169], [0.4323426522470629, 0.13376782881557825], [-0.20998342730444164, 0.504187901056897], [-0.35980065913631654, 0.2574194179085244], [0.5738746856457454, -0.07419699002914681], [-0.2973344231477763, -0.09414130058646286], [0.05845847387415337, 0.5723610640059701], [0.15903099223708494, 0.38789644389360367], [0.22155393682847058, 0.06986907195253023], [-0.5041948315503353, -0.19933221727208197], [0.35372218189525195, -0.4623091951295331], [-0.11260700507087201, -0.17524580634035714], [-0.004962529974648522, -0.6018594242966585], [0.43811147869382483, -0.2519948970291762], [0.043910072743173045, 0.14412902301227348]]",density,black,,,N011,visual,1,[],"['1', '2', '3', '4']",1,2023.2.3,harveyvisual,2.1,[],8,0.75,
0,pause,0.4,None,None,None,0,139,139,139,,,,,,,,,,,,,N011,visual,1,[],"['1', '2', '3', '4']",1,2023.2.3,harveyvisual,2.1,[],8,0.75,
20,dot,0.3,['dot'],['density'],black,0,140,140,140,,,51.400201082229614,51.113455057144165,51.413434982299805,dot,"[0.1, 0.1, 0.08, 0.1, 0.08, 0.1, 0.06, 0.06, 0.08, 0.08, 0.06, 0.08, 0.1, 0.08, 0.1, 0.06, 0.08, 0.06, 0.1, 0.1]","[[0.10176696222463555, 0.3806736757325674], [0.5430196157064583, 0.04682338515445883], [0.1481316139906208, -0.4783889108509143], [-0.2462990498641816, -0.298975918918802], [0.066341227245026, -0.27041754409790897], [0.3620512063561574, 0.10447616672618193], [-0.35662254303851004, 0.14480458915718453], [-0.5744724360358078, -0.16215155274846815], [0.5148440106308759, -0.19049681437450489], [-0.30391151601412003, -0.10937105914827949], [0.38406548782980143, 0.4429367665034108], [-0.05081922728215349, 0.004739512121957223], [0.23895198815155638, -0.13198243298554002], [0.17669366495085692, 0.15309829409459152], [-0.07134387813558885, -0.5875708473918574], [-0.5742764238362844, 0.12873894666935906], [-0.47738274904600186, 0.3705121157358534], [-0.2808446266433182, 0.4369388678180687], [0.44538061881951474, -0.3687857490366698], [-0.32276646391940994, -0.4874654737193973]]",density,black,,,N011,visual,1,[],"['1', '2', '3', '4']",1,2023.2.3,harveyvisual,2.1,[],8,0.75,
0,pause,0.4,None,None,None,0,141,141,141,,,,,,,,,,,,,N011,visual,1,[],"['1', '2', '3', '4']",1,2023.2.3,harveyvisual,2.1,[],8,0.75,
20,dot,0.3,['dot'],['density'],black,0,142,142,142,,,52.1001980304718,51.813437938690186,52.11343193054199,dot,"[0.08, 0.1, 0.06, 0.1, 0.1, 0.08, 0.06, 0.06, 0.08, 0.08, 0.1, 0.06, 0.1, 0.06, 0.08, 0.08, 0.08, 0.08, 0.06, 0.08]","[[-0.5304829017327861, 0.11814079389565174], [-0.27087468135331716, -0.2613481846574423], [-0.22691767296273435, 0.5442830391568723], [0.44144184255593333, 0.34169265260140214], [0.563689638447696, -0.11141424383049339], [-0.4258904828435851, 0.3979965618687807], [-0.15536805894536687, -0.02543353708886331], [0.20903557276595253, -0.3674254340152021], [0.3713930375474822, -0.0984132376259011], [0.00607037860331483, -0.20734119768612524], [-0.2705353568966468, 0.2506020307915431], [-0.12042600585609836, 0.3695461509878045], [0.25030951080199215, 0.05159761020928011], [-0.34560200956497633, 0.04254391207623498], [-0.143359099130702, -0.45345151436889763], [0.4752389849574382, -0.34721199204440867], [-0.5504955724093746, -0.21272005369993374], [0.24194919329048714, 0.28770232471320134], [-0.012385037149208022, 0.20322193296295288], [0.14907910358629295, 0.48534549858972165]]",density,black,,,N011,visual,1,[],"['1', '2', '3', '4']",1,2023.2.3,harveyvisual,2.1,[],8,0.75,
0,pause,0.4,None,None,None,0,143,143,143,,,,,,,,,,,,,N011,visual,1,[],"['1', '2', '3', '4']",1,2023.2.3,harveyvisual,2.1,[],8,0.75,
20,dot,0.3,['dot'],['density'],black,0,144,144,144,,,52.800206899642944,52.51341891288757,52.813380002975464,dot,"[0.06, 0.06, 0.06, 0.06, 0.08, 0.08, 0.06, 0.06, 0.08, 0.08, 0.06, 0.1, 0.06, 0.1, 0.1, 0.1, 0.08, 0.06, 0.06, 0.1]","[[-0.18188234242574236, -0.16178470539356343], [0.17706342253003204, -0.4430958680258025], [-0.46197153429572635, 0.042263761523666066], [0.32248422718125735, 0.27215269176106105], [0.018551433897655012, 0.5813458132305754], [-0.46767405877939844, 0.3301137186748452], [-0.07696766817486511, 0.3697127031759784], [0.12607489077455525, -0.2592363360214717], [-0.05509826210359181, -0.45108449509051407], [0.2851702176542086, 0.5024416455594249], [0.3740267267946651, -0.4328182586293211], [-0.004008906514870292, 0.11727529555837435], [0.4848295005205664, -0.11255503604655231], [0.5184670475796201, 0.1935631214409525], [-0.28292275527021504, 0.24167249582446748], [0.29188728143500164, 0.028777895708937073], [-0.3612993458843211, -0.3820011256187462], [-0.27866212361701415, 0.4878816985706559], [-0.4550013131280166, -0.20199012010146894], [0.015870366414493242, -0.09327498715925464]]",density,black,,,N011,visual,1,[],"['1', '2', '3', '4']",1,2023.2.3,harveyvisual,2.1,[],8,0.75,
0,pause,0.4,None,None,None,0,145,145,145,,,,,,,,,,,,,N011,visual,1,[],"['1', '2', '3', '4']",1,2023.2.3,harveyvisual,2.1,[],8,0.75,
20,dot,0.3,['dot'],['density'],black,0,146,146,146,,,53.50021004676819,53.21336388587952,53.513432025909424,dot,"[0.08, 0.08, 0.06, 0.06, 0.08, 0.1, 0.08, 0.08, 0.1, 0.06, 0.08, 0.06, 0.1, 0.1, 0.08, 0.08, 0.08, 0.08, 0.06, 0.1]","[[-0.2747847611331207, 0.4180430555051453], [0.5876487713822361, -0.11944085018703254], [0.04572933068202267, 0.3715517468657331], [-0.5697281703631928, -0.1169574018567543], [0.23027904554422407, 0.2474031802743637], [-0.4653927291885318, -0.3542492166918077], [-0.14060400565303444, 0.1011117391005909], [0.04286990965452464, -0.0825345448603636], [0.03894984953309055, -0.36880883429136474], [-0.2523207346358649, -0.43476127984197177], [-0.34018065637511086, -0.03364219279026365], [-0.4999766327765116, 0.2810464918701995], [0.5068971533017844, 0.23471635012243008], [0.3361590764702256, -0.096042948909413], [0.4119092954730049, -0.3885919194065708], [-0.09903041198051554, 0.5947789604418602], [0.3543542884879123, 0.48934714244029237], [0.012736295191390967, -0.6042731245614017], [0.20270745905162113, -0.4861453066890349], [-0.5896963530459784, 0.07773799058202752]]",density,black,,,N011,visual,1,[],"['1', '2', '3', '4']",1,2023.2.3,harveyvisual,2.1,[],8,0.75,
0,pause,0.4,None,None,None,0,147,147,147,,,,,,,,,,,,,N011,visual,1,[],"['1', '2', '3', '4']",1,2023.2.3,harveyvisual,2.1,[],8,0.75,
20,dot,0.3,['dot'],['density'],black,0,148,148,148,,,54.200201988220215,53.91339707374573,54.21339297294617,dot,"[0.06, 0.06, 0.1, 0.06, 0.08, 0.08, 0.1, 0.1, 0.1, 0.1, 0.06, 0.06, 0.1, 0.06, 0.1, 0.08, 0.06, 0.1, 0.06, 0.08]","[[-0.2261363285294819, -0.058239387470565784], [-0.4156348858201778, 0.057052625635452714], [-0.5235504117204717, -0.10089605618046071], [-0.09118576917567489, -0.4992262402310571], [0.43026059572026176, -0.19201717903532725], [-0.3039384189091905, 0.4643087772580031], [-0.0012540823847467797, 0.10707709398571896], [-0.057632485253795274, 0.30556400128493943], [-0.07862808954965506, -0.24407119054734033], [-0.47514897631516123, 0.29188632299828227], [0.14040395632341318, 0.4019822470250246], [0.46356763429139114, 0.20644808564470468], [0.21368678392864737, 0.07283201340712231], [0.40906440858612847, -0.4397372908812891], [-0.02578861650824882, 0.5219159756454738], [0.5828342975642943, 0.021027677087726876], [0.1253281683121149, -0.18592138712433764], [0.32639703839870193, 0.504300418283137], [0.1778862350036161, -0.47075774482641575], [-0.39621256570385077, -0.27935341902151734]]",density,black,,,N011,visual,1,[],"['1', '2', '3', '4']",1,2023.2.3,harveyvisual,2.1,[],8,0.75,
0,pause,0.4,None,None,None,0,149,149,149,,,,,,,,,,,,,N011,visual,1,[],"['1', '2', '3', '4']",1,2023.2.3,harveyvisual,2.1,[],8,0.75,
20,dot,0.3,['dot'],['density'],white,0,150,150,150,,,54.900222063064575,54.61338400840759,54.91332507133484,dot,"[0.06, 0.1, 0.1, 0.06, 0.1, 0.08, 0.06, 0.08, 0.06, 0.06, 0.08, 0.08, 0.1, 0.06, 0.06, 0.06, 0.1, 0.06, 0.1, 0.1]","[[0.2357964173228697, -0.46133631988355006], [0.5446426261936973, -0.10341303656005327], [-0.5558102895437737, -0.1450880004795267], [-0.4879671054630437, 0.09937746964833699], [0.3060777550133047, 0.2923510606450337], [-0.16650222354690863, 0.3922837728402112], [0.18408188646123436, -0.09909463666051549], [-0.17323592724853548, -0.19046398841420298], [0.07871410412239277, 0.5204978798624319], [-0.11880416078923622, -0.5901883803460992], [0.008462732309482246, -0.025759931786025314], [-0.35601546249515115, 0.2831200715999487], [0.5011484853032034, 0.2928721341964084], [0.012205478644558898, 0.29251010284156354], [-0.3613229734534932, -0.4787925661603853], [0.03951978906803155, -0.3113372305668173], [0.38338732676028964, -0.25959347940380495], [-0.39459029245012456, -0.24641581049228947], [0.35512424718353364, 0.009115537319079825], [0.07950014235146774, -0.5847126089295839]]",density,white,,,N011,visual,1,[],"['1', '2', '3', '4']",1,2023.2.3,harveyvisual,2.1,[],8,0.75,
0,pause,0.4,None,None,None,0,151,151,151,,,,,,,,,,,1,54.453258991241455,N011,visual,1,[],"['1', '2', '3', '4']",1,2023.2.3,harveyvisual,2.1,[],8,0.75,
20,dot,0.3,['dot'],['density'],black,0,152,152,152,,,55.60021495819092,55.313318967819214,55.61338806152344,dot,"[0.08, 0.1, 0.06, 0.06, 0.08, 0.06, 0.1, 0.06, 0.06, 0.06, 0.1, 0.1, 0.08, 0.1, 0.1, 0.08, 0.08, 0.06, 0.08, 0.08]","[[-0.5052601979907916, 0.20015817781677697], [-0.5863306113669757, -0.0023083186546265233], [-0.14406592145839636, -0.18030396033173757], [0.02799594837612851, -0.06516094110862325], [0.22078294559583433, -0.5456223240065784], [0.1757383873025855, 0.26904458520151386], [-0.17566290290448783, 0.1382610836449487], [-0.3818882035362021, -0.2792182999084296], [0.2887181220291507, 0.003889655557662408], [0.22734478213544773, -0.21887197835099653], [-0.3203316781964401, -0.4969526193126945], [-0.09258414518978975, 0.3118835058715981], [0.5413489876702468, 0.16545545254655813], [0.17221534840211772, 0.5180619383854768], [0.5415775701210478, -0.23571331386365377], [0.33816083040415845, -0.39414003319200375], [-0.02430207424479902, -0.3619361918676539], [-0.3327489469449907, 0.007733505511320793], [-0.3534470430139733, 0.40730449834313076], [0.3862747743391478, 0.32264186138358464]]",density,black,,,N011,visual,1,[],"['1', '2', '3', '4']",1,2023.2.3,harveyvisual,2.1,[],8,0.75,
0,pause,0.4,None,None,None,0,153,153,153,,,,,,,,,,,,,N011,visual,1,[],"['1', '2', '3', '4']",1,2023.2.3,harveyvisual,2.1,[],8,0.75,
20,dot,0.3,['dot'],['density'],black,0,154,154,154,,,56.300222873687744,56.01339387893677,56.31339693069458,dot,"[0.1, 0.1, 0.06, 0.1, 0.06, 0.06, 0.06, 0.06, 0.1, 0.1, 0.08, 0.08, 0.08, 0.08, 0.08, 0.08, 0.06, 0.06, 0.1, 0.06]","[[-0.46219733190932466, 0.19290204997792215], [0.5131953752299255, 0.07791010755929445], [-0.5724079293118625, -0.03251288306064451], [-0.17872677341358867, 0.26094159461426414], [-0.12528770210351192, -0.06867056851506426], [0.4581870314935014, 0.2880599519710782], [0.5086565521060699, -0.2488330007334017], [0.3158388471218654, -0.2013665781382532], [-0.3158525153409169, 0.4676401204164514], [-0.20324313139509892, -0.48520271103393653], [0.30427423000393206, -0.5172986533923316], [-0.33646264526321096, 0.043175350886361374], [-0.5146874244016056, -0.28064558112378724], [0.07631501064964741, -0.3072550331162542], [0.21005078988384374, 0.33043914031031907], [0.18961913336358482, 0.07020293496465879], [0.0655170602076498, -0.0943021860218306], [-0.3198313589398525, -0.1758638595766166], [0.3187156007353834, 0.4901346626484774], [0.10391764672490778, 0.52165121197898]]",density,black,,,N011,visual,1,[],"['1', '2', '3', '4']",1,2023.2.3,harveyvisual,2.1,[],8,0.75,
0,pause,0.4,None,None,None,0,155,155,155,,,,,,,,,,,,,N011,visual,1,[],"['1', '2', '3', '4']",1,2023.2.3,harveyvisual,2.1,[],8,0.75,
9,dot,0.3,['dot'],['density'],black,0,156,156,156,,,57.000205993652344,56.71341109275818,57.0133490562439,dot,"[0.1, 0.06, 0.08, 0.06, 0.06, 0.06, 0.06, 0.08, 0.1]","[[0.27429149071172837, 0.34251676390746333], [0.46797507249945486, 0.005491811463162166], [0.21235580877939833, 0.08757146436558581], [0.046223583492975936, 0.2932249054251131], [0.07051592556679111, -0.0704922843318231], [0.30438918969270623, -0.13028831600800136], [0.11534598117609637, 0.5236829685630697], [-0.06673610159464062, 0.12515255452502297], [-0.14439101605953233, -0.1332028051536465]]",density,black,,,N011,visual,1,[],"['1', '2', '3', '4']",1,2023.2.3,harveyvisual,2.1,[],8,0.75,
0,pause,0.4,None,None,None,0,157,157,157,,,,,,,,,,,,,N011,visual,1,[],"['1', '2', '3', '4']",1,2023.2.3,harveyvisual,2.1,[],8,0.75,
9,dot,0.3,['dot'],['density'],white,0,158,158,158,,,57.70021295547485,57.4132719039917,57.713249921798706,dot,"[0.08, 0.1, 0.1, 0.06, 0.1, 0.08, 0.06, 0.08, 0.06]","[[-0.25982930089867384, 0.41046177320377714], [0.2391912210628672, 0.4152301159030731], [-0.011899047454085643, 0.5103750441914148], [0.15826907621474634, 0.20577518054892585], [-0.29033424199965224, 0.2058356795488901], [-0.056026696670660174, 0.08152775180209879], [-0.32571421803823364, -0.002973879155612714], [0.39820859476685, 0.29236875228581105], [-0.06367065787951752, 0.28966088639372295]]",density,white,,,N011,visual,1,[],"['1', '2', '3', '4']",1,2023.2.3,harveyvisual,2.1,[],8,0.75,
0,pause,0.4,None,None,None,0,159,159,159,,,,,,,,,,,1,57.34056496620178,N011,visual,1,[],"['1', '2', '3', '4']",1,2023.2.3,harveyvisual,2.1,[],8,0.75,
9,dot,0.3,['dot'],['density'],black,0,160,160,160,,,58.40019607543945,58.113250970840454,58.41322588920593,dot,"[0.1, 0.1, 0.08, 0.08, 0.06, 0.06, 0.1, 0.1, 0.06]","[[-0.3143165991636532, -0.4594448536910345], [-0.2552048841139852, -0.06866208597721758], [-0.4539914907372049, -0.019462523532982], [-0.0016330512078212595, -0.20036737320767878], [-0.1856154264835833, -0.2915493351998931], [-0.41369389823818076, -0.2734186166626005], [0.2388286227728169, -0.07063581723838416], [0.0412368179136257, 0.05808754956878123], [-0.37802967984412894, 0.19285536194211775]]",density,black,,,N011,visual,1,[],"['1', '2', '3', '4']",1,2023.2.3,harveyvisual,2.1,[],8,0.75,
0,pause,0.4,None,None,None,0,161,161,161,,,,,,,,,,,,,N011,visual,1,[],"['1', '2', '3', '4']",1,2023.2.3,harveyvisual,2.1,[],8,0.75,
9,dot,0.3,['dot'],['density'],black,0,162,162,162,,,59.100208044052124,58.81323790550232,59.113219022750854,dot,"[0.08, 0.06, 0.1, 0.1, 0.1, 0.06, 0.1, 0.08, 0.1]","[[-0.23139737267821464, 0.4582894628988488], [-0.22563640623437264, 0.09161215191469056], [0.08653997658409265, 0.18408404769425912], [-0.34134765149242685, 0.2795210921938051], [-0.45752590330905135, 0.08752711185150099], [-0.035040587470716034, -0.07657027701648178], [-0.27120713465948276, -0.1309343981320133], [-0.3537313425617488, -0.374673418779248], [-0.09309732942360581, 0.2754840453600595]]",density,black,,,N011,visual,1,[],"['1', '2', '3', '4']",1,2023.2.3,harveyvisual,2.1,[],8,0.75,
0,pause,0.4,None,None,None,0,163,163,163,,,,,,,,,,,,,N011,visual,1,[],"['1', '2', '3', '4']",1,2023.2.3,harveyvisual,2.1,[],8,0.75,
9,dot,0.3,['dot'],['density'],black,0,164,164,164,,,59.800199031829834,59.51322102546692,59.813180923461914,dot,"[0.06, 0.06, 0.08, 0.06, 0.06, 0.06, 0.06, 0.06, 0.06]","[[0.31750259908069645, 0.09103062301409195], [-0.10814993995151222, -0.14883262012051235], [0.2615101699546999, -0.13245952524223892], [0.014531427323725789, 0.3887544696515085], [-0.1117096847062306, 0.09593752649312724], [0.07810272484559946, -0.019955638642360052], [-0.26173373106631487, 0.2840804484106463], [0.4370020372247476, 0.2669512546191977], [0.11115841416421544, 0.18722161068425575]]",density,black,,,N011,visual,1,[],"['1', '2', '3', '4']",1,2023.2.3,harveyvisual,2.1,[],8,0.75,
0,pause,0.4,None,None,None,0,165,165,165,,,,,,,,,,,,,N011,visual,1,[],"['1', '2', '3', '4']",1,2023.2.3,harveyvisual,2.1,[],8,0.75,
9,dot,0.3,['dot'],['density'],white,0,166,166,166,,,60.50022006034851,60.213337898254395,60.51319193840027,dot,"[0.1, 0.06, 0.06, 0.08, 0.06, 0.1, 0.1, 0.08, 0.06]","[[0.30047334598257713, -0.32583448447642216], [0.4997394081452916, 0.05175273655880906], [0.13646797290608587, 0.02221883094322858], [0.11448241016544139, -0.2117191838414046], [0.417500260412479, 0.2413963184479076], [0.19152536325099656, 0.23172406522327998], [0.5046802385722475, -0.28323005758562664], [-0.037891296982194685, 0.14714919272112825], [0.3292067348064443, -0.0657181274468392]]",density,white,,,N011,visual,1,[],"['1', '2', '3', '4']",1,2023.2.3,harveyvisual,2.1,[],8,0.75,
0,pause,0.4,None,None,None,0,167,167,167,,,,,,,,,,,1,60.09196209907532,N011,visual,1,[],"['1', '2', '3', '4']",1,2023.2.3,harveyvisual,2.1,[],8,0.75,
8,dot,0.3,['dot'],['density'],black,0,168,168,168,,,61.20020008087158,60.91318702697754,61.21318292617798,dot,"[0.06, 0.06, 0.08, 0.1, 0.1, 0.1, 0.06, 0.1]","[[-0.17382250058115215, 0.008030820220576582], [-0.5561520679887834, 0.09064024109159684], [-0.2322770524578434, -0.18818443710846813], [-0.41357291590276396, -0.2905316508268561], [-0.37423053416790164, -0.04064357687765813], [-0.014699175284411378, 0.15059198662288528], [-0.015485985535575739, -0.1348843831724925], [-0.36639977644872057, 0.228205681233079]]",density,black,,,N011,visual,1,[],"['1', '2', '3', '4']",1,2023.2.3,harveyvisual,2.1,[],8,0.75,
0,pause,0.4,None,None,None,0,169,169,169,,,,,,,,,,,,,N011,visual,1,[],"['1', '2', '3', '4']",1,2023.2.3,harveyvisual,2.1,[],8,0.75,
8,dot,0.3,['dot'],['density'],black,0,170,170,170,,,61.900222063064575,61.61315989494324,61.913153886795044,dot,"[0.1, 0.08, 0.08, 0.06, 0.06, 0.06, 0.1, 0.1]","[[0.016639406518403475, -0.10031965053970064], [-0.49734137941811546, 0.023312718056099104], [0.03171158295547566, 0.2028207856397581], [-0.3777108616291506, 0.18827317115199685], [-0.2734124440264558, -0.20525012861841768], [-0.1742574757978524, 0.04093824739900491], [-0.17815403785603903, 0.26205888083036905], [-0.2502819750276768, 0.4804358206127844]]",density,black,,,N011,visual,1,[],"['1', '2', '3', '4']",1,2023.2.3,harveyvisual,2.1,[],8,0.75,
0,pause,0.4,None,None,None,0,171,171,171,,,,,,,,,,,,,N011,visual,1,[],"['1', '2', '3', '4']",1,2023.2.3,harveyvisual,2.1,[],8,0.75,
8,dot,0.3,['dot'],['density'],black,0,172,172,172,,,62.60020089149475,62.31312704086304,62.613116979599,dot,"[0.06, 0.06, 0.06, 0.06, 0.1, 0.1, 0.08, 0.08]","[[-0.4462313073918426, 0.10595449025715867], [0.022923871415176152, 0.06290918987699953], [-0.12461589820496316, 0.4830175517012745], [-0.29730306390741434, 0.2752084497958106], [-0.2195410516364439, 0.056871795648565045], [0.008916049516666445, 0.2907399105306955], [-0.08256048209355603, -0.11638226771844133], [-0.4106304257826301, -0.09222594144079917]]",density,black,,,N011,visual,1,[],"['1', '2', '3', '4']",1,2023.2.3,harveyvisual,2.1,[],8,0.75,
0,pause,0.4,None,None,None,0,173,173,173,,,,,,,,,,,,,N011,visual,1,[],"['1', '2', '3', '4']",1,2023.2.3,harveyvisual,2.1,[],8,0.75,
8,dot,0.3,['dot'],['density'],black,0,174,174,174,,,63.30019807815552,63.013103008270264,63.31309509277344,dot,"[0.06, 0.08, 0.06, 0.08, 0.06, 0.06, 0.1, 0.06]","[[0.29210958841889567, 0.026991922891258572], [0.03093533645276146, 0.3258936230244337], [-0.13014708308220477, 0.20110385145229231], [0.463805327987396, 0.2670013362689149], [0.17887675575806267, 0.48912385903522404], [0.2495142025194702, 0.28253247413027655], [0.03200252102949923, -0.1932501096446728], [0.04457092617056691, 0.07668709382136672]]",density,black,,,N011,visual,1,[],"['1', '2', '3', '4']",1,2023.2.3,harveyvisual,2.1,[],8,0.75,
0,pause,0.4,None,None,None,0,175,175,175,,,,,,,,,,,,,N011,visual,1,[],"['1', '2', '3', '4']",1,2023.2.3,harveyvisual,2.1,[],8,0.75,
8,dot,0.3,['dot'],['density'],black,0,176,176,176,,,64.0002191066742,63.71310210227966,64.01307892799377,dot,"[0.08, 0.1, 0.08, 0.06, 0.08, 0.1, 0.08, 0.08]","[[-0.13470540342303577, 0.06408260861786476], [-0.32633744656496655, 0.15045505181492372], [-0.2908673593763413, -0.0762007135190446], [-0.5368971138264618, 0.18470905249118252], [0.055331558945424124, 0.1732254888039505], [-0.30909967543404826, 0.3845911877556102], [-0.0777863596696305, 0.41921053595603236], [0.03181857584637903, -0.08967320215721851]]",density,black,,,N011,visual,1,[],"['1', '2', '3', '4']",1,2023.2.3,harveyvisual,2.1,[],8,0.75,
0,pause,0.4,None,None,None,0,177,177,177,,,,,,,,,,,,,N011,visual,1,[],"['1', '2', '3', '4']",1,2023.2.3,harveyvisual,2.1,[],8,0.75,
8,dot,0.3,['dot'],['density'],black,0,178,178,178,,,64.70022392272949,64.41307401657104,64.713054895401,dot,"[0.06, 0.08, 0.08, 0.08, 0.1, 0.08, 0.08, 0.1]","[[0.4578461037593053, -0.0425280984807614], [0.3105081462658962, -0.253400778181943], [0.5107466611240274, 0.18303335057259504], [0.05013881804369301, 0.21472050036076742], [0.11913774150617627, -0.046477809882714556], [0.3069987493408211, 0.11186211070896974], [0.10261508471656716, -0.25482825738733483], [-0.08881417545548334, 0.035709595317019026]]",density,black,,,N011,visual,1,[],"['1', '2', '3', '4']",1,2023.2.3,harveyvisual,2.1,[],8,0.75,
0,pause,0.4,None,None,None,0,179,179,179,,,,,,,,,,,,,N011,visual,1,[],"['1', '2', '3', '4']",1,2023.2.3,harveyvisual,2.1,[],8,0.75,
7,dot,0.3,['dot'],['density'],black,0,180,180,180,,,65.4002161026001,65.11304903030396,65.41306400299072,dot,"[0.08, 0.08, 0.06, 0.06, 0.06, 0.1, 0.1]","[[0.12902113605384963, -0.35167066519854956], [0.3838909825822851, -0.05572740120406059], [-0.02857767273637445, 0.1549795872955612], [0.19333287999408408, 0.10698923431715611], [-0.08146847087507005, -0.06064403559207536], [0.18020694687254563, -0.15550905334431223], [-0.07225335190945896, -0.28606481362007624]]",density,black,,,N011,visual,1,[],"['1', '2', '3', '4']",1,2023.2.3,harveyvisual,2.1,[],8,0.75,
0,pause,0.4,None,None,None,0,181,181,181,,,,,,,,,,,,,N011,visual,1,[],"['1', '2', '3', '4']",1,2023.2.3,harveyvisual,2.1,[],8,0.75,
7,dot,0.3,['dot'],['density'],black,0,182,182,182,,,66.10021090507507,65.81307601928711,66.11305499076843,dot,"[0.1, 0.08, 0.06, 0.08, 0.08, 0.06, 0.1]","[[0.06935229908748385, 0.4911641494940837], [-0.19266199922505295, 0.07836852906048222], [0.055274369019684175, 0.020452523162812593], [0.26239471350362015, 0.1001529216481179], [-0.06036973858781391, 0.3360513952533211], [-0.2638544135394649, 0.29089327984911306], [0.14813816713374972, 0.28344041791591096]]",density,black,,,N011,visual,1,[],"['1', '2', '3', '4']",1,2023.2.3,harveyvisual,2.1,[],8,0.75,
0,pause,0.4,None,None,None,0,183,183,183,,,,,,,,,,,,,N011,visual,1,[],"['1', '2', '3', '4']",1,2023.2.3,harveyvisual,2.1,[],8,0.75,
7,dot,0.3,['dot'],['density'],black,0,184,184,184,,,66.80020999908447,66.51301789283752,66.81300902366638,dot,"[0.1, 0.06, 0.06, 0.08, 0.08, 0.06, 0.06]","[[-0.27882252076513336, 0.33055409005240166], [-0.4957633793454142, -0.06140876275196145], [-0.0066404743852866415, -0.09326226909207957], [-0.0437417051997281, 0.24568157295930956], [-0.4653499650939929, 0.1386387143322748], [-0.23664853702636232, 0.07695828400639043], [-0.2650254833014284, -0.12289079349875774]]",density,black,,,N011,visual,1,[],"['1', '2', '3', '4']",1,2023.2.3,harveyvisual,2.1,[],8,0.75,
0,pause,0.4,None,None,None,0,185,185,185,,,,,,,,,,,,,N011,visual,1,[],"['1', '2', '3', '4']",1,2023.2.3,harveyvisual,2.1,[],8,0.75,
7,dot,0.3,['dot'],['density'],black,0,186,186,186,,,67.50020694732666,67.21301889419556,67.51298189163208,dot,"[0.08, 0.06, 0.06, 0.1, 0.06, 0.08, 0.06]","[[0.3899189512010899, -0.40728696153528776], [0.20392863561369634, -0.3305625840210526], [0.31626985815109576, 0.13567824844623666], [0.5017338684339655, -0.028549680114735937], [0.11648855723187378, -0.1078833072829627], [0.07041138378868489, 0.08730219371944997], [0.32910598476010167, -0.13660711058181768]]",density,black,,,N011,visual,1,[],"['1', '2', '3', '4']",1,2023.2.3,harveyvisual,2.1,[],8,0.75,
0,pause,0.4,None,None,None,0,187,187,187,,,,,,,,,,,,,N011,visual,1,[],"['1', '2', '3', '4']",1,2023.2.3,harveyvisual,2.1,[],8,0.75,
7,dot,0.3,['dot'],['density'],black,0,188,188,188,,,68.20022010803223,67.91298794746399,68.21296811103821,dot,"[0.1, 0.08, 0.08, 0.1, 0.08, 0.08, 0.1]","[[-0.23022292756182125, -0.05768485575552839], [-0.3970021412728509, -0.1722837668104814], [-0.2989980436724142, -0.5015189566068301], [-0.1887121522124618, -0.3052937986494308], [-0.001193606839323686, -0.45187687349833133], [-0.45251418858811787, -0.367940027934103], [0.11213422846620591, -0.19711986939188722]]",density,black,,,N011,visual,1,[],"['1', '2', '3', '4']",1,2023.2.3,harveyvisual,2.1,[],8,0.75,
0,pause,0.4,None,None,None,0,189,189,189,,,,,,,,,,,,,N011,visual,1,[],"['1', '2', '3', '4']",1,2023.2.3,harveyvisual,2.1,[],8,0.75,
7,dot,0.3,['dot'],['density'],black,0,190,190,190,,,68.90021896362305,68.61297297477722,68.91295504570007,dot,"[0.08, 0.06, 0.1, 0.06, 0.08, 0.1, 0.1]","[[-0.23895008888738212, 0.05027357720500052], [0.04847041368780161, 0.3376116924566045], [0.007425979130163878, -0.07582657330311053], [-0.16109724709992976, 0.33554312732420544], [-0.17199436159673825, -0.1887904434853683], [0.1858169564317131, 0.14031933770952934], [-0.038655615351801086, 0.15226176997737048]]",density,black,,,N011,visual,1,[],"['1', '2', '3', '4']",1,2023.2.3,harveyvisual,2.1,[],8,0.75,
0,pause,0.4,None,None,None,0,191,191,191,,,,,,,,,,,,,N011,visual,1,[],"['1', '2', '3', '4']",1,2023.2.3,harveyvisual,2.1,[],8,0.75,
6,dot,0.3,['dot'],['density'],black,0,192,192,192,,,69.60022687911987,69.31293988227844,69.61294102668762,dot,"[0.1, 0.1, 0.06, 0.06, 0.08, 0.1]","[[-0.08086177951302478, 0.2470577028799217], [0.17809040740055945, 0.25721690350386706], [0.248993691455746, -0.144418230259854], [0.04260816027356476, -0.17251108440570345], [0.26201279645255604, 0.07253913185781388], [-0.0017619790798508912, 0.027830886297901026]]",density,black,,,N011,visual,1,[],"['1', '2', '3', '4']",1,2023.2.3,harveyvisual,2.1,[],8,0.75,
0,pause,0.4,None,None,None,0,193,193,193,,,,,,,,,,,,,N011,visual,1,[],"['1', '2', '3', '4']",1,2023.2.3,harveyvisual,2.1,[],8,0.75,
6,dot,0.3,['dot'],['density'],black,0,194,194,194,,,70.30020093917847,70.01302695274353,70.31294298171997,dot,"[0.1, 0.08, 0.06, 0.06, 0.08, 0.1]","[[0.3299424372810393, 0.4114780133894161], [0.051944887288218326, -0.03233758374135307], [0.4337222981537534, -0.07578498258626121], [0.10477943773033714, 0.1703675017914044], [0.3400878522727408, 0.20016066552806494], [0.2510029109880425, 0.01747244452819591]]",density,black,,,N011,visual,1,[],"['1', '2', '3', '4']",1,2023.2.3,harveyvisual,2.1,[],8,0.75,
0,pause,0.4,None,None,None,0,195,195,195,,,,,,,,,,,,,N011,visual,1,[],"['1', '2', '3', '4']",1,2023.2.3,harveyvisual,2.1,[],8,0.75,
6,dot,0.3,['dot'],['density'],black,0,196,196,196,,,71.00020003318787,70.71293091773987,71.01290702819824,dot,"[0.1, 0.06, 0.1, 0.06, 0.08, 0.1]","[[-0.36904347190091025, 0.2789229011504548], [-0.01038079434194998, 0.053649704929766846], [-0.08735338951653393, 0.578282782753283], [5.153534382930422e-05, 0.38446941554394387], [-0.22753401468201206, 0.43210907521897474], [-0.14647282530567177, 0.24517240432070728]]",density,black,,,N011,visual,1,[],"['1', '2', '3', '4']",1,2023.2.3,harveyvisual,2.1,[],8,0.75,
0,pause,0.4,None,None,None,0,197,197,197,,,,,,,,,,,,,N011,visual,1,[],"['1', '2', '3', '4']",1,2023.2.3,harveyvisual,2.1,[],8,0.75,
6,dot,0.3,['dot'],['density'],black,0,198,198,198,,,71.7002010345459,71.41291093826294,71.71288204193115,dot,"[0.08, 0.1, 0.1, 0.08, 0.08, 0.06]","[[-0.08086177951302478, 0.2470577028799217], [0.17809040740055945, 0.25721690350386706], [0.248993691455746, -0.144418230259854], [0.04260816027356476, -0.17251108440570345], [0.26201279645255604, 0.07253913185781388], [-0.0017619790798508912, 0.027830886297901026]]",density,black,,,N011,visual,1,[],"['1', '2', '3', '4']",1,2023.2.3,harveyvisual,2.1,[],8,0.75,
0,pause,0.4,None,None,None,0,199,199,199,,,,,,,,,,,,,N011,visual,1,[],"['1', '2', '3', '4']",1,2023.2.3,harveyvisual,2.1,[],8,0.75,
6,dot,0.3,['dot'],['density'],black,0,200,200,200,,,72.40022492408752,72.11286807060242,72.41285395622253,dot,"[0.06, 0.08, 0.06, 0.08, 0.08, 0.08]","[[0.1382403832049451, 0.0462086450304607], [-0.07534018949214154, -0.3274433807795599], [0.3332171610134826, -0.14895102818546319], [0.22614943412716124, -0.3322834867125916], [-0.0756450994425101, -0.005640117700353421], [0.0938048843888254, -0.16909843217532775]]",density,black,,,N011,visual,1,[],"['1', '2', '3', '4']",1,2023.2.3,harveyvisual,2.1,[],8,0.75,
0,pause,0.4,None,None,None,0,201,201,201,,,,,,,,,,,,,N011,visual,1,[],"['1', '2', '3', '4']",1,2023.2.3,harveyvisual,2.1,[],8,0.75,
6,dot,0.3,['dot'],['density'],black,0,202,202,202,,,73.10019993782043,72.8128490447998,73.1128420829773,dot,"[0.1, 0.06, 0.06, 0.08, 0.1, 0.08]","[[-0.5379788740814003, -0.011730333491669416], [-0.1820890739253136, -0.27973544868684425], [-0.07809457889047756, -0.09124846264896269], [-0.30616251401069866, -0.45101817852416426], [-0.44200878281119743, -0.26991620184617166], [-0.3315938551005316, -0.08696624632848979]]",density,black,,,N011,visual,1,[],"['1', '2', '3', '4']",1,2023.2.3,harveyvisual,2.1,[],8,0.75,
0,pause,0.4,None,None,None,0,203,203,203,,,,,,,,,,,,,N011,visual,1,[],"['1', '2', '3', '4']",1,2023.2.3,harveyvisual,2.1,[],8,0.75,
5,dot,0.3,['dot'],['density'],black,0,204,204,204,,,73.80021595954895,73.51282000541687,73.81281995773315,dot,"[0.06, 0.06, 0.1, 0.06, 0.08]","[[0.10176071415026891, -0.0029310292721688898], [0.32748853803000494, -0.2831003617774451], [0.10999898603900501, -0.23076615641811304], [0.2383494361888625, 0.16403485824849598], [0.3558293804179042, -0.08171974316418079]]",density,black,,,N011,visual,1,[],"['1', '2', '3', '4']",1,2023.2.3,harveyvisual,2.1,[],8,0.75,
0,pause,0.4,None,None,None,0,205,205,205,,,,,,,,,,,,,N011,visual,1,[],"['1', '2', '3', '4']",1,2023.2.3,harveyvisual,2.1,[],8,0.75,
5,dot,0.3,['dot'],['density'],black,0,206,206,206,,,74.50020694732666,74.21283292770386,74.51281189918518,dot,"[0.06, 0.08, 0.08, 0.06, 0.1]","[[-0.19096480170835262, 0.2202776521134577], [0.009488999043989208, 0.5721548226574139], [0.16477125949827795, 0.3732973518003487], [0.07476286221063107, 0.1476230553836633], [-0.051949696108355745, 0.36609537475325354]]",density,black,,,N011,visual,1,[],"['1', '2', '3', '4']",1,2023.2.3,harveyvisual,2.1,[],8,0.75,
0,pause,0.4,None,None,None,0,207,207,207,,,,,,,,,,,,,N011,visual,1,[],"['1', '2', '3', '4']",1,2023.2.3,harveyvisual,2.1,[],8,0.75,
5,dot,0.3,['dot'],['density'],white,0,208,208,208,,,75.2002260684967,74.91280198097229,75.21279191970825,dot,"[0.06, 0.08, 0.1, 0.1, 0.1]","[[-0.16255238243643175, 0.17860987090823105], [-0.3708934258622909, -0.17994308192218272], [-0.3873401471382859, 0.23755408526324856], [-0.3082462149465763, 0.01808515368093923], [-0.09381294098683406, -0.04001219282613638]]",density,white,,,N011,visual,1,[],"['1', '2', '3', '4']",1,2023.2.3,harveyvisual,2.1,[],8,0.75,
0,pause,0.4,None,None,None,0,209,209,209,,,,,,,,,,,1,74.783695936203,N011,visual,1,[],"['1', '2', '3', '4']",1,2023.2.3,harveyvisual,2.1,[],8,0.75,
5,dot,0.3,['dot'],['density'],black,0,210,210,210,,,75.90020203590393,75.61280703544617,75.91280508041382,dot,"[0.06, 0.08, 0.1, 0.06, 0.08]","[[0.33660852042816714, -0.448935078303268], [0.16237328695183198, -0.028906365321866932], [0.003149504206933677, -0.1844463225559013], [0.4065340125681681, -0.22407981263326276], [0.20027486954239768, -0.2346061295568129]]",density,black,,,N011,visual,1,[],"['1', '2', '3', '4']",1,2023.2.3,harveyvisual,2.1,[],8,0.75,
0,pause,0.4,None,None,None,0,211,211,211,,,,,,,,,,,,,N011,visual,1,[],"['1', '2', '3', '4']",1,2023.2.3,harveyvisual,2.1,[],8,0.75,
5,dot,0.3,['dot'],['density'],black,0,212,212,212,,,76.60020303726196,76.31290888786316,76.6127610206604,dot,"[0.06, 0.1, 0.1, 0.1, 0.1]","[[-0.11834215492801986, 0.412508379109845], [0.31881799646300274, 0.30859303438359803], [-0.06368743078099719, 0.10105058071702504], [0.1133485112468387, 0.46262203184429457], [0.11957051434631445, 0.24197418837926052]]",density,black,,,N011,visual,1,[],"['1', '2', '3', '4']",1,2023.2.3,harveyvisual,2.1,[],8,0.75,
0,pause,0.4,None,None,None,0,213,213,213,,,,,,,,,,,,,N011,visual,1,[],"['1', '2', '3', '4']",1,2023.2.3,harveyvisual,2.1,[],8,0.75,
5,dot,0.3,['dot'],['density'],black,0,214,214,214,,,77.30020809173584,77.01276707649231,77.312735080719,dot,"[0.1, 0.08, 0.08, 0.1, 0.08]","[[-0.416197921377668, -0.28619329865683824], [-0.20866628843358032, -0.3460647126262422], [-0.5570429559765239, -0.05989317214741584], [-0.28028983240144106, -0.12146425093182346], [-0.3531870384577651, 0.07845006904085886]]",density,black,,,N011,visual,1,[],"['1', '2', '3', '4']",1,2023.2.3,harveyvisual,2.1,[],8,0.75,
0,pause,0.4,None,None,None,0,215,215,215,,,,,,,,,,,,,N011,visual,1,[],"['1', '2', '3', '4']",1,2023.2.3,harveyvisual,2.1,[],8,0.75,
4,dot,0.3,['dot'],['density'],black,0,216,216,216,,,78.0002179145813,77.71275210380554,78.01275205612183,dot,"[0.1, 0.08, 0.06, 0.08]","[[0.0004228548582206217, 0.4437421379736539], [0.24572762857664815, 0.2260868474052859], [0.007756854070108054, 0.1846819218217072], [0.22099789303306372, 0.4278063517398125]]",density,black,,,N011,visual,1,[],"['1', '2', '3', '4']",1,2023.2.3,harveyvisual,2.1,[],8,0.75,
0,pause,0.4,None,None,None,0,217,217,217,,,,,,,,,,,,,N011,visual,1,[],"['1', '2', '3', '4']",1,2023.2.3,harveyvisual,2.1,[],8,0.75,
4,dot,0.3,['dot'],['density'],white,0,218,218,218,,,78.70020008087158,78.41288709640503,78.71540093421936,dot,"[0.06, 0.1, 0.08, 0.1]","[[-0.46485289602757673, 0.3603628353310837], [-0.30733625211232357, 0.21626236973196436], [-0.38991578213366157, 0.024479253410336757], [-0.570234662048439, 0.14093512067028166]]",density,white,,,N011,visual,1,[],"['1', '2', '3', '4']",1,2023.2.3,harveyvisual,2.1,[],8,0.75,
0,pause,0.4,None,None,None,0,219,219,219,,,,,,,,,,,1,78.30816602706909,N011,visual,1,[],"['1', '2', '3', '4']",1,2023.2.3,harveyvisual,2.1,[],8,0.75,
4,dot,0.3,['dot'],['density'],black,0,220,220,220,,,79.40020108222961,79.11273002624512,79.4126980304718,dot,"[0.1, 0.1, 0.06, 0.1]","[[-0.035956560563939345, -0.32709283091503677], [-0.2190429995428959, -0.2035699502326352], [-0.06992348234594314, -0.5664776463754845], [-0.220471277594294, -0.41208836036752056]]",density,black,,,N011,visual,1,[],"['1', '2', '3', '4']",1,2023.2.3,harveyvisual,2.1,[],8,0.75,
0,pause,0.4,None,None,None,0,221,221,221,,,,,,,,,,,,,N011,visual,1,[],"['1', '2', '3', '4']",1,2023.2.3,harveyvisual,2.1,[],8,0.75,
4,dot,0.3,['dot'],['density'],white,0,222,222,222,,,80.10022497177124,79.8126699924469,80.11264610290527,dot,"[0.08, 0.06, 0.08, 0.06]","[[-0.43942495523079517, -0.22401056498097033], [-0.009260832099230759, -0.1633376679159051], [-0.21598309108097546, -0.10172603009605206], [-0.2278206133413005, -0.33154874685782076]]",density,white,,,N011,visual,1,[],"['1', '2', '3', '4']",1,2023.2.3,harveyvisual,2.1,[],8,0.75,
0,pause,0.4,None,None,None,0,223,223,223,,,,,,,,,,,1,79.74826097488403,N011,visual,1,[],"['1', '2', '3', '4']",1,2023.2.3,harveyvisual,2.1,[],8,0.75,
4,dot,0.3,['dot'],['density'],black,0,224,224,224,,,80.800213098526,80.51266193389893,80.8126380443573,dot,"[0.08, 0.06, 0.1, 0.1]","[[-0.4771446773377139, 0.25157103962592786], [-0.4259846000875058, -0.15982147080050188], [-0.5514119563937664, 0.017569371675289724], [-0.3400083930451492, 0.09263869595453958]]",density,black,,,N011,visual,1,[],"['1', '2', '3', '4']",1,2023.2.3,harveyvisual,2.1,[],8,0.75,
0,pause,0.4,None,None,None,0,225,225,225,,,,,,,,,,,,,N011,visual,1,[],"['1', '2', '3', '4']",1,2023.2.3,harveyvisual,2.1,[],8,0.75,
4,dot,0.3,['dot'],['density'],black,0,226,226,226,,,81.50022006034851,81.21263599395752,81.51261711120605,dot,"[0.1, 0.06, 0.08, 0.06]","[[0.06081986304483943, 0.35358512719402324], [0.4232304195196481, 0.14579533924648716], [0.12419639750553536, 0.133833625718984], [0.26609561976711055, 0.2970795792082364]]",density,black,,,N011,visual,1,[],"['1', '2', '3', '4']",1,2023.2.3,harveyvisual,2.1,[],8,0.75,
0,pause,0.4,None,None,None,0,227,227,227,,,,,,,,,,,,,N011,visual,1,[],"['1', '2', '3', '4']",1,2023.2.3,harveyvisual,2.1,[],8,0.75,
3,dot,0.3,['dot'],['density'],black,0,228,228,228,,,82.20022797584534,81.91261410713196,82.21264100074768,dot,"[0.1, 0.06, 0.08]","[[0.2656832518280197, 0.0014864193765316018], [0.3503107158811183, -0.1826455867164705], [0.5188928509039705, -0.04177453376365527]]",density,black,,,N011,visual,1,[],"['1', '2', '3', '4']",1,2023.2.3,harveyvisual,2.1,[],8,0.75,
0,pause,0.4,None,None,None,0,229,229,229,,,,,,,,,,,,,N011,visual,1,[],"['1', '2', '3', '4']",1,2023.2.3,harveyvisual,2.1,[],8,0.75,
3,dot,0.3,['dot'],['density'],black,0,230,230,230,,,82.90019989013672,82.61263799667358,82.91264200210571,dot,"[0.1, 0.06, 0.1]","[[0.29938275938101017, 0.44415474715472736], [0.13070782598704628, 0.5557174004537693], [0.11832456902218637, 0.3273615767427578]]",density,black,,,N011,visual,1,[],"['1', '2', '3', '4']",1,2023.2.3,harveyvisual,2.1,[],8,0.75,
0,pause,0.4,None,None,None,0,231,231,231,,,,,,,,,,,,,N011,visual,1,[],"['1', '2', '3', '4']",1,2023.2.3,harveyvisual,2.1,[],8,0.75,
3,dot,0.3,['dot'],['density'],black,0,232,232,232,,,83.6002140045166,83.31263303756714,83.61260104179382,dot,"[0.08, 0.1, 0.06]","[[0.1555504186016049, 0.15532406847092056], [-0.0680535881648269, 0.26220909641571793], [0.08533315121688807, 0.39122308779032533]]",density,black,,,N011,visual,1,[],"['1', '2', '3', '4']",1,2023.2.3,harveyvisual,2.1,[],8,0.75,
0,pause,0.4,None,None,None,0,233,233,233,,,,,,,,,,,,,N011,visual,1,[],"['1', '2', '3', '4']",1,2023.2.3,harveyvisual,2.1,[],8,0.75,
3,dot,0.3,['dot'],['density'],black,0,234,234,234,,,84.3002119064331,84.01259088516235,84.31256794929504,dot,"[0.1, 0.08, 0.06]","[[-0.1599523582230929, -0.020289166781496174], [-0.3458010015304564, -0.14250622038001895], [-0.3538668896253721, 0.08903610231223419]]",density,black,,,N011,visual,1,[],"['1', '2', '3', '4']",1,2023.2.3,harveyvisual,2.1,[],8,0.75,
0,pause,0.4,None,None,None,0,235,235,235,,,,,,,,,,,,,N011,visual,1,[],"['1', '2', '3', '4']",1,2023.2.3,harveyvisual,2.1,[],8,0.75,
3,dot,0.3,['dot'],['density'],black,0,236,236,236,,,85.00023102760315,84.71255588531494,85.01253700256348,dot,"[0.1, 0.1, 0.08]","[[-0.5649268285189266, -0.02945458741690218], [-0.36332336008090005, 0.05160617148840915], [-0.5004673786076542, 0.20230308468415367]]",density,black,,,N011,visual,1,[],"['1', '2', '3', '4']",1,2023.2.3,harveyvisual,2.1,[],8,0.75,
0,pause,0.4,None,None,None,0,237,237,237,,,,,,,,,,,,,N011,visual,1,[],"['1', '2', '3', '4']",1,2023.2.3,harveyvisual,2.1,[],8,0.75,
3,dot,0.3,['dot'],['density'],black,0,238,238,238,,,85.70020699501038,85.41254210472107,85.71251606941223,dot,"[0.06, 0.1, 0.08]","[[0.29938275938101017, 0.44415474715472736], [0.13070782598704628, 0.5557174004537693], [0.11832456902218637, 0.3273615767427578]]",density,black,,,N011,visual,1,[],"['1', '2', '3', '4']",1,2023.2.3,harveyvisual,2.1,[],8,0.75,
0,pause,0.4,None,None,None,0,239,239,239,,,,,,,,,,,,,N011,visual,1,[],"['1', '2', '3', '4']",1,2023.2.3,harveyvisual,2.1,[],8,0.75,
2,dot,0.3,['dot'],['density'],black,0,240,240,240,,,86.40022587776184,86.11248588562012,86.41248202323914,dot,"[0.1, 0.08]","[[0.17083311991776792, -0.05558111512160733], [0.1461049568064877, -0.25438559320493304]]",density,black,,,N011,visual,1,[],"['1', '2', '3', '4']",1,2023.2.3,harveyvisual,2.1,[],8,0.75,
0,pause,0.4,None,None,None,0,241,241,241,,,,,,,,,,,,,N011,visual,1,[],"['1', '2', '3', '4']",1,2023.2.3,harveyvisual,2.1,[],8,0.75,
2,dot,0.3,['dot'],['density'],black,0,242,242,242,,,87.10021090507507,86.81254887580872,87.11246609687805,dot,"[0.08, 0.08]","[[0.500151128333041, 0.1656925720118866], [0.3771979967144504, 0.3235340638115745]]",density,black,,,N011,visual,1,[],"['1', '2', '3', '4']",1,2023.2.3,harveyvisual,2.1,[],8,0.75,
0,pause,0.4,None,None,None,0,243,243,243,,,,,,,,,,,,,N011,visual,1,[],"['1', '2', '3', '4']",1,2023.2.3,harveyvisual,2.1,[],8,0.75,
2,dot,0.3,['dot'],['density'],black,0,244,244,244,,,87.80020093917847,87.51245093345642,87.81247091293335,dot,"[0.1, 0.08]","[[-0.20887660672828282, 0.3399455197969581], [-0.34272369919491674, 0.19089688818271272]]",density,black,,,N011,visual,1,[],"['1', '2', '3', '4']",1,2023.2.3,harveyvisual,2.1,[],8,0.75,
0,pause,0.4,None,None,None,0,245,245,245,,,,,,,,,,,,,N011,visual,1,[],"['1', '2', '3', '4']",1,2023.2.3,harveyvisual,2.1,[],8,0.75,
2,dot,0.3,['dot'],['density'],black,0,246,246,246,,,88.50021004676819,88.21250200271606,88.5124979019165,dot,"[0.06, 0.06]","[[-0.4149324818804315, 0.28007444048998836], [-0.5260390884397633, 0.11347960973083408]]",density,black,,,N011,visual,1,[],"['1', '2', '3', '4']",1,2023.2.3,harveyvisual,2.1,[],8,0.75,
0,pause,0.4,None,None,None,0,247,247,247,,,,,,,,,,,,,N011,visual,1,[],"['1', '2', '3', '4']",1,2023.2.3,harveyvisual,2.1,[],8,0.75,
2,dot,0.3,['dot'],['density'],black,0,248,248,248,,,89.20020699501038,88.91248488426208,89.21243906021118,dot,"[0.08, 0.1]","[[0.07059805578258149, -0.2458188734665979], [0.058763118304238846, -0.4455693812784497]]",density,black,,,N011,visual,1,[],"['1', '2', '3', '4']",1,2023.2.3,harveyvisual,2.1,[],8,0.75,
0,pause,0.4,None,None,None,0,249,249,249,,,,,,,,,,,,,N011,visual,1,[],"['1', '2', '3', '4']",1,2023.2.3,harveyvisual,2.1,[],8,0.75,
2,dot,0.3,['dot'],['density'],white,0,250,250,250,,,89.9002161026001,89.61256504058838,89.91244196891785,dot,"[0.08, 0.06]","[[-0.15001882639889116, 0.48719053997247297], [-0.1736568080125972, 0.28835755901726084]]",density,white,,,N011,visual,1,[],"['1', '2', '3', '4']",1,2023.2.3,harveyvisual,2.1,[],8,0.75,
0,pause,0.4,None,None,None,0,251,251,251,,,,,,,,,,,1,89.63355898857117,N011,visual,1,[],"['1', '2', '3', '4']",1,2023.2.3,harveyvisual,2.1,[],8,0.75,
1,dot,0.3,['dot'],['density'],black,0,252,252,252,,,90.60021209716797,90.31238198280334,90.61239910125732,dot,[0.1],"[0.21839164384074103, 0.06179923858190914]",density,black,,,N011,visual,1,[],"['1', '2', '3', '4']",1,2023.2.3,harveyvisual,2.1,[],8,0.75,
0,pause,0.4,None,None,None,0,253,253,253,,,,,,,,,,,,,N011,visual,1,[],"['1', '2', '3', '4']",1,2023.2.3,harveyvisual,2.1,[],8,0.75,
1,dot,0.3,['dot'],['density'],black,0,254,254,254,,,91.30022692680359,91.01245403289795,91.31248092651367,dot,[0.1],"[-0.40242150741388927, 0.27329756427278695]",density,black,,,N011,visual,1,[],"['1', '2', '3', '4']",1,2023.2.3,harveyvisual,2.1,[],8,0.75,
0,pause,0.4,None,None,None,0,255,255,255,,,,,,,,,,,,,N011,visual,1,[],"['1', '2', '3', '4']",1,2023.2.3,harveyvisual,2.1,[],8,0.75,
1,dot,0.3,['dot'],['density'],black,0,256,256,256,,,92.00022602081299,91.71235489845276,92.0123360157013,dot,[0.08],"[-0.30422713965878023, 0.0739284850406325]",density,black,,,N011,visual,1,[],"['1', '2', '3', '4']",1,2023.2.3,harveyvisual,2.1,[],8,0.75,
0,pause,0.4,None,None,None,0,257,257,257,,,,,,,,,,,,,N011,visual,1,[],"['1', '2', '3', '4']",1,2023.2.3,harveyvisual,2.1,[],8,0.75,
1,dot,0.3,['dot'],['density'],black,0,258,258,258,,,92.70020890235901,92.41233396530151,92.712327003479,dot,[0.08],"[0.2443568370277045, -0.23874091154858243]",density,black,,,N011,visual,1,[],"['1', '2', '3', '4']",1,2023.2.3,harveyvisual,2.1,[],8,0.75,
0,pause,0.4,None,None,None,0,259,259,259,,,,,,,,,,,,,N011,visual,1,[],"['1', '2', '3', '4']",1,2023.2.3,harveyvisual,2.1,[],8,0.75,
1,dot,0.3,['dot'],['density'],black,0,260,260,260,,,93.40020990371704,93.11232399940491,93.41230607032776,dot,[0.06],"[-0.13294789447644317, -0.0050084293737640015]",density,black,,,N011,visual,1,[],"['1', '2', '3', '4']",1,2023.2.3,harveyvisual,2.1,[],8,0.75,
0,pause,0.4,None,None,None,0,261,261,261,,,,,,,,,,,,,N011,visual,1,[],"['1', '2', '3', '4']",1,2023.2.3,harveyvisual,2.1,[],8,0.75,
1,dot,0.3,['dot'],['density'],black,0,262,262,262,,,94.10020804405212,93.8122980594635,94.11229610443115,dot,[0.06],"[-0.4309303250570785, -0.37878052449928096]",density,black,,,N011,visual,1,[],"['1', '2', '3', '4']",1,2023.2.3,harveyvisual,2.1,[],8,0.75,
0,pause,0.4,None,None,None,0,263,263,263,,,,,,,,,,,,,N011,visual,1,[],"['1', '2', '3', '4']",1,2023.2.3,harveyvisual,2.1,[],8,0.75,
20,dot,0.3,['dot'],['density'],black,0,264,264,264,,,94.80023288726807,94.51227402687073,94.81229901313782,dot,"[0.08, 0.08, 0.08, 0.1, 0.06, 0.08, 0.08, 0.08, 0.1, 0.06, 0.06, 0.08, 0.06, 0.08, 0.1, 0.06, 0.06, 0.1, 0.1, 0.1]","[[0.2821199014765774, -0.08403175286118186], [0.5674857559599401, 0.15718937942408365], [-0.5869948381843025, -0.09818567965110327], [-0.07135904001626203, 0.2519831002277554], [0.19342988975554476, 0.27251203296176973], [0.30853174936239713, -0.43882347263783217], [-0.269705286280102, 0.4868054899803056], [0.5416756889897677, -0.10527903151475324], [-0.42839289384527146, -0.4115266451026527], [-0.3665998753115417, 0.1998943593578078], [-0.1738422679709511, -0.16125684744400626], [-0.5768409939520115, 0.15432953065383764], [0.15322480146128792, -0.2857200046616913], [-0.10545438026494602, 0.03637056101048963], [0.08977417032225044, 0.06080743522820642], [0.08249489486077655, 0.5826494627418635], [0.4322360293227764, 0.4147382943202135], [-0.3731605249202752, -0.005851510805531368], [-0.07522742077025846, -0.4828188764968575], [0.35251285166669244, 0.11077555848256043]]",density,black,,,N011,visual,1,[],"['1', '2', '3', '4']",1,2023.2.3,harveyvisual,2.1,[],8,0.75,
0,pause,0.4,None,None,None,0,265,265,265,,,,,,,,,,,,,N011,visual,1,[],"['1', '2', '3', '4']",1,2023.2.3,harveyvisual,2.1,[],8,0.75,
20,dot,0.3,['dot'],['density'],white,0,266,266,266,,,95.50021004676819,95.21225690841675,95.51224493980408,dot,"[0.08, 0.1, 0.08, 0.08, 0.06, 0.06, 0.1, 0.08, 0.06, 0.06, 0.08, 0.06, 0.08, 0.08, 0.1, 0.08, 0.1, 0.08, 0.1, 0.06]","[[-0.16488719838285915, 0.520753640053955], [-0.36517009037695836, -0.4387016917998136], [-0.5627954624411335, 0.11420768107047688], [0.2880290802592478, -0.15596194986225487], [0.2843367591682199, -0.4903869734037227], [-0.12005303388294619, -0.4979174552312926], [0.06817154452175056, 0.11444728126084192], [0.3303509788270662, 0.1585165998172785], [0.04745116713497366, -0.2880857452495426], [-0.589516902264554, -0.13307201574870964], [0.18757249396492937, 0.3133085205523104], [-0.0806284286038913, 0.2594276998591757], [0.5543060159682046, 0.18829110142669236], [-0.45900522779741115, 0.3199966727393102], [0.028643585529519178, -0.07955677461539634], [-0.35546394198703557, -0.19326157371238822], [0.4651184897781514, -0.3500881751197335], [-0.17074615074898247, -0.28297415140038307], [0.3171089819286741, 0.46765031197481377], [0.47654608502074025, -0.0832133691731522]]",density,white,,,N011,visual,1,[],"['1', '2', '3', '4']",1,2023.2.3,harveyvisual,2.1,[],8,0.75,
0,pause,0.4,None,None,None,0,267,267,267,,,,,,,,,,,1,95.08721590042114,N011,visual,1,[],"['1', '2', '3', '4']",1,2023.2.3,harveyvisual,2.1,[],8,0.75,
