num,mod,duration,shape,ll_cond,colors,.thisRepN,.thisTrialN,.thisN,.thisIndex,thisRow.t,notes,raw_global_time,t_start,t_stop,shapes,size,pos,cond,color,button,RT,participant,session,starting_run,left button (match/odd),right button (non-match/even),samples_per_block,psychopy version,expName,offset,audio,number_runs,radius,
1,dot,0.3,['dot'],['density'],black,0,0,0,0,,,2.4002230167388916,2.1025490760803223,2.402529001235962,dot,[0.08],"[0.0956549371127339, 0.09579573331985794]",density,black,,,N011,visual,1,[],"['1', '2', '3', '4']",1,2023.2.3,harveyvisual,2.1,[],8,0.75,
0,pause,0.4,None,None,None,0,1,1,1,,,,,,,,,,,,,N011,visual,1,[],"['1', '2', '3', '4']",1,2023.2.3,harveyvisual,2.1,[],8,0.75,
1,dot,0.3,['dot'],['density'],black,0,2,2,2,,,3.1002209186553955,2.8025498390197754,3.1199350357055664,dot,[0.1],"[0.5363314188299194, -0.14809861569100125]",density,black,,,N011,visual,1,[],"['1', '2', '3', '4']",1,2023.2.3,harveyvisual,2.1,[],8,0.75,
0,pause,0.4,None,None,None,0,3,3,3,,,,,,,,,,,,,N011,visual,1,[],"['1', '2', '3', '4']",1,2023.2.3,harveyvisual,2.1,[],8,0.75,
1,dot,0.3,['dot'],['density'],black,0,4,4,4,,,3.8002240657806396,3.503497838973999,3.8196558952331543,dot,[0.1],"[0.4420174282329864, -0.3383815273201445]",density,black,,,N011,visual,1,[],"['1', '2', '3', '4']",1,2023.2.3,harveyvisual,2.1,[],8,0.75,
0,pause,0.4,None,None,None,0,5,5,5,,,,,,,,,,,,,N011,visual,1,[],"['1', '2', '3', '4']",1,2023.2.3,harveyvisual,2.1,[],8,0.75,
1,dot,0.3,['dot'],['density'],black,0,6,6,6,,,4.500221014022827,4.203005075454712,4.5200018882751465,dot,[0.08],"[-0.4519365434524677, 0.22287683068434597]",density,black,,,N011,visual,1,[],"['1', '2', '3', '4']",1,2023.2.3,harveyvisual,2.1,[],8,0.75,
0,pause,0.4,None,None,None,0,7,7,7,,,,,,,,,,,,,N011,visual,1,[],"['1', '2', '3', '4']",1,2023.2.3,harveyvisual,2.1,[],8,0.75,
1,dot,0.3,['dot'],['density'],black,0,8,8,8,,,5.200228929519653,4.902926921844482,5.219584941864014,dot,[0.08],"[-0.40242150741388927, 0.27329756427278695]",density,black,,,N011,visual,1,[],"['1', '2', '3', '4']",1,2023.2.3,harveyvisual,2.1,[],8,0.75,
0,pause,0.4,None,None,None,0,9,9,9,,,,,,,,,,,,,N011,visual,1,[],"['1', '2', '3', '4']",1,2023.2.3,harveyvisual,2.1,[],8,0.75,
1,dot,0.3,['dot'],['density'],black,0,10,10,10,,,5.9002180099487305,5.602915048599243,5.921864032745361,dot,[0.08],"[-0.22364231775977078, 0.4637426405669522]",density,black,,,N011,visual,1,[],"['1', '2', '3', '4']",1,2023.2.3,harveyvisual,2.1,[],8,0.75,
0,pause,0.4,None,None,None,0,11,11,11,,,,,,,,,,,,,N011,visual,1,[],"['1', '2', '3', '4']",1,2023.2.3,harveyvisual,2.1,[],8,0.75,
2,dot,0.3,['dot'],['density'],black,0,12,12,12,,,6.600221872329712,6.305261850357056,6.621908903121948,dot,"[0.1, 0.08]","[[0.075840462383643, -0.21806900392302264], [0.2761252679018853, -0.22101292055433702]]",density,black,,,N011,visual,1,[],"['1', '2', '3', '4']",1,2023.2.3,harveyvisual,2.1,[],8,0.75,
0,pause,0.4,None,None,None,0,13,13,13,,,,,,,,,,,,,N011,visual,1,[],"['1', '2', '3', '4']",1,2023.2.3,harveyvisual,2.1,[],8,0.75,
2,dot,0.3,['dot'],['density'],black,0,14,14,14,,,7.300210952758789,7.005245923995972,7.321828842163086,dot,"[0.1, 0.1]","[[0.4162662019019998, 0.09129510669171749], [0.33420900269466314, 0.27427456354974017]]",density,black,,,N011,visual,1,[],"['1', '2', '3', '4']",1,2023.2.3,harveyvisual,2.1,[],8,0.75,
0,pause,0.4,None,None,None,0,15,15,15,,,,,,,,,,,,,N011,visual,1,[],"['1', '2', '3', '4']",1,2023.2.3,harveyvisual,2.1,[],8,0.75,
2,dot,0.3,['dot'],['density'],black,0,16,16,16,,,8.00022292137146,7.705219030380249,8.02182388305664,dot,"[0.08, 0.1]","[[0.02987007740145294, 0.4330921892138179], [-0.1698845640653836, 0.4119973540264252]]",density,black,,,N011,visual,1,[],"['1', '2', '3', '4']",1,2023.2.3,harveyvisual,2.1,[],8,0.75,
0,pause,0.4,None,None,None,0,17,17,17,,,,,,,,,,,,,N011,visual,1,[],"['1', '2', '3', '4']",1,2023.2.3,harveyvisual,2.1,[],8,0.75,
2,dot,0.3,['dot'],['density'],black,0,18,18,18,,,8.700214862823486,8.405221939086914,8.721783876419067,dot,"[0.1, 0.08]","[[0.510744558366804, -0.07965895932329134], [0.5183014925016622, -0.2796299572401246]]",density,black,,,N011,visual,1,[],"['1', '2', '3', '4']",1,2023.2.3,harveyvisual,2.1,[],8,0.75,
0,pause,0.4,None,None,None,0,19,19,19,,,,,,,,,,,,,N011,visual,1,[],"['1', '2', '3', '4']",1,2023.2.3,harveyvisual,2.1,[],8,0.75,
2,dot,0.3,['dot'],['density'],black,0,20,20,20,,,9.400233030319214,9.105118036270142,9.421773910522461,dot,"[0.1, 0.1]","[[-0.22897676209827808, 0.468650264003531], [-0.0598036877009514, 0.5760211786176329]]",density,black,,,N011,visual,1,[],"['1', '2', '3', '4']",1,2023.2.3,harveyvisual,2.1,[],8,0.75,
0,pause,0.4,None,None,None,0,21,21,21,,,,,,,,,,,,,N011,visual,1,[],"['1', '2', '3', '4']",1,2023.2.3,harveyvisual,2.1,[],8,0.75,
2,dot,0.3,['dot'],['density'],black,0,22,22,22,,,10.100205898284912,9.805100917816162,10.121754884719849,dot,"[0.1, 0.06]","[[-0.4149324818804315, 0.28007444048998836], [-0.5260390884397633, 0.11347960973083408]]",density,black,,,N011,visual,1,[],"['1', '2', '3', '4']",1,2023.2.3,harveyvisual,2.1,[],8,0.75,
0,pause,0.4,None,None,None,0,23,23,23,,,,,,,,,,,,,N011,visual,1,[],"['1', '2', '3', '4']",1,2023.2.3,harveyvisual,2.1,[],8,0.75,
3,dot,0.3,['dot'],['density'],black,0,24,24,24,,,10.80022406578064,10.505100965499878,10.82175087928772,dot,"[0.08, 0.08, 0.1]","[[-0.17720328293608806, -0.4514300161601115], [0.022754438065530718, -0.42143894503716073], [-0.10940085810899225, -0.24791511077847575]]",density,black,,,N011,visual,1,[],"['1', '2', '3', '4']",1,2023.2.3,harveyvisual,2.1,[],8,0.75,
0,pause,0.4,None,None,None,0,25,25,25,,,,,,,,,,,,,N011,visual,1,[],"['1', '2', '3', '4']",1,2023.2.3,harveyvisual,2.1,[],8,0.75,
3,dot,0.3,['dot'],['density'],black,0,26,26,26,,,11.500225067138672,11.20508885383606,11.521715879440308,dot,"[0.06, 0.06, 0.08]","[[-0.3082868261871679, -0.3137599619928766], [-0.14816041357862977, -0.19371393562593295], [-0.35304767783039576, -0.10610354059871957]]",density,black,,,N011,visual,1,[],"['1', '2', '3', '4']",1,2023.2.3,harveyvisual,2.1,[],8,0.75,
0,pause,0.4,None,None,None,0,27,27,27,,,,,,,,,,,,,N011,visual,1,[],"['1', '2', '3', '4']",1,2023.2.3,harveyvisual,2.1,[],8,0.75,
3,dot,0.3,['dot'],['density'],black,0,28,28,28,,,12.20022988319397,11.905035972595215,12.221741914749146,dot,"[0.06, 0.1, 0.1]","[[0.315495050057846, 0.10724904305018564], [0.5180852452909619, 0.013799590611742229], [0.3819545826159732, -0.1334380777916547]]",density,black,,,N011,visual,1,[],"['1', '2', '3', '4']",1,2023.2.3,harveyvisual,2.1,[],8,0.75,
0,pause,0.4,None,None,None,0,29,29,29,,,,,,,,,,,,,N011,visual,1,[],"['1', '2', '3', '4']",1,2023.2.3,harveyvisual,2.1,[],8,0.75,
3,dot,0.3,['dot'],['density'],black,0,30,30,30,,,12.900229930877686,12.605025053024292,12.921669006347656,dot,"[0.06, 0.06, 0.08]","[[-0.27441186418729774, -0.31428620701652393], [-0.10438281902574013, -0.2032379983598837], [-0.31523395761825285, -0.08768035506307631]]",density,black,,,N011,visual,1,[],"['1', '2', '3', '4']",1,2023.2.3,harveyvisual,2.1,[],8,0.75,
0,pause,0.4,None,None,None,0,31,31,31,,,,,,,,,,,,,N011,visual,1,[],"['1', '2', '3', '4']",1,2023.2.3,harveyvisual,2.1,[],8,0.75,
3,dot,0.3,['dot'],['density'],black,0,32,32,32,,,13.600213050842285,13.305003881454468,13.621644020080566,dot,"[0.08, 0.08, 0.08]","[[0.5267872668145167, -0.16137547842759675], [0.3420119191573968, -0.036920749927643534], [0.3185462880061428, -0.2399114968218526]]",density,black,,,N011,visual,1,[],"['1', '2', '3', '4']",1,2023.2.3,harveyvisual,2.1,[],8,0.75,
0,pause,0.4,None,None,None,0,33,33,33,,,,,,,,,,,,,N011,visual,1,[],"['1', '2', '3', '4']",1,2023.2.3,harveyvisual,2.1,[],8,0.75,
3,dot,0.3,['dot'],['density'],black,0,34,34,34,,,14.300221920013428,14.005137920379639,14.32167387008667,dot,"[0.08, 0.08, 0.1]","[[-0.09236249555143743, 0.14437879021360575], [0.06053771141254397, 0.008702735453236923], [-0.17336599953316903, -0.04113967592870183]]",density,black,,,N011,visual,1,[],"['1', '2', '3', '4']",1,2023.2.3,harveyvisual,2.1,[],8,0.75,
0,pause,0.4,None,None,None,0,35,35,35,,,,,,,,,,,,,N011,visual,1,[],"['1', '2', '3', '4']",1,2023.2.3,harveyvisual,2.1,[],8,0.75,
4,dot,0.3,['dot'],['density'],black,0,36,36,36,,,15.000216007232666,14.704972982406616,15.021612882614136,dot,"[0.08, 0.1, 0.1, 0.06]","[[-0.22711054503220823, -0.5144049053218714], [-0.016307770745122817, -0.5558659767831347], [-0.26432457165568224, -0.2824025039497699], [-0.026303944553407815, -0.34464361634901186]]",density,black,,,N011,visual,1,[],"['1', '2', '3', '4']",1,2023.2.3,harveyvisual,2.1,[],8,0.75,
0,pause,0.4,None,None,None,0,37,37,37,,,,,,,,,,,,,N011,visual,1,[],"['1', '2', '3', '4']",1,2023.2.3,harveyvisual,2.1,[],8,0.75,
4,dot,0.3,['dot'],['density'],black,0,38,38,38,,,15.70021390914917,15.405125856399536,15.721622943878174,dot,"[0.08, 0.06, 0.1, 0.1]","[[-0.2516773625496151, -0.30151264897341506], [-0.16747001932966935, -0.11477707456203952], [0.007305472957725734, -0.4586877449884055], [0.017540980065453668, -0.20354321808263612]]",density,black,,,N011,visual,1,[],"['1', '2', '3', '4']",1,2023.2.3,harveyvisual,2.1,[],8,0.75,
0,pause,0.4,None,None,None,0,39,39,39,,,,,,,,,,,,,N011,visual,1,[],"['1', '2', '3', '4']",1,2023.2.3,harveyvisual,2.1,[],8,0.75,
4,dot,0.3,['dot'],['density'],black,0,40,40,40,,,16.400207042694092,16.10508704185486,16.421607971191406,dot,"[0.06, 0.06, 0.1, 0.1]","[[-0.5372831058023291, 0.07679305146548565], [-0.47746952625478134, -0.11455356156484316], [-0.2888199447118168, 0.02804534169422597], [-0.3317661241759115, -0.2533775510137967]]",density,black,,,N011,visual,1,[],"['1', '2', '3', '4']",1,2023.2.3,harveyvisual,2.1,[],8,0.75,
0,pause,0.4,None,None,None,0,41,41,41,,,,,,,,,,,,,N011,visual,1,[],"['1', '2', '3', '4']",1,2023.2.3,harveyvisual,2.1,[],8,0.75,
4,dot,0.3,['dot'],['density'],black,0,42,42,42,,,17.100224018096924,16.8050799369812,17.121744871139526,dot,"[0.1, 0.08, 0.1, 0.1]","[[-0.22375678750486633, 0.16938766720995918], [-0.03438308412182927, 0.2632029670309489], [0.15312837370161694, 0.1265605786946886], [-0.035433382102469414, 0.014828983441921377]]",density,black,,,N011,visual,1,[],"['1', '2', '3', '4']",1,2023.2.3,harveyvisual,2.1,[],8,0.75,
0,pause,0.4,None,None,None,0,43,43,43,,,,,,,,,,,,,N011,visual,1,[],"['1', '2', '3', '4']",1,2023.2.3,harveyvisual,2.1,[],8,0.75,
4,dot,0.3,['dot'],['density'],black,0,44,44,44,,,17.80022096633911,17.505059957504272,17.82158398628235,dot,"[0.08, 0.08, 0.06, 0.06]","[[-0.22375678750486633, 0.16938766720995918], [-0.03438308412182927, 0.2632029670309489], [0.15312837370161694, 0.1265605786946886], [-0.035433382102469414, 0.014828983441921377]]",density,black,,,N011,visual,1,[],"['1', '2', '3', '4']",1,2023.2.3,harveyvisual,2.1,[],8,0.75,
0,pause,0.4,None,None,None,0,45,45,45,,,,,,,,,,,,,N011,visual,1,[],"['1', '2', '3', '4']",1,2023.2.3,harveyvisual,2.1,[],8,0.75,
4,dot,0.3,['dot'],['density'],white,0,46,46,46,,,18.500216960906982,18.205299854278564,18.521538972854614,dot,"[0.06, 0.08, 0.1, 0.08]","[[0.13421512820946938, -0.5336194340609706], [0.2622623892029083, -0.3575253733063478], [0.024533045116508903, -0.3376850530006363], [0.166924465117498, -0.0963569090623874]]",density,white,,,N011,visual,1,[],"['1', '2', '3', '4']",1,2023.2.3,harveyvisual,2.1,[],8,0.75,
0,pause,0.4,None,None,None,0,47,47,47,,,,,,,,,,,1,18.64870810508728,N011,visual,1,[],"['1', '2', '3', '4']",1,2023.2.3,harveyvisual,2.1,[],8,0.75,
5,dot,0.3,['dot'],['density'],black,0,48,48,48,,,19.200221061706543,18.906590938568115,19.221515893936157,dot,"[0.06, 0.1, 0.06, 0.06, 0.06]","[[-0.4702494158317004, 0.19352793081356498], [-0.36864189631283095, -0.2113573127283173], [-0.3573601989406874, -0.007363185939446715], [-0.15559938224235453, -0.02548680069503583], [-0.25069196230576396, 0.1747846118010945]]",density,black,,,N011,visual,1,[],"['1', '2', '3', '4']",1,2023.2.3,harveyvisual,2.1,[],8,0.75,
0,pause,0.4,None,None,None,0,49,49,49,,,,,,,,,,,,,N011,visual,1,[],"['1', '2', '3', '4']",1,2023.2.3,harveyvisual,2.1,[],8,0.75,
5,dot,0.3,['dot'],['density'],black,0,50,50,50,,,19.900205850601196,19.62151598930359,19.92148494720459,dot,"[0.1, 0.08, 0.08, 0.06, 0.08]","[[-0.053215572458232586, 0.27221330895143253], [0.10089702531331296, 0.1334794413224796], [0.12897289155288158, 0.4002796015157326], [0.3022660506716914, 0.02685289149411272], [0.2804295634962893, 0.24950018434757285]]",density,black,,,N011,visual,1,[],"['1', '2', '3', '4']",1,2023.2.3,harveyvisual,2.1,[],8,0.75,
0,pause,0.4,None,None,None,0,51,51,51,,,,,,,,,,,,,N011,visual,1,[],"['1', '2', '3', '4']",1,2023.2.3,harveyvisual,2.1,[],8,0.75,
5,dot,0.3,['dot'],['density'],black,0,52,52,52,,,20.600209951400757,20.321480989456177,20.621454000473022,dot,"[0.08, 0.06, 0.08, 0.08, 0.06]","[[0.07471778162596296, -0.10525453490666745], [0.30258431325283514, -0.18125951612401361], [-0.10797831538154114, 0.025200229490558432], [0.07898181201564736, 0.11749757771993925], [0.31731369449760916, 0.032388289652815004]]",density,black,,,N011,visual,1,[],"['1', '2', '3', '4']",1,2023.2.3,harveyvisual,2.1,[],8,0.75,
0,pause,0.4,None,None,None,0,53,53,53,,,,,,,,,,,,,N011,visual,1,[],"['1', '2', '3', '4']",1,2023.2.3,harveyvisual,2.1,[],8,0.75,
5,dot,0.3,['dot'],['density'],black,0,54,54,54,,,21.30022406578064,21.021456003189087,21.321444034576416,dot,"[0.08, 0.06, 0.08, 0.08, 0.1]","[[-0.2338402938730933, 0.15846616122991625], [-0.3229678957369872, -0.0901175890533356], [-0.5034912146055804, 0.021834460539281654], [-0.23914892391179104, -0.28496604153387733], [-0.10132718886958789, -0.1172648190903725]]",density,black,,,N011,visual,1,[],"['1', '2', '3', '4']",1,2023.2.3,harveyvisual,2.1,[],8,0.75,
0,pause,0.4,None,None,None,0,55,55,55,,,,,,,,,,,,,N011,visual,1,[],"['1', '2', '3', '4']",1,2023.2.3,harveyvisual,2.1,[],8,0.75,
5,dot,0.3,['dot'],['density'],black,0,56,56,56,,,22.000213861465454,21.721422910690308,22.021414041519165,dot,"[0.08, 0.1, 0.08, 0.1, 0.06]","[[0.33660852042816714, -0.448935078303268], [0.16237328695183198, -0.028906365321866932], [0.003149504206933677, -0.1844463225559013], [0.4065340125681681, -0.22407981263326276], [0.20027486954239768, -0.2346061295568129]]",density,black,,,N011,visual,1,[],"['1', '2', '3', '4']",1,2023.2.3,harveyvisual,2.1,[],8,0.75,
0,pause,0.4,None,None,None,0,57,57,57,,,,,,,,,,,,,N011,visual,1,[],"['1', '2', '3', '4']",1,2023.2.3,harveyvisual,2.1,[],8,0.75,
5,dot,0.3,['dot'],['density'],black,0,58,58,58,,,22.700228929519653,22.421417951583862,22.721415042877197,dot,"[0.1, 0.1, 0.06, 0.08, 0.08]","[[-0.006164932418690097, -0.4528126201229341], [-0.1681524682570009, -0.11721653268637569], [-0.1959903964051736, -0.3710708837277218], [0.03544926667602863, -0.1302589477940128], [0.16830580561999814, -0.32298356607012285]]",density,black,,,N011,visual,1,[],"['1', '2', '3', '4']",1,2023.2.3,harveyvisual,2.1,[],8,0.75,
0,pause,0.4,None,None,None,0,59,59,59,,,,,,,,,,,,,N011,visual,1,[],"['1', '2', '3', '4']",1,2023.2.3,harveyvisual,2.1,[],8,0.75,
6,dot,0.3,['dot'],['density'],black,0,60,60,60,,,23.40022587776184,23.12141489982605,23.421387910842896,dot,"[0.08, 0.1, 0.06, 0.1, 0.1, 0.08]","[[0.1344939073868, 0.11682503965153783], [0.2622842826516073, -0.1576809643807538], [0.491422654665352, 0.2653315688189552], [0.5669231994484553, 0.0667155191364867], [0.2299276458131091, 0.29835232047215776], [0.3356420801536577, 0.10517090915368521]]",density,black,,,N011,visual,1,[],"['1', '2', '3', '4']",1,2023.2.3,harveyvisual,2.1,[],8,0.75,
0,pause,0.4,None,None,None,0,61,61,61,,,,,,,,,,,,,N011,visual,1,[],"['1', '2', '3', '4']",1,2023.2.3,harveyvisual,2.1,[],8,0.75,
6,dot,0.3,['dot'],['density'],black,0,62,62,62,,,24.100223064422607,23.821382999420166,24.121356964111328,dot,"[0.08, 0.06, 0.1, 0.1, 0.06, 0.08]","[[-0.31609589870198396, -0.31007670116123803], [-0.4478311917512715, 0.10082722748193511], [-0.2864981571692688, -0.05140390439239721], [-0.09675803094031296, -0.12021517342888931], [-0.4941273593136662, -0.13098935533792763], [-0.1300426850498692, 0.1160403058404222]]",density,black,,,N011,visual,1,[],"['1', '2', '3', '4']",1,2023.2.3,harveyvisual,2.1,[],8,0.75,
0,pause,0.4,None,None,None,0,63,63,63,,,,,,,,,,,,,N011,visual,1,[],"['1', '2', '3', '4']",1,2023.2.3,harveyvisual,2.1,[],8,0.75,
6,dot,0.3,['dot'],['density'],black,0,64,64,64,,,24.800233840942383,24.52136993408203,24.821353912353516,dot,"[0.1, 0.06, 0.06, 0.06, 0.06, 0.1]","[[0.1643264729387965, -0.2471077239796436], [-0.22534804549937193, -0.4918728234310363], [-0.026166131246113146, -0.09278119687647148], [-0.24451989516519138, -0.21339523607155425], [0.11868454116144263, -0.4574197693624388], [-0.058907778787058426, -0.30919141315076737]]",density,black,,,N011,visual,1,[],"['1', '2', '3', '4']",1,2023.2.3,harveyvisual,2.1,[],8,0.75,
0,pause,0.4,None,None,None,0,65,65,65,,,,,,,,,,,,,N011,visual,1,[],"['1', '2', '3', '4']",1,2023.2.3,harveyvisual,2.1,[],8,0.75,
6,dot,0.3,['dot'],['density'],black,0,66,66,66,,,25.500218868255615,25.221349000930786,25.52133798599243,dot,"[0.08, 0.06, 0.06, 0.1, 0.1, 0.08]","[[-0.11553075830627273, 0.47698778124428043], [-0.1112787518129194, 0.10456141670764223], [-0.48855705683845824, 0.21494657582805063], [-0.2538299919008863, 0.2532006538804931], [-0.3271837865365474, 0.4662148945367939], [0.006792750312598743, 0.27345996435494924]]",density,black,,,N011,visual,1,[],"['1', '2', '3', '4']",1,2023.2.3,harveyvisual,2.1,[],8,0.75,
0,pause,0.4,None,None,None,0,67,67,67,,,,,,,,,,,,,N011,visual,1,[],"['1', '2', '3', '4']",1,2023.2.3,harveyvisual,2.1,[],8,0.75,
6,dot,0.3,['dot'],['density'],black,0,68,68,68,,,26.200228929519653,25.921329021453857,26.22130799293518,dot,"[0.06, 0.08, 0.08, 0.1, 0.08, 0.08]","[[0.2333794889108542, 0.5108688068097712], [0.17720399199515413, 0.06488002481085814], [0.3526024925964592, 0.16961020277143707], [0.1596713132306006, 0.321837067503818], [0.0007438407140586783, 0.18344495120876914], [0.42757463853404776, 0.37786691715169374]]",density,black,,,N011,visual,1,[],"['1', '2', '3', '4']",1,2023.2.3,harveyvisual,2.1,[],8,0.75,
0,pause,0.4,None,None,None,0,69,69,69,,,,,,,,,,,,,N011,visual,1,[],"['1', '2', '3', '4']",1,2023.2.3,harveyvisual,2.1,[],8,0.75,
6,dot,0.3,['dot'],['density'],black,0,70,70,70,,,26.900222063064575,26.621341943740845,26.92131996154785,dot,"[0.08, 0.08, 0.06, 0.06, 0.06, 0.08]","[[0.0015484977009578463, -0.37153509484940705], [-0.24631791352898516, -0.16063896847060222], [-0.21037316856202723, -0.37491302730087106], [-0.14520134419833938, 0.05228402714841561], [-0.41979900021501537, -0.27073368115662844], [-0.020720382871846178, -0.14076137757070492]]",density,black,,,N011,visual,1,[],"['1', '2', '3', '4']",1,2023.2.3,harveyvisual,2.1,[],8,0.75,
0,pause,0.4,None,None,None,0,71,71,71,,,,,,,,,,,,,N011,visual,1,[],"['1', '2', '3', '4']",1,2023.2.3,harveyvisual,2.1,[],8,0.75,
7,dot,0.3,['dot'],['density'],black,0,72,72,72,,,27.60023283958435,27.321315050125122,27.621294021606445,dot,"[0.06, 0.1, 0.06, 0.1, 0.1, 0.08, 0.06]","[[0.23608374802607182, -0.42864299173344095], [-0.09209027036414452, -0.12416238309953632], [0.2788105912293623, 0.0033410667889120396], [0.04539289310230788, 0.08875296613859053], [0.036272769320452085, -0.32980830156280494], [-0.23317126701056543, -0.2895908304292693], [0.15392952834370008, -0.16140965755482034]]",density,black,,,N011,visual,1,[],"['1', '2', '3', '4']",1,2023.2.3,harveyvisual,2.1,[],8,0.75,
0,pause,0.4,None,None,None,0,73,73,73,,,,,,,,,,,,,N011,visual,1,[],"['1', '2', '3', '4']",1,2023.2.3,harveyvisual,2.1,[],8,0.75,
7,dot,0.3,['dot'],['density'],black,0,74,74,74,,,28.300209999084473,28.021297931671143,28.32128405570984,dot,"[0.08, 0.08, 0.06, 0.08, 0.08, 0.06, 0.08]","[[-0.3423230189937584, -0.41219609722212536], [-0.1182323968952694, -0.35552357509158045], [-0.4111032443031386, -0.006313161275750597], [-0.5095560862941229, -0.2529410328503813], [-0.2588176969072235, -0.18091026219072012], [-0.0026253510642934245, -0.12197054074907589], [-0.16586784627322051, 0.0941069694468023]]",density,black,,,N011,visual,1,[],"['1', '2', '3', '4']",1,2023.2.3,harveyvisual,2.1,[],8,0.75,
0,pause,0.4,None,None,None,0,75,75,75,,,,,,,,,,,,,N011,visual,1,[],"['1', '2', '3', '4']",1,2023.2.3,harveyvisual,2.1,[],8,0.75,
7,dot,0.3,['dot'],['density'],black,0,76,76,76,,,29.000216007232666,28.72125005722046,29.02123498916626,dot,"[0.06, 0.1, 0.1, 0.06, 0.1, 0.08, 0.08]","[[-0.137089699111686, -0.0603537150230737], [-0.5113647139476066, -0.13847335204066147], [-0.15813839015967857, -0.36469710156031643], [-0.2936616210719107, -0.2141411575526577], [-0.32787652212665946, 0.04250548396893007], [0.004093135922799089, -0.22788394746255153], [-0.17456170860443615, 0.20133573380951708]]",density,black,,,N011,visual,1,[],"['1', '2', '3', '4']",1,2023.2.3,harveyvisual,2.1,[],8,0.75,
0,pause,0.4,None,None,None,0,77,77,77,,,,,,,,,,,,,N011,visual,1,[],"['1', '2', '3', '4']",1,2023.2.3,harveyvisual,2.1,[],8,0.75,
7,dot,0.3,['dot'],['density'],white,0,78,78,78,,,29.700209856033325,29.421228885650635,29.721204042434692,dot,"[0.08, 0.08, 0.1, 0.06, 0.1, 0.08, 0.1]","[[-0.4123410031792677, -0.32555807737620884], [-0.11281232420725038, -0.2658066965482441], [-0.16970574590124413, 0.10972852905085191], [-0.380148642061964, 0.19816541478521793], [-0.49975943015608576, -0.10400723965324657], [-0.30003386022098844, -0.09340949099572564], [-0.0679185705411078, -0.06780919729272472]]",density,white,,,N011,visual,1,[],"['1', '2', '3', '4']",1,2023.2.3,harveyvisual,2.1,[],8,0.75,
0,pause,0.4,None,None,None,0,79,79,79,,,,,,,,,,,1,29.836282968521118,N011,visual,1,[],"['1', '2', '3', '4']",1,2023.2.3,harveyvisual,2.1,[],8,0.75,
7,dot,0.3,['dot'],['density'],black,0,80,80,80,,,30.400227069854736,30.12126088142395,30.42126488685608,dot,"[0.08, 0.08, 0.06, 0.06, 0.08, 0.06, 0.08]","[[0.43636558899465056, -0.019888822856555858], [0.3422654810486562, -0.28596623187093184], [0.19265053263460555, -0.4439876245838232], [0.13726272111749335, -0.2453614523272762], [0.002381890354708078, -0.04768315945896726], [0.5336827108411983, -0.21507725682246784], [0.22437755209563529, -0.002563521851875305]]",density,black,,,N011,visual,1,[],"['1', '2', '3', '4']",1,2023.2.3,harveyvisual,2.1,[],8,0.75,
0,pause,0.4,None,None,None,0,81,81,81,,,,,,,,,,,,,N011,visual,1,[],"['1', '2', '3', '4']",1,2023.2.3,harveyvisual,2.1,[],8,0.75,
7,dot,0.3,['dot'],['density'],black,0,82,82,82,,,31.10021686553955,30.821215867996216,31.12123990058899,dot,"[0.06, 0.1, 0.1, 0.06, 0.06, 0.1, 0.06]","[[-0.0015444251822213466, 0.17452400993182896], [-0.3864233363803332, 0.3856338194384884], [-0.45841970572989144, 0.11901701190004808], [-0.23552014845846486, 0.11986313412455778], [-0.06694767956243396, -0.029831379541550785], [-0.3576154478026905, -0.11072010138878656], [-0.17113735677840214, 0.37123035181888253]]",density,black,,,N011,visual,1,[],"['1', '2', '3', '4']",1,2023.2.3,harveyvisual,2.1,[],8,0.75,
0,pause,0.4,None,None,None,0,83,83,83,,,,,,,,,,,,,N011,visual,1,[],"['1', '2', '3', '4']",1,2023.2.3,harveyvisual,2.1,[],8,0.75,
8,dot,0.3,['dot'],['density'],black,0,84,84,84,,,31.800209045410156,31.521204948425293,31.82131290435791,dot,"[0.08, 0.06, 0.06, 0.1, 0.08, 0.06, 0.06, 0.06]","[[0.4359105889063985, -0.17362457700912998], [-0.10421753759268779, -0.0599030042764737], [0.3870326705858601, 0.24174009796940588], [0.2566713073165989, 0.014561377540278508], [0.2306797840234149, -0.3263374489921181], [0.47690301692068965, 0.04601699051563034], [0.08674944532705724, -0.15383855565976665], [0.03609124925759635, 0.09790267139194009]]",density,black,,,N011,visual,1,[],"['1', '2', '3', '4']",1,2023.2.3,harveyvisual,2.1,[],8,0.75,
0,pause,0.4,None,None,None,0,85,85,85,,,,,,,,,,,,,N011,visual,1,[],"['1', '2', '3', '4']",1,2023.2.3,harveyvisual,2.1,[],8,0.75,
8,dot,0.3,['dot'],['density'],black,0,86,86,86,,,32.500223875045776,32.22154903411865,32.521299839019775,dot,"[0.08, 0.1, 0.1, 0.1, 0.1, 0.06, 0.08, 0.06]","[[0.016639406518403475, -0.10031965053970064], [-0.49734137941811546, 0.023312718056099104], [0.03171158295547566, 0.2028207856397581], [-0.3777108616291506, 0.18827317115199685], [-0.2734124440264558, -0.20525012861841768], [-0.1742574757978524, 0.04093824739900491], [-0.17815403785603903, 0.26205888083036905], [-0.2502819750276768, 0.4804358206127844]]",density,black,,,N011,visual,1,[],"['1', '2', '3', '4']",1,2023.2.3,harveyvisual,2.1,[],8,0.75,
0,pause,0.4,None,None,None,0,87,87,87,,,,,,,,,,,,,N011,visual,1,[],"['1', '2', '3', '4']",1,2023.2.3,harveyvisual,2.1,[],8,0.75,
8,dot,0.3,['dot'],['density'],black,0,88,88,88,,,33.200222969055176,32.92111086845398,33.22113585472107,dot,"[0.1, 0.1, 0.06, 0.1, 0.06, 0.08, 0.1, 0.1]","[[0.34834348934164344, -0.28812382596974456], [-0.10329597477015798, -0.5243874580500916], [0.11080732975293575, -0.39067626210733153], [-0.006800183936578442, -0.10390350920236302], [0.17453264242573352, -0.004648084789036161], [-0.11839138898177409, -0.2765800857961495], [-0.2122949223397977, -0.08354151726817095], [0.0010823045536620208, 0.09995244087301837]]",density,black,,,N011,visual,1,[],"['1', '2', '3', '4']",1,2023.2.3,harveyvisual,2.1,[],8,0.75,
0,pause,0.4,None,None,None,0,89,89,89,,,,,,,,,,,,,N011,visual,1,[],"['1', '2', '3', '4']",1,2023.2.3,harveyvisual,2.1,[],8,0.75,
8,dot,0.3,['dot'],['density'],black,0,90,90,90,,,33.900217056274414,33.62109088897705,33.92108106613159,dot,"[0.1, 0.06, 0.1, 0.1, 0.06, 0.1, 0.1, 0.1]","[[0.12411109391386341, -0.5343823995123961], [-0.21238427398525783, -0.3197389486612228], [-0.06551876445787266, 0.032183079599910736], [0.22034046694826517, 0.05676208929132721], [0.31747551588691986, -0.13046885784073625], [0.01834943727978222, -0.34316474661021057], [0.10776215616131694, -0.12386070969881222], [-0.2386971922539417, -0.09256206635527232]]",density,black,,,N011,visual,1,[],"['1', '2', '3', '4']",1,2023.2.3,harveyvisual,2.1,[],8,0.75,
0,pause,0.4,None,None,None,0,91,91,91,,,,,,,,,,,,,N011,visual,1,[],"['1', '2', '3', '4']",1,2023.2.3,harveyvisual,2.1,[],8,0.75,
8,dot,0.3,['dot'],['density'],black,0,92,92,92,,,34.60021090507507,34.321064949035645,34.62107300758362,dot,"[0.06, 0.08, 0.06, 0.06, 0.1, 0.08, 0.08, 0.1]","[[0.3364035831170529, 0.12390393923093283], [0.4336864367158133, 0.35981147627037974], [0.06743640335689947, 0.0759148581953004], [-0.079559988999742, 0.39531058321326396], [0.21309668101319243, 0.48855257098982907], [0.23478258025928536, -0.08446837776908474], [-0.12854716397353463, 0.17339976512773136], [0.14965136140762586, 0.26897313353206964]]",density,black,,,N011,visual,1,[],"['1', '2', '3', '4']",1,2023.2.3,harveyvisual,2.1,[],8,0.75,
0,pause,0.4,None,None,None,0,93,93,93,,,,,,,,,,,,,N011,visual,1,[],"['1', '2', '3', '4']",1,2023.2.3,harveyvisual,2.1,[],8,0.75,
8,dot,0.3,['dot'],['density'],white,0,94,94,94,,,35.300230979919434,35.021090030670166,35.32106685638428,dot,"[0.08, 0.08, 0.08, 0.1, 0.06, 0.1, 0.1, 0.06]","[[0.2695774744445919, -0.006239189610034271], [0.562582848369008, 0.10338967896652898], [0.24075709842543627, 0.2415297589697605], [0.16944247952526825, 0.43473569867318385], [0.009973801462114143, 0.2622623098226203], [0.4378981685404615, 0.30984992123658367], [0.345623627049791, -0.19390063473497438], [0.01218861403819752, 6.35764658527089e-05]]",density,white,,,N011,visual,1,[],"['1', '2', '3', '4']",1,2023.2.3,harveyvisual,2.1,[],8,0.75,
0,pause,0.4,None,None,None,0,95,95,95,,,,,,,,,,,1,35.431740045547485,N011,visual,1,[],"['1', '2', '3', '4']",1,2023.2.3,harveyvisual,2.1,[],8,0.75,
9,dot,0.3,['dot'],['density'],black,0,96,96,96,,,36.00021195411682,35.721065044403076,36.02104902267456,dot,"[0.1, 0.06, 0.1, 0.08, 0.06, 0.06, 0.06, 0.06, 0.08]","[[-0.13146557112902973, 0.14116723461389186], [0.2951467361821443, -0.02824752732805288], [0.19428532799116477, -0.23589609671221848], [-0.28731157875063357, -0.1506919145754202], [-0.013954936164563217, -0.2914313940092583], [0.05437169614590384, 0.05057158482376688], [-0.11710547218270359, -0.5628603002908775], [-0.3181416531292253, -0.36750682532956547], [-0.10064922490671671, -0.07835054634105423]]",density,black,,,N011,visual,1,[],"['1', '2', '3', '4']",1,2023.2.3,harveyvisual,2.1,[],8,0.75,
0,pause,0.4,None,None,None,0,97,97,97,,,,,,,,,,,,,N011,visual,1,[],"['1', '2', '3', '4']",1,2023.2.3,harveyvisual,2.1,[],8,0.75,
9,dot,0.3,['dot'],['density'],white,0,98,98,98,,,36.70022988319397,36.42102789878845,36.72109889984131,dot,"[0.08, 0.06, 0.1, 0.08, 0.08, 0.1, 0.08, 0.06, 0.06]","[[-0.05049485011715354, 0.3013521193238899], [0.15354596755057998, 0.36785015051376163], [0.22995749783639982, 0.07309138415424772], [0.13460311710395165, -0.18603378415368982], [0.33097739113381164, -0.13822260855557728], [-0.16464148731134703, 0.07190493829483618], [0.521154897315396, -0.007803673430992942], [0.02684304494395013, 0.0018704401699241912], [-0.15545279255173522, -0.15329938800760382]]",density,white,,,N011,visual,1,[],"['1', '2', '3', '4']",1,2023.2.3,harveyvisual,2.1,[],8,0.75,
0,pause,0.4,None,None,None,0,99,99,99,,,,,,,,,,,1,36.93197202682495,N011,visual,1,[],"['1', '2', '3', '4']",1,2023.2.3,harveyvisual,2.1,[],8,0.75,
9,dot,0.3,['dot'],['density'],black,0,100,100,100,,,37.40022897720337,37.12107992172241,37.4210729598999,dot,"[0.06, 0.08, 0.1, 0.08, 0.1, 0.06, 0.1, 0.08, 0.1]","[[0.5571797577834091, 0.07732674165650813], [0.16332656704353227, -0.09331314560094064], [0.4138178119161903, 0.3925230053806507], [0.28711316854655766, 0.07147022394212545], [0.052100496024031176, 0.3810199549023822], [0.2172039135420496, 0.26337040755706287], [-0.2646845915772586, 0.12849707234668142], [0.21844181080216274, 0.4926952285236599], [0.0761275456309072, 0.11718001140956479]]",density,black,,,N011,visual,1,[],"['1', '2', '3', '4']",1,2023.2.3,harveyvisual,2.1,[],8,0.75,
0,pause,0.4,None,None,None,0,101,101,101,,,,,,,,,,,,,N011,visual,1,[],"['1', '2', '3', '4']",1,2023.2.3,harveyvisual,2.1,[],8,0.75,
9,dot,0.3,['dot'],['density'],black,0,102,102,102,,,38.100231885910034,37.82108497619629,38.12098503112793,dot,"[0.1, 0.06, 0.08, 0.08, 0.06, 0.08, 0.08, 0.1, 0.08]","[[-0.5242180236495622, 0.2097960018926228], [-0.2671382220306689, 0.3003190330968159], [-0.06183693718886379, 0.22592490829479475], [-0.2001015593906042, -0.14641750634996328], [-0.09246193223873551, 0.43765994221656135], [-0.29330373087767303, 0.05285487614136386], [0.007094383220706952, 0.008748553761596398], [0.1465325421295601, 0.294910430799518], [0.04425292235957525, -0.2230758375085622]]",density,black,,,N011,visual,1,[],"['1', '2', '3', '4']",1,2023.2.3,harveyvisual,2.1,[],8,0.75,
0,pause,0.4,None,None,None,0,103,103,103,,,,,,,,,,,,,N011,visual,1,[],"['1', '2', '3', '4']",1,2023.2.3,harveyvisual,2.1,[],8,0.75,
9,dot,0.3,['dot'],['density'],black,0,104,104,104,,,38.80021286010742,38.520962953567505,38.82095384597778,dot,"[0.08, 0.1, 0.1, 0.1, 0.06, 0.1, 0.06, 0.06, 0.06]","[[-0.03971785412685378, -0.013307253576883936], [-0.1795931736998084, 0.3973594317450326], [-0.3834375522639881, 0.20263766925149762], [-0.17272229141218848, -0.19949677387464254], [-0.5360333538572699, -0.009032368777402771], [-0.28286279854376034, -0.008232758075431683], [0.17411699897949384, -0.08382665075843401], [-0.16068367208365952, 0.1786486522774764], [0.029814794500374706, 0.34001547930781484]]",density,black,,,N011,visual,1,[],"['1', '2', '3', '4']",1,2023.2.3,harveyvisual,2.1,[],8,0.75,
0,pause,0.4,None,None,None,0,105,105,105,,,,,,,,,,,,,N011,visual,1,[],"['1', '2', '3', '4']",1,2023.2.3,harveyvisual,2.1,[],8,0.75,
9,dot,0.3,['dot'],['density'],black,0,106,106,106,,,39.50021696090698,39.220937967300415,39.52096700668335,dot,"[0.08, 0.06, 0.08, 0.06, 0.08, 0.08, 0.1, 0.1, 0.1]","[[0.23250081832313607, -0.03448075506690146], [0.3034476098774822, 0.1830296703973891], [-0.18904104685434053, 0.18833284185042862], [0.2553794676357457, 0.5314352583170906], [0.16363099535363254, 0.3461022642192175], [-0.0841935017478271, 0.3664174397160571], [-0.26748786402911323, -0.05736109653727262], [0.043842773669028334, 0.577246673499167], [0.02102957219118283, 0.0979254794926055]]",density,black,,,N011,visual,1,[],"['1', '2', '3', '4']",1,2023.2.3,harveyvisual,2.1,[],8,0.75,
0,pause,0.4,None,None,None,0,107,107,107,,,,,,,,,,,,,N011,visual,1,[],"['1', '2', '3', '4']",1,2023.2.3,harveyvisual,2.1,[],8,0.75,
20,dot,0.3,['dot'],['density'],black,0,108,108,108,,,40.20021390914917,39.920937061309814,40.22091293334961,dot,"[0.1, 0.1, 0.1, 0.06, 0.06, 0.08, 0.06, 0.08, 0.06, 0.08, 0.06, 0.1, 0.06, 0.1, 0.06, 0.08, 0.06, 0.1, 0.1, 0.08]","[[-0.3725499938963404, -0.2014544682645798], [-0.4163866425642303, 0.30722330649351975], [0.3398691902701835, -0.42291383687057055], [0.49584937931925566, -0.16670846171798198], [0.43155610658863075, 0.19538269027400268], [0.1352412773848144, 0.40015725353485443], [0.1667362700792574, -0.5310735215360487], [-0.21277256999860378, 0.5054484281098797], [-0.530559778222364, -0.09129693216201631], [-0.08948241675133539, -0.3292494360510855], [0.126370609435959, 0.06240444866083261], [-0.04813801830048814, -0.5618957582296803], [-0.22608279544345566, 0.16351913096391213], [-0.0759252150798031, 0.36701506059496625], [0.32483358159956366, 0.4186883954527131], [-0.1563428965442104, -0.09671831836648853], [0.15654620749478354, -0.2299785077648701], [-0.33188144909479134, -0.4809742945897848], [-0.3910418717795052, 0.038314043689081034], [0.5966938613381306, 0.07216346934119879]]",density,black,,,N011,visual,1,[],"['1', '2', '3', '4']",1,2023.2.3,harveyvisual,2.1,[],8,0.75,
0,pause,0.4,None,None,None,0,109,109,109,,,,,,,,,,,,,N011,visual,1,[],"['1', '2', '3', '4']",1,2023.2.3,harveyvisual,2.1,[],8,0.75,
20,dot,0.3,['dot'],['density'],black,0,110,110,110,,,40.9002149105072,40.620985984802246,40.92089796066284,dot,"[0.08, 0.1, 0.08, 0.08, 0.06, 0.1, 0.06, 0.1, 0.08, 0.1, 0.08, 0.06, 0.1, 0.1, 0.06, 0.06, 0.06, 0.1, 0.08, 0.08]","[[0.042190851543404184, 0.5068513425068742], [0.00578268814132421, 0.27668697942884646], [-0.12279243027647813, 0.12171664075738775], [-0.27474858526259266, -0.2706908330789779], [0.2895727589592684, 0.09412568736877114], [-0.2205082448486917, 0.5083341990952824], [-0.08217948028036104, -0.5669132369359321], [0.5064670899532099, -0.18176181710317704], [-0.5456138593239337, 0.09330072552002139], [0.30095934761784393, -0.3953390063063874], [0.06647322545288914, -0.06735681975614483], [-0.35750702786109867, 0.19910324877824326], [0.46307721914498867, 0.24816224710065227], [-0.477147755391158, -0.20201284763854443], [0.5525207881881423, 0.01291163820867322], [-0.5042964240125924, 0.3208472465993258], [0.17218662819221664, -0.5661488726677504], [0.08094900378794401, -0.26731349207556715], [0.3109964715565595, -0.10701733338227787], [0.2888436905688414, 0.504449825520896]]",density,black,,,N011,visual,1,[],"['1', '2', '3', '4']",1,2023.2.3,harveyvisual,2.1,[],8,0.75,
0,pause,0.4,None,None,None,0,111,111,111,,,,,,,,,,,,,N011,visual,1,[],"['1', '2', '3', '4']",1,2023.2.3,harveyvisual,2.1,[],8,0.75,
20,dot,0.3,['dot'],['density'],black,0,112,112,112,,,41.60023093223572,41.32088804244995,41.62090802192688,dot,"[0.06, 0.08, 0.06, 0.1, 0.1, 0.06, 0.1, 0.06, 0.08, 0.06, 0.1, 0.06, 0.08, 0.1, 0.08, 0.06, 0.1, 0.08, 0.06, 0.1]","[[-0.07917171630896547, -0.11096127766405134], [-0.49675804401072976, 0.09184146965297213], [0.2000989021103028, -0.5317765786939463], [0.5914664988342889, 0.10005041803793427], [0.058874615777213646, 0.3742330356288427], [0.574506106895884, -0.16289169825539698], [-0.42952049001261017, 0.3991336337943262], [-0.474326707577737, -0.36707521947209487], [-0.2388195484947072, -0.5234802757337609], [0.2900935491550263, 0.38105835844699665], [-0.14417041149306264, -0.3112423874733759], [0.14322862589726737, -0.028338093663162867], [-0.017221615506342602, 0.5480950306362724], [-0.34947385835866984, -0.05598490863900435], [0.301879032573384, -0.25869854894996697], [-0.22907157237009362, 0.4833894981201047], [0.409502595072485, 0.16552510255783914], [0.343659460381847, -0.015450023172322913], [-0.09658542509761747, 0.1908091133406734], [-0.5564568647130408, -0.09600800228614542]]",density,black,,,N011,visual,1,[],"['1', '2', '3', '4']",1,2023.2.3,harveyvisual,2.1,[],8,0.75,
0,pause,0.4,None,None,None,0,113,113,113,,,,,,,,,,,,,N011,visual,1,[],"['1', '2', '3', '4']",1,2023.2.3,harveyvisual,2.1,[],8,0.75,
20,dot,0.3,['dot'],['density'],black,0,114,114,114,,,42.30023503303528,42.02089190483093,42.320870876312256,dot,"[0.1, 0.08, 0.06, 0.08, 0.08, 0.08, 0.06, 0.06, 0.08, 0.06, 0.06, 0.1, 0.06, 0.1, 0.08, 0.08, 0.1, 0.08, 0.06, 0.08]","[[-0.05765382982341005, -0.45306644675198526], [-0.2195543400419071, 0.09521978846857837], [-0.21478904738293236, -0.2155282339158724], [0.286448309227023, -0.4754678305332839], [0.5760312144926648, -0.1626929650149649], [-0.44602037473837175, -0.24022537190256546], [-0.42345142415541437, 0.027591514064436218], [-0.08141797877202217, 0.5159375508312236], [0.5896762153420033, 0.1114606892500585], [-0.25349885173411035, 0.36612742031929457], [0.17519426920273162, 0.5633684576013946], [0.24463923826961753, 0.15765475862376466], [-0.5261589341009765, 0.22468962611300752], [0.07167038724910801, -0.03280014562409672], [0.28340976571564713, -0.1505190566542043], [-0.26149666072197314, -0.4516158874313984], [0.38963939439605333, 0.4518530715917281], [0.43876698881141574, 0.23882833345270954], [0.01538256519620751, 0.305304827226507], [0.09846465279592487, -0.2779094701456674]]",density,black,,,N011,visual,1,[],"['1', '2', '3', '4']",1,2023.2.3,harveyvisual,2.1,[],8,0.75,
0,pause,0.4,None,None,None,0,115,115,115,,,,,,,,,,,,,N011,visual,1,[],"['1', '2', '3', '4']",1,2023.2.3,harveyvisual,2.1,[],8,0.75,
20,dot,0.3,['dot'],['density'],black,0,116,116,116,,,43.000216007232666,42.72088289260864,43.02087593078613,dot,"[0.06, 0.1, 0.1, 0.1, 0.06, 0.06, 0.08, 0.1, 0.08, 0.06, 0.08, 0.06, 0.06, 0.06, 0.06, 0.06, 0.08, 0.1, 0.1, 0.1]","[[0.541230343909301, -0.054366449290152274], [0.5201588722955252, 0.2356183597357454], [-0.48875184755782697, 0.1086638141017483], [-0.11941591999800727, 0.04500074366036022], [0.09441745143163316, -0.30772056903716694], [0.13715417165701693, 0.5766073088837845], [-0.35503212911946214, -0.4375443070100568], [-0.02939055139458402, -0.47349991032180816], [-0.43493442964238993, 0.36944332757505], [0.09286060460220624, -0.06139942896597306], [-0.2640240116760583, -0.17625374431214186], [-0.26294088725304476, 0.26638959595390277], [0.2657018278266894, -0.5044781284025919], [0.4806239959891966, -0.24233095742573726], [0.31861717461804817, -0.029872243579599167], [0.320965024933337, 0.16570338692944364], [0.033652924436164855, 0.3245246332557221], [0.3919215432647306, 0.39007738623985594], [-0.5632085526482036, -0.11400777383174866], [-0.07512727662585306, 0.4911000429219303]]",density,black,,,N011,visual,1,[],"['1', '2', '3', '4']",1,2023.2.3,harveyvisual,2.1,[],8,0.75,
0,pause,0.4,None,None,None,0,117,117,117,,,,,,,,,,,,,N011,visual,1,[],"['1', '2', '3', '4']",1,2023.2.3,harveyvisual,2.1,[],8,0.75,
20,dot,0.3,['dot'],['density'],black,0,118,118,118,,,43.70023488998413,43.42089486122131,43.720852851867676,dot,"[0.08, 0.08, 0.1, 0.1, 0.1, 0.06, 0.08, 0.08, 0.06, 0.08, 0.08, 0.1, 0.06, 0.06, 0.1, 0.06, 0.06, 0.06, 0.06, 0.08]","[[0.3964002231562357, 0.12103013392893136], [-0.5517587137185734, -0.12075862983298266], [-0.04408016040464424, 0.33474732109319016], [0.1386391440152298, -0.2889854989341876], [-0.4091965409403283, 0.3939027499176046], [0.47580695533067774, -0.08235312194629435], [-0.05144110287579984, -0.5013566789432122], [0.16018755366386017, 0.2138809042932045], [-0.3008041095187307, -0.3743081014145233], [-0.001110916206417345, 0.5356525195770814], [0.2533881762575442, -0.12166108916264512], [0.379416616301002, -0.3575677947340869], [0.278769327055027, 0.4092628350029778], [0.15813055077435156, -0.5679710993164124], [-0.3767723631389803, 0.15194394981877812], [-0.1996460031767931, 0.024396829475108683], [0.5271880565352828, 0.2753934842269134], [-0.5963245540463561, 0.08079643976225159], [0.004706314810246526, 0.05915099929049483], [-0.03318989209088863, -0.19007468674900319]]",density,black,,,N011,visual,1,[],"['1', '2', '3', '4']",1,2023.2.3,harveyvisual,2.1,[],8,0.75,
0,pause,0.4,None,None,None,0,119,119,119,,,,,,,,,,,,,N011,visual,1,[],"['1', '2', '3', '4']",1,2023.2.3,harveyvisual,2.1,[],8,0.75,
20,dot,0.3,['dot'],['density'],white,0,120,120,120,,,44.40023493766785,44.12085199356079,44.42083406448364,dot,"[0.08, 0.06, 0.06, 0.06, 0.08, 0.08, 0.08, 0.1, 0.08, 0.08, 0.1, 0.1, 0.08, 0.08, 0.08, 0.06, 0.06, 0.1, 0.1, 0.08]","[[-0.09524677867782527, -0.4648842311077642], [0.33418403486484016, 0.00789054111980525], [0.4904136848027595, 0.12304873550373818], [0.31545441827565823, -0.19173204125779392], [-0.46986739529091587, 0.04010474362440136], [-0.43040173333719467, 0.27270974415417903], [0.16639659522977102, 0.3963242688758465], [0.34101970881115373, 0.3194757392600369], [0.036822047753428566, -0.24680571647108046], [-0.005295037912275702, 0.19123511867939325], [0.18690859219852018, -0.5434400333073901], [-0.17537003813163649, -0.18079324062802288], [0.5605901688944758, -0.16877833743031892], [-0.4064331906591352, -0.1805291669454992], [-0.1452604544139366, 0.025356802859718974], [-0.07698263186276477, 0.5223232569822163], [-0.24267619576210064, 0.20041434464113983], [-0.36344532597956763, 0.46501396502348286], [0.49103155352451566, -0.34506077837948174], [0.12234264542125362, 0.043196510709509583]]",density,white,,,N011,visual,1,[],"['1', '2', '3', '4']",1,2023.2.3,harveyvisual,2.1,[],8,0.75,
0,pause,0.4,None,None,None,0,121,121,121,,,,,,,,,,,1,44.497901916503906,N011,visual,1,[],"['1', '2', '3', '4']",1,2023.2.3,harveyvisual,2.1,[],8,0.75,
20,dot,0.3,['dot'],['density'],black,0,122,122,122,,,45.100231885910034,44.82083797454834,45.120781898498535,dot,"[0.08, 0.08, 0.08, 0.06, 0.1, 0.08, 0.06, 0.08, 0.06, 0.06, 0.06, 0.06, 0.06, 0.06, 0.06, 0.08, 0.1, 0.06, 0.1, 0.06]","[[0.14926695172065174, -0.12143629826587271], [-0.13272114874940183, 0.08782029440508832], [0.5085288690545963, -0.2073458689913335], [-0.28630414325704046, -0.27963951822523564], [-0.5228989853850718, -0.19477355455214057], [-0.29923265589291337, 0.3765634743401016], [-0.3272487214013378, 0.1063879803207266], [0.02030022016191735, 0.32245640215576554], [0.2222257347534703, 0.3152337864990178], [0.3123410134384417, -0.020720071716182065], [-0.5408181881167673, 0.02674849817399816], [0.515947025510019, 0.1754540826177977], [-0.06984122316445085, -0.11038087450159656], [0.003115679789742365, -0.3631858361301529], [0.07259800471316058, 0.5297803490951527], [0.10716601127771408, 0.14906039779128044], [-0.14323211060673186, 0.5686787113595744], [0.3392107074538254, -0.3651945304535458], [-0.1601739890327606, -0.5285513558128825], [0.15385600926127663, -0.5115741040029905]]",density,black,,,N011,visual,1,[],"['1', '2', '3', '4']",1,2023.2.3,harveyvisual,2.1,[],8,0.75,
0,pause,0.4,None,None,None,0,123,123,123,,,,,,,,,,,,,N011,visual,1,[],"['1', '2', '3', '4']",1,2023.2.3,harveyvisual,2.1,[],8,0.75,
20,dot,0.3,['dot'],['density'],white,0,124,124,124,,,45.80021905899048,45.5207839012146,45.82076692581177,dot,"[0.06, 0.06, 0.06, 0.06, 0.1, 0.08, 0.06, 0.06, 0.1, 0.06, 0.08, 0.08, 0.06, 0.1, 0.1, 0.06, 0.08, 0.06, 0.1, 0.1]","[[0.005521012425248162, -0.023618962770341145], [-0.4549361254043788, 0.1286968574915462], [0.5929575461675273, -0.06270646383827415], [-0.5636584957076328, -0.1681464179014539], [0.32770079136068564, 0.3741801884775263], [-0.16193855635799936, 0.5746699518533743], [0.023837578345314858, 0.2297152657132664], [-0.3339262997986123, 0.37969883300383467], [0.21676371351021295, -0.09019686238965896], [0.5172343836111258, 0.20526458598806774], [0.16828256725207436, -0.2810377510342918], [0.42136968531311514, -0.24444986775966093], [0.04300838403384044, -0.5947466450571008], [-0.32307255341720337, -0.27551800638139645], [-0.24134818712258, -0.02925323325701812], [0.22732385338193828, 0.16154584207863687], [-0.22239657005580704, -0.5160559915919695], [0.14295988941085158, 0.4526585062872729], [-0.03545624428902716, -0.22767063827104222], [0.2285963755294219, -0.4783856523966105]]",density,white,,,N011,visual,1,[],"['1', '2', '3', '4']",1,2023.2.3,harveyvisual,2.1,[],8,0.75,
0,pause,0.4,None,None,None,0,125,125,125,,,,,,,,,,,1,45.95807409286499,N011,visual,1,[],"['1', '2', '3', '4']",1,2023.2.3,harveyvisual,2.1,[],8,0.75,
20,dot,0.3,['dot'],['density'],black,0,126,126,126,,,46.50023794174194,46.220752000808716,46.52077794075012,dot,"[0.06, 0.08, 0.06, 0.08, 0.06, 0.1, 0.1, 0.08, 0.08, 0.1, 0.06, 0.08, 0.06, 0.08, 0.1, 0.1, 0.06, 0.06, 0.06, 0.1]","[[0.0018732049387422123, -0.328375995736932], [0.3063853439571479, -0.26450198368545363], [-0.32486910888685, -0.2723272647648264], [-0.17424233036545472, 0.23531274839348149], [-0.5582855063034545, -0.15754685379868144], [0.5090779733282674, -0.23138355367809654], [-0.6038472286063638, 0.031876931402329146], [0.2017380174548168, 0.37947869736268014], [-0.05160759087306144, 0.06986036764093673], [0.5810720582718346, 0.12997283823484146], [0.041706669683743924, -0.5664561503015992], [-0.2761759337329823, 0.04043668030701797], [0.299810869148855, 0.20876467179096092], [0.30957595257221615, -0.0072174008187516625], [0.12983082757476205, 0.5591451532235108], [0.1409664506984316, -0.10030981549299822], [0.33016606007605975, -0.47444223156905463], [-0.21498405896286515, -0.47652042413752727], [-0.10620294372031247, 0.5098123731405156], [-0.4228853113057598, 0.2974404704790334]]",density,black,,,N011,visual,1,[],"['1', '2', '3', '4']",1,2023.2.3,harveyvisual,2.1,[],8,0.75,
0,pause,0.4,None,None,None,0,127,127,127,,,,,,,,,,,,,N011,visual,1,[],"['1', '2', '3', '4']",1,2023.2.3,harveyvisual,2.1,[],8,0.75,
20,dot,0.3,['dot'],['density'],black,0,128,128,128,,,47.2002170085907,46.920899868011475,47.22087788581848,dot,"[0.1, 0.1, 0.08, 0.06, 0.08, 0.06, 0.1, 0.08, 0.06, 0.08, 0.06, 0.1, 0.08, 0.1, 0.1, 0.06, 0.06, 0.1, 0.06, 0.1]","[[0.6031920183382288, -0.04172207635127051], [-0.019276333869853057, -0.5460266810554031], [-0.13473760207687985, 0.49485607292262845], [0.29612036066274017, 0.07730617276499019], [0.4964593937682559, -0.3075457918017316], [0.2793218371659386, 0.2890563538196528], [-0.3803904133858723, 0.2843366020808004], [0.48107630016285496, 0.3157959828293801], [0.0287479848016422, -0.011298695487160004], [-0.19959717809407296, -0.26528338159824194], [-0.37416036834359034, -0.100071331354664], [-0.08969186073245083, 0.21358402357235906], [-0.009691546834849074, -0.31266498092681727], [0.20940459144318702, -0.17093779067421866], [-0.3104468571239649, -0.5055170312275771], [-0.5423181370971116, 0.013054059065327306], [-0.18503257080954905, -0.008180751551767784], [0.18350227813571984, -0.5281596647742729], [-0.5023410587586492, -0.29749948499899437], [0.19063357287915184, 0.5572238015121604]]",density,black,,,N011,visual,1,[],"['1', '2', '3', '4']",1,2023.2.3,harveyvisual,2.1,[],8,0.75,
0,pause,0.4,None,None,None,0,129,129,129,,,,,,,,,,,,,N011,visual,1,[],"['1', '2', '3', '4']",1,2023.2.3,harveyvisual,2.1,[],8,0.75,
20,dot,0.3,['dot'],['density'],black,0,130,130,130,,,47.900217056274414,47.62088990211487,47.920876026153564,dot,"[0.1, 0.08, 0.08, 0.06, 0.1, 0.08, 0.1, 0.1, 0.1, 0.08, 0.06, 0.06, 0.1, 0.08, 0.1, 0.1, 0.06, 0.06, 0.1, 0.1]","[[-0.5870419528625236, -0.0666569289476034], [0.12399379391623555, -0.2539313476418084], [0.41172872217293166, 0.302309341253146], [0.5869457985126009, 0.0744378860486907], [0.022524117898625295, -0.5836210295787579], [0.24088702097215153, 0.05524308947308554], [-0.40647985472648923, 0.2878526814141528], [-0.3898138439430986, -0.055726101753538426], [0.3417506910289754, -0.40355819103300594], [-0.3509439577152418, -0.2929556626618063], [-0.15628653362771422, 0.20553197299695347], [0.5062089194747385, -0.16245792253784244], [-0.20084597975840518, -0.5004180989027655], [-0.18176325476849114, 0.4042690951865838], [0.04032029035757945, 0.36898462440068913], [-0.0640664660260376, 0.027644997343525213], [0.1433361118301908, 0.5768964861757786], [-0.5635866428741411, 0.1293883652613506], [0.3018528411866145, -0.14972903776217533], [-0.19910826457596142, -0.13645235542707979]]",density,black,,,N011,visual,1,[],"['1', '2', '3', '4']",1,2023.2.3,harveyvisual,2.1,[],8,0.75,
0,pause,0.4,None,None,None,0,131,131,131,,,,,,,,,,,,,N011,visual,1,[],"['1', '2', '3', '4']",1,2023.2.3,harveyvisual,2.1,[],8,0.75,
20,dot,0.3,['dot'],['density'],black,0,132,132,132,,,48.600234031677246,48.32073998451233,48.620879888534546,dot,"[0.08, 0.1, 0.1, 0.1, 0.06, 0.06, 0.08, 0.1, 0.08, 0.06, 0.08, 0.1, 0.1, 0.1, 0.06, 0.1, 0.08, 0.08, 0.1, 0.08]","[[-0.3215792557289973, -0.07444165860493518], [0.5967396728143376, -0.030021902504508147], [-0.48079756357274983, 0.0771485281130338], [0.27140533087202456, 0.011273741268261639], [-0.08700942092717845, -0.2946377380919033], [0.36929809062582086, -0.3491468275621712], [-0.27201680665014866, 0.5085396020387084], [-0.49449058034975013, -0.24043626588167166], [-0.09254816722842762, 0.1992593011069248], [0.005932015607398422, 0.029787062805339826], [0.16146262959861857, 0.3835073178519929], [-0.04000288247262507, -0.5209933903482189], [0.1775572642556742, -0.317169801995387], [-0.33925462400541206, -0.4261579303187093], [0.4898729828095866, 0.17419596252133607], [-0.4495771662835265, 0.3539348661493599], [0.2853581028030233, 0.20288674856688305], [0.49722609485671565, -0.2037854348158819], [-0.029876672045707875, 0.4117613901119723], [0.42298569261397023, 0.3989346729877913]]",density,black,,,N011,visual,1,[],"['1', '2', '3', '4']",1,2023.2.3,harveyvisual,2.1,[],8,0.75,
0,pause,0.4,None,None,None,0,133,133,133,,,,,,,,,,,,,N011,visual,1,[],"['1', '2', '3', '4']",1,2023.2.3,harveyvisual,2.1,[],8,0.75,
20,dot,0.3,['dot'],['density'],white,0,134,134,134,,,49.300222873687744,49.02089285850525,49.32092905044556,dot,"[0.08, 0.08, 0.08, 0.08, 0.1, 0.06, 0.06, 0.06, 0.08, 0.1, 0.1, 0.1, 0.06, 0.06, 0.08, 0.1, 0.1, 0.1, 0.08, 0.06]","[[0.557208555912111, -0.0036425027447198888], [0.2889392364830017, -0.15388150157912434], [-0.3820997041034083, -0.4693065372012409], [-0.37650461904071303, 0.061665841244243014], [-0.10760899265595919, -0.5075839951552136], [0.03086584026622885, -0.02289981871907454], [-0.09481132670830439, -0.21212803360467114], [0.032555337790506456, 0.26306058644159347], [-0.20206562034890807, 0.5184231727728454], [0.1514045602561369, 0.5764406901293214], [0.36052493708947897, 0.04588204536575691], [-0.3884168982299746, -0.17527498055830648], [0.20910731590631282, 0.1842501094192036], [-0.5878554431212732, 0.1113964458820482], [0.45527993494173546, -0.30392794050660726], [0.3463167724138013, 0.4530696274124512], [0.21173339390285495, -0.4647451583575451], [0.5197882397233023, 0.22451346551473417], [-0.24147538626979753, 0.20484499665379374], [-0.5751505674222958, -0.11381443502915914]]",density,white,,,N011,visual,1,[],"['1', '2', '3', '4']",1,2023.2.3,harveyvisual,2.1,[],8,0.75,
0,pause,0.4,None,None,None,0,135,135,135,,,,,,,,,,,1,49.42744994163513,N011,visual,1,[],"['1', '2', '3', '4']",1,2023.2.3,harveyvisual,2.1,[],8,0.75,
20,dot,0.3,['dot'],['density'],black,0,136,136,136,,,50.00021696090698,49.720722913742065,50.02063703536987,dot,"[0.1, 0.08, 0.08, 0.06, 0.1, 0.1, 0.1, 0.1, 0.1, 0.08, 0.1, 0.06, 0.1, 0.08, 0.06, 0.1, 0.1, 0.08, 0.1, 0.1]","[[-0.35099762546683405, -0.29775279599670423], [-0.18471665910321694, 0.4558572434403535], [-0.13828764057944143, -0.566728881561124], [0.21802887933828552, 0.5330049256650975], [-0.39143461561701415, -0.08976054911922848], [0.27049165223943694, -0.46188432902975224], [0.4191015028630535, -0.24636663624360491], [0.5702436603046263, -0.1250511598281599], [0.3251648695892786, 0.3042743333125416], [-0.06567352002180171, -0.16959766776227125], [0.22588827531753808, 0.01641205860487105], [-0.5901575868030202, -0.06085752555788761], [0.5592479687447663, 0.08851232987363883], [-0.5430790196709547, 0.1388628144963836], [-0.3262771431484136, 0.2795180748612569], [-0.01835004173001542, 0.25506400443562627], [-0.04842253923047635, 0.06243581452895075], [0.1961515800545709, -0.22051639145057395], [-0.03817403545509934, -0.36019380267962353], [-0.2730160978280886, 0.06613004283983259]]",density,black,,,N011,visual,1,[],"['1', '2', '3', '4']",1,2023.2.3,harveyvisual,2.1,[],8,0.75,
0,pause,0.4,None,None,None,0,137,137,137,,,,,,,,,,,,,N011,visual,1,[],"['1', '2', '3', '4']",1,2023.2.3,harveyvisual,2.1,[],8,0.75,
20,dot,0.3,['dot'],['density'],black,0,138,138,138,,,50.70023488998413,50.420631885528564,50.720638036727905,dot,"[0.1, 0.08, 0.1, 0.08, 0.1, 0.08, 0.06, 0.06, 0.06, 0.06, 0.1, 0.1, 0.08, 0.06, 0.06, 0.06, 0.06, 0.06, 0.06, 0.06]","[[0.4914254359749889, 0.2858678141404107], [0.4193701019246733, -0.19613728519725449], [0.04672977358881325, -0.47415867634172926], [0.5670589621022809, -0.06180523010119804], [-0.3626585644835414, -0.48353757781622], [0.19317696448635935, 0.2172469586152097], [0.21979973926855279, 0.5052220971775508], [-0.12982059034640314, 0.4681810875089194], [0.3179587555881276, -0.40714494948182073], [-0.35102143975216316, 0.046828372167294297], [-0.5488089290186726, 0.12997043205244435], [-0.15880632910260745, -0.1687205924816525], [-0.40707344319580974, -0.21766968130266748], [-0.18707723744727717, -0.567549615292049], [-0.0746617141635818, 0.284580123290897], [-0.3109569511038769, 0.23623931665636566], [0.058590685634342776, -0.023955301009720764], [-0.09761121189455646, 0.09580088575767343], [-0.6009333965633464, -0.052976278354238314], [0.2132030196217678, -0.16849554540813022]]",density,black,,,N011,visual,1,[],"['1', '2', '3', '4']",1,2023.2.3,harveyvisual,2.1,[],8,0.75,
0,pause,0.4,None,None,None,0,139,139,139,,,,,,,,,,,,,N011,visual,1,[],"['1', '2', '3', '4']",1,2023.2.3,harveyvisual,2.1,[],8,0.75,
20,dot,0.3,['dot'],['density'],black,0,140,140,140,,,51.40022301673889,51.120611906051636,51.42060685157776,dot,"[0.06, 0.08, 0.08, 0.1, 0.08, 0.1, 0.08, 0.06, 0.08, 0.08, 0.1, 0.1, 0.06, 0.06, 0.06, 0.06, 0.1, 0.08, 0.1, 0.1]","[[0.5169027775541245, -0.02126361134373428], [-0.5444133545779627, 0.1139038896335951], [-0.3999053881380972, -0.08536840052262085], [0.5034273674373374, -0.25824886975331773], [0.03438798681133459, 0.08357828619811514], [-0.10164105412144475, -0.25643190851418135], [0.28072410086035704, -0.32756366862001235], [0.03309589983507555, -0.5647071451502319], [-0.44632722702016203, 0.3758285014829516], [-0.2250907509415801, 0.34864110681184635], [0.26260923070030284, 0.45342771635448553], [-0.3912564704805246, -0.4059058261079351], [0.1621660160571392, -0.058691835775329215], [-0.11032837645583154, 0.5135316553638161], [0.34989404891400944, 0.15868691754102665], [-0.27685598151789476, 0.1435922300688034], [0.5430469199376483, 0.2261009043197349], [-0.16944409546851708, -0.5253088586787812], [0.06791697052874812, 0.35908655495247244], [0.09378194582745059, -0.29566314685218387]]",density,black,,,N011,visual,1,[],"['1', '2', '3', '4']",1,2023.2.3,harveyvisual,2.1,[],8,0.75,
0,pause,0.4,None,None,None,0,141,141,141,,,,,,,,,,,,,N011,visual,1,[],"['1', '2', '3', '4']",1,2023.2.3,harveyvisual,2.1,[],8,0.75,
20,dot,0.3,['dot'],['density'],black,0,142,142,142,,,52.100220918655396,51.82060098648071,52.120585918426514,dot,"[0.06, 0.1, 0.08, 0.06, 0.08, 0.06, 0.08, 0.08, 0.08, 0.08, 0.1, 0.06, 0.06, 0.08, 0.06, 0.06, 0.1, 0.08, 0.1, 0.08]","[[0.32452977372005787, 0.10391601712065679], [-0.49806827069774107, 0.3354836489189828], [0.10586752409519273, 0.5721779736014507], [0.08754643920863525, 0.2372195161282542], [-0.04844985454592565, -0.5872885740151542], [0.4784086009535412, 0.3571464075359368], [-0.4291033885379631, -0.2406327060691115], [-0.1972311373194237, 0.3575568194531863], [-0.10210734422827661, 0.1447542868001891], [0.238146104303816, -0.33086257895601234], [-0.31645558269460444, -0.5090703353231256], [0.49155455110098123, -0.0765255073705246], [-0.5182902691324041, 0.09837794277214051], [-0.15223841593209436, -0.11990420065263546], [0.1732643785098794, -0.1381959084683126], [-0.009624412021380868, -0.3668409527068598], [-0.5627171305650003, -0.09402952272441795], [0.46891732979752676, -0.35683879393103035], [-0.28024661818179225, 0.052470239159752685], [0.28870120349538664, 0.2966239675491775]]",density,black,,,N011,visual,1,[],"['1', '2', '3', '4']",1,2023.2.3,harveyvisual,2.1,[],8,0.75,
0,pause,0.4,None,None,None,0,143,143,143,,,,,,,,,,,,,N011,visual,1,[],"['1', '2', '3', '4']",1,2023.2.3,harveyvisual,2.1,[],8,0.75,
20,dot,0.3,['dot'],['density'],black,0,144,144,144,,,52.80023002624512,52.52060890197754,52.820639848709106,dot,"[0.08, 0.1, 0.08, 0.06, 0.06, 0.1, 0.08, 0.1, 0.1, 0.08, 0.06, 0.06, 0.08, 0.1, 0.1, 0.06, 0.06, 0.08, 0.1, 0.08]","[[-0.4514055416578173, -0.028676020849121686], [0.3692681250744998, -0.10513359940761113], [-0.531650065408218, -0.23038771077592668], [-0.10892389213292314, -0.3774817846414429], [0.11958961659907197, 0.10861109800278623], [0.5960659903958315, 0.07760815580403276], [0.19201051942899994, -0.19130900486538793], [-0.022899305891022848, -0.20212177483649296], [0.24184937281067742, 0.2919933183741704], [-0.40419575046621886, 0.3434156302609575], [-0.30097542861630994, 0.09184957724056741], [0.19020246838172883, -0.43487962342376263], [0.2252967373040835, 0.5477864878415672], [0.5482493903607569, -0.24514751252561207], [-0.5813490054588173, 0.12366319105828785], [0.01353088246018086, 0.5832484680860318], [-0.18382326896217377, 0.44193333210629404], [-0.21260249849471746, -0.18708357789428876], [0.42635218112622886, 0.1994312045321171], [0.04756580967191337, 0.352568246103376]]",density,black,,,N011,visual,1,[],"['1', '2', '3', '4']",1,2023.2.3,harveyvisual,2.1,[],8,0.75,
0,pause,0.4,None,None,None,0,145,145,145,,,,,,,,,,,,,N011,visual,1,[],"['1', '2', '3', '4']",1,2023.2.3,harveyvisual,2.1,[],8,0.75,
20,dot,0.3,['dot'],['density'],black,0,146,146,146,,,53.50023007392883,53.22063899040222,53.52061700820923,dot,"[0.08, 0.06, 0.08, 0.08, 0.08, 0.1, 0.08, 0.08, 0.06, 0.1, 0.06, 0.08, 0.08, 0.1, 0.06, 0.08, 0.06, 0.06, 0.06, 0.06]","[[0.5655087266718145, 0.015799858205103545], [0.38189644439554615, 0.16402345627901477], [-0.3155354232282595, -0.4767173603252544], [-0.1142184896164104, 0.41453422099323356], [0.39309631823485913, -0.22262634747005677], [0.011906590064130751, 0.24415839731140276], [0.27651953514127636, 0.43531687215830306], [0.04077353995833988, -0.2309484923664194], [0.2089076227529858, 0.05695708665126131], [-0.31032124376278025, 0.41471187811208154], [-0.5518635666733772, -0.058119723786659555], [-0.42728185423743825, -0.21818054682722493], [-0.21376895566453125, -0.13087417134707668], [-0.22097182070407756, 0.1260969490945807], [-0.01977934591073993, -0.5957449889937517], [0.24070598397560128, -0.39573070502690855], [-0.47367074065814374, 0.2129258025179514], [-0.02737005386547864, -0.02651466426679272], [-0.19518665063996454, -0.3273838967306938], [0.05467275245477621, 0.5184055058409234]]",density,black,,,N011,visual,1,[],"['1', '2', '3', '4']",1,2023.2.3,harveyvisual,2.1,[],8,0.75,
0,pause,0.4,None,None,None,0,147,147,147,,,,,,,,,,,,,N011,visual,1,[],"['1', '2', '3', '4']",1,2023.2.3,harveyvisual,2.1,[],8,0.75,
20,dot,0.3,['dot'],['density'],black,0,148,148,148,,,54.20022702217102,53.920615911483765,54.22060585021973,dot,"[0.06, 0.06, 0.08, 0.1, 0.08, 0.08, 0.1, 0.06, 0.06, 0.08, 0.06, 0.06, 0.08, 0.1, 0.06, 0.08, 0.1, 0.1, 0.08, 0.08]","[[-0.22190281180770133, 0.40740744525738015], [-0.06891420189549724, 0.5616890235479264], [0.34376192167167696, 0.2326894576819143], [0.48823884981515786, 0.09973290266853785], [-0.17159878103802068, -0.41366325349980165], [0.3042621312554974, -0.377954430476686], [-0.022389294886625777, -0.11147434598524592], [-0.19394503256182605, 0.04729044523173376], [0.2425821413358028, -0.17865895646030044], [-0.5764302783964576, -0.010740839418750286], [-0.07989194590685467, 0.2742119515504562], [-0.2999368517846933, -0.1536989357139305], [0.5590050793110654, -0.2158608862078853], [-0.020959862343533198, -0.5347193850454235], [-0.48851474907047576, 0.3372192174923626], [-0.5205046285456493, -0.25913814995609097], [0.20191495312170227, 0.5152487368225606], [-0.29943471165638874, 0.2300764106388934], [0.026990461263845522, 0.11574294650762251], [0.07669493358033208, -0.30596474672268503]]",density,black,,,N011,visual,1,[],"['1', '2', '3', '4']",1,2023.2.3,harveyvisual,2.1,[],8,0.75,
0,pause,0.4,None,None,None,0,149,149,149,,,,,,,,,,,,,N011,visual,1,[],"['1', '2', '3', '4']",1,2023.2.3,harveyvisual,2.1,[],8,0.75,
20,dot,0.3,['dot'],['density'],black,0,150,150,150,,,54.90023493766785,54.62059497833252,54.92058205604553,dot,"[0.1, 0.08, 0.1, 0.1, 0.08, 0.1, 0.06, 0.06, 0.1, 0.08, 0.08, 0.1, 0.1, 0.08, 0.06, 0.06, 0.08, 0.1, 0.1, 0.08]","[[0.42204862838468127, 0.044269270804712435], [-0.3710995873993427, 0.4733750791209061], [0.08636369730461746, -0.5756365947937716], [0.11896472810934577, 0.1138775584741667], [-0.2891426025216226, -0.45564638570324867], [0.2639348140806145, -0.08379758290851536], [-0.4983641518102734, 0.11255795263203078], [0.41544994919527334, -0.41675326544603614], [0.4511419444997128, -0.18233090318668288], [0.4451187850030275, 0.2962029852965138], [-0.200835592487224, 0.1438652659530234], [-0.004227200438849721, -0.059825422755312774], [0.1368494927199735, -0.23215093690400385], [-0.41065423412200774, -0.2872402764463303], [-0.08088860707188628, -0.38899718646366793], [-0.35843042535246256, -0.018938269413505016], [-0.20083982123394123, -0.23656455494398637], [0.13932160648460923, 0.32667749637874344], [0.07573592427980924, 0.5264798959026036], [0.19991496010966148, -0.4139695676981278]]",density,black,,,N011,visual,1,[],"['1', '2', '3', '4']",1,2023.2.3,harveyvisual,2.1,[],8,0.75,
0,pause,0.4,None,None,None,0,151,151,151,,,,,,,,,,,,,N011,visual,1,[],"['1', '2', '3', '4']",1,2023.2.3,harveyvisual,2.1,[],8,0.75,
20,dot,0.3,['dot'],['density'],black,0,152,152,152,,,55.60022306442261,55.32057499885559,55.62048602104187,dot,"[0.1, 0.1, 0.06, 0.06, 0.06, 0.06, 0.08, 0.06, 0.08, 0.08, 0.1, 0.06, 0.06, 0.06, 0.06, 0.06, 0.08, 0.06, 0.1, 0.1]","[[0.22567858116400163, -0.4404884488023919], [0.22438383202592171, 0.28862900407841563], [0.042419410987872386, 0.5430046997703364], [-0.5280295810216993, 0.29237817510785424], [-0.07188164503343542, 0.31641554847952613], [0.5764031126219434, -0.00030265410382271374], [0.5028391554565624, -0.21971322120991746], [-0.230091034952978, -0.45077361751912987], [-0.3635860900856348, 0.1863541790278218], [0.0744174768165039, -0.15592409629485282], [-0.4073435324042204, -0.36662151372979296], [0.5160029187581389, 0.2653593605522809], [-0.5990388093789963, -0.0328562311446594], [-0.270401000412566, -0.042997304248421464], [0.15523679484594577, 0.026054410333832267], [-0.17859772910825766, 0.13369071996077075], [-0.31819454232239336, 0.4111100112519558], [-0.03840510170675382, -0.5533360927641195], [0.2861491559968117, -0.23339382366515282], [0.35175920219959145, 0.45192487824955063]]",density,black,,,N011,visual,1,[],"['1', '2', '3', '4']",1,2023.2.3,harveyvisual,2.1,[],8,0.75,
0,pause,0.4,None,None,None,0,153,153,153,,,,,,,,,,,,,N011,visual,1,[],"['1', '2', '3', '4']",1,2023.2.3,harveyvisual,2.1,[],8,0.75,
20,dot,0.3,['dot'],['density'],black,0,154,154,154,,,56.300220012664795,56.02049994468689,56.320476055145264,dot,"[0.08, 0.06, 0.06, 0.1, 0.1, 0.06, 0.1, 0.08, 0.06, 0.06, 0.06, 0.1, 0.06, 0.08, 0.06, 0.06, 0.08, 0.06, 0.1, 0.08]","[[-0.1565398267503123, 0.07918649140532463], [0.027561107519234906, -0.05874258346076966], [0.333733041138789, -0.3563403307002482], [-0.20227397159664923, 0.5602502375060735], [0.3917934593445874, 0.2621653089962272], [-0.49416782375046864, -0.2998329367479535], [-0.5365234677125823, 0.2474217196930536], [0.58665149348655, 0.11249986845217558], [-0.546427409980008, 0.01374142477016399], [-0.18578036482400007, -0.48550927358958845], [-0.3656910841536773, 0.42953807575419345], [0.34812231636547186, -0.051470216478955666], [0.270254108859891, 0.41217554966809045], [0.18737114121152876, 0.10053437585315161], [-0.32344333152270394, 0.21112391110790685], [-0.1662816384677575, -0.20063563483021002], [-0.05191687078858931, 0.3023454157790949], [0.04384406986211409, 0.5993997236436793], [0.14069434567595795, -0.2665655379453932], [0.5942507178208786, -0.0983756078970153]]",density,black,,,N011,visual,1,[],"['1', '2', '3', '4']",1,2023.2.3,harveyvisual,2.1,[],8,0.75,
0,pause,0.4,None,None,None,0,155,155,155,,,,,,,,,,,,,N011,visual,1,[],"['1', '2', '3', '4']",1,2023.2.3,harveyvisual,2.1,[],8,0.75,
9,dot,0.3,['dot'],['density'],black,0,156,156,156,,,57.00022101402283,56.720465898513794,57.020458936691284,dot,"[0.08, 0.08, 0.06, 0.1, 0.08, 0.1, 0.08, 0.06, 0.06]","[[0.34043128493099817, 0.2271075800100716], [0.2702764120171402, -0.10456749967376819], [-0.1274635928921129, -0.04210317806044915], [-0.03460273614387521, 0.1795356259369138], [0.14470969472881007, 0.3391925298523705], [0.06761060508642219, 0.0060094309834155335], [0.5117869412029185, -0.12050585585317111], [0.07404675892906432, -0.22660478390602867], [0.35723900661310204, -0.3185591288757]]",density,black,,,N011,visual,1,[],"['1', '2', '3', '4']",1,2023.2.3,harveyvisual,2.1,[],8,0.75,
0,pause,0.4,None,None,None,0,157,157,157,,,,,,,,,,,,,N011,visual,1,[],"['1', '2', '3', '4']",1,2023.2.3,harveyvisual,2.1,[],8,0.75,
9,dot,0.3,['dot'],['density'],black,0,158,158,158,,,57.70022702217102,57.420466899871826,57.72046399116516,dot,"[0.06, 0.06, 0.08, 0.06, 0.08, 0.08, 0.08, 0.08, 0.06]","[[-0.08830733675648182, -0.32541118850070216], [0.2573655446525002, -0.0029570100823114536], [0.27547652153196345, -0.34332263321768475], [-0.10322368112243578, -0.12113330350182801], [-0.09512634339583304, 0.07974184968350245], [0.1087639633701519, -0.14934854126711464], [-0.2976800736237512, -0.022953619774800198], [0.014308470788770018, -0.5004438889851849], [-0.3557422450128242, -0.24953541402881954]]",density,black,,,N011,visual,1,[],"['1', '2', '3', '4']",1,2023.2.3,harveyvisual,2.1,[],8,0.75,
0,pause,0.4,None,None,None,0,159,159,159,,,,,,,,,,,,,N011,visual,1,[],"['1', '2', '3', '4']",1,2023.2.3,harveyvisual,2.1,[],8,0.75,
9,dot,0.3,['dot'],['density'],black,0,160,160,160,,,58.40022397041321,58.12045693397522,58.420440912246704,dot,"[0.1, 0.1, 0.08, 0.1, 0.06, 0.08, 0.1, 0.08, 0.1]","[[0.08964926938552661, 0.05394775442474662], [0.013667798857315082, 0.3651287039276397], [-0.3518235196438996, 0.4482863301015001], [0.0843039828244993, 0.5528122926054443], [-0.16049547673848438, 0.0730005648255046], [-0.2144141911430125, 0.27623828598157274], [0.3465547907671387, 0.0307758660088046], [-0.13596480001028877, 0.5242376261272882], [0.2304522598158348, 0.3521277948761275]]",density,black,,,N011,visual,1,[],"['1', '2', '3', '4']",1,2023.2.3,harveyvisual,2.1,[],8,0.75,
0,pause,0.4,None,None,None,0,161,161,161,,,,,,,,,,,,,N011,visual,1,[],"['1', '2', '3', '4']",1,2023.2.3,harveyvisual,2.1,[],8,0.75,
9,dot,0.3,['dot'],['density'],black,0,162,162,162,,,59.10023784637451,58.820399045944214,59.120445013046265,dot,"[0.1, 0.08, 0.1, 0.08, 0.08, 0.06, 0.1, 0.1, 0.1]","[[-0.13146557112902973, 0.14116723461389186], [0.2951467361821443, -0.02824752732805288], [0.19428532799116477, -0.23589609671221848], [-0.28731157875063357, -0.1506919145754202], [-0.013954936164563217, -0.2914313940092583], [0.05437169614590384, 0.05057158482376688], [-0.11710547218270359, -0.5628603002908775], [-0.3181416531292253, -0.36750682532956547], [-0.10064922490671671, -0.07835054634105423]]",density,black,,,N011,visual,1,[],"['1', '2', '3', '4']",1,2023.2.3,harveyvisual,2.1,[],8,0.75,
0,pause,0.4,None,None,None,0,163,163,163,,,,,,,,,,,,,N011,visual,1,[],"['1', '2', '3', '4']",1,2023.2.3,harveyvisual,2.1,[],8,0.75,
9,dot,0.3,['dot'],['density'],black,0,164,164,164,,,59.800240993499756,59.52045702934265,59.820432901382446,dot,"[0.1, 0.1, 0.1, 0.1, 0.1, 0.08, 0.08, 0.08, 0.1]","[[-0.05049485011715354, 0.3013521193238899], [0.15354596755057998, 0.36785015051376163], [0.22995749783639982, 0.07309138415424772], [0.13460311710395165, -0.18603378415368982], [0.33097739113381164, -0.13822260855557728], [-0.16464148731134703, 0.07190493829483618], [0.521154897315396, -0.007803673430992942], [0.02684304494395013, 0.0018704401699241912], [-0.15545279255173522, -0.15329938800760382]]",density,black,,,N011,visual,1,[],"['1', '2', '3', '4']",1,2023.2.3,harveyvisual,2.1,[],8,0.75,
0,pause,0.4,None,None,None,0,165,165,165,,,,,,,,,,,,,N011,visual,1,[],"['1', '2', '3', '4']",1,2023.2.3,harveyvisual,2.1,[],8,0.75,
9,dot,0.3,['dot'],['density'],black,0,166,166,166,,,60.500231981277466,60.22042894363403,60.52040505409241,dot,"[0.1, 0.08, 0.1, 0.1, 0.08, 0.08, 0.1, 0.06, 0.06]","[[-0.25982930089867384, 0.41046177320377714], [0.2391912210628672, 0.4152301159030731], [-0.011899047454085643, 0.5103750441914148], [0.15826907621474634, 0.20577518054892585], [-0.29033424199965224, 0.2058356795488901], [-0.056026696670660174, 0.08152775180209879], [-0.32571421803823364, -0.002973879155612714], [0.39820859476685, 0.29236875228581105], [-0.06367065787951752, 0.28966088639372295]]",density,black,,,N011,visual,1,[],"['1', '2', '3', '4']",1,2023.2.3,harveyvisual,2.1,[],8,0.75,
0,pause,0.4,None,None,None,0,167,167,167,,,,,,,,,,,,,N011,visual,1,[],"['1', '2', '3', '4']",1,2023.2.3,harveyvisual,2.1,[],8,0.75,
8,dot,0.3,['dot'],['density'],black,0,168,168,168,,,61.200231075286865,60.92040491104126,61.220356941223145,dot,"[0.06, 0.06, 0.08, 0.1, 0.06, 0.08, 0.08, 0.08]","[[0.43039348711459674, -0.2176132953198537], [0.11499515674856413, 0.2899266495440316], [0.12808102003139596, -0.009244067984354065], [-0.030386771168905473, -0.2551920291624523], [0.3118809155168881, 0.2081403981228026], [-0.06282563634610334, 0.11114412413027695], [0.22944900542930163, -0.23921835558115082], [0.33219925311336224, 0.0035410395788749187]]",density,black,,,N011,visual,1,[],"['1', '2', '3', '4']",1,2023.2.3,harveyvisual,2.1,[],8,0.75,
0,pause,0.4,None,None,None,0,169,169,169,,,,,,,,,,,,,N011,visual,1,[],"['1', '2', '3', '4']",1,2023.2.3,harveyvisual,2.1,[],8,0.75,
8,dot,0.3,['dot'],['density'],black,0,170,170,170,,,61.90023899078369,61.620386838912964,61.92033386230469,dot,"[0.08, 0.1, 0.06, 0.1, 0.1, 0.1, 0.06, 0.06]","[[-0.3869743371455666, 0.15388434217336297], [0.11424038932868294, 0.18734519769139274], [-0.06602262913525138, -0.20199883598953133], [-0.13221522482970946, 0.16661696891490863], [-0.2408224703751142, -0.03724946932993881], [-0.01219752370661542, -0.004327099574405561], [-0.20345141844285677, 0.44978546357431476], [0.2450906497331586, -0.012808503174003826]]",density,black,,,N011,visual,1,[],"['1', '2', '3', '4']",1,2023.2.3,harveyvisual,2.1,[],8,0.75,
0,pause,0.4,None,None,None,0,171,171,171,,,,,,,,,,,,,N011,visual,1,[],"['1', '2', '3', '4']",1,2023.2.3,harveyvisual,2.1,[],8,0.75,
8,dot,0.3,['dot'],['density'],black,0,172,172,172,,,62.60022592544556,62.32031488418579,62.62030601501465,dot,"[0.06, 0.06, 0.08, 0.1, 0.08, 0.06, 0.08, 0.08]","[[-0.2395708272612018, -0.3613018167456044], [-0.39529086986423073, -0.13116056396528103], [0.016143118738118, -0.3000453801144436], [-0.10247857353615338, 0.12176090555598315], [0.11784264820349834, -0.12422453235794288], [-0.1468533202112338, -0.18280007972172757], [-0.31504288856899026, 0.06147683711297207], [0.2614313121475242, -0.33215718180641224]]",density,black,,,N011,visual,1,[],"['1', '2', '3', '4']",1,2023.2.3,harveyvisual,2.1,[],8,0.75,
0,pause,0.4,None,None,None,0,173,173,173,,,,,,,,,,,,,N011,visual,1,[],"['1', '2', '3', '4']",1,2023.2.3,harveyvisual,2.1,[],8,0.75,
8,dot,0.3,['dot'],['density'],black,0,174,174,174,,,63.3002290725708,63.020336866378784,63.320374965667725,dot,"[0.08, 0.06, 0.06, 0.1, 0.1, 0.06, 0.06, 0.08]","[[0.3129921899656287, 0.2226642157048143], [0.41298599633021416, -0.001766323215076977], [0.013785601627645026, 0.39275307090924344], [-0.009407606244017683, 0.02333367620517349], [0.20163499737495916, -0.08731087547331118], [0.31235423233837933, 0.42762820752661124], [0.10705959187470679, 0.21318577255187057], [-0.13233007013452783, 0.20605257250075132]]",density,black,,,N011,visual,1,[],"['1', '2', '3', '4']",1,2023.2.3,harveyvisual,2.1,[],8,0.75,
0,pause,0.4,None,None,None,0,175,175,175,,,,,,,,,,,,,N011,visual,1,[],"['1', '2', '3', '4']",1,2023.2.3,harveyvisual,2.1,[],8,0.75,
8,dot,0.3,['dot'],['density'],black,0,176,176,176,,,64.00022506713867,63.72028303146362,64.02038407325745,dot,"[0.1, 0.06, 0.06, 0.1, 0.06, 0.1, 0.06, 0.1]","[[-0.0012777187897950197, 0.3966007492927722], [-0.28447363834021117, 0.3159852715582059], [0.19942587273623266, 0.5530929527666414], [0.21318140018031628, 0.35154814550636243], [0.2022184519229619, 0.1402347591191321], [-0.03399167273692697, 0.18426518172063944], [0.09045107803968953, -0.0428478536761596], [-0.13826990130262626, -0.021750669296841257]]",density,black,,,N011,visual,1,[],"['1', '2', '3', '4']",1,2023.2.3,harveyvisual,2.1,[],8,0.75,
0,pause,0.4,None,None,None,0,177,177,177,,,,,,,,,,,,,N011,visual,1,[],"['1', '2', '3', '4']",1,2023.2.3,harveyvisual,2.1,[],8,0.75,
8,dot,0.3,['dot'],['density'],black,0,178,178,178,,,64.70022392272949,64.42039084434509,64.7203528881073,dot,"[0.08, 0.06, 0.1, 0.06, 0.1, 0.1, 0.06, 0.1]","[[0.12411109391386341, -0.5343823995123961], [-0.21238427398525783, -0.3197389486612228], [-0.06551876445787266, 0.032183079599910736], [0.22034046694826517, 0.05676208929132721], [0.31747551588691986, -0.13046885784073625], [0.01834943727978222, -0.34316474661021057], [0.10776215616131694, -0.12386070969881222], [-0.2386971922539417, -0.09256206635527232]]",density,black,,,N011,visual,1,[],"['1', '2', '3', '4']",1,2023.2.3,harveyvisual,2.1,[],8,0.75,
0,pause,0.4,None,None,None,0,179,179,179,,,,,,,,,,,,,N011,visual,1,[],"['1', '2', '3', '4']",1,2023.2.3,harveyvisual,2.1,[],8,0.75,
7,dot,0.3,['dot'],['density'],black,0,180,180,180,,,65.40022206306458,65.1202449798584,65.42031788825989,dot,"[0.06, 0.1, 0.08, 0.08, 0.08, 0.06, 0.06]","[[-0.0015444251822213466, 0.17452400993182896], [-0.3864233363803332, 0.3856338194384884], [-0.45841970572989144, 0.11901701190004808], [-0.23552014845846486, 0.11986313412455778], [-0.06694767956243396, -0.029831379541550785], [-0.3576154478026905, -0.11072010138878656], [-0.17113735677840214, 0.37123035181888253]]",density,black,,,N011,visual,1,[],"['1', '2', '3', '4']",1,2023.2.3,harveyvisual,2.1,[],8,0.75,
0,pause,0.4,None,None,None,0,181,181,181,,,,,,,,,,,,,N011,visual,1,[],"['1', '2', '3', '4']",1,2023.2.3,harveyvisual,2.1,[],8,0.75,
7,dot,0.3,['dot'],['density'],black,0,182,182,182,,,66.10022807121277,65.82034087181091,66.12020301818848,dot,"[0.1, 0.08, 0.1, 0.08, 0.1, 0.08, 0.08]","[[0.4852053974746821, 0.2414638673891567], [0.4489127705046299, 0.011725618337583463], [0.18065050592779294, 0.3526250807613559], [0.03625639584007868, 0.1261309995663498], [0.1794309074695897, -0.0624577020416761], [0.2856641480650803, 0.17770493422509798], [0.3124387752689665, -0.21816880331392838]]",density,black,,,N011,visual,1,[],"['1', '2', '3', '4']",1,2023.2.3,harveyvisual,2.1,[],8,0.75,
0,pause,0.4,None,None,None,0,183,183,183,,,,,,,,,,,,,N011,visual,1,[],"['1', '2', '3', '4']",1,2023.2.3,harveyvisual,2.1,[],8,0.75,
7,dot,0.3,['dot'],['density'],black,0,184,184,184,,,66.80022597312927,66.52020788192749,66.82017302513123,dot,"[0.08, 0.1, 0.08, 0.1, 0.08, 0.1, 0.1]","[[0.1318978468379982, 0.48780960721302624], [-0.15530952210580917, 0.2429536962773128], [0.21675324185561073, 0.09111206147250148], [0.13033099328542835, 0.28547066376201063], [0.3859901392997328, 0.20497483482614012], [0.014590257841440182, 0.0970646397970693], [0.1730960121663288, -0.1180805096677859]]",density,black,,,N011,visual,1,[],"['1', '2', '3', '4']",1,2023.2.3,harveyvisual,2.1,[],8,0.75,
0,pause,0.4,None,None,None,0,185,185,185,,,,,,,,,,,,,N011,visual,1,[],"['1', '2', '3', '4']",1,2023.2.3,harveyvisual,2.1,[],8,0.75,
7,dot,0.3,['dot'],['density'],black,0,186,186,186,,,67.50022792816162,67.2201669216156,67.52016305923462,dot,"[0.06, 0.06, 0.08, 0.08, 0.1, 0.08, 0.1]","[[-0.23895008888738212, 0.05027357720500052], [0.04847041368780161, 0.3376116924566045], [0.007425979130163878, -0.07582657330311053], [-0.16109724709992976, 0.33554312732420544], [-0.17199436159673825, -0.1887904434853683], [0.1858169564317131, 0.14031933770952934], [-0.038655615351801086, 0.15226176997737048]]",density,black,,,N011,visual,1,[],"['1', '2', '3', '4']",1,2023.2.3,harveyvisual,2.1,[],8,0.75,
0,pause,0.4,None,None,None,0,187,187,187,,,,,,,,,,,,,N011,visual,1,[],"['1', '2', '3', '4']",1,2023.2.3,harveyvisual,2.1,[],8,0.75,
7,dot,0.3,['dot'],['density'],black,0,188,188,188,,,68.20022392272949,67.92015600204468,68.22013092041016,dot,"[0.08, 0.08, 0.08, 0.06, 0.08, 0.1, 0.06]","[[-0.03978284138183809, -0.43963729991580147], [0.2770736023028816, -0.4460091285183096], [0.4264240077257641, -0.26124456405115876], [0.04351789842027954, -0.004572294527936195], [0.08491707485555088, -0.26540219852266356], [0.2274622265833728, -0.10044916879814345], [0.4232844185721205, -0.050742783717769746]]",density,black,,,N011,visual,1,[],"['1', '2', '3', '4']",1,2023.2.3,harveyvisual,2.1,[],8,0.75,
0,pause,0.4,None,None,None,0,189,189,189,,,,,,,,,,,,,N011,visual,1,[],"['1', '2', '3', '4']",1,2023.2.3,harveyvisual,2.1,[],8,0.75,
7,dot,0.3,['dot'],['density'],black,0,190,190,190,,,68.90022706985474,68.62013006210327,68.92013001441956,dot,"[0.1, 0.06, 0.06, 0.1, 0.06, 0.1, 0.08]","[[0.3032073476866497, 0.39528308644852606], [0.12977480624643314, 0.5338553612741447], [-0.07830532742558233, 0.5277294273979773], [0.000705909343175084, 0.04538848857330666], [-0.11442247498636825, 0.3203087976624053], [0.11424952152856681, 0.31372813630522095], [0.2743618672110132, 0.19233036806743029]]",density,black,,,N011,visual,1,[],"['1', '2', '3', '4']",1,2023.2.3,harveyvisual,2.1,[],8,0.75,
0,pause,0.4,None,None,None,0,191,191,191,,,,,,,,,,,,,N011,visual,1,[],"['1', '2', '3', '4']",1,2023.2.3,harveyvisual,2.1,[],8,0.75,
6,dot,0.3,['dot'],['density'],black,0,192,192,192,,,69.60022687911987,69.32012295722961,69.62011194229126,dot,"[0.1, 0.08, 0.06, 0.06, 0.06, 0.06]","[[-0.4836161913484198, -0.3187453071493452], [-0.26471688047626735, -0.2860523134109648], [-0.41762950244179403, 0.08668289631298715], [-0.3878484475239729, -0.1200129628316565], [-0.19654931186518254, -0.017200237521102193], [-0.07523945320955261, -0.19429752312200124]]",density,black,,,N011,visual,1,[],"['1', '2', '3', '4']",1,2023.2.3,harveyvisual,2.1,[],8,0.75,
0,pause,0.4,None,None,None,0,193,193,193,,,,,,,,,,,,,N011,visual,1,[],"['1', '2', '3', '4']",1,2023.2.3,harveyvisual,2.1,[],8,0.75,
6,dot,0.3,['dot'],['density'],black,0,194,194,194,,,70.3002200126648,70.02008891105652,70.32008504867554,dot,"[0.06, 0.06, 0.06, 0.06, 0.1, 0.08]","[[0.5108460974500976, 0.10904555526594768], [0.5033362887342737, -0.29902707163897635], [0.3062164979741722, 0.05793810054487639], [0.22849736264613016, -0.28041776899433873], [0.12909977445373055, -0.06500178518750158], [0.41889526300287094, -0.11616960582105396]]",density,black,,,N011,visual,1,[],"['1', '2', '3', '4']",1,2023.2.3,harveyvisual,2.1,[],8,0.75,
0,pause,0.4,None,None,None,0,195,195,195,,,,,,,,,,,,,N011,visual,1,[],"['1', '2', '3', '4']",1,2023.2.3,harveyvisual,2.1,[],8,0.75,
6,dot,0.3,['dot'],['density'],black,0,196,196,196,,,71.00022506713867,70.72007298469543,71.02006196975708,dot,"[0.06, 0.08, 0.06, 0.08, 0.08, 0.06]","[[0.2333794889108542, 0.5108688068097712], [0.17720399199515413, 0.06488002481085814], [0.3526024925964592, 0.16961020277143707], [0.1596713132306006, 0.321837067503818], [0.0007438407140586783, 0.18344495120876914], [0.42757463853404776, 0.37786691715169374]]",density,black,,,N011,visual,1,[],"['1', '2', '3', '4']",1,2023.2.3,harveyvisual,2.1,[],8,0.75,
0,pause,0.4,None,None,None,0,197,197,197,,,,,,,,,,,,,N011,visual,1,[],"['1', '2', '3', '4']",1,2023.2.3,harveyvisual,2.1,[],8,0.75,
6,dot,0.3,['dot'],['density'],black,0,198,198,198,,,71.70021891593933,71.42005801200867,71.72004890441895,dot,"[0.06, 0.06, 0.08, 0.06, 0.06, 0.1]","[[-0.362545063880459, -0.421860962952156], [-0.24010638466002518, -0.0327569241266412], [-0.22622339336134992, -0.23590116153186103], [-0.41823503972227205, -0.14060420183103206], [-0.028992295722001654, -0.1293578273409096], [-0.1459617666416116, -0.4591052827033254]]",density,black,,,N011,visual,1,[],"['1', '2', '3', '4']",1,2023.2.3,harveyvisual,2.1,[],8,0.75,
0,pause,0.4,None,None,None,0,199,199,199,,,,,,,,,,,,,N011,visual,1,[],"['1', '2', '3', '4']",1,2023.2.3,harveyvisual,2.1,[],8,0.75,
6,dot,0.3,['dot'],['density'],white,0,200,200,200,,,72.40021586418152,72.1200258731842,72.42002606391907,dot,"[0.1, 0.08, 0.06, 0.1, 0.08, 0.08]","[[0.1382403832049451, 0.0462086450304607], [-0.07534018949214154, -0.3274433807795599], [0.3332171610134826, -0.14895102818546319], [0.22614943412716124, -0.3322834867125916], [-0.0756450994425101, -0.005640117700353421], [0.0938048843888254, -0.16909843217532775]]",density,white,,,N011,visual,1,[],"['1', '2', '3', '4']",1,2023.2.3,harveyvisual,2.1,[],8,0.75,
0,pause,0.4,None,None,None,0,201,201,201,,,,,,,,,,,1,72.57624292373657,N011,visual,1,[],"['1', '2', '3', '4']",1,2023.2.3,harveyvisual,2.1,[],8,0.75,
6,dot,0.3,['dot'],['density'],black,0,202,202,202,,,73.10022187232971,72.81999707221985,73.12003803253174,dot,"[0.08, 0.1, 0.08, 0.1, 0.08, 0.1]","[[-0.25199583264674774, 0.1645076628059283], [-0.30980015185235615, -0.30059811601219943], [-0.3416104032120793, -0.08609002542292095], [-0.44539923421558947, 0.10453038353258776], [-0.10444623085343022, 0.0009067836503606603], [-0.5495015018291214, -0.1770200348029928]]",density,black,,,N011,visual,1,[],"['1', '2', '3', '4']",1,2023.2.3,harveyvisual,2.1,[],8,0.75,
0,pause,0.4,None,None,None,0,203,203,203,,,,,,,,,,,,,N011,visual,1,[],"['1', '2', '3', '4']",1,2023.2.3,harveyvisual,2.1,[],8,0.75,
5,dot,0.3,['dot'],['density'],black,0,204,204,204,,,73.80023384094238,73.52003693580627,73.8200900554657,dot,"[0.06, 0.1, 0.08, 0.08, 0.06]","[[-0.07969108163070573, 0.258241044050758], [-0.3301768112222262, 0.22562982972330062], [-0.16453040906828167, -0.1622271318141552], [-0.21753854086321037, 0.04365873274764029], [0.030347216865940038, 0.07834852794011457]]",density,black,,,N011,visual,1,[],"['1', '2', '3', '4']",1,2023.2.3,harveyvisual,2.1,[],8,0.75,
0,pause,0.4,None,None,None,0,205,205,205,,,,,,,,,,,,,N011,visual,1,[],"['1', '2', '3', '4']",1,2023.2.3,harveyvisual,2.1,[],8,0.75,
5,dot,0.3,['dot'],['density'],black,0,206,206,206,,,74.50022387504578,74.21999192237854,74.51998996734619,dot,"[0.06, 0.06, 0.06, 0.08, 0.06]","[[-0.08906257038347729, 0.3326351968500321], [0.2173987091792188, 0.026220721131276364], [0.07996259445097068, 0.4821024141609844], [0.14345365083950706, 0.2501481494916038], [-0.03323208063638199, 0.08804517681276208]]",density,black,,,N011,visual,1,[],"['1', '2', '3', '4']",1,2023.2.3,harveyvisual,2.1,[],8,0.75,
0,pause,0.4,None,None,None,0,207,207,207,,,,,,,,,,,,,N011,visual,1,[],"['1', '2', '3', '4']",1,2023.2.3,harveyvisual,2.1,[],8,0.75,
5,dot,0.3,['dot'],['density'],white,0,208,208,208,,,75.20024490356445,74.92004799842834,75.2205319404602,dot,"[0.06, 0.08, 0.08, 0.08, 0.1]","[[-0.5348211864270219, -0.08335004612931018], [-0.428892633085643, 0.14758700623805307], [-0.3277098387322906, -0.27887202276080253], [-0.29687101947458117, -0.03792463078145938], [-0.23363771935579355, 0.21194794904782605]]",density,white,,,N011,visual,1,[],"['1', '2', '3', '4']",1,2023.2.3,harveyvisual,2.1,[],8,0.75,
0,pause,0.4,None,None,None,0,209,209,209,,,,,,,,,,,1,75.3936231136322,N011,visual,1,[],"['1', '2', '3', '4']",1,2023.2.3,harveyvisual,2.1,[],8,0.75,
5,dot,0.3,['dot'],['density'],black,0,210,210,210,,,75.90023803710938,75.62002086639404,75.91995096206665,dot,"[0.1, 0.08, 0.1, 0.1, 0.08]","[[0.10176071415026891, -0.0029310292721688898], [0.32748853803000494, -0.2831003617774451], [0.10999898603900501, -0.23076615641811304], [0.2383494361888625, 0.16403485824849598], [0.3558293804179042, -0.08171974316418079]]",density,black,,,N011,visual,1,[],"['1', '2', '3', '4']",1,2023.2.3,harveyvisual,2.1,[],8,0.75,
0,pause,0.4,None,None,None,0,211,211,211,,,,,,,,,,,,,N011,visual,1,[],"['1', '2', '3', '4']",1,2023.2.3,harveyvisual,2.1,[],8,0.75,
5,dot,0.3,['dot'],['density'],black,0,212,212,212,,,76.60023188591003,76.3199770450592,76.61996793746948,dot,"[0.1, 0.08, 0.08, 0.1, 0.06]","[[-0.20882687658313398, 0.05979685123170853], [0.07709165915785691, 0.33819008637117026], [0.02323578322535992, 0.12175330968231063], [0.02522363087913582, -0.08718927316059993], [-0.12152044988768049, 0.28453648995279207]]",density,black,,,N011,visual,1,[],"['1', '2', '3', '4']",1,2023.2.3,harveyvisual,2.1,[],8,0.75,
0,pause,0.4,None,None,None,0,213,213,213,,,,,,,,,,,,,N011,visual,1,[],"['1', '2', '3', '4']",1,2023.2.3,harveyvisual,2.1,[],8,0.75,
5,dot,0.3,['dot'],['density'],white,0,214,214,214,,,77.30021595954895,77.02007102966309,77.32012486457825,dot,"[0.08, 0.08, 0.1, 0.06, 0.06]","[[-0.4004020094395207, -0.04445243948850948], [-0.17181756668418613, -0.18180129995893848], [-0.46264198425852476, 0.17889071841303528], [-0.23640824159873003, 0.08340028676903545], [-0.2824747884808712, 0.2826805534387526]]",density,white,,,N011,visual,1,[],"['1', '2', '3', '4']",1,2023.2.3,harveyvisual,2.1,[],8,0.75,
0,pause,0.4,None,None,None,0,215,215,215,,,,,,,,,,,1,77.49903702735901,N011,visual,1,[],"['1', '2', '3', '4']",1,2023.2.3,harveyvisual,2.1,[],8,0.75,
4,dot,0.3,['dot'],['density'],white,0,216,216,216,,,78.00023603439331,77.72007203102112,78.02007484436035,dot,"[0.08, 0.1, 0.1, 0.1]","[[0.1665887267295909, 0.08389582001604734], [0.4584359263982055, 0.26405512465689546], [0.4157764543415929, 0.03513878013061779], [0.2392225064082761, 0.29777239984320175]]",density,white,,,N011,visual,1,[],"['1', '2', '3', '4']",1,2023.2.3,harveyvisual,2.1,[],8,0.75,
0,pause,0.4,None,None,None,0,217,217,217,,,,,,,,,,,1,78.14413404464722,N011,visual,1,[],"['1', '2', '3', '4']",1,2023.2.3,harveyvisual,2.1,[],8,0.75,
4,dot,0.3,['dot'],['density'],black,0,218,218,218,,,78.70021986961365,78.42012906074524,78.72013092041016,dot,"[0.06, 0.08, 0.06, 0.08]","[[0.010836700166572746, 0.3385055392368038], [-0.21755291078517647, 0.23172276430217797], [0.04881011250022837, 0.13413393103699342], [-0.16894730197854985, 0.4434327172909165]]",density,black,,,N011,visual,1,[],"['1', '2', '3', '4']",1,2023.2.3,harveyvisual,2.1,[],8,0.75,
0,pause,0.4,None,None,None,0,219,219,219,,,,,,,,,,,,,N011,visual,1,[],"['1', '2', '3', '4']",1,2023.2.3,harveyvisual,2.1,[],8,0.75,
4,dot,0.3,['dot'],['density'],black,0,220,220,220,,,79.40022492408752,79.1200909614563,79.42008399963379,dot,"[0.1, 0.08, 0.06, 0.1]","[[0.010836700166572746, 0.3385055392368038], [-0.21755291078517647, 0.23172276430217797], [0.04881011250022837, 0.13413393103699342], [-0.16894730197854985, 0.4434327172909165]]",density,black,,,N011,visual,1,[],"['1', '2', '3', '4']",1,2023.2.3,harveyvisual,2.1,[],8,0.75,
0,pause,0.4,None,None,None,0,221,221,221,,,,,,,,,,,,,N011,visual,1,[],"['1', '2', '3', '4']",1,2023.2.3,harveyvisual,2.1,[],8,0.75,
4,dot,0.3,['dot'],['density'],black,0,222,222,222,,,80.10024189949036,79.81986904144287,80.11985993385315,dot,"[0.08, 0.08, 0.06, 0.1]","[[-0.264878088602857, 0.22906395790450432], [0.07239228809704809, 0.2615492699427171], [0.10034738543262733, 0.4676118263175188], [-0.09637524959065707, 0.3769302803343899]]",density,black,,,N011,visual,1,[],"['1', '2', '3', '4']",1,2023.2.3,harveyvisual,2.1,[],8,0.75,
0,pause,0.4,None,None,None,0,223,223,223,,,,,,,,,,,,,N011,visual,1,[],"['1', '2', '3', '4']",1,2023.2.3,harveyvisual,2.1,[],8,0.75,
4,dot,0.3,['dot'],['density'],black,0,224,224,224,,,80.80022406578064,80.51999092102051,80.81984996795654,dot,"[0.08, 0.08, 0.1, 0.06]","[[-0.03907102058372138, -0.1723346686752248], [0.13255167928633116, -0.03782047714335622], [0.2720101467217329, -0.23443565690461937], [0.07080951743106016, -0.35239766365090747]]",density,black,,,N011,visual,1,[],"['1', '2', '3', '4']",1,2023.2.3,harveyvisual,2.1,[],8,0.75,
0,pause,0.4,None,None,None,0,225,225,225,,,,,,,,,,,,,N011,visual,1,[],"['1', '2', '3', '4']",1,2023.2.3,harveyvisual,2.1,[],8,0.75,
4,dot,0.3,['dot'],['density'],black,0,226,226,226,,,81.50022196769714,81.21980285644531,81.51975297927856,dot,"[0.06, 0.06, 0.1, 0.08]","[[0.08172100217045614, 0.5402562525463245], [-0.024891988969352973, 0.31595276793208527], [-0.14685316472848742, 0.5184788481920529], [-0.2646655063210597, 0.3159281349431851]]",density,black,,,N011,visual,1,[],"['1', '2', '3', '4']",1,2023.2.3,harveyvisual,2.1,[],8,0.75,
0,pause,0.4,None,None,None,0,227,227,227,,,,,,,,,,,,,N011,visual,1,[],"['1', '2', '3', '4']",1,2023.2.3,harveyvisual,2.1,[],8,0.75,
3,dot,0.3,['dot'],['density'],black,0,228,228,228,,,82.20022487640381,81.91975593566895,82.21974301338196,dot,"[0.1, 0.08, 0.08]","[[0.023581383320217864, -0.14485493475327696], [-0.06776129410461201, 0.04872406380669356], [0.14236151446293968, 0.029671970014602284]]",density,black,,,N011,visual,1,[],"['1', '2', '3', '4']",1,2023.2.3,harveyvisual,2.1,[],8,0.75,
0,pause,0.4,None,None,None,0,229,229,229,,,,,,,,,,,,,N011,visual,1,[],"['1', '2', '3', '4']",1,2023.2.3,harveyvisual,2.1,[],8,0.75,
3,dot,0.3,['dot'],['density'],black,0,230,230,230,,,82.90024185180664,82.61974787712097,82.91972398757935,dot,"[0.1, 0.1, 0.1]","[[-0.17720328293608806, -0.4514300161601115], [0.022754438065530718, -0.42143894503716073], [-0.10940085810899225, -0.24791511077847575]]",density,black,,,N011,visual,1,[],"['1', '2', '3', '4']",1,2023.2.3,harveyvisual,2.1,[],8,0.75,
0,pause,0.4,None,None,None,0,231,231,231,,,,,,,,,,,,,N011,visual,1,[],"['1', '2', '3', '4']",1,2023.2.3,harveyvisual,2.1,[],8,0.75,
3,dot,0.3,['dot'],['density'],black,0,232,232,232,,,83.60022401809692,83.31971096992493,83.61971402168274,dot,"[0.1, 0.1, 0.08]","[[0.5267872668145167, -0.16137547842759675], [0.3420119191573968, -0.036920749927643534], [0.3185462880061428, -0.2399114968218526]]",density,black,,,N011,visual,1,[],"['1', '2', '3', '4']",1,2023.2.3,harveyvisual,2.1,[],8,0.75,
0,pause,0.4,None,None,None,0,233,233,233,,,,,,,,,,,,,N011,visual,1,[],"['1', '2', '3', '4']",1,2023.2.3,harveyvisual,2.1,[],8,0.75,
3,dot,0.3,['dot'],['density'],black,0,234,234,234,,,84.3002359867096,84.01969194412231,84.31968903541565,dot,"[0.1, 0.1, 0.08]","[[0.29938275938101017, 0.44415474715472736], [0.13070782598704628, 0.5557174004537693], [0.11832456902218637, 0.3273615767427578]]",density,black,,,N011,visual,1,[],"['1', '2', '3', '4']",1,2023.2.3,harveyvisual,2.1,[],8,0.75,
0,pause,0.4,None,None,None,0,235,235,235,,,,,,,,,,,,,N011,visual,1,[],"['1', '2', '3', '4']",1,2023.2.3,harveyvisual,2.1,[],8,0.75,
3,dot,0.3,['dot'],['density'],white,0,236,236,236,,,85.0002429485321,84.71968984603882,85.01967406272888,dot,"[0.06, 0.1, 0.1]","[[-0.05604225559701161, -0.5082314702914299], [0.10137377066920354, -0.3837858820064252], [-0.12802807887251882, -0.3142638921214105]]",density,white,,,N011,visual,1,[],"['1', '2', '3', '4']",1,2023.2.3,harveyvisual,2.1,[],8,0.75,
0,pause,0.4,None,None,None,0,237,237,237,,,,,,,,,,,1,85.08575391769409,N011,visual,1,[],"['1', '2', '3', '4']",1,2023.2.3,harveyvisual,2.1,[],8,0.75,
3,dot,0.3,['dot'],['density'],black,0,238,238,238,,,85.70023703575134,85.41966605186462,85.71966004371643,dot,"[0.06, 0.1, 0.08]","[[-0.17592395544936776, 0.40510565415719324], [-0.30566154612550034, 0.21848422264492345], [-0.39822260978708685, 0.43144058222919995]]",density,black,,,N011,visual,1,[],"['1', '2', '3', '4']",1,2023.2.3,harveyvisual,2.1,[],8,0.75,
0,pause,0.4,None,None,None,0,239,239,239,,,,,,,,,,,,,N011,visual,1,[],"['1', '2', '3', '4']",1,2023.2.3,harveyvisual,2.1,[],8,0.75,
2,dot,0.3,['dot'],['density'],black,0,240,240,240,,,86.40024185180664,86.11964297294617,86.4196310043335,dot,"[0.06, 0.08]","[[-0.020654750029313704, 0.3891656546739414], [-0.0007759068931318763, 0.19000611836641118]]",density,black,,,N011,visual,1,[],"['1', '2', '3', '4']",1,2023.2.3,harveyvisual,2.1,[],8,0.75,
0,pause,0.4,None,None,None,0,241,241,241,,,,,,,,,,,,,N011,visual,1,[],"['1', '2', '3', '4']",1,2023.2.3,harveyvisual,2.1,[],8,0.75,
2,dot,0.3,['dot'],['density'],black,0,242,242,242,,,87.10022592544556,86.81962299346924,87.11961007118225,dot,"[0.08, 0.1]","[[-0.4149324818804315, 0.28007444048998836], [-0.5260390884397633, 0.11347960973083408]]",density,black,,,N011,visual,1,[],"['1', '2', '3', '4']",1,2023.2.3,harveyvisual,2.1,[],8,0.75,
0,pause,0.4,None,None,None,0,243,243,243,,,,,,,,,,,,,N011,visual,1,[],"['1', '2', '3', '4']",1,2023.2.3,harveyvisual,2.1,[],8,0.75,
2,dot,0.3,['dot'],['density'],black,0,244,244,244,,,87.80023193359375,87.51959800720215,87.81962585449219,dot,"[0.1, 0.06]","[[0.17083311991776792, -0.05558111512160733], [0.1461049568064877, -0.25438559320493304]]",density,black,,,N011,visual,1,[],"['1', '2', '3', '4']",1,2023.2.3,harveyvisual,2.1,[],8,0.75,
0,pause,0.4,None,None,None,0,245,245,245,,,,,,,,,,,,,N011,visual,1,[],"['1', '2', '3', '4']",1,2023.2.3,harveyvisual,2.1,[],8,0.75,
2,dot,0.3,['dot'],['density'],black,0,246,246,246,,,88.50023102760315,88.21961402893066,88.51963901519775,dot,"[0.06, 0.08]","[[0.5159928458027473, 0.13749655768121952], [0.38343727829172375, 0.28833164788761484]]",density,black,,,N011,visual,1,[],"['1', '2', '3', '4']",1,2023.2.3,harveyvisual,2.1,[],8,0.75,
0,pause,0.4,None,None,None,0,247,247,247,,,,,,,,,,,,,N011,visual,1,[],"['1', '2', '3', '4']",1,2023.2.3,harveyvisual,2.1,[],8,0.75,
2,dot,0.3,['dot'],['density'],black,0,248,248,248,,,89.20024991035461,88.91962194442749,89.21961903572083,dot,"[0.06, 0.1]","[[0.510744558366804, -0.07965895932329134], [0.5183014925016622, -0.2796299572401246]]",density,black,,,N011,visual,1,[],"['1', '2', '3', '4']",1,2023.2.3,harveyvisual,2.1,[],8,0.75,
0,pause,0.4,None,None,None,0,249,249,249,,,,,,,,,,,,,N011,visual,1,[],"['1', '2', '3', '4']",1,2023.2.3,harveyvisual,2.1,[],8,0.75,
2,dot,0.3,['dot'],['density'],white,0,250,250,250,,,89.90022706985474,89.6196060180664,89.91958999633789,dot,"[0.1, 0.1]","[[-0.5356907773971091, -0.01454049690556478], [-0.3936553319468624, 0.1263392020735458]]",density,white,,,N011,visual,1,[],"['1', '2', '3', '4']",1,2023.2.3,harveyvisual,2.1,[],8,0.75,
0,pause,0.4,None,None,None,0,251,251,251,,,,,,,,,,,1,90.03441309928894,N011,visual,1,[],"['1', '2', '3', '4']",1,2023.2.3,harveyvisual,2.1,[],8,0.75,
1,dot,0.3,['dot'],['density'],black,0,252,252,252,,,90.60022187232971,90.31959700584412,90.61958193778992,dot,[0.1],"[-0.4519365434524677, 0.22287683068434597]",density,black,,,N011,visual,1,[],"['1', '2', '3', '4']",1,2023.2.3,harveyvisual,2.1,[],8,0.75,
0,pause,0.4,None,None,None,0,253,253,253,,,,,,,,,,,,,N011,visual,1,[],"['1', '2', '3', '4']",1,2023.2.3,harveyvisual,2.1,[],8,0.75,
1,dot,0.3,['dot'],['density'],black,0,254,254,254,,,91.30024194717407,91.01966786384583,91.31966590881348,dot,[0.1],"[0.2443568370277045, -0.23874091154858243]",density,black,,,N011,visual,1,[],"['1', '2', '3', '4']",1,2023.2.3,harveyvisual,2.1,[],8,0.75,
0,pause,0.4,None,None,None,0,255,255,255,,,,,,,,,,,,,N011,visual,1,[],"['1', '2', '3', '4']",1,2023.2.3,harveyvisual,2.1,[],8,0.75,
1,dot,0.3,['dot'],['density'],black,0,256,256,256,,,92.00025296211243,91.71951985359192,92.01963686943054,dot,[0.06],"[0.4765699730395091, 0.34560502551113614]",density,black,,,N011,visual,1,[],"['1', '2', '3', '4']",1,2023.2.3,harveyvisual,2.1,[],8,0.75,
0,pause,0.4,None,None,None,0,257,257,257,,,,,,,,,,,,,N011,visual,1,[],"['1', '2', '3', '4']",1,2023.2.3,harveyvisual,2.1,[],8,0.75,
1,dot,0.3,['dot'],['density'],black,0,258,258,258,,,92.70022797584534,92.4194860458374,92.71961188316345,dot,[0.1],"[0.31457923939875737, -0.4122609730770665]",density,black,,,N011,visual,1,[],"['1', '2', '3', '4']",1,2023.2.3,harveyvisual,2.1,[],8,0.75,
0,pause,0.4,None,None,None,0,259,259,259,,,,,,,,,,,,,N011,visual,1,[],"['1', '2', '3', '4']",1,2023.2.3,harveyvisual,2.1,[],8,0.75,
1,dot,0.3,['dot'],['density'],black,0,260,260,260,,,93.40023303031921,93.11946988105774,93.41960406303406,dot,[0.08],"[-0.3678067964802796, -0.3513177213804687]",density,black,,,N011,visual,1,[],"['1', '2', '3', '4']",1,2023.2.3,harveyvisual,2.1,[],8,0.75,
0,pause,0.4,None,None,None,0,261,261,261,,,,,,,,,,,,,N011,visual,1,[],"['1', '2', '3', '4']",1,2023.2.3,harveyvisual,2.1,[],8,0.75,
1,dot,0.3,['dot'],['density'],black,0,262,262,262,,,94.10025095939636,93.81960701942444,94.1194589138031,dot,[0.06],"[0.0038807231877187303, -0.2777732366953785]",density,black,,,N011,visual,1,[],"['1', '2', '3', '4']",1,2023.2.3,harveyvisual,2.1,[],8,0.75,
0,pause,0.4,None,None,None,0,263,263,263,,,,,,,,,,,,,N011,visual,1,[],"['1', '2', '3', '4']",1,2023.2.3,harveyvisual,2.1,[],8,0.75,
20,dot,0.3,['dot'],['density'],black,0,264,264,264,,,94.80022192001343,94.519602060318,94.81958484649658,dot,"[0.06, 0.08, 0.06, 0.1, 0.08, 0.08, 0.06, 0.08, 0.08, 0.06, 0.08, 0.1, 0.1, 0.06, 0.08, 0.08, 0.1, 0.06, 0.06, 0.08]","[[-0.09156663386651542, -0.39230435295107396], [0.36263132985531965, -0.28785239484840575], [0.0012793535651109966, 0.2336282984635395], [-0.5905051719837159, 0.07782786866914199], [-0.1162105270329955, 0.5256713599455589], [-0.3842209646777832, 0.0593427035578481], [0.24182854447035573, 0.5217561198173455], [0.308938488091306, 0.2620622245349046], [-0.5639291654579925, -0.18469776275715338], [-0.39292298428554906, 0.3856665315345534], [-0.35459374842082586, -0.43270622302914896], [-0.23202210207093243, -0.2483020395697958], [0.20501621818614824, -0.47343590481117304], [-0.08065337772797398, -0.05365176466635069], [0.1777639678808044, -0.015974978229993386], [0.4197523434124494, 0.08818436213294734], [0.5763645072017681, -0.07064644008577312], [0.14339892310065105, -0.24807343242057056], [-0.18734476695150865, 0.13880440332276156], [0.5088761672880923, 0.2717621079966554]]",density,black,,,N011,visual,1,[],"['1', '2', '3', '4']",1,2023.2.3,harveyvisual,2.1,[],8,0.75,
0,pause,0.4,None,None,None,0,265,265,265,,,,,,,,,,,,,N011,visual,1,[],"['1', '2', '3', '4']",1,2023.2.3,harveyvisual,2.1,[],8,0.75,
20,dot,0.3,['dot'],['density'],white,0,266,266,266,,,95.50024604797363,95.21960186958313,95.51937794685364,dot,"[0.1, 0.06, 0.1, 0.06, 0.06, 0.08, 0.1, 0.06, 0.1, 0.06, 0.08, 0.06, 0.08, 0.06, 0.06, 0.08, 0.06, 0.08, 0.06, 0.06]","[[-0.493017323324537, 0.17482223758242466], [-0.35184446982225404, -0.3427027323306172], [0.21807995698751015, 0.13814452080855344], [0.24691294228570393, -0.5212351675676188], [-0.5324638330926645, -0.04923964850697904], [0.541420613036295, -0.17139089289415327], [0.07773584166810465, -0.32071811434380776], [0.36242996522307036, -0.3470165201286038], [0.4463510233176825, 0.20982174394980724], [0.03433185302974395, -0.13261097602096306], [-0.336567191558987, -0.10258439434100342], [0.31171129401037867, 0.35296120557085653], [0.586927951950159, 0.05832026886908748], [-0.06548946624077301, 0.13069982498399413], [-0.1544548265139583, -0.5016635675982183], [-0.21794978826510442, 0.2804257278088723], [0.11180801560581755, 0.4660769812903651], [-0.20120144814092739, 0.5021192883378668], [-0.17486607655912573, -0.21411268081893808], [-0.47441818284625664, 0.3703535972683015]]",density,white,,,N011,visual,1,[],"['1', '2', '3', '4']",1,2023.2.3,harveyvisual,2.1,[],8,0.75,
0,pause,0.4,None,None,None,0,267,267,267,,,,,,,,,,,1,95.73110103607178,N011,visual,1,[],"['1', '2', '3', '4']",1,2023.2.3,harveyvisual,2.1,[],8,0.75,
