num,mod,duration,shape,ll_cond,colors,.thisRepN,.thisTrialN,.thisN,.thisIndex,thisRow.t,notes,raw_global_time,t_start,t_stop,shapes,size,pos,cond,color,button,RT,participant,session,starting_run,left button (match/odd),right button (non-match/even),samples_per_block,psychopy version,expName,offset,audio,number_runs,radius,
1,dot,0.3,['dot'],['density'],black,0,0,0,0,,,2.400207042694092,2.114197015762329,2.4141650199890137,dot,[0.06],"[-0.30422713965878023, 0.0739284850406325]",density,black,,,N011,visual,6,[],"['1', '2', '3', '4']",1,2023.2.3,harveyvisual,2.1,[],8,0.75,
0,pause,0.4,None,None,None,0,1,1,1,,,,,,,,,,,,,N011,visual,6,[],"['1', '2', '3', '4']",1,2023.2.3,harveyvisual,2.1,[],8,0.75,
1,dot,0.3,['dot'],['density'],black,0,2,2,2,,,3.100196123123169,2.814229965209961,3.11519193649292,dot,[0.08],"[-0.3631366314731191, 0.1590646049745197]",density,black,,,N011,visual,6,[],"['1', '2', '3', '4']",1,2023.2.3,harveyvisual,2.1,[],8,0.75,
0,pause,0.4,None,None,None,0,3,3,3,,,,,,,,,,,,,N011,visual,6,[],"['1', '2', '3', '4']",1,2023.2.3,harveyvisual,2.1,[],8,0.75,
1,dot,0.3,['dot'],['density'],black,0,4,4,4,,,3.8002121448516846,3.5146520137786865,3.8151979446411133,dot,[0.08],"[-0.00037526000000685745, -0.027921386894572527]",density,black,,,N011,visual,6,[],"['1', '2', '3', '4']",1,2023.2.3,harveyvisual,2.1,[],8,0.75,
0,pause,0.4,None,None,None,0,5,5,5,,,,,,,,,,,,,N011,visual,6,[],"['1', '2', '3', '4']",1,2023.2.3,harveyvisual,2.1,[],8,0.75,
1,dot,0.3,['dot'],['density'],black,0,6,6,6,,,4.5001890659332275,4.215119123458862,4.514724016189575,dot,[0.1],"[-0.0300711363278092, -0.16168860719337894]",density,black,,,N011,visual,6,[],"['1', '2', '3', '4']",1,2023.2.3,harveyvisual,2.1,[],8,0.75,
0,pause,0.4,None,None,None,0,7,7,7,,,,,,,,,,,,,N011,visual,6,[],"['1', '2', '3', '4']",1,2023.2.3,harveyvisual,2.1,[],8,0.75,
1,dot,0.3,['dot'],['density'],black,0,8,8,8,,,5.200196027755737,4.914703130722046,5.214537143707275,dot,[0.08],"[0.01430498756481247, 0.36429701967127975]",density,black,,,N011,visual,6,[],"['1', '2', '3', '4']",1,2023.2.3,harveyvisual,2.1,[],8,0.75,
0,pause,0.4,None,None,None,0,9,9,9,,,,,,,,,,,,,N011,visual,6,[],"['1', '2', '3', '4']",1,2023.2.3,harveyvisual,2.1,[],8,0.75,
1,dot,0.3,['dot'],['density'],black,0,10,10,10,,,5.900187969207764,5.616842985153198,5.916821002960205,dot,[0.08],"[0.4765699730395091, 0.34560502551113614]",density,black,,,N011,visual,6,[],"['1', '2', '3', '4']",1,2023.2.3,harveyvisual,2.1,[],8,0.75,
0,pause,0.4,None,None,None,0,11,11,11,,,,,,,,,,,,,N011,visual,6,[],"['1', '2', '3', '4']",1,2023.2.3,harveyvisual,2.1,[],8,0.75,
2,dot,0.3,['dot'],['density'],black,0,12,12,12,,,6.600212097167969,6.3168089389801025,6.61690092086792,dot,"[0.06, 0.06]","[[0.2713647219188039, -0.029235290058335472], [0.46697437826705046, 0.014145112521712659]]",density,black,,,N011,visual,6,[],"['1', '2', '3', '4']",1,2023.2.3,harveyvisual,2.1,[],8,0.75,
0,pause,0.4,None,None,None,0,13,13,13,,,,,,,,,,,,,N011,visual,6,[],"['1', '2', '3', '4']",1,2023.2.3,harveyvisual,2.1,[],8,0.75,
2,dot,0.3,['dot'],['density'],black,0,14,14,14,,,7.300189971923828,7.016798973083496,7.316802024841309,dot,"[0.08, 0.06]","[[-0.1809096912417549, 0.4542701565657042], [0.018526046348631375, 0.4698330185089162]]",density,black,,,N011,visual,6,[],"['1', '2', '3', '4']",1,2023.2.3,harveyvisual,2.1,[],8,0.75,
0,pause,0.4,None,None,None,0,15,15,15,,,,,,,,,,,,,N011,visual,6,[],"['1', '2', '3', '4']",1,2023.2.3,harveyvisual,2.1,[],8,0.75,
2,dot,0.3,['dot'],['density'],black,0,16,16,16,,,8.000191926956177,7.716794013977051,8.01676607131958,dot,"[0.1, 0.08]","[[-0.03288134563171543, -0.4238564918242606], [-0.10611641736664675, -0.2370354775439666]]",density,black,,,N011,visual,6,[],"['1', '2', '3', '4']",1,2023.2.3,harveyvisual,2.1,[],8,0.75,
0,pause,0.4,None,None,None,0,17,17,17,,,,,,,,,,,,,N011,visual,6,[],"['1', '2', '3', '4']",1,2023.2.3,harveyvisual,2.1,[],8,0.75,
2,dot,0.3,['dot'],['density'],black,0,18,18,18,,,8.700209140777588,8.416774034500122,8.71674394607544,dot,"[0.08, 0.1]","[[-0.20887660672828282, 0.3399455197969581], [-0.34272369919491674, 0.19089688818271272]]",density,black,,,N011,visual,6,[],"['1', '2', '3', '4']",1,2023.2.3,harveyvisual,2.1,[],8,0.75,
0,pause,0.4,None,None,None,0,19,19,19,,,,,,,,,,,,,N011,visual,6,[],"['1', '2', '3', '4']",1,2023.2.3,harveyvisual,2.1,[],8,0.75,
2,dot,0.3,['dot'],['density'],black,0,20,20,20,,,9.400208950042725,9.11673903465271,9.416726112365723,dot,"[0.06, 0.1]","[[0.24818458179829028, -0.5230613829255512], [0.05315527151035717, -0.47711981276458415]]",density,black,,,N011,visual,6,[],"['1', '2', '3', '4']",1,2023.2.3,harveyvisual,2.1,[],8,0.75,
0,pause,0.4,None,None,None,0,21,21,21,,,,,,,,,,,,,N011,visual,6,[],"['1', '2', '3', '4']",1,2023.2.3,harveyvisual,2.1,[],8,0.75,
2,dot,0.3,['dot'],['density'],black,0,22,22,22,,,10.100206136703491,9.816736936569214,10.116703033447266,dot,"[0.08, 0.1]","[[0.11437717294043931, -0.408092871188616], [0.012734947149558614, -0.23578585574018435]]",density,black,,,N011,visual,6,[],"['1', '2', '3', '4']",1,2023.2.3,harveyvisual,2.1,[],8,0.75,
0,pause,0.4,None,None,None,0,23,23,23,,,,,,,,,,,,,N011,visual,6,[],"['1', '2', '3', '4']",1,2023.2.3,harveyvisual,2.1,[],8,0.75,
3,dot,0.3,['dot'],['density'],black,0,24,24,24,,,10.800199031829834,10.51671314239502,10.816741943359375,dot,"[0.08, 0.1, 0.1]","[[0.06695044750400271, -0.4036822973150869], [0.2898428615912539, -0.43752325319744867], [0.2484486434572057, -0.2241911098289173]]",density,black,,,N011,visual,6,[],"['1', '2', '3', '4']",1,2023.2.3,harveyvisual,2.1,[],8,0.75,
0,pause,0.4,None,None,None,0,25,25,25,,,,,,,,,,,,,N011,visual,6,[],"['1', '2', '3', '4']",1,2023.2.3,harveyvisual,2.1,[],8,0.75,
3,dot,0.3,['dot'],['density'],black,0,26,26,26,,,11.500200033187866,11.216679096221924,11.516654014587402,dot,"[0.08, 0.06, 0.06]","[[0.315495050057846, 0.10724904305018564], [0.5180852452909619, 0.013799590611742229], [0.3819545826159732, -0.1334380777916547]]",density,black,,,N011,visual,6,[],"['1', '2', '3', '4']",1,2023.2.3,harveyvisual,2.1,[],8,0.75,
0,pause,0.4,None,None,None,0,27,27,27,,,,,,,,,,,,,N011,visual,6,[],"['1', '2', '3', '4']",1,2023.2.3,harveyvisual,2.1,[],8,0.75,
3,dot,0.3,['dot'],['density'],black,0,28,28,28,,,12.200207948684692,11.91667914390564,12.216650009155273,dot,"[0.1, 0.1, 0.08]","[[-0.3391924794566746, 0.43027756448319565], [-0.33080415183405026, 0.2112686575961512], [-0.14277619127331137, 0.29962579604826906]]",density,black,,,N011,visual,6,[],"['1', '2', '3', '4']",1,2023.2.3,harveyvisual,2.1,[],8,0.75,
0,pause,0.4,None,None,None,0,29,29,29,,,,,,,,,,,,,N011,visual,6,[],"['1', '2', '3', '4']",1,2023.2.3,harveyvisual,2.1,[],8,0.75,
3,dot,0.3,['dot'],['density'],white,0,30,30,30,,,12.900196075439453,12.616647005081177,12.916688919067383,dot,"[0.1, 0.08, 0.1]","[[-0.3391924794566746, 0.43027756448319565], [-0.33080415183405026, 0.2112686575961512], [-0.14277619127331137, 0.29962579604826906]]",density,white,,,N011,visual,6,[],"['1', '2', '3', '4']",1,2023.2.3,harveyvisual,2.1,[],8,0.75,
0,pause,0.4,None,None,None,0,31,31,31,,,,,,,,,,,1,13.119704008102417,N011,visual,6,[],"['1', '2', '3', '4']",1,2023.2.3,harveyvisual,2.1,[],8,0.75,
3,dot,0.3,['dot'],['density'],black,0,32,32,32,,,13.60019302368164,13.31663203239441,13.616613149642944,dot,"[0.08, 0.1, 0.08]","[[-0.5599668940784417, -0.1503624274944763], [-0.33715825845103314, -0.1742393560729378], [-0.447658281307079, 0.035586458508876644]]",density,black,,,N011,visual,6,[],"['1', '2', '3', '4']",1,2023.2.3,harveyvisual,2.1,[],8,0.75,
0,pause,0.4,None,None,None,0,33,33,33,,,,,,,,,,,,,N011,visual,6,[],"['1', '2', '3', '4']",1,2023.2.3,harveyvisual,2.1,[],8,0.75,
3,dot,0.3,['dot'],['density'],black,0,34,34,34,,,14.30019497871399,14.016629934310913,14.316586971282959,dot,"[0.06, 0.1, 0.1]","[[-0.17720328293608806, -0.4514300161601115], [0.022754438065530718, -0.42143894503716073], [-0.10940085810899225, -0.24791511077847575]]",density,black,,,N011,visual,6,[],"['1', '2', '3', '4']",1,2023.2.3,harveyvisual,2.1,[],8,0.75,
0,pause,0.4,None,None,None,0,35,35,35,,,,,,,,,,,,,N011,visual,6,[],"['1', '2', '3', '4']",1,2023.2.3,harveyvisual,2.1,[],8,0.75,
4,dot,0.3,['dot'],['density'],white,0,36,36,36,,,15.000198125839233,14.716592073440552,15.01659607887268,dot,"[0.06, 0.08, 0.06, 0.08]","[[-0.4116264312708952, 0.16775371224632304], [-0.5618780911112883, -0.04134114392370045], [-0.3363713887364365, -0.04915619770205748], [-0.48212301157369764, -0.2249233832905235]]",density,white,,,N011,visual,6,[],"['1', '2', '3', '4']",1,2023.2.3,harveyvisual,2.1,[],8,0.75,
0,pause,0.4,None,None,None,0,37,37,37,,,,,,,,,,,1,15.19275712966919,N011,visual,6,[],"['1', '2', '3', '4']",1,2023.2.3,harveyvisual,2.1,[],8,0.75,
4,dot,0.3,['dot'],['density'],black,0,38,38,38,,,15.70020604133606,15.416558980941772,15.716601133346558,dot,"[0.08, 0.1, 0.06, 0.1]","[[0.15462156444594843, 0.0379601134824338], [-0.046642739949193296, 0.06510400621286498], [0.12320708371464141, 0.2499967514902957], [-0.13279798436850673, 0.2624558601457805]]",density,black,,,N011,visual,6,[],"['1', '2', '3', '4']",1,2023.2.3,harveyvisual,2.1,[],8,0.75,
0,pause,0.4,None,None,None,0,39,39,39,,,,,,,,,,,,,N011,visual,6,[],"['1', '2', '3', '4']",1,2023.2.3,harveyvisual,2.1,[],8,0.75,
4,dot,0.3,['dot'],['density'],black,0,40,40,40,,,16.400208950042725,16.117563009262085,16.41669511795044,dot,"[0.08, 0.06, 0.06, 0.1]","[[0.010836700166572746, 0.3385055392368038], [-0.21755291078517647, 0.23172276430217797], [0.04881011250022837, 0.13413393103699342], [-0.16894730197854985, 0.4434327172909165]]",density,black,,,N011,visual,6,[],"['1', '2', '3', '4']",1,2023.2.3,harveyvisual,2.1,[],8,0.75,
0,pause,0.4,None,None,None,0,41,41,41,,,,,,,,,,,,,N011,visual,6,[],"['1', '2', '3', '4']",1,2023.2.3,harveyvisual,2.1,[],8,0.75,
4,dot,0.3,['dot'],['density'],black,0,42,42,42,,,17.100191116333008,16.816707134246826,17.116503953933716,dot,"[0.1, 0.08, 0.08, 0.08]","[[-0.5372831058023291, 0.07679305146548565], [-0.47746952625478134, -0.11455356156484316], [-0.2888199447118168, 0.02804534169422597], [-0.3317661241759115, -0.2533775510137967]]",density,black,,,N011,visual,6,[],"['1', '2', '3', '4']",1,2023.2.3,harveyvisual,2.1,[],8,0.75,
0,pause,0.4,None,None,None,0,43,43,43,,,,,,,,,,,,,N011,visual,6,[],"['1', '2', '3', '4']",1,2023.2.3,harveyvisual,2.1,[],8,0.75,
4,dot,0.3,['dot'],['density'],black,0,44,44,44,,,17.800213098526,17.516562938690186,17.81668210029602,dot,"[0.08, 0.06, 0.1, 0.06]","[[0.3510671072586959, 0.39105757673094776], [0.13754249634966464, 0.24690230999823115], [0.2791454519284172, 0.028997379515453933], [0.42442503262497266, 0.18132357243737673]]",density,black,,,N011,visual,6,[],"['1', '2', '3', '4']",1,2023.2.3,harveyvisual,2.1,[],8,0.75,
0,pause,0.4,None,None,None,0,45,45,45,,,,,,,,,,,,,N011,visual,6,[],"['1', '2', '3', '4']",1,2023.2.3,harveyvisual,2.1,[],8,0.75,
4,dot,0.3,['dot'],['density'],black,0,46,46,46,,,18.50019407272339,18.21667194366455,18.516653060913086,dot,"[0.08, 0.08, 0.06, 0.06]","[[0.06081986304483943, 0.35358512719402324], [0.4232304195196481, 0.14579533924648716], [0.12419639750553536, 0.133833625718984], [0.26609561976711055, 0.2970795792082364]]",density,black,,,N011,visual,6,[],"['1', '2', '3', '4']",1,2023.2.3,harveyvisual,2.1,[],8,0.75,
0,pause,0.4,None,None,None,0,47,47,47,,,,,,,,,,,,,N011,visual,6,[],"['1', '2', '3', '4']",1,2023.2.3,harveyvisual,2.1,[],8,0.75,
5,dot,0.3,['dot'],['density'],black,0,48,48,48,,,19.200200080871582,18.91649293899536,19.21651291847229,dot,"[0.1, 0.1, 0.06, 0.06, 0.08]","[[0.2947939438731228, -0.23060267152592065], [-0.16069394766121817, -0.3416383267983795], [0.17571447256805817, -0.04795497140357211], [-0.06398416024856234, -0.043165972544212804], [0.046845399773749824, -0.2436216536023896]]",density,black,,,N011,visual,6,[],"['1', '2', '3', '4']",1,2023.2.3,harveyvisual,2.1,[],8,0.75,
0,pause,0.4,None,None,None,0,49,49,49,,,,,,,,,,,,,N011,visual,6,[],"['1', '2', '3', '4']",1,2023.2.3,harveyvisual,2.1,[],8,0.75,
5,dot,0.3,['dot'],['density'],white,0,50,50,50,,,19.900201082229614,19.616621017456055,19.9166100025177,dot,"[0.08, 0.06, 0.08, 0.08, 0.06]","[[-0.4709100701083565, 0.02189337908226187], [-0.29145525575644754, 0.3795081276742083], [-0.23690205020139254, 0.016868774910060797], [-0.4278442329265702, 0.22919645259494104], [-0.09991604659712162, 0.23043195716445664]]",density,white,,,N011,visual,6,[],"['1', '2', '3', '4']",1,2023.2.3,harveyvisual,2.1,[],8,0.75,
0,pause,0.4,None,None,None,0,51,51,51,,,,,,,,,,,1,20.09938907623291,N011,visual,6,[],"['1', '2', '3', '4']",1,2023.2.3,harveyvisual,2.1,[],8,0.75,
5,dot,0.3,['dot'],['density'],black,0,52,52,52,,,20.60020899772644,20.316482067108154,20.61642813682556,dot,"[0.1, 0.08, 0.1, 0.1, 0.1]","[[-0.11834215492801986, 0.412508379109845], [0.31881799646300274, 0.30859303438359803], [-0.06368743078099719, 0.10105058071702504], [0.1133485112468387, 0.46262203184429457], [0.11957051434631445, 0.24197418837926052]]",density,black,,,N011,visual,6,[],"['1', '2', '3', '4']",1,2023.2.3,harveyvisual,2.1,[],8,0.75,
0,pause,0.4,None,None,None,0,53,53,53,,,,,,,,,,,,,N011,visual,6,[],"['1', '2', '3', '4']",1,2023.2.3,harveyvisual,2.1,[],8,0.75,
5,dot,0.3,['dot'],['density'],black,0,54,54,54,,,21.300198078155518,21.01646113395691,21.316436052322388,dot,"[0.06, 0.08, 0.08, 0.1, 0.08]","[[-0.08906257038347729, 0.3326351968500321], [0.2173987091792188, 0.026220721131276364], [0.07996259445097068, 0.4821024141609844], [0.14345365083950706, 0.2501481494916038], [-0.03323208063638199, 0.08804517681276208]]",density,black,,,N011,visual,6,[],"['1', '2', '3', '4']",1,2023.2.3,harveyvisual,2.1,[],8,0.75,
0,pause,0.4,None,None,None,0,55,55,55,,,,,,,,,,,,,N011,visual,6,[],"['1', '2', '3', '4']",1,2023.2.3,harveyvisual,2.1,[],8,0.75,
5,dot,0.3,['dot'],['density'],black,0,56,56,56,,,22.0002019405365,21.71644902229309,22.016396045684814,dot,"[0.1, 0.08, 0.1, 0.08, 0.1]","[[-0.20882687658313398, 0.05979685123170853], [0.07709165915785691, 0.33819008637117026], [0.02323578322535992, 0.12175330968231063], [0.02522363087913582, -0.08718927316059993], [-0.12152044988768049, 0.28453648995279207]]",density,black,,,N011,visual,6,[],"['1', '2', '3', '4']",1,2023.2.3,harveyvisual,2.1,[],8,0.75,
0,pause,0.4,None,None,None,0,57,57,57,,,,,,,,,,,,,N011,visual,6,[],"['1', '2', '3', '4']",1,2023.2.3,harveyvisual,2.1,[],8,0.75,
5,dot,0.3,['dot'],['density'],white,0,58,58,58,,,22.70021104812622,22.416383981704712,22.716575145721436,dot,"[0.06, 0.08, 0.08, 0.08, 0.1]","[[-0.24811222937808852, -0.0926462173418487], [-0.0684102839715827, 0.053707960252323945], [-0.4199359189551936, 0.028595247832400618], [-0.4311232183625476, -0.17348815390478414], [-0.08153496032007611, -0.23043043025001772]]",density,white,,,N011,visual,6,[],"['1', '2', '3', '4']",1,2023.2.3,harveyvisual,2.1,[],8,0.75,
0,pause,0.4,None,None,None,0,59,59,59,,,,,,,,,,,1,22.818926095962524,N011,visual,6,[],"['1', '2', '3', '4']",1,2023.2.3,harveyvisual,2.1,[],8,0.75,
6,dot,0.3,['dot'],['density'],white,0,60,60,60,,,23.40020513534546,23.11658000946045,23.41633105278015,dot,"[0.08, 0.1, 0.1, 0.06, 0.08, 0.08]","[[-0.37443702985748106, 0.32648296684105377], [-0.5461381080049402, 0.20900463425646473], [-0.03667792491240075, 0.12745261621840673], [-0.13670974087354773, 0.4115775839407936], [-0.3800981804337871, 0.05314619565530939], [-0.23016292349935943, 0.18714801531232822]]",density,white,,,N011,visual,6,[],"['1', '2', '3', '4']",1,2023.2.3,harveyvisual,2.1,[],8,0.75,
0,pause,0.4,None,None,None,0,61,61,61,,,,,,,,,,,,,N011,visual,6,[],"['1', '2', '3', '4']",1,2023.2.3,harveyvisual,2.1,[],8,0.75,
6,dot,0.3,['dot'],['density'],black,0,62,62,62,,,24.10019612312317,23.816352128982544,24.116332054138184,dot,"[0.1, 0.1, 0.08, 0.1, 0.06, 0.06]","[[0.20407874700173578, -0.003607462636592132], [0.19900023894327637, 0.3924983297162132], [0.3038969651674081, 0.19297037853131338], [-0.03476334221878716, -0.0007504963676470482], [-0.04769005191199877, 0.33834827157296915], [0.0832402191747092, 0.1716866405281877]]",density,black,,,N011,visual,6,[],"['1', '2', '3', '4']",1,2023.2.3,harveyvisual,2.1,[],8,0.75,
0,pause,0.4,None,None,None,0,63,63,63,,,,,,,,,,,,,N011,visual,6,[],"['1', '2', '3', '4']",1,2023.2.3,harveyvisual,2.1,[],8,0.75,
6,dot,0.3,['dot'],['density'],black,0,64,64,64,,,24.800209045410156,24.516330003738403,24.816323041915894,dot,"[0.1, 0.06, 0.1, 0.1, 0.1, 0.08]","[[0.4249538099490167, -0.025354946498656116], [0.305005901383002, 0.397829445973664], [0.04954868862097969, 0.09819418046919175], [0.452299537631068, 0.2574679639516015], [0.21081936584905453, -0.08903757916275208], [0.27954488569289765, 0.14103100078867375]]",density,black,,,N011,visual,6,[],"['1', '2', '3', '4']",1,2023.2.3,harveyvisual,2.1,[],8,0.75,
0,pause,0.4,None,None,None,0,65,65,65,,,,,,,,,,,,,N011,visual,6,[],"['1', '2', '3', '4']",1,2023.2.3,harveyvisual,2.1,[],8,0.75,
6,dot,0.3,['dot'],['density'],black,0,66,66,66,,,25.5002179145813,25.216305017471313,25.5180881023407,dot,"[0.06, 0.1, 0.08, 0.08, 0.06, 0.06]","[[-0.3495133471434448, -0.27378397825191725], [-0.13100446626766318, 0.13866361521721876], [-0.5155090776439144, 0.11776884681908774], [-0.4780287848267884, -0.11588239978167382], [-0.11897161770401087, -0.0933943475842369], [-0.303431097341306, -0.010759678588622423]]",density,black,,,N011,visual,6,[],"['1', '2', '3', '4']",1,2023.2.3,harveyvisual,2.1,[],8,0.75,
0,pause,0.4,None,None,None,0,67,67,67,,,,,,,,,,,,,N011,visual,6,[],"['1', '2', '3', '4']",1,2023.2.3,harveyvisual,2.1,[],8,0.75,
6,dot,0.3,['dot'],['density'],black,0,68,68,68,,,26.200191020965576,25.916296005249023,26.21646499633789,dot,"[0.06, 0.06, 0.06, 0.06, 0.08, 0.1]","[[-0.25052904509636076, -0.46440103658729176], [-0.12772535636451293, 0.010821502090106766], [-0.031043743050516784, -0.3649555915866845], [-0.3754529733759062, -0.18839395716731677], [0.07378414788444272, -0.15062955699655364], [-0.17220243018048728, -0.20498996683935267]]",density,black,,,N011,visual,6,[],"['1', '2', '3', '4']",1,2023.2.3,harveyvisual,2.1,[],8,0.75,
0,pause,0.4,None,None,None,0,69,69,69,,,,,,,,,,,,,N011,visual,6,[],"['1', '2', '3', '4']",1,2023.2.3,harveyvisual,2.1,[],8,0.75,
6,dot,0.3,['dot'],['density'],black,0,70,70,70,,,26.900196075439453,26.6162691116333,26.91625213623047,dot,"[0.1, 0.06, 0.06, 0.1, 0.08, 0.06]","[[0.1344939073868, 0.11682503965153783], [0.2622842826516073, -0.1576809643807538], [0.491422654665352, 0.2653315688189552], [0.5669231994484553, 0.0667155191364867], [0.2299276458131091, 0.29835232047215776], [0.3356420801536577, 0.10517090915368521]]",density,black,,,N011,visual,6,[],"['1', '2', '3', '4']",1,2023.2.3,harveyvisual,2.1,[],8,0.75,
0,pause,0.4,None,None,None,0,71,71,71,,,,,,,,,,,,,N011,visual,6,[],"['1', '2', '3', '4']",1,2023.2.3,harveyvisual,2.1,[],8,0.75,
7,dot,0.3,['dot'],['density'],black,0,72,72,72,,,27.60020112991333,27.316241025924683,27.616241931915283,dot,"[0.06, 0.06, 0.08, 0.1, 0.08, 0.06, 0.06]","[[0.43636558899465056, -0.019888822856555858], [0.3422654810486562, -0.28596623187093184], [0.19265053263460555, -0.4439876245838232], [0.13726272111749335, -0.2453614523272762], [0.002381890354708078, -0.04768315945896726], [0.5336827108411983, -0.21507725682246784], [0.22437755209563529, -0.002563521851875305]]",density,black,,,N011,visual,6,[],"['1', '2', '3', '4']",1,2023.2.3,harveyvisual,2.1,[],8,0.75,
0,pause,0.4,None,None,None,0,73,73,73,,,,,,,,,,,,,N011,visual,6,[],"['1', '2', '3', '4']",1,2023.2.3,harveyvisual,2.1,[],8,0.75,
7,dot,0.3,['dot'],['density'],black,0,74,74,74,,,28.300213098526,28.016237020492554,28.31622004508972,dot,"[0.06, 0.1, 0.1, 0.08, 0.1, 0.08, 0.1]","[[0.3899189512010899, -0.40728696153528776], [0.20392863561369634, -0.3305625840210526], [0.31626985815109576, 0.13567824844623666], [0.5017338684339655, -0.028549680114735937], [0.11648855723187378, -0.1078833072829627], [0.07041138378868489, 0.08730219371944997], [0.32910598476010167, -0.13660711058181768]]",density,black,,,N011,visual,6,[],"['1', '2', '3', '4']",1,2023.2.3,harveyvisual,2.1,[],8,0.75,
0,pause,0.4,None,None,None,0,75,75,75,,,,,,,,,,,,,N011,visual,6,[],"['1', '2', '3', '4']",1,2023.2.3,harveyvisual,2.1,[],8,0.75,
7,dot,0.3,['dot'],['density'],black,0,76,76,76,,,29.00019907951355,28.71624493598938,29.016354084014893,dot,"[0.08, 0.08, 0.08, 0.06, 0.06, 0.1, 0.08]","[[-0.27882252076513336, 0.33055409005240166], [-0.4957633793454142, -0.06140876275196145], [-0.0066404743852866415, -0.09326226909207957], [-0.0437417051997281, 0.24568157295930956], [-0.4653499650939929, 0.1386387143322748], [-0.23664853702636232, 0.07695828400639043], [-0.2650254833014284, -0.12289079349875774]]",density,black,,,N011,visual,6,[],"['1', '2', '3', '4']",1,2023.2.3,harveyvisual,2.1,[],8,0.75,
0,pause,0.4,None,None,None,0,77,77,77,,,,,,,,,,,,,N011,visual,6,[],"['1', '2', '3', '4']",1,2023.2.3,harveyvisual,2.1,[],8,0.75,
7,dot,0.3,['dot'],['density'],black,0,78,78,78,,,29.7002010345459,29.416260957717896,29.716195106506348,dot,"[0.1, 0.1, 0.06, 0.08, 0.08, 0.06, 0.06]","[[-0.4123410031792677, -0.32555807737620884], [-0.11281232420725038, -0.2658066965482441], [-0.16970574590124413, 0.10972852905085191], [-0.380148642061964, 0.19816541478521793], [-0.49975943015608576, -0.10400723965324657], [-0.30003386022098844, -0.09340949099572564], [-0.0679185705411078, -0.06780919729272472]]",density,black,,,N011,visual,6,[],"['1', '2', '3', '4']",1,2023.2.3,harveyvisual,2.1,[],8,0.75,
0,pause,0.4,None,None,None,0,79,79,79,,,,,,,,,,,,,N011,visual,6,[],"['1', '2', '3', '4']",1,2023.2.3,harveyvisual,2.1,[],8,0.75,
7,dot,0.3,['dot'],['density'],black,0,80,80,80,,,30.40021300315857,30.11619806289673,30.416165113449097,dot,"[0.06, 0.06, 0.1, 0.06, 0.06, 0.1, 0.1]","[[0.3899189512010899, -0.40728696153528776], [0.20392863561369634, -0.3305625840210526], [0.31626985815109576, 0.13567824844623666], [0.5017338684339655, -0.028549680114735937], [0.11648855723187378, -0.1078833072829627], [0.07041138378868489, 0.08730219371944997], [0.32910598476010167, -0.13660711058181768]]",density,black,,,N011,visual,6,[],"['1', '2', '3', '4']",1,2023.2.3,harveyvisual,2.1,[],8,0.75,
0,pause,0.4,None,None,None,0,81,81,81,,,,,,,,,,,,,N011,visual,6,[],"['1', '2', '3', '4']",1,2023.2.3,harveyvisual,2.1,[],8,0.75,
7,dot,0.3,['dot'],['density'],black,0,82,82,82,,,31.100220918655396,30.816174030303955,31.11613893508911,dot,"[0.1, 0.08, 0.1, 0.06, 0.06, 0.08, 0.06]","[[-0.3025445156539714, -0.42280529123536587], [0.12162933753582021, -0.2851722644810181], [-0.2753205641105948, -0.038672864930592576], [-0.4202189534315163, -0.18742991959605093], [-0.15636117447925973, -0.27217203193286355], [-0.09967880665522989, -0.47242523529006747], [-0.06261398545311019, -0.08879309989794046]]",density,black,,,N011,visual,6,[],"['1', '2', '3', '4']",1,2023.2.3,harveyvisual,2.1,[],8,0.75,
0,pause,0.4,None,None,None,0,83,83,83,,,,,,,,,,,,,N011,visual,6,[],"['1', '2', '3', '4']",1,2023.2.3,harveyvisual,2.1,[],8,0.75,
8,dot,0.3,['dot'],['density'],black,0,84,84,84,,,31.800202131271362,31.51615595817566,31.816132068634033,dot,"[0.06, 0.1, 0.08, 0.06, 0.1, 0.08, 0.06, 0.1]","[[0.11895989691250043, -0.4531686673706004], [-0.16516506104640707, -0.03240926074491446], [0.03539791161122963, 0.017706842047032937], [0.2602726326243711, -0.2021454296306109], [-0.07993394910368964, -0.42305571474287856], [-0.2833532244481061, -0.22994433794129646], [0.3633812293108319, -0.4186270945829863], [-0.04042382183071007, -0.1991401458565282]]",density,black,,,N011,visual,6,[],"['1', '2', '3', '4']",1,2023.2.3,harveyvisual,2.1,[],8,0.75,
0,pause,0.4,None,None,None,0,85,85,85,,,,,,,,,,,,,N011,visual,6,[],"['1', '2', '3', '4']",1,2023.2.3,harveyvisual,2.1,[],8,0.75,
8,dot,0.3,['dot'],['density'],black,0,86,86,86,,,32.50019907951355,32.21630001068115,32.516266107559204,dot,"[0.08, 0.06, 0.1, 0.1, 0.06, 0.1, 0.08, 0.08]","[[-0.30918623351354413, -0.2762980118811315], [0.03442122464869854, -0.32944299641312663], [0.20656618624830034, -0.4515266663928406], [0.20458815773351877, -0.002924552385479317], [-0.054765695239429084, -0.14491701700869716], [-0.0008776159608741382, 0.05441634750414142], [0.19975410704164612, -0.21252729673777132], [-0.19330391669800595, 0.14377227853430027]]",density,black,,,N011,visual,6,[],"['1', '2', '3', '4']",1,2023.2.3,harveyvisual,2.1,[],8,0.75,
0,pause,0.4,None,None,None,0,87,87,87,,,,,,,,,,,,,N011,visual,6,[],"['1', '2', '3', '4']",1,2023.2.3,harveyvisual,2.1,[],8,0.75,
8,dot,0.3,['dot'],['density'],black,0,88,88,88,,,33.20020508766174,32.91618013381958,33.216135025024414,dot,"[0.08, 0.1, 0.08, 0.08, 0.08, 0.1, 0.08, 0.06]","[[-0.43120034012996816, -0.3965796075128045], [0.1478983624034229, -0.46770986256388064], [-0.23058307999139557, -0.3238539366063682], [-0.07988642296593639, -0.13993938361429092], [-0.08664795903044427, -0.5418074813242995], [0.11879255589163208, -0.1637425359681226], [-0.09873641234556067, 0.08705286872936738], [-0.025120016651009644, -0.34045580780112095]]",density,black,,,N011,visual,6,[],"['1', '2', '3', '4']",1,2023.2.3,harveyvisual,2.1,[],8,0.75,
0,pause,0.4,None,None,None,0,89,89,89,,,,,,,,,,,,,N011,visual,6,[],"['1', '2', '3', '4']",1,2023.2.3,harveyvisual,2.1,[],8,0.75,
8,dot,0.3,['dot'],['density'],black,0,90,90,90,,,33.90021014213562,33.61623692512512,33.916255950927734,dot,"[0.08, 0.06, 0.1, 0.06, 0.1, 0.06, 0.08, 0.1]","[[-0.3265204970111284, 0.22652760434067618], [0.11129643684023392, 0.07926950251467085], [0.07893474341784651, 0.4315681374945237], [-0.2000017914838315, -0.08445279674287073], [-0.29956068591909263, 0.4664910923320479], [-0.09828291121522204, 0.1483319570086381], [0.07400994184747142, -0.11883630301138211], [-0.12650192453358844, 0.35264367728062257]]",density,black,,,N011,visual,6,[],"['1', '2', '3', '4']",1,2023.2.3,harveyvisual,2.1,[],8,0.75,
0,pause,0.4,None,None,None,0,91,91,91,,,,,,,,,,,,,N011,visual,6,[],"['1', '2', '3', '4']",1,2023.2.3,harveyvisual,2.1,[],8,0.75,
8,dot,0.3,['dot'],['density'],black,0,92,92,92,,,34.60020613670349,34.31612706184387,34.61607003211975,dot,"[0.1, 0.1, 0.08, 0.1, 0.08, 0.1, 0.06, 0.08]","[[0.3364035831170529, 0.12390393923093283], [0.4336864367158133, 0.35981147627037974], [0.06743640335689947, 0.0759148581953004], [-0.079559988999742, 0.39531058321326396], [0.21309668101319243, 0.48855257098982907], [0.23478258025928536, -0.08446837776908474], [-0.12854716397353463, 0.17339976512773136], [0.14965136140762586, 0.26897313353206964]]",density,black,,,N011,visual,6,[],"['1', '2', '3', '4']",1,2023.2.3,harveyvisual,2.1,[],8,0.75,
0,pause,0.4,None,None,None,0,93,93,93,,,,,,,,,,,,,N011,visual,6,[],"['1', '2', '3', '4']",1,2023.2.3,harveyvisual,2.1,[],8,0.75,
8,dot,0.3,['dot'],['density'],black,0,94,94,94,,,35.30020713806152,35.01716899871826,35.31621503829956,dot,"[0.06, 0.06, 0.06, 0.06, 0.06, 0.08, 0.1, 0.08]","[[-0.08486713456805763, -0.4233549652310786], [-0.34121661687321897, 0.009931669871959016], [0.06179899905610707, -0.01287726204627424], [-0.01080387642187049, -0.20774715314808884], [-0.2259787915635077, -0.2257096572683263], [-0.31087639520469923, -0.4457762681120083], [-0.07938707884489006, 0.17996906985975966], [-0.13919465900414296, -0.03133413505419433]]",density,black,,,N011,visual,6,[],"['1', '2', '3', '4']",1,2023.2.3,harveyvisual,2.1,[],8,0.75,
0,pause,0.4,None,None,None,0,95,95,95,,,,,,,,,,,,,N011,visual,6,[],"['1', '2', '3', '4']",1,2023.2.3,harveyvisual,2.1,[],8,0.75,
9,dot,0.3,['dot'],['density'],black,0,96,96,96,,,36.00020408630371,35.71617412567139,36.01604700088501,dot,"[0.08, 0.1, 0.1, 0.08, 0.06, 0.08, 0.08, 0.1, 0.08]","[[0.050129075631511706, -0.29659829200500587], [0.1522424042566208, -0.02012498145544232], [-0.31773020450764894, 0.09756431981266957], [-0.25388767024787284, -0.20865833148222632], [-0.06549152868915667, -0.10253084504872755], [-0.047012852932693645, 0.11741599898337682], [0.26526013051082903, -0.18996189821299347], [0.2442588296558726, 0.17404051307925203], [0.053323608967773835, 0.34462047536600726]]",density,black,,,N011,visual,6,[],"['1', '2', '3', '4']",1,2023.2.3,harveyvisual,2.1,[],8,0.75,
0,pause,0.4,None,None,None,0,97,97,97,,,,,,,,,,,,,N011,visual,6,[],"['1', '2', '3', '4']",1,2023.2.3,harveyvisual,2.1,[],8,0.75,
9,dot,0.3,['dot'],['density'],black,0,98,98,98,,,36.700210094451904,36.4160361289978,36.716010093688965,dot,"[0.1, 0.08, 0.06, 0.06, 0.08, 0.1, 0.1, 0.06, 0.06]","[[0.08964926938552661, 0.05394775442474662], [0.013667798857315082, 0.3651287039276397], [-0.3518235196438996, 0.4482863301015001], [0.0843039828244993, 0.5528122926054443], [-0.16049547673848438, 0.0730005648255046], [-0.2144141911430125, 0.27623828598157274], [0.3465547907671387, 0.0307758660088046], [-0.13596480001028877, 0.5242376261272882], [0.2304522598158348, 0.3521277948761275]]",density,black,,,N011,visual,6,[],"['1', '2', '3', '4']",1,2023.2.3,harveyvisual,2.1,[],8,0.75,
0,pause,0.4,None,None,None,0,99,99,99,,,,,,,,,,,,,N011,visual,6,[],"['1', '2', '3', '4']",1,2023.2.3,harveyvisual,2.1,[],8,0.75,
9,dot,0.3,['dot'],['density'],black,0,100,100,100,,,37.400208950042725,37.116024017333984,37.41601014137268,dot,"[0.06, 0.1, 0.08, 0.1, 0.06, 0.06, 0.08, 0.06, 0.1]","[[0.050129075631511706, -0.29659829200500587], [0.1522424042566208, -0.02012498145544232], [-0.31773020450764894, 0.09756431981266957], [-0.25388767024787284, -0.20865833148222632], [-0.06549152868915667, -0.10253084504872755], [-0.047012852932693645, 0.11741599898337682], [0.26526013051082903, -0.18996189821299347], [0.2442588296558726, 0.17404051307925203], [0.053323608967773835, 0.34462047536600726]]",density,black,,,N011,visual,6,[],"['1', '2', '3', '4']",1,2023.2.3,harveyvisual,2.1,[],8,0.75,
0,pause,0.4,None,None,None,0,101,101,101,,,,,,,,,,,,,N011,visual,6,[],"['1', '2', '3', '4']",1,2023.2.3,harveyvisual,2.1,[],8,0.75,
9,dot,0.3,['dot'],['density'],black,0,102,102,102,,,38.10021901130676,37.81595206260681,38.11597204208374,dot,"[0.06, 0.1, 0.08, 0.1, 0.1, 0.08, 0.08, 0.06, 0.08]","[[0.34043128493099817, 0.2271075800100716], [0.2702764120171402, -0.10456749967376819], [-0.1274635928921129, -0.04210317806044915], [-0.03460273614387521, 0.1795356259369138], [0.14470969472881007, 0.3391925298523705], [0.06761060508642219, 0.0060094309834155335], [0.5117869412029185, -0.12050585585317111], [0.07404675892906432, -0.22660478390602867], [0.35723900661310204, -0.3185591288757]]",density,black,,,N011,visual,6,[],"['1', '2', '3', '4']",1,2023.2.3,harveyvisual,2.1,[],8,0.75,
0,pause,0.4,None,None,None,0,103,103,103,,,,,,,,,,,,,N011,visual,6,[],"['1', '2', '3', '4']",1,2023.2.3,harveyvisual,2.1,[],8,0.75,
9,dot,0.3,['dot'],['density'],black,0,104,104,104,,,38.80022096633911,38.51598310470581,38.81610608100891,dot,"[0.06, 0.08, 0.1, 0.1, 0.1, 0.1, 0.1, 0.08, 0.1]","[[0.050129075631511706, -0.29659829200500587], [0.1522424042566208, -0.02012498145544232], [-0.31773020450764894, 0.09756431981266957], [-0.25388767024787284, -0.20865833148222632], [-0.06549152868915667, -0.10253084504872755], [-0.047012852932693645, 0.11741599898337682], [0.26526013051082903, -0.18996189821299347], [0.2442588296558726, 0.17404051307925203], [0.053323608967773835, 0.34462047536600726]]",density,black,,,N011,visual,6,[],"['1', '2', '3', '4']",1,2023.2.3,harveyvisual,2.1,[],8,0.75,
0,pause,0.4,None,None,None,0,105,105,105,,,,,,,,,,,,,N011,visual,6,[],"['1', '2', '3', '4']",1,2023.2.3,harveyvisual,2.1,[],8,0.75,
9,dot,0.3,['dot'],['density'],black,0,106,106,106,,,39.50020408630371,39.216089963912964,39.516088008880615,dot,"[0.08, 0.1, 0.1, 0.1, 0.1, 0.1, 0.1, 0.08, 0.06]","[[-0.01550530976013749, -0.4685693709261764], [-0.18673980358629047, -0.03677939788938074], [-0.492500386343057, -0.31631588298646995], [-0.31211872613566405, -0.49615226168915794], [-0.29213402726227655, -0.2779210730957987], [-0.48141959868665407, -0.11483975315711048], [0.2805727548720413, -0.20550850813502752], [-0.0662162642732561, -0.2200496541038322], [0.06776853683421198, -0.046300179137656175]]",density,black,,,N011,visual,6,[],"['1', '2', '3', '4']",1,2023.2.3,harveyvisual,2.1,[],8,0.75,
0,pause,0.4,None,None,None,0,107,107,107,,,,,,,,,,,,,N011,visual,6,[],"['1', '2', '3', '4']",1,2023.2.3,harveyvisual,2.1,[],8,0.75,
20,dot,0.3,['dot'],['density'],black,0,108,108,108,,,40.20022201538086,39.91597604751587,40.21596097946167,dot,"[0.08, 0.08, 0.06, 0.08, 0.1, 0.1, 0.06, 0.08, 0.08, 0.1, 0.08, 0.1, 0.1, 0.1, 0.08, 0.1, 0.1, 0.08, 0.08, 0.06]","[[-0.2429441762236057, -0.5464070916477264], [-0.2443991420768828, 0.3035135073078292], [-0.05409537775678608, 0.2668309192841485], [0.5050726139926976, 0.2838197194609951], [-0.5365258775266387, -0.07005330706615348], [-0.08355964854328701, -0.3627742466261209], [-0.3463788323021986, -0.2437657410954593], [0.2269717492151342, 0.12389905379108979], [0.4384527472604186, 0.03522730233319854], [0.501754876746685, -0.2886789928767999], [-0.09236069545688064, -0.04625123909934048], [0.21229142848862248, -0.08082235916095187], [-0.20543508423222195, 0.49264667702785314], [0.24411547254579613, -0.31844704306648636], [0.5925782913718148, -0.07671899036609303], [0.12963954964991087, -0.47070887065394423], [-0.3138455816296509, 0.1206896228713471], [0.14873172873888374, 0.5443339803773306], [0.2974372787196937, 0.350500530448154], [-0.027488938215952774, -0.5768207846506261]]",density,black,,,N011,visual,6,[],"['1', '2', '3', '4']",1,2023.2.3,harveyvisual,2.1,[],8,0.75,
0,pause,0.4,None,None,None,0,109,109,109,,,,,,,,,,,,,N011,visual,6,[],"['1', '2', '3', '4']",1,2023.2.3,harveyvisual,2.1,[],8,0.75,
20,dot,0.3,['dot'],['density'],black,0,110,110,110,,,40.90020203590393,40.615962982177734,40.91594910621643,dot,"[0.06, 0.1, 0.1, 0.1, 0.1, 0.06, 0.08, 0.06, 0.08, 0.06, 0.06, 0.1, 0.08, 0.08, 0.1, 0.08, 0.08, 0.1, 0.1, 0.06]","[[-0.2463903600536878, -0.3857149402813849], [-0.4740471204997476, 0.3315473926294347], [0.3735239169048993, -0.08658692474331131], [-0.05993934874283513, 0.5001393094811524], [-0.5089809280876554, -0.25283317063036154], [0.3982126899401751, 0.3162079409380615], [-0.22088503866100978, 0.060387083674624864], [0.294115531666145, 0.4957981713976378], [0.2924373228845988, -0.4486299573893688], [0.08671602833216141, -0.31345213785007314], [-0.5796060945320209, 0.1113146585734002], [-0.324009291991896, 0.4965536802228384], [0.41530257419993866, -0.2947464118920829], [0.06911685713561, 0.1568423326799302], [0.5555860892714909, 0.20747017696960385], [-0.007360028057477042, -0.5379693826599694], [-0.4200374379967338, -0.05905876880513611], [0.5473343837946137, -0.00953833268764609], [0.146320515385714, 0.34525834496299324], [0.17385897740603096, -0.07531363067931851]]",density,black,,,N011,visual,6,[],"['1', '2', '3', '4']",1,2023.2.3,harveyvisual,2.1,[],8,0.75,
0,pause,0.4,None,None,None,0,111,111,111,,,,,,,,,,,,,N011,visual,6,[],"['1', '2', '3', '4']",1,2023.2.3,harveyvisual,2.1,[],8,0.75,
20,dot,0.3,['dot'],['density'],black,0,112,112,112,,,41.60021114349365,41.3159339427948,41.61592197418213,dot,"[0.1, 0.08, 0.1, 0.06, 0.1, 0.1, 0.08, 0.08, 0.1, 0.08, 0.06, 0.06, 0.1, 0.1, 0.06, 0.06, 0.06, 0.08, 0.06, 0.08]","[[-0.47495709420026466, 0.22929317193102167], [-0.5221873845478426, -0.044857575378049463], [0.19416612439463377, 0.2695193848487383], [0.43965777444479415, 0.07638971750291385], [-0.1074652989007912, 0.2400183886536642], [-0.12799625587730168, -0.4716393344411005], [-0.29253026867652987, 0.1685615762241427], [-0.14243586457001944, 0.0425872537222568], [0.1294996617276687, 0.048103561362934255], [-0.04573064028929519, 0.4536577058449077], [0.406376424786692, -0.2785768245449629], [0.3003959516982059, -0.5150434718260435], [0.059193180998988515, -0.16661981341779936], [-0.34529797632947123, -0.3116485880295904], [0.049242145015656935, -0.38275099570089516], [0.3693234315168563, 0.478612784344567], [-0.28847155982220407, 0.3777563470260563], [-0.19855297952469414, -0.14641139619299215], [0.5955734800600824, -0.09694304976530907], [0.4193552454564028, 0.27208449460975964]]",density,black,,,N011,visual,6,[],"['1', '2', '3', '4']",1,2023.2.3,harveyvisual,2.1,[],8,0.75,
0,pause,0.4,None,None,None,0,113,113,113,,,,,,,,,,,,,N011,visual,6,[],"['1', '2', '3', '4']",1,2023.2.3,harveyvisual,2.1,[],8,0.75,
20,dot,0.3,['dot'],['density'],black,0,114,114,114,,,42.300209045410156,42.01588296890259,42.315879106521606,dot,"[0.06, 0.1, 0.06, 0.08, 0.08, 0.08, 0.06, 0.06, 0.1, 0.06, 0.06, 0.1, 0.1, 0.06, 0.1, 0.08, 0.1, 0.06, 0.06, 0.08]","[[-0.43148381208111297, 0.3398814925090447], [-0.26986377777679443, -0.43221827175461813], [0.15891983027272394, -0.33961822625041815], [0.2150123473157518, 0.059871942396524824], [0.3334687787332423, -0.47180677846027713], [-0.10177685646960721, -0.1276043887999876], [-0.4017858440004589, -0.22723662067037967], [-0.15068650818427143, 0.47241953746271137], [-0.0690538683173606, -0.34025037095557326], [0.001319236624912179, 0.19844115676234841], [0.49860132611922314, 0.2054787455332699], [0.5731311728209062, -0.04133342843285864], [-0.5935414108003536, 0.056129586953149485], [0.11276174395242122, 0.5928047349351879], [-0.36460411982595753, 0.12285803909847459], [0.38000419258383367, -0.2556957230819405], [0.2559645100529251, 0.3890585006890328], [-0.5755934518488633, -0.14230369315679606], [-0.17643485754540061, 0.06479279463277432], [0.09033283404941916, -0.13971700154961286]]",density,black,,,N011,visual,6,[],"['1', '2', '3', '4']",1,2023.2.3,harveyvisual,2.1,[],8,0.75,
0,pause,0.4,None,None,None,0,115,115,115,,,,,,,,,,,,,N011,visual,6,[],"['1', '2', '3', '4']",1,2023.2.3,harveyvisual,2.1,[],8,0.75,
20,dot,0.3,['dot'],['density'],black,0,116,116,116,,,43.000205993652344,42.715901136398315,43.015867948532104,dot,"[0.1, 0.08, 0.1, 0.08, 0.1, 0.06, 0.06, 0.06, 0.06, 0.1, 0.1, 0.08, 0.08, 0.08, 0.08, 0.06, 0.06, 0.06, 0.08, 0.08]","[[0.5892688944164576, -0.01879840997804548], [-0.542350951740828, 0.15448717571724746], [-0.21794026502842823, -0.16280059232053828], [-0.2628958034298746, -0.4241381110325073], [0.30512266543284217, -0.332708378474471], [0.05162381579140918, 0.4996997367959263], [0.12239793943366206, 0.18042349519359047], [-0.214709449868287, 0.1676211673773399], [0.3188480306229038, -0.059483411533184816], [-0.11709166594275089, 0.5927295639137573], [-0.07558536869526522, -0.38848213989487096], [-0.3799067714897583, 0.025521080850634315], [0.30090402754240386, 0.3792174576338878], [0.49005075028549083, 0.16154374424458745], [-0.29132989059569675, 0.34770354968008066], [-0.5182339756109824, -0.11989268264973227], [0.1263438699256858, -0.5387631249627968], [-0.1069527361557559, -0.5952741664316674], [0.05436717099357591, -0.2310772414144615], [0.5433296862684515, -0.2523120058859209]]",density,black,,,N011,visual,6,[],"['1', '2', '3', '4']",1,2023.2.3,harveyvisual,2.1,[],8,0.75,
0,pause,0.4,None,None,None,0,117,117,117,,,,,,,,,,,,,N011,visual,6,[],"['1', '2', '3', '4']",1,2023.2.3,harveyvisual,2.1,[],8,0.75,
20,dot,0.3,['dot'],['density'],black,0,118,118,118,,,43.70019602775574,43.41588997840881,43.71581697463989,dot,"[0.06, 0.06, 0.1, 0.06, 0.08, 0.06, 0.06, 0.06, 0.06, 0.08, 0.06, 0.06, 0.1, 0.1, 0.1, 0.08, 0.06, 0.08, 0.06, 0.08]","[[-0.1517869667498265, 0.024316477586881935], [-0.05147130434236302, 0.49415038016489987], [-0.11603837138788226, -0.21553652959112424], [-0.48350570072747534, 0.13105967516836364], [0.5228329159966355, 0.07511593563592178], [-0.2630525014950097, 0.20757186185687526], [-0.2075978613027576, -0.4177927185329095], [0.07088590396174022, 0.22573973238094536], [0.11100966220014175, -0.4320781966116651], [0.2880713547476317, 0.25921874539880463], [0.402469193892374, -0.21971020602301267], [-0.501551613468597, -0.23744279909903182], [0.11606766699617321, 0.03399871265797583], [0.11578821193727906, -0.156352999791736], [0.22889720924665513, 0.4733990740135924], [-0.3468273511786645, 0.45036523017049573], [0.47191012738256066, 0.3166307637572629], [0.33267883133308385, -0.42040981214932277], [-0.07930711978845784, -0.5798656762023326], [-0.35414281771416367, -0.02830477583805241]]",density,black,,,N011,visual,6,[],"['1', '2', '3', '4']",1,2023.2.3,harveyvisual,2.1,[],8,0.75,
0,pause,0.4,None,None,None,0,119,119,119,,,,,,,,,,,,,N011,visual,6,[],"['1', '2', '3', '4']",1,2023.2.3,harveyvisual,2.1,[],8,0.75,
20,dot,0.3,['dot'],['density'],black,0,120,120,120,,,44.40021896362305,44.11580204963684,44.41579294204712,dot,"[0.06, 0.1, 0.08, 0.1, 0.08, 0.06, 0.08, 0.1, 0.06, 0.06, 0.06, 0.06, 0.06, 0.06, 0.08, 0.06, 0.06, 0.06, 0.06, 0.1]","[[0.19173031371999483, 0.2577083358992407], [-0.08472091585522457, -0.07578306984271221], [0.1460362656844415, -0.5295255150445718], [-0.40894554539457495, 0.009120194720048935], [-0.23462054205596605, -0.21989629565574492], [0.3697618948936865, 0.36783076214793137], [-0.1482678808157764, -0.49563453800375723], [0.19324206369573727, -0.07210167201163953], [-0.08203280317826911, 0.2757574982616875], [-0.2443285501909367, 0.49758264809184294], [-0.4903088708014661, -0.3161597769928699], [0.3374208654513402, -0.38335128644519656], [0.5909177226768815, 0.028626263769217675], [-0.46633608163817253, 0.3256750378204413], [-0.6044309312327159, 0.028894296623461803], [0.06917708208130346, 0.4220608762014293], [0.5388942894167427, -0.16534974136567362], [0.3902947456661119, -0.016321466007845953], [-0.20054414570725382, 0.10727630059183446], [0.5026775473621782, 0.22650922685831926]]",density,black,,,N011,visual,6,[],"['1', '2', '3', '4']",1,2023.2.3,harveyvisual,2.1,[],8,0.75,
0,pause,0.4,None,None,None,0,121,121,121,,,,,,,,,,,,,N011,visual,6,[],"['1', '2', '3', '4']",1,2023.2.3,harveyvisual,2.1,[],8,0.75,
20,dot,0.3,['dot'],['density'],black,0,122,122,122,,,45.10020112991333,44.81581091880798,45.11577105522156,dot,"[0.08, 0.1, 0.1, 0.1, 0.06, 0.1, 0.08, 0.08, 0.1, 0.1, 0.06, 0.1, 0.06, 0.08, 0.06, 0.06, 0.1, 0.1, 0.06, 0.1]","[[-0.3994736747932105, 0.05830868569595965], [-0.5513004941845204, 0.17534188103378662], [-0.2777688698929542, -0.33600177623010574], [0.15592507359674246, -0.52334452540773], [0.4668158761123581, -0.22761774899644485], [0.05995853301644827, 0.5241123068311208], [-0.06045192212562989, 0.09960835045134031], [0.2548121587367982, 0.0038119450715635717], [0.34049912038215435, 0.35596492108204136], [-0.17612236697949502, 0.5787341910442971], [-0.5308853313499928, -0.18927395080386544], [-0.21945030984765695, 0.26334319204496937], [0.5486757044016316, 0.16321458356715074], [0.08957295180604519, -0.2232560956465942], [-0.23997370080982167, -0.14842143965170945], [-0.45747646878448284, 0.3962527548329619], [0.2636569560047065, -0.35597359447716603], [-0.08313058433431753, -0.5800741237756399], [0.5893652211225905, -0.04141141239950294], [-0.003731440136581776, 0.33690614395526963]]",density,black,,,N011,visual,6,[],"['1', '2', '3', '4']",1,2023.2.3,harveyvisual,2.1,[],8,0.75,
0,pause,0.4,None,None,None,0,123,123,123,,,,,,,,,,,,,N011,visual,6,[],"['1', '2', '3', '4']",1,2023.2.3,harveyvisual,2.1,[],8,0.75,
20,dot,0.3,['dot'],['density'],black,0,124,124,124,,,45.800217151641846,45.515769958496094,45.81591010093689,dot,"[0.1, 0.08, 0.1, 0.1, 0.1, 0.08, 0.1, 0.08, 0.08, 0.08, 0.1, 0.08, 0.1, 0.06, 0.1, 0.1, 0.1, 0.1, 0.1, 0.1]","[[-0.029989783917445112, 0.2936890012437906], [0.5331258948349223, -0.01325448533576945], [0.1916792958567013, -0.1737478661497897], [-0.37148682518026876, 0.016107473818481433], [-0.4694242984464859, 0.18890177571821332], [-0.18341753237506814, -0.1381281905009657], [0.05848820080494754, -0.5666651806278988], [0.4352477307275747, 0.36661098935317865], [-0.6025460669888585, 0.04086638619424138], [0.09589759781144325, 0.08707405878810104], [0.5194514263424527, -0.2133021755746437], [-0.31632374692422005, 0.45208693610592277], [0.18309578508337032, 0.299241572507422], [0.5375799739228463, 0.19949719211012684], [-0.12455674855852034, 0.541885806462882], [-0.5251811203582331, -0.25972184711354873], [0.36263161789819887, -0.35838562181481526], [0.10537019770768652, 0.5077821729181327], [-0.30746452901293875, -0.3045751022275196], [0.2800489730526584, 0.02356840349314393]]",density,black,,,N011,visual,6,[],"['1', '2', '3', '4']",1,2023.2.3,harveyvisual,2.1,[],8,0.75,
0,pause,0.4,None,None,None,0,125,125,125,,,,,,,,,,,,,N011,visual,6,[],"['1', '2', '3', '4']",1,2023.2.3,harveyvisual,2.1,[],8,0.75,
20,dot,0.3,['dot'],['density'],black,0,126,126,126,,,46.50020909309387,46.21589994430542,46.51578497886658,dot,"[0.06, 0.06, 0.08, 0.08, 0.08, 0.1, 0.08, 0.08, 0.06, 0.1, 0.06, 0.1, 0.06, 0.06, 0.08, 0.08, 0.1, 0.08, 0.08, 0.06]","[[-0.445726876937507, -0.19329826143242979], [-0.3329522582841815, 0.3873607478040335], [0.07888814643167652, -0.13064140601415403], [0.29648121265038485, 0.12092960667482056], [0.5580025021811822, -0.06369157784138835], [0.06791686661220087, 0.4794758398717962], [-0.4820126110907672, 0.2243401536563514], [-0.30438526071222377, -0.41343087002277884], [0.3973474126166009, -0.28617734299362424], [0.02783412158955756, 0.28716115234285566], [-0.21333550274965402, 0.03933822420377664], [0.2972330091509122, 0.40726412669709167], [0.20169387031911257, -0.4370463456331194], [-0.6046980549942979, -0.02532213883418998], [-0.4028421153768366, 0.03465190994277062], [-0.17465927865209813, -0.5627428720983796], [-0.16663346294276626, -0.17148611592792762], [0.02464647195301417, -0.579679775179492], [0.44841436336895846, 0.2672052291279803], [-0.13807569966377126, 0.48382178123327946]]",density,black,,,N011,visual,6,[],"['1', '2', '3', '4']",1,2023.2.3,harveyvisual,2.1,[],8,0.75,
0,pause,0.4,None,None,None,0,127,127,127,,,,,,,,,,,,,N011,visual,6,[],"['1', '2', '3', '4']",1,2023.2.3,harveyvisual,2.1,[],8,0.75,
20,dot,0.3,['dot'],['density'],white,0,128,128,128,,,47.20020294189453,46.91579604148865,47.21577310562134,dot,"[0.06, 0.08, 0.06, 0.08, 0.1, 0.06, 0.1, 0.1, 0.08, 0.1, 0.06, 0.1, 0.1, 0.08, 0.08, 0.1, 0.08, 0.1, 0.06, 0.06]","[[0.40993812666615137, 0.05684354709612233], [-0.27308344007349666, -0.49142960522622114], [-0.5603411413564776, -0.1092069096799013], [0.23339097181005453, -0.25995857181479637], [-0.34023118488222276, 0.36948066181936357], [-0.5431657275627307, 0.16062157969995916], [0.5983894535179369, -0.0607364898540511], [0.1518926649521335, -0.4853179661744128], [-0.21495562913770988, 0.10702624359462298], [0.0434838886324429, 0.2380753980910858], [-0.016479929862186604, 0.5576574285361326], [0.311810364819177, 0.4620512152794707], [-0.08898549740661865, -0.16970063872578595], [-0.06406307021534563, -0.5377874475911151], [-0.3382763869629883, -0.0697716805065215], [-0.2911692859458912, -0.2693315210172324], [0.19382466209044535, -0.05403050601785253], [0.4604207193323674, 0.2550034416172841], [0.4392485054577776, -0.33385423959951865], [-0.11768284728892953, 0.3706571746432866]]",density,white,,,N011,visual,6,[],"['1', '2', '3', '4']",1,2023.2.3,harveyvisual,2.1,[],8,0.75,
0,pause,0.4,None,None,None,0,129,129,129,,,,,,,,,,,1,47.369646072387695,N011,visual,6,[],"['1', '2', '3', '4']",1,2023.2.3,harveyvisual,2.1,[],8,0.75,
20,dot,0.3,['dot'],['density'],black,0,130,130,130,,,47.90019702911377,47.61576294898987,47.915754079818726,dot,"[0.1, 0.08, 0.06, 0.1, 0.1, 0.08, 0.06, 0.06, 0.1, 0.08, 0.1, 0.08, 0.08, 0.1, 0.06, 0.06, 0.08, 0.08, 0.08, 0.1]","[[0.5745064441986355, -0.16308692115016363], [0.34787311733509574, 0.4313445869134876], [0.4093826345453563, -0.4116416331509354], [-0.2554350210132404, -0.040513718870086035], [-0.4132203741692683, 0.29170820312505413], [-0.47846312235575494, -0.11049346578016], [-0.06262272766177346, 0.009782790616945647], [0.5508289920017692, 0.06923252982388461], [0.045509944860476104, 0.23199967765489082], [-0.3755921744502483, -0.44652496035084843], [0.2826505488114084, 0.2430969143052114], [-0.5324805075621932, 0.11299064400855113], [-0.18645215443908525, -0.5088935377943247], [0.25285908895743336, -0.17152559891510993], [-0.06432981875021104, 0.47179158327278303], [0.12827300855509405, 0.5846382892754], [-0.04325222371123416, -0.3209642013744093], [-0.2779585780482269, -0.23401056636384748], [0.49679635504883823, 0.3078647601193052], [0.1418100291285298, -0.37848280549666813]]",density,black,,,N011,visual,6,[],"['1', '2', '3', '4']",1,2023.2.3,harveyvisual,2.1,[],8,0.75,
0,pause,0.4,None,None,None,0,131,131,131,,,,,,,,,,,,,N011,visual,6,[],"['1', '2', '3', '4']",1,2023.2.3,harveyvisual,2.1,[],8,0.75,
20,dot,0.3,['dot'],['density'],black,0,132,132,132,,,48.600204944610596,48.31574010848999,48.615740060806274,dot,"[0.06, 0.1, 0.1, 0.08, 0.1, 0.1, 0.1, 0.06, 0.06, 0.08, 0.1, 0.1, 0.08, 0.1, 0.06, 0.1, 0.08, 0.1, 0.1, 0.08]","[[0.2351276283042577, -0.3436271627221176], [-0.3927697368162073, 0.22879290278384473], [0.38762088161954045, 0.08127718253420246], [0.1112179632249366, 0.3888205003303601], [0.5664681453870289, 0.21198329322482443], [-0.1776751704207174, -0.3274341663740852], [0.5716629924390985, -0.0069725203295938065], [0.028835002497228923, 0.055453364967624874], [0.016614194991913078, -0.4686757062431044], [0.46822684854687646, -0.20426496019575388], [0.24103030908938416, -0.15328055443140254], [-0.47617288382976736, -0.0418436446180539], [0.007639791224252845, 0.5602072261230515], [-0.41748492345540955, -0.34365226870139315], [-0.08195825988723116, -0.10975865119865796], [-0.2619780295470301, -0.03212949357921291], [-0.08937140481158867, 0.21793704656340274], [0.4290966534151993, 0.4168117140731995], [-0.5637809311804787, -0.21147783732338632], [0.42244690896127557, -0.42142491649211977]]",density,black,,,N011,visual,6,[],"['1', '2', '3', '4']",1,2023.2.3,harveyvisual,2.1,[],8,0.75,
0,pause,0.4,None,None,None,0,133,133,133,,,,,,,,,,,,,N011,visual,6,[],"['1', '2', '3', '4']",1,2023.2.3,harveyvisual,2.1,[],8,0.75,
20,dot,0.3,['dot'],['density'],black,0,134,134,134,,,49.30020499229431,49.01573204994202,49.31568694114685,dot,"[0.08, 0.1, 0.08, 0.08, 0.1, 0.06, 0.08, 0.1, 0.08, 0.1, 0.08, 0.06, 0.1, 0.08, 0.08, 0.1, 0.1, 0.08, 0.06, 0.1]","[[-0.1567211087631632, -0.25285471243253943], [-0.44811065350159335, 0.34121672943327414], [0.41240731146337584, -0.3512909041341373], [-0.6001391269215641, -0.01954183843451302], [0.0010402835825762402, 0.04791704853835832], [0.5243832644521301, 0.15610795575754122], [0.031020683911201385, -0.34392990982206123], [-0.24555437921143558, 0.5065262612073063], [0.23129397625620618, 0.4339831532908679], [0.5844459597332773, -0.06786653245025921], [0.18944298717198527, 0.0833149300681435], [-0.08815977206628167, -0.5987787251423934], [0.21626736288595994, -0.4355490040929465], [-0.1908776269553245, 0.24365426898772402], [-0.506882932384301, -0.28996687546956734], [-0.3114218017198624, -0.37393341267445745], [0.4211650297535653, 0.34484739760609784], [-0.34785721474879855, 0.07887456806632664], [0.3048098848983981, -0.19241957784867103], [-0.18356716675490486, -0.04502107470905059]]",density,black,,,N011,visual,6,[],"['1', '2', '3', '4']",1,2023.2.3,harveyvisual,2.1,[],8,0.75,
0,pause,0.4,None,None,None,0,135,135,135,,,,,,,,,,,,,N011,visual,6,[],"['1', '2', '3', '4']",1,2023.2.3,harveyvisual,2.1,[],8,0.75,
20,dot,0.3,['dot'],['density'],white,0,136,136,136,,,50.00021195411682,49.715842962265015,50.01582407951355,dot,"[0.08, 0.06, 0.08, 0.08, 0.1, 0.06, 0.06, 0.1, 0.06, 0.08, 0.08, 0.06, 0.1, 0.1, 0.1, 0.1, 0.08, 0.08, 0.08, 0.08]","[[-0.2805719940011822, 0.4335492172405796], [-0.20414365504486842, -0.13110944402207592], [-0.16356130990042866, 0.2142131725996167], [-0.24253741450673805, -0.45328906335915176], [0.3998697611927092, -0.13330802221906646], [0.3488877440462895, 0.4772554049296817], [-0.4694749195211887, 0.02874613928226538], [0.27741984344310255, 0.23016481458025917], [-0.5139041790300349, -0.27934145975247665], [0.446555611645696, -0.4051092494515824], [0.05283004868142438, -0.10390569931937638], [0.4927753067777637, 0.08547057008336578], [0.03622905035367496, 0.1014905005732758], [-0.04455633910940793, -0.3955370457348628], [-0.5132742076695934, 0.31207827109752495], [0.0669488163737264, 0.40525444712254444], [0.2845338120716997, 0.03571424126337863], [0.1707870660959273, -0.3572233776729994], [0.48462867061838766, 0.3115091788783564], [-0.0332786794838954, 0.5875839022495954]]",density,white,,,N011,visual,6,[],"['1', '2', '3', '4']",1,2023.2.3,harveyvisual,2.1,[],8,0.75,
0,pause,0.4,None,None,None,0,137,137,137,,,,,,,,,,,1,50.175260066986084,N011,visual,6,[],"['1', '2', '3', '4']",1,2023.2.3,harveyvisual,2.1,[],8,0.75,
20,dot,0.3,['dot'],['density'],black,0,138,138,138,,,50.70022010803223,50.415677070617676,50.71568202972412,dot,"[0.08, 0.08, 0.08, 0.06, 0.1, 0.08, 0.08, 0.06, 0.1, 0.08, 0.1, 0.08, 0.1, 0.1, 0.06, 0.06, 0.08, 0.06, 0.06, 0.1]","[[0.0601061658859805, 0.4106755056246937], [-0.4836196355993459, 0.1757607325823361], [-0.1448820180364117, -0.11506954286700799], [-0.2490886589795216, -0.34851901570868393], [0.596881590958683, -0.09294605630205245], [0.006401976034992152, -0.3403313151626343], [0.34076241178593036, 0.35412366568112974], [-0.04560706865588149, 0.06160700824551235], [0.2980180718657073, -0.10336293552623482], [-0.26157543088348256, 0.4951753690532297], [-0.4959549212233553, -0.2352603997672047], [0.485406542666298, 0.11677994571525002], [-0.29143406360312396, 0.2833991515103078], [0.25888772455376907, -0.5424981825698812], [0.09420977697827815, 0.20834846885524305], [-0.3076557426402603, -0.014159128157644418], [0.36386672391301034, -0.30377212701320383], [-0.5992966826477746, 0.015644372582544655], [-0.07015019725251936, -0.516328175765103], [-0.45516979113945677, 0.3873447369969459]]",density,black,,,N011,visual,6,[],"['1', '2', '3', '4']",1,2023.2.3,harveyvisual,2.1,[],8,0.75,
0,pause,0.4,None,None,None,0,139,139,139,,,,,,,,,,,,,N011,visual,6,[],"['1', '2', '3', '4']",1,2023.2.3,harveyvisual,2.1,[],8,0.75,
20,dot,0.3,['dot'],['density'],black,0,140,140,140,,,51.40021896362305,51.11567711830139,51.415656089782715,dot,"[0.1, 0.06, 0.08, 0.08, 0.08, 0.1, 0.08, 0.06, 0.06, 0.06, 0.06, 0.1, 0.1, 0.1, 0.06, 0.08, 0.08, 0.08, 0.08, 0.1]","[[0.5436040858759034, 0.2552168444336169], [0.251206722853655, -0.29770292615492944], [-0.3331866513261832, 0.3640884053109582], [0.31216915800576783, 0.4838070136727709], [-0.47709975779637237, 0.06822728025091584], [-0.42069049166079686, -0.19112405745105587], [0.502111392224159, -0.33342704451541455], [-0.007744712670427423, 0.13486981320143998], [0.38432659558303384, -0.0418348316777869], [-0.3163579002009812, -0.504015383006482], [0.2886143304774391, 0.21960546109394452], [0.12159770993559171, 0.5924749615853191], [-0.06383390653099041, -0.15980993073662753], [0.30395093117501903, -0.49096530852268827], [-0.08487259292074745, -0.5648603175015602], [-0.04563901275594284, 0.41898857484957863], [-0.1310261851759642, -0.3393406878714094], [-0.16869268477015714, 0.57046052161015], [0.6050673838619661, -0.012044458899859167], [0.11879382020287399, -0.017490745751505776]]",density,black,,,N011,visual,6,[],"['1', '2', '3', '4']",1,2023.2.3,harveyvisual,2.1,[],8,0.75,
0,pause,0.4,None,None,None,0,141,141,141,,,,,,,,,,,,,N011,visual,6,[],"['1', '2', '3', '4']",1,2023.2.3,harveyvisual,2.1,[],8,0.75,
20,dot,0.3,['dot'],['density'],black,0,142,142,142,,,52.1002140045166,51.815650939941406,52.11564302444458,dot,"[0.1, 0.1, 0.06, 0.1, 0.1, 0.08, 0.1, 0.08, 0.08, 0.08, 0.08, 0.08, 0.1, 0.1, 0.08, 0.06, 0.08, 0.08, 0.08, 0.08]","[[-0.5491234285294702, 0.1909758962449256], [0.19883205159831252, 0.27339899014922586], [0.35556110807420505, -0.05800879207360943], [0.5379616024360113, 0.2673889853596079], [0.10653371043963433, -0.06743562408500414], [-0.35179791684480843, -0.034808441249077726], [0.18121315787159087, 0.5087406919841118], [-0.08906476541002306, 0.13801180890008413], [-0.1385901852178461, -0.5669292081206677], [-0.5890332681459635, -0.012287655458048469], [-0.2104822016899947, -0.32944957448102596], [0.45146367923513886, -0.3800631821809542], [0.20524180448176255, -0.5589888312515476], [0.0804612083708457, -0.35192327997820094], [-0.45663001997498426, -0.3433536335599565], [-0.071801863462719, 0.5442303908408141], [0.5932017801190083, 0.006219929967216112], [-0.3347939474463557, 0.3178566427517586], [0.5586563867967097, -0.2129662500603549], [-0.13486885860779896, -0.09062552646025634]]",density,black,,,N011,visual,6,[],"['1', '2', '3', '4']",1,2023.2.3,harveyvisual,2.1,[],8,0.75,
0,pause,0.4,None,None,None,0,143,143,143,,,,,,,,,,,,,N011,visual,6,[],"['1', '2', '3', '4']",1,2023.2.3,harveyvisual,2.1,[],8,0.75,
20,dot,0.3,['dot'],['density'],black,0,144,144,144,,,52.8001971244812,52.51563215255737,52.815624952316284,dot,"[0.06, 0.08, 0.06, 0.06, 0.08, 0.06, 0.06, 0.08, 0.1, 0.1, 0.06, 0.08, 0.08, 0.1, 0.06, 0.08, 0.08, 0.06, 0.08, 0.1]","[[0.07283242955415181, -0.5694680910173506], [0.023774060227650717, 0.20461246250333154], [0.3957153678260944, -0.2368013505208758], [-0.4631322505753604, -0.06649121668969127], [0.5790923110625649, -0.1630747811685986], [-0.13351518401295437, -0.33803587745740066], [0.06807852275468518, -0.2468773348710273], [0.527401694224077, 0.24921094581216996], [-0.3776877147908346, -0.2933162901008679], [-0.3391837844982925, 0.12839501479402715], [0.26783294889332865, 0.07329819258848758], [0.3743160133828618, -0.4268921303226496], [0.3125603497672521, 0.2608039486699941], [-0.02566084286999637, 0.4918976566935448], [-0.37808545524726545, 0.3703253733821206], [-0.14584391396473306, 0.03552461953332864], [-0.5283099536033304, 0.1906968082930181], [-0.3182332512606044, -0.5126739488589593], [0.2066204046994199, 0.4533058299828441], [0.06920934383720578, -0.054221270429243074]]",density,black,,,N011,visual,6,[],"['1', '2', '3', '4']",1,2023.2.3,harveyvisual,2.1,[],8,0.75,
0,pause,0.4,None,None,None,0,145,145,145,,,,,,,,,,,,,N011,visual,6,[],"['1', '2', '3', '4']",1,2023.2.3,harveyvisual,2.1,[],8,0.75,
20,dot,0.3,['dot'],['density'],black,0,146,146,146,,,53.500208139419556,53.21573495864868,53.51572895050049,dot,"[0.08, 0.06, 0.06, 0.08, 0.08, 0.1, 0.06, 0.08, 0.06, 0.06, 0.08, 0.08, 0.06, 0.08, 0.06, 0.08, 0.08, 0.06, 0.08, 0.1]","[[-0.5553805483552043, 0.027612005442813004], [0.4828828607097976, -0.36227423417658955], [0.16998834311367872, 0.04479351497106354], [-0.10185745064686846, 0.06589291052039759], [-0.1163439949067328, -0.5035630096212013], [0.5991704106824215, 0.030400472780218277], [0.41235909064340837, -0.03465734155879274], [-0.08272768302785072, 0.3065596343135766], [0.44413789883001165, 0.39432052664296924], [-0.34218317117601715, 0.42170343181816516], [0.07823499598678885, -0.37650986974685474], [-0.3121683893903717, -0.18636102750359124], [0.1435256065788687, 0.3065650925829624], [-0.4273931611993635, 0.21310897613327823], [-0.5130388002345645, -0.2007107005037393], [-0.33864248979525613, 0.02991363569950589], [0.06740486728902229, -0.5685967417682541], [-0.39446581040969364, -0.4334317542617757], [-0.12436173908835124, -0.15760070833804468], [0.27653604966222434, -0.16784367687148977]]",density,black,,,N011,visual,6,[],"['1', '2', '3', '4']",1,2023.2.3,harveyvisual,2.1,[],8,0.75,
0,pause,0.4,None,None,None,0,147,147,147,,,,,,,,,,,,,N011,visual,6,[],"['1', '2', '3', '4']",1,2023.2.3,harveyvisual,2.1,[],8,0.75,
20,dot,0.3,['dot'],['density'],black,0,148,148,148,,,54.20021295547485,53.9156060218811,54.215553998947144,dot,"[0.06, 0.06, 0.08, 0.08, 0.08, 0.1, 0.1, 0.06, 0.1, 0.06, 0.1, 0.1, 0.06, 0.06, 0.08, 0.1, 0.06, 0.08, 0.06, 0.08]","[[-0.46219733190932466, 0.19290204997792215], [0.5131953752299255, 0.07791010755929445], [-0.5724079293118625, -0.03251288306064451], [-0.17872677341358867, 0.26094159461426414], [-0.12528770210351192, -0.06867056851506426], [0.4581870314935014, 0.2880599519710782], [0.5086565521060699, -0.2488330007334017], [0.3158388471218654, -0.2013665781382532], [-0.3158525153409169, 0.4676401204164514], [-0.20324313139509892, -0.48520271103393653], [0.30427423000393206, -0.5172986533923316], [-0.33646264526321096, 0.043175350886361374], [-0.5146874244016056, -0.28064558112378724], [0.07631501064964741, -0.3072550331162542], [0.21005078988384374, 0.33043914031031907], [0.18961913336358482, 0.07020293496465879], [0.0655170602076498, -0.0943021860218306], [-0.3198313589398525, -0.1758638595766166], [0.3187156007353834, 0.4901346626484774], [0.10391764672490778, 0.52165121197898]]",density,black,,,N011,visual,6,[],"['1', '2', '3', '4']",1,2023.2.3,harveyvisual,2.1,[],8,0.75,
0,pause,0.4,None,None,None,0,149,149,149,,,,,,,,,,,,,N011,visual,6,[],"['1', '2', '3', '4']",1,2023.2.3,harveyvisual,2.1,[],8,0.75,
20,dot,0.3,['dot'],['density'],white,0,150,150,150,,,54.90021300315857,54.615562915802,54.91554594039917,dot,"[0.1, 0.06, 0.1, 0.06, 0.08, 0.1, 0.06, 0.08, 0.1, 0.06, 0.06, 0.08, 0.08, 0.1, 0.06, 0.06, 0.06, 0.06, 0.1, 0.06]","[[0.2556424384536513, -0.11769643059642665], [-0.3582297520101918, 0.25808234045360945], [-0.2092163225721193, 0.016195614550093884], [-0.5965657490500883, -0.07009646782181822], [0.2588681273489982, 0.4856398503121211], [-0.005510858345094571, -0.3532707192505781], [0.4133816903642239, 0.1320784953113377], [0.12146405610862487, -0.5609537539574023], [0.1730238233886331, 0.06695095650739602], [0.3020958633754729, -0.40103543411785364], [-0.3604374772153336, -0.3371448822079391], [0.4500733824184785, -0.08386745446601113], [-0.057341841037437, 0.5644682027831123], [0.0038662634585303612, 0.17552954110095087], [-0.5537455511711696, 0.11509879306771592], [-0.016087103301220096, -0.12503114278425376], [-0.23120481960483313, 0.42599501227452585], [0.4694672387280253, -0.30523913550702175], [0.21693447384712905, 0.271092316204667], [-0.18034700117456953, -0.43947907699650557]]",density,white,,,N011,visual,6,[],"['1', '2', '3', '4']",1,2023.2.3,harveyvisual,2.1,[],8,0.75,
0,pause,0.4,None,None,None,0,151,151,151,,,,,,,,,,,1,54.953596115112305,N011,visual,6,[],"['1', '2', '3', '4']",1,2023.2.3,harveyvisual,2.1,[],8,0.75,
20,dot,0.3,['dot'],['density'],black,0,152,152,152,,,55.60021901130676,55.31553792953491,55.61552691459656,dot,"[0.08, 0.08, 0.08, 0.06, 0.08, 0.08, 0.08, 0.06, 0.06, 0.1, 0.08, 0.1, 0.1, 0.06, 0.06, 0.08, 0.06, 0.1, 0.06, 0.06]","[[0.4443425589312312, -0.35969882224439254], [-0.32627465694359964, 0.06700548524752092], [-0.014961740625279996, 0.08415257068624582], [-0.20246841795377135, 0.5614598414187157], [-0.2498813838779994, -0.36711257182143786], [-0.11297282655366869, 0.2532156621271582], [-0.009727067140795964, -0.20343758752820967], [0.4266629468285622, 0.12049241340691008], [0.2583802008807964, 0.3255133909945854], [-0.5252201684938677, -0.162414664551808], [0.5753119895247599, -0.03332142813969227], [-0.5575152639596256, 0.13945520794448038], [-0.32044047737168907, 0.31457322515423247], [0.21148204302146334, -0.08039769393465745], [-0.034207960649487834, -0.40390451856446197], [-0.21875828296180677, -0.1182594794404736], [0.14653725636540793, 0.5835051606050783], [0.48345755609320384, 0.3328339425067995], [0.24404578126643117, -0.5285521891150364], [-0.45083986537522375, -0.3617530697855127]]",density,black,,,N011,visual,6,[],"['1', '2', '3', '4']",1,2023.2.3,harveyvisual,2.1,[],8,0.75,
0,pause,0.4,None,None,None,0,153,153,153,,,,,,,,,,,,,N011,visual,6,[],"['1', '2', '3', '4']",1,2023.2.3,harveyvisual,2.1,[],8,0.75,
20,dot,0.3,['dot'],['density'],black,0,154,154,154,,,56.300199031829834,56.01551604270935,56.31550693511963,dot,"[0.08, 0.1, 0.08, 0.06, 0.06, 0.1, 0.06, 0.1, 0.08, 0.06, 0.1, 0.08, 0.08, 0.06, 0.08, 0.1, 0.08, 0.08, 0.08, 0.1]","[[0.17088233473380965, -0.5551815713232454], [-0.2164032520821909, -0.37247348630182137], [0.4642595620917783, -0.2521354482269072], [-0.2591439514572136, 0.13110021015084916], [0.05446460979404544, 0.1789861659559303], [0.27387983965535, -0.09089097578862759], [-0.5013469652039193, -0.0924885886170283], [0.0765830546608337, 0.5972115928346403], [-0.5468313857433255, 0.22419898491035112], [0.36755845703111856, 0.08481656919838898], [0.21102430568683195, 0.40921122003543176], [-0.3405408196334508, 0.47941335394348306], [0.1737939506279178, -0.3430735076674987], [0.02245639890986273, -0.04537121997250548], [-0.0746797136803391, 0.47322250338154404], [-0.2860482695799132, -0.1370386689689742], [-0.47062638389992634, -0.3603861753602177], [-0.027370453274887963, -0.397207104980331], [0.46178773175340304, 0.3068249359102618], [0.5967589021013925, 0.03439161384806269]]",density,black,,,N011,visual,6,[],"['1', '2', '3', '4']",1,2023.2.3,harveyvisual,2.1,[],8,0.75,
0,pause,0.4,None,None,None,0,155,155,155,,,,,,,,,,,,,N011,visual,6,[],"['1', '2', '3', '4']",1,2023.2.3,harveyvisual,2.1,[],8,0.75,
9,dot,0.3,['dot'],['density'],black,0,156,156,156,,,57.00021696090698,56.71549105644226,57.01562714576721,dot,"[0.1, 0.08, 0.06, 0.06, 0.1, 0.08, 0.06, 0.06, 0.08]","[[0.21556792455118703, 0.37642033042102185], [0.14366510572844648, -0.18651452926789283], [0.49642287684820396, -0.0794158383055628], [-0.04770628609247857, -0.12519201939426747], [0.20310136493979325, 0.154094551714378], [-0.004065485174475974, 0.09100382633055243], [-0.018053901421587658, 0.34918523294118026], [0.29624623666919286, -0.053344657000752645], [-0.2018857737562037, 0.01971770186205045]]",density,black,,,N011,visual,6,[],"['1', '2', '3', '4']",1,2023.2.3,harveyvisual,2.1,[],8,0.75,
0,pause,0.4,None,None,None,0,157,157,157,,,,,,,,,,,,,N011,visual,6,[],"['1', '2', '3', '4']",1,2023.2.3,harveyvisual,2.1,[],8,0.75,
9,dot,0.3,['dot'],['density'],black,0,158,158,158,,,57.70022010803223,57.41548800468445,57.71546006202698,dot,"[0.1, 0.1, 0.08, 0.08, 0.06, 0.06, 0.06, 0.1, 0.06]","[[0.5610971552988853, -0.17060184332349634], [0.41375718760989944, -0.015869013459887487], [0.10524493337967332, -0.4151143617417518], [0.33762937987512565, -0.21166948995529247], [0.31978246251342735, -0.42403070142702926], [0.14918584865882126, 0.054317793641313596], [-0.13687229080136074, -0.3544767643123256], [-0.14284940328496695, -0.15361328447573858], [0.09035025664413378, -0.16809195260635462]]",density,black,,,N011,visual,6,[],"['1', '2', '3', '4']",1,2023.2.3,harveyvisual,2.1,[],8,0.75,
0,pause,0.4,None,None,None,0,159,159,159,,,,,,,,,,,,,N011,visual,6,[],"['1', '2', '3', '4']",1,2023.2.3,harveyvisual,2.1,[],8,0.75,
9,dot,0.3,['dot'],['density'],black,0,160,160,160,,,58.4002161026001,58.115495920181274,58.41543006896973,dot,"[0.1, 0.1, 0.1, 0.06, 0.06, 0.08, 0.08, 0.06, 0.06]","[[0.11766436913102363, -0.04327704920019282], [0.17973489876850246, -0.2957558932143311], [0.4322853556796634, 0.1292829237047714], [-0.0348924626991882, -0.2091692004054023], [0.511593351462966, -0.2715393032181878], [0.39631341359825684, -0.10388811790353111], [0.1759041025424718, 0.35783279634564974], [-0.11077337801993212, 0.08002505665429639], [0.1915495233696259, 0.15329463501335125]]",density,black,,,N011,visual,6,[],"['1', '2', '3', '4']",1,2023.2.3,harveyvisual,2.1,[],8,0.75,
0,pause,0.4,None,None,None,0,161,161,161,,,,,,,,,,,,,N011,visual,6,[],"['1', '2', '3', '4']",1,2023.2.3,harveyvisual,2.1,[],8,0.75,
9,dot,0.3,['dot'],['density'],black,0,162,162,162,,,59.10020995140076,58.81540298461914,59.11539912223816,dot,"[0.06, 0.1, 0.1, 0.1, 0.1, 0.08, 0.06, 0.1, 0.06]","[[0.5176022259896301, 0.07013652950073157], [0.29073914382076843, 0.49095716113391286], [0.25755010907869064, 0.10321661572421419], [0.11549350267606502, 0.37871636325142816], [-0.040248060121338324, 0.07603447111469516], [0.35733910828644905, -0.07238149579930037], [0.09184169877402729, -0.10424630849328012], [-0.10934901156313583, -0.14911132891814113], [0.4158094160330474, 0.26019999263529187]]",density,black,,,N011,visual,6,[],"['1', '2', '3', '4']",1,2023.2.3,harveyvisual,2.1,[],8,0.75,
0,pause,0.4,None,None,None,0,163,163,163,,,,,,,,,,,,,N011,visual,6,[],"['1', '2', '3', '4']",1,2023.2.3,harveyvisual,2.1,[],8,0.75,
9,dot,0.3,['dot'],['density'],black,0,164,164,164,,,59.800217151641846,59.51543712615967,59.81556797027588,dot,"[0.08, 0.1, 0.1, 0.1, 0.1, 0.08, 0.06, 0.06, 0.06]","[[0.21556792455118703, 0.37642033042102185], [0.14366510572844648, -0.18651452926789283], [0.49642287684820396, -0.0794158383055628], [-0.04770628609247857, -0.12519201939426747], [0.20310136493979325, 0.154094551714378], [-0.004065485174475974, 0.09100382633055243], [-0.018053901421587658, 0.34918523294118026], [0.29624623666919286, -0.053344657000752645], [-0.2018857737562037, 0.01971770186205045]]",density,black,,,N011,visual,6,[],"['1', '2', '3', '4']",1,2023.2.3,harveyvisual,2.1,[],8,0.75,
0,pause,0.4,None,None,None,0,165,165,165,,,,,,,,,,,,,N011,visual,6,[],"['1', '2', '3', '4']",1,2023.2.3,harveyvisual,2.1,[],8,0.75,
9,dot,0.3,['dot'],['density'],white,0,166,166,166,,,60.500211000442505,60.215574979782104,60.515541076660156,dot,"[0.1, 0.06, 0.1, 0.1, 0.08, 0.08, 0.1, 0.1, 0.06]","[[0.005765111513037631, -0.143111035787845], [-0.396275933094447, -0.3321437400526764], [0.037546025436095476, -0.5612590109297682], [-0.23561619682408028, -0.19372599185683617], [-0.24582953746203298, -0.47553838121684505], [-0.07047609790874906, -0.3562711323606942], [-0.09403038697424164, 0.06164574472317626], [0.13577280496850042, -0.3868547356250126], [0.15608206217807025, 0.06264253907795621]]",density,white,,,N011,visual,6,[],"['1', '2', '3', '4']",1,2023.2.3,harveyvisual,2.1,[],8,0.75,
0,pause,0.4,None,None,None,0,167,167,167,,,,,,,,,,,1,60.78148293495178,N011,visual,6,[],"['1', '2', '3', '4']",1,2023.2.3,harveyvisual,2.1,[],8,0.75,
8,dot,0.3,['dot'],['density'],white,0,168,168,168,,,61.20020914077759,60.91541504859924,61.215368032455444,dot,"[0.06, 0.1, 0.08, 0.06, 0.08, 0.08, 0.08, 0.08]","[[0.28112832868380594, 0.3075763237432237], [-0.21381995858864508, 0.197554992839043], [0.14035436555963224, -0.1470740351963634], [-0.04856350071149823, -0.017306043905309515], [0.12070301707556046, 0.11279463428917226], [0.35236156425888765, 0.046198621115284964], [-0.012223412543992913, 0.3265760435025566], [0.11745206869397669, 0.49408919182137495]]",density,white,,,N011,visual,6,[],"['1', '2', '3', '4']",1,2023.2.3,harveyvisual,2.1,[],8,0.75,
0,pause,0.4,None,None,None,0,169,169,169,,,,,,,,,,,,,N011,visual,6,[],"['1', '2', '3', '4']",1,2023.2.3,harveyvisual,2.1,[],8,0.75,
8,dot,0.3,['dot'],['density'],black,0,170,170,170,,,61.90021109580994,61.61541295051575,61.915409088134766,dot,"[0.06, 0.08, 0.06, 0.08, 0.08, 0.08, 0.08, 0.1]","[[0.28112832868380594, 0.3075763237432237], [-0.21381995858864508, 0.197554992839043], [0.14035436555963224, -0.1470740351963634], [-0.04856350071149823, -0.017306043905309515], [0.12070301707556046, 0.11279463428917226], [0.35236156425888765, 0.046198621115284964], [-0.012223412543992913, 0.3265760435025566], [0.11745206869397669, 0.49408919182137495]]",density,black,,,N011,visual,6,[],"['1', '2', '3', '4']",1,2023.2.3,harveyvisual,2.1,[],8,0.75,
0,pause,0.4,None,None,None,0,171,171,171,,,,,,,,,,,,,N011,visual,6,[],"['1', '2', '3', '4']",1,2023.2.3,harveyvisual,2.1,[],8,0.75,
8,dot,0.3,['dot'],['density'],black,0,172,172,172,,,62.60022211074829,62.31539297103882,62.61538505554199,dot,"[0.06, 0.1, 0.08, 0.1, 0.1, 0.1, 0.08, 0.06]","[[-0.012034279999911439, 0.06556808781241986], [-0.3446774290598954, 0.11122635080299646], [0.22428040003470762, 0.1796687910302273], [-0.037221971777983635, 0.5300244249381355], [-0.1456717336157172, 0.2672263832914442], [0.040508406505222534, 0.3412803201140432], [-0.26975617824218623, 0.48628578621654683], [0.24128509790231628, 0.4122343446782376]]",density,black,,,N011,visual,6,[],"['1', '2', '3', '4']",1,2023.2.3,harveyvisual,2.1,[],8,0.75,
0,pause,0.4,None,None,None,0,173,173,173,,,,,,,,,,,,,N011,visual,6,[],"['1', '2', '3', '4']",1,2023.2.3,harveyvisual,2.1,[],8,0.75,
8,dot,0.3,['dot'],['density'],black,0,174,174,174,,,63.30020999908447,63.01535892486572,63.315340995788574,dot,"[0.1, 0.06, 0.08, 0.1, 0.06, 0.06, 0.08, 0.08]","[[-0.3869743371455666, 0.15388434217336297], [0.11424038932868294, 0.18734519769139274], [-0.06602262913525138, -0.20199883598953133], [-0.13221522482970946, 0.16661696891490863], [-0.2408224703751142, -0.03724946932993881], [-0.01219752370661542, -0.004327099574405561], [-0.20345141844285677, 0.44978546357431476], [0.2450906497331586, -0.012808503174003826]]",density,black,,,N011,visual,6,[],"['1', '2', '3', '4']",1,2023.2.3,harveyvisual,2.1,[],8,0.75,
0,pause,0.4,None,None,None,0,175,175,175,,,,,,,,,,,,,N011,visual,6,[],"['1', '2', '3', '4']",1,2023.2.3,harveyvisual,2.1,[],8,0.75,
8,dot,0.3,['dot'],['density'],black,0,176,176,176,,,64.00022506713867,63.71532106399536,64.01529312133789,dot,"[0.1, 0.1, 0.06, 0.08, 0.06, 0.08, 0.06, 0.08]","[[-0.13214754069031825, -0.5402677255150703], [0.1288984478000013, -0.5519726475135984], [0.27401725229332, -0.34994268047279037], [-0.052680844420756816, 0.006786609240531098], [0.03557367748195712, -0.3699094958310016], [-0.23170140006741713, -0.18198058676873416], [-0.33504621301322857, -0.3611685350886627], [0.0760940577115827, -0.14857148175569432]]",density,black,,,N011,visual,6,[],"['1', '2', '3', '4']",1,2023.2.3,harveyvisual,2.1,[],8,0.75,
0,pause,0.4,None,None,None,0,177,177,177,,,,,,,,,,,,,N011,visual,6,[],"['1', '2', '3', '4']",1,2023.2.3,harveyvisual,2.1,[],8,0.75,
8,dot,0.3,['dot'],['density'],black,0,178,178,178,,,64.70022702217102,64.41545605659485,64.71525001525879,dot,"[0.08, 0.08, 0.06, 0.1, 0.08, 0.08, 0.1, 0.08]","[[0.4694715163891994, 0.13329625263481096], [0.14358160208090395, 0.35167434699812705], [0.41559735975202405, 0.3690190921299561], [-0.041805684447173724, 0.4315913723966695], [-0.04993254304034498, 0.2285123563850015], [0.25337459258073897, 0.16365346604105616], [0.18476510797087844, 0.5481483313560797], [0.14868800337579569, -0.10349430855878591]]",density,black,,,N011,visual,6,[],"['1', '2', '3', '4']",1,2023.2.3,harveyvisual,2.1,[],8,0.75,
0,pause,0.4,None,None,None,0,179,179,179,,,,,,,,,,,,,N011,visual,6,[],"['1', '2', '3', '4']",1,2023.2.3,harveyvisual,2.1,[],8,0.75,
7,dot,0.3,['dot'],['density'],black,0,180,180,180,,,65.40021896362305,65.11529803276062,65.4152889251709,dot,"[0.06, 0.1, 0.06, 0.08, 0.08, 0.1, 0.06]","[[-0.23022292756182125, -0.05768485575552839], [-0.3970021412728509, -0.1722837668104814], [-0.2989980436724142, -0.5015189566068301], [-0.1887121522124618, -0.3052937986494308], [-0.001193606839323686, -0.45187687349833133], [-0.45251418858811787, -0.367940027934103], [0.11213422846620591, -0.19711986939188722]]",density,black,,,N011,visual,6,[],"['1', '2', '3', '4']",1,2023.2.3,harveyvisual,2.1,[],8,0.75,
0,pause,0.4,None,None,None,0,181,181,181,,,,,,,,,,,,,N011,visual,6,[],"['1', '2', '3', '4']",1,2023.2.3,harveyvisual,2.1,[],8,0.75,
7,dot,0.3,['dot'],['density'],black,0,182,182,182,,,66.10020995140076,65.81528496742249,66.11527514457703,dot,"[0.06, 0.06, 0.08, 0.06, 0.08, 0.1, 0.1]","[[-0.3616029487054454, 0.4456424486886853], [-0.1496406170718537, 0.08450683720449656], [-0.4229793897960434, 0.19545916586121675], [-0.050735401720141765, 0.4582308035931027], [-0.23416009772798219, 0.28880413379285297], [0.00916417092529717, 0.20866532064640267], [0.0895043828575618, 0.020292244516940467]]",density,black,,,N011,visual,6,[],"['1', '2', '3', '4']",1,2023.2.3,harveyvisual,2.1,[],8,0.75,
0,pause,0.4,None,None,None,0,183,183,183,,,,,,,,,,,,,N011,visual,6,[],"['1', '2', '3', '4']",1,2023.2.3,harveyvisual,2.1,[],8,0.75,
7,dot,0.3,['dot'],['density'],black,0,184,184,184,,,66.80020594596863,66.51526403427124,66.81524801254272,dot,"[0.08, 0.1, 0.08, 0.06, 0.1, 0.06, 0.08]","[[0.020512593940644967, 0.06058225053891463], [-0.12457192929091994, 0.22210134043855223], [0.2267676360835929, 0.07227077176864677], [-0.19381219694833235, -0.14277017550647156], [0.096077147208419, -0.13886261858003718], [0.087393672000005, 0.26445259248386815], [-0.018663113410245565, 0.4344684582511623]]",density,black,,,N011,visual,6,[],"['1', '2', '3', '4']",1,2023.2.3,harveyvisual,2.1,[],8,0.75,
0,pause,0.4,None,None,None,0,185,185,185,,,,,,,,,,,,,N011,visual,6,[],"['1', '2', '3', '4']",1,2023.2.3,harveyvisual,2.1,[],8,0.75,
7,dot,0.3,['dot'],['density'],black,0,186,186,186,,,67.50023102760315,67.21524310112,67.51523113250732,dot,"[0.1, 0.06, 0.1, 0.08, 0.1, 0.08, 0.08]","[[0.3350011905151264, 0.09255159473130091], [-0.07424962927914175, -0.2643067362759337], [-0.0068732696698998825, 0.04948606721470151], [0.12855319879406235, -0.3381192636220083], [0.11551090787938859, 0.24000211478775196], [0.3415900712266813, -0.1269386107563701], [0.14228147320501944, -0.08533637750285226]]",density,black,,,N011,visual,6,[],"['1', '2', '3', '4']",1,2023.2.3,harveyvisual,2.1,[],8,0.75,
0,pause,0.4,None,None,None,0,187,187,187,,,,,,,,,,,,,N011,visual,6,[],"['1', '2', '3', '4']",1,2023.2.3,harveyvisual,2.1,[],8,0.75,
7,dot,0.3,['dot'],['density'],black,0,188,188,188,,,68.2002170085907,67.91519808769226,68.21531510353088,dot,"[0.08, 0.1, 0.08, 0.08, 0.1, 0.1, 0.06]","[[-0.23867826801906328, -0.4967507610264224], [-0.008572732368673055, -0.07934474412745643], [-0.2066881937132076, -0.2790710878612567], [0.21709551483580575, -0.47507177834902015], [0.2058411173229685, -0.17553172422760346], [-0.015438952742397984, -0.3568653319460787], [-0.011603255668745115, -0.5749057065343526]]",density,black,,,N011,visual,6,[],"['1', '2', '3', '4']",1,2023.2.3,harveyvisual,2.1,[],8,0.75,
0,pause,0.4,None,None,None,0,189,189,189,,,,,,,,,,,,,N011,visual,6,[],"['1', '2', '3', '4']",1,2023.2.3,harveyvisual,2.1,[],8,0.75,
7,dot,0.3,['dot'],['density'],white,0,190,190,190,,,68.90023398399353,68.61532092094421,68.91525411605835,dot,"[0.08, 0.08, 0.06, 0.08, 0.08, 0.06, 0.08]","[[-0.2877807563129739, -0.2392998172879968], [-0.4930284393840153, 0.02918626900802282], [-0.13307942101536208, -0.4135874564509098], [-0.1727922191076213, -0.04289663127052677], [-0.3943840059764042, -0.4351600913800347], [-0.03321109949484203, -0.21096883087625085], [-0.5418728138863746, -0.1990057631286019]]",density,white,,,N011,visual,6,[],"['1', '2', '3', '4']",1,2023.2.3,harveyvisual,2.1,[],8,0.75,
0,pause,0.4,None,None,None,0,191,191,191,,,,,,,,,,,1,69.08335399627686,N011,visual,6,[],"['1', '2', '3', '4']",1,2023.2.3,harveyvisual,2.1,[],8,0.75,
6,dot,0.3,['dot'],['density'],black,0,192,192,192,,,69.60022497177124,69.3151650428772,69.61511492729187,dot,"[0.1, 0.1, 0.06, 0.08, 0.06, 0.06]","[[-0.12151555870586603, -0.4812968000001843], [0.16790488833295267, -0.2471088416996458], [0.27214716196035416, -0.49820278546509117], [-0.038147587524033764, -0.29309333197091036], [0.014949188681413147, -0.08915939926713055], [0.06798063624072649, -0.5852336971646088]]",density,black,,,N011,visual,6,[],"['1', '2', '3', '4']",1,2023.2.3,harveyvisual,2.1,[],8,0.75,
0,pause,0.4,None,None,None,0,193,193,193,,,,,,,,,,,,,N011,visual,6,[],"['1', '2', '3', '4']",1,2023.2.3,harveyvisual,2.1,[],8,0.75,
6,dot,0.3,['dot'],['density'],black,0,194,194,194,,,70.30022311210632,70.01520299911499,70.31518197059631,dot,"[0.06, 0.06, 0.08, 0.1, 0.1, 0.1]","[[0.1382403832049451, 0.0462086450304607], [-0.07534018949214154, -0.3274433807795599], [0.3332171610134826, -0.14895102818546319], [0.22614943412716124, -0.3322834867125916], [-0.0756450994425101, -0.005640117700353421], [0.0938048843888254, -0.16909843217532775]]",density,black,,,N011,visual,6,[],"['1', '2', '3', '4']",1,2023.2.3,harveyvisual,2.1,[],8,0.75,
0,pause,0.4,None,None,None,0,195,195,195,,,,,,,,,,,,,N011,visual,6,[],"['1', '2', '3', '4']",1,2023.2.3,harveyvisual,2.1,[],8,0.75,
6,dot,0.3,['dot'],['density'],black,0,196,196,196,,,71.0002031326294,70.71517610549927,71.0151641368866,dot,"[0.08, 0.1, 0.06, 0.08, 0.08, 0.1]","[[-0.3495133471434448, -0.27378397825191725], [-0.13100446626766318, 0.13866361521721876], [-0.5155090776439144, 0.11776884681908774], [-0.4780287848267884, -0.11588239978167382], [-0.11897161770401087, -0.0933943475842369], [-0.303431097341306, -0.010759678588622423]]",density,black,,,N011,visual,6,[],"['1', '2', '3', '4']",1,2023.2.3,harveyvisual,2.1,[],8,0.75,
0,pause,0.4,None,None,None,0,197,197,197,,,,,,,,,,,,,N011,visual,6,[],"['1', '2', '3', '4']",1,2023.2.3,harveyvisual,2.1,[],8,0.75,
6,dot,0.3,['dot'],['density'],black,0,198,198,198,,,71.70022392272949,71.41514205932617,71.71507692337036,dot,"[0.08, 0.1, 0.1, 0.06, 0.1, 0.08]","[[-0.31609589870198396, -0.31007670116123803], [-0.4478311917512715, 0.10082722748193511], [-0.2864981571692688, -0.05140390439239721], [-0.09675803094031296, -0.12021517342888931], [-0.4941273593136662, -0.13098935533792763], [-0.1300426850498692, 0.1160403058404222]]",density,black,,,N011,visual,6,[],"['1', '2', '3', '4']",1,2023.2.3,harveyvisual,2.1,[],8,0.75,
0,pause,0.4,None,None,None,0,199,199,199,,,,,,,,,,,,,N011,visual,6,[],"['1', '2', '3', '4']",1,2023.2.3,harveyvisual,2.1,[],8,0.75,
6,dot,0.3,['dot'],['density'],black,0,200,200,200,,,72.40020895004272,72.11510109901428,72.41511106491089,dot,"[0.08, 0.08, 0.06, 0.08, 0.1, 0.08]","[[-0.36954580940820725, 0.05815165478813925], [-0.28534481837461456, -0.12375618373579561], [-0.26428406214372846, 0.28010711109252995], [-0.5657182147315603, -0.11096589427743007], [-0.1492704575467133, 0.06899119969773035], [-0.5584105255039638, 0.13196562846102936]]",density,black,,,N011,visual,6,[],"['1', '2', '3', '4']",1,2023.2.3,harveyvisual,2.1,[],8,0.75,
0,pause,0.4,None,None,None,0,201,201,201,,,,,,,,,,,,,N011,visual,6,[],"['1', '2', '3', '4']",1,2023.2.3,harveyvisual,2.1,[],8,0.75,
6,dot,0.3,['dot'],['density'],black,0,202,202,202,,,73.10021305084229,72.81506109237671,73.1150369644165,dot,"[0.08, 0.1, 0.08, 0.1, 0.06, 0.06]","[[-0.5042184434856596, 0.24959378884587158], [-0.14877643798118484, -0.059020126001740114], [-0.46546181494132466, -0.1471818588402077], [-0.26957518187208745, -0.22263810459524838], [-0.2342448443914648, 0.21754944417529726], [-0.37109182385784195, 0.03297203532481631]]",density,black,,,N011,visual,6,[],"['1', '2', '3', '4']",1,2023.2.3,harveyvisual,2.1,[],8,0.75,
0,pause,0.4,None,None,None,0,203,203,203,,,,,,,,,,,,,N011,visual,6,[],"['1', '2', '3', '4']",1,2023.2.3,harveyvisual,2.1,[],8,0.75,
5,dot,0.3,['dot'],['density'],black,0,204,204,204,,,73.80021905899048,73.51508402824402,73.8150269985199,dot,"[0.1, 0.1, 0.06, 0.1, 0.06]","[[0.11182935554897071, 0.3084500478813638], [0.20284409002608467, 0.5199666233992849], [0.31882748915707354, 0.1252782162051447], [0.39083404861423326, 0.3494221689807338], [0.1196046891632849, 0.10173499350566408]]",density,black,,,N011,visual,6,[],"['1', '2', '3', '4']",1,2023.2.3,harveyvisual,2.1,[],8,0.75,
0,pause,0.4,None,None,None,0,205,205,205,,,,,,,,,,,,,N011,visual,6,[],"['1', '2', '3', '4']",1,2023.2.3,harveyvisual,2.1,[],8,0.75,
5,dot,0.3,['dot'],['density'],black,0,206,206,206,,,74.50020408630371,74.21500611305237,74.51497912406921,dot,"[0.06, 0.1, 0.1, 0.08, 0.08]","[[-0.0036269740154891753, 0.5431219823242713], [-0.2646325594942043, 0.5073179604697073], [-0.41902475937036154, 0.37311436690984484], [-0.007163214206743488, 0.2887893175302695], [-0.2156098228659233, 0.2684642371109035]]",density,black,,,N011,visual,6,[],"['1', '2', '3', '4']",1,2023.2.3,harveyvisual,2.1,[],8,0.75,
0,pause,0.4,None,None,None,0,207,207,207,,,,,,,,,,,,,N011,visual,6,[],"['1', '2', '3', '4']",1,2023.2.3,harveyvisual,2.1,[],8,0.75,
5,dot,0.3,['dot'],['density'],black,0,208,208,208,,,75.20022010803223,74.91497707366943,75.2149670124054,dot,"[0.06, 0.08, 0.06, 0.08, 0.1]","[[0.2947939438731228, -0.23060267152592065], [-0.16069394766121817, -0.3416383267983795], [0.17571447256805817, -0.04795497140357211], [-0.06398416024856234, -0.043165972544212804], [0.046845399773749824, -0.2436216536023896]]",density,black,,,N011,visual,6,[],"['1', '2', '3', '4']",1,2023.2.3,harveyvisual,2.1,[],8,0.75,
0,pause,0.4,None,None,None,0,209,209,209,,,,,,,,,,,,,N011,visual,6,[],"['1', '2', '3', '4']",1,2023.2.3,harveyvisual,2.1,[],8,0.75,
5,dot,0.3,['dot'],['density'],black,0,210,210,210,,,75.90022802352905,75.61496996879578,75.91498613357544,dot,"[0.08, 0.1, 0.08, 0.06, 0.06]","[[-0.4004020094395207, -0.04445243948850948], [-0.17181756668418613, -0.18180129995893848], [-0.46264198425852476, 0.17889071841303528], [-0.23640824159873003, 0.08340028676903545], [-0.2824747884808712, 0.2826805534387526]]",density,black,,,N011,visual,6,[],"['1', '2', '3', '4']",1,2023.2.3,harveyvisual,2.1,[],8,0.75,
0,pause,0.4,None,None,None,0,211,211,211,,,,,,,,,,,,,N011,visual,6,[],"['1', '2', '3', '4']",1,2023.2.3,harveyvisual,2.1,[],8,0.75,
5,dot,0.3,['dot'],['density'],black,0,212,212,212,,,76.6002140045166,76.31510710716248,76.61510801315308,dot,"[0.1, 0.08, 0.1, 0.1, 0.06]","[[0.10176071415026891, -0.0029310292721688898], [0.32748853803000494, -0.2831003617774451], [0.10999898603900501, -0.23076615641811304], [0.2383494361888625, 0.16403485824849598], [0.3558293804179042, -0.08171974316418079]]",density,black,,,N011,visual,6,[],"['1', '2', '3', '4']",1,2023.2.3,harveyvisual,2.1,[],8,0.75,
0,pause,0.4,None,None,None,0,213,213,213,,,,,,,,,,,,,N011,visual,6,[],"['1', '2', '3', '4']",1,2023.2.3,harveyvisual,2.1,[],8,0.75,
5,dot,0.3,['dot'],['density'],black,0,214,214,214,,,77.30022811889648,77.01508808135986,77.31510591506958,dot,"[0.1, 0.06, 0.08, 0.08, 0.1]","[[-0.08906257038347729, 0.3326351968500321], [0.2173987091792188, 0.026220721131276364], [0.07996259445097068, 0.4821024141609844], [0.14345365083950706, 0.2501481494916038], [-0.03323208063638199, 0.08804517681276208]]",density,black,,,N011,visual,6,[],"['1', '2', '3', '4']",1,2023.2.3,harveyvisual,2.1,[],8,0.75,
0,pause,0.4,None,None,None,0,215,215,215,,,,,,,,,,,,,N011,visual,6,[],"['1', '2', '3', '4']",1,2023.2.3,harveyvisual,2.1,[],8,0.75,
4,dot,0.3,['dot'],['density'],black,0,216,216,216,,,78.00022602081299,77.71494102478027,78.01491904258728,dot,"[0.1, 0.06, 0.08, 0.08]","[[0.5195678262777355, 0.06634869171649047], [0.11508779247300271, 0.04459464887784077], [0.27862218446352316, 0.18290230777407274], [0.28701832247091064, -0.08209332131291468]]",density,black,,,N011,visual,6,[],"['1', '2', '3', '4']",1,2023.2.3,harveyvisual,2.1,[],8,0.75,
0,pause,0.4,None,None,None,0,217,217,217,,,,,,,,,,,,,N011,visual,6,[],"['1', '2', '3', '4']",1,2023.2.3,harveyvisual,2.1,[],8,0.75,
4,dot,0.3,['dot'],['density'],black,0,218,218,218,,,78.70020294189453,78.41493606567383,78.71489095687866,dot,"[0.06, 0.1, 0.06, 0.1]","[[-0.3130108772186628, 0.4658633188731559], [0.06875292536802097, 0.3619778545149697], [-0.12928423743784842, 0.28835211797578114], [-0.08764786508193922, 0.5151731075523892]]",density,black,,,N011,visual,6,[],"['1', '2', '3', '4']",1,2023.2.3,harveyvisual,2.1,[],8,0.75,
0,pause,0.4,None,None,None,0,219,219,219,,,,,,,,,,,,,N011,visual,6,[],"['1', '2', '3', '4']",1,2023.2.3,harveyvisual,2.1,[],8,0.75,
4,dot,0.3,['dot'],['density'],white,0,220,220,220,,,79.40021204948425,79.11489701271057,79.41486406326294,dot,"[0.1, 0.1, 0.08, 0.08]","[[-0.46485289602757673, 0.3603628353310837], [-0.30733625211232357, 0.21626236973196436], [-0.38991578213366157, 0.024479253410336757], [-0.570234662048439, 0.14093512067028166]]",density,white,,,N011,visual,6,[],"['1', '2', '3', '4']",1,2023.2.3,harveyvisual,2.1,[],8,0.75,
0,pause,0.4,None,None,None,0,221,221,221,,,,,,,,,,,1,79.54965806007385,N011,visual,6,[],"['1', '2', '3', '4']",1,2023.2.3,harveyvisual,2.1,[],8,0.75,
4,dot,0.3,['dot'],['density'],black,0,222,222,222,,,80.10022306442261,79.81483793258667,80.1150951385498,dot,"[0.06, 0.1, 0.1, 0.06]","[[-0.1807894278345534, -0.050693892368996955], [-0.03778933673514029, -0.29773510453537966], [0.0747201162679791, -0.1287424711559737], [-0.02241484737224569, 0.07404475448468936]]",density,black,,,N011,visual,6,[],"['1', '2', '3', '4']",1,2023.2.3,harveyvisual,2.1,[],8,0.75,
0,pause,0.4,None,None,None,0,223,223,223,,,,,,,,,,,,,N011,visual,6,[],"['1', '2', '3', '4']",1,2023.2.3,harveyvisual,2.1,[],8,0.75,
4,dot,0.3,['dot'],['density'],black,0,224,224,224,,,80.80021095275879,80.51510214805603,80.81508207321167,dot,"[0.1, 0.06, 0.06, 0.06]","[[0.06019618102804278, 0.17823994931545822], [-0.1876584465411705, -0.07971170835358893], [0.026807447441335588, -0.04038633305360204], [-0.17818728785032123, 0.12753763641901858]]",density,black,,,N011,visual,6,[],"['1', '2', '3', '4']",1,2023.2.3,harveyvisual,2.1,[],8,0.75,
0,pause,0.4,None,None,None,0,225,225,225,,,,,,,,,,,,,N011,visual,6,[],"['1', '2', '3', '4']",1,2023.2.3,harveyvisual,2.1,[],8,0.75,
4,dot,0.3,['dot'],['density'],black,0,226,226,226,,,81.50020503997803,81.21497011184692,81.51482892036438,dot,"[0.08, 0.08, 0.1, 0.06]","[[-0.264878088602857, 0.22906395790450432], [0.07239228809704809, 0.2615492699427171], [0.10034738543262733, 0.4676118263175188], [-0.09637524959065707, 0.3769302803343899]]",density,black,,,N011,visual,6,[],"['1', '2', '3', '4']",1,2023.2.3,harveyvisual,2.1,[],8,0.75,
0,pause,0.4,None,None,None,0,227,227,227,,,,,,,,,,,,,N011,visual,6,[],"['1', '2', '3', '4']",1,2023.2.3,harveyvisual,2.1,[],8,0.75,
3,dot,0.3,['dot'],['density'],black,0,228,228,228,,,82.20021510124207,81.91484212875366,82.21484303474426,dot,"[0.08, 0.08, 0.1]","[[-0.5649268285189266, -0.02945458741690218], [-0.36332336008090005, 0.05160617148840915], [-0.5004673786076542, 0.20230308468415367]]",density,black,,,N011,visual,6,[],"['1', '2', '3', '4']",1,2023.2.3,harveyvisual,2.1,[],8,0.75,
0,pause,0.4,None,None,None,0,229,229,229,,,,,,,,,,,,,N011,visual,6,[],"['1', '2', '3', '4']",1,2023.2.3,harveyvisual,2.1,[],8,0.75,
3,dot,0.3,['dot'],['density'],black,0,230,230,230,,,82.90022110939026,82.61479592323303,82.91478610038757,dot,"[0.1, 0.06, 0.1]","[[-0.3082868261871679, -0.3137599619928766], [-0.14816041357862977, -0.19371393562593295], [-0.35304767783039576, -0.10610354059871957]]",density,black,,,N011,visual,6,[],"['1', '2', '3', '4']",1,2023.2.3,harveyvisual,2.1,[],8,0.75,
0,pause,0.4,None,None,None,0,231,231,231,,,,,,,,,,,,,N011,visual,6,[],"['1', '2', '3', '4']",1,2023.2.3,harveyvisual,2.1,[],8,0.75,
3,dot,0.3,['dot'],['density'],black,0,232,232,232,,,83.60020995140076,83.31475400924683,83.61473798751831,dot,"[0.06, 0.08, 0.08]","[[-0.10589639487257244, 0.35295021258352427], [0.12780035046084517, 0.3479378296372768], [0.013663645537612555, 0.51889388118174]]",density,black,,,N011,visual,6,[],"['1', '2', '3', '4']",1,2023.2.3,harveyvisual,2.1,[],8,0.75,
0,pause,0.4,None,None,None,0,233,233,233,,,,,,,,,,,,,N011,visual,6,[],"['1', '2', '3', '4']",1,2023.2.3,harveyvisual,2.1,[],8,0.75,
3,dot,0.3,['dot'],['density'],black,0,234,234,234,,,84.30023097991943,84.01498007774353,84.31478905677795,dot,"[0.06, 0.06, 0.06]","[[-0.32624451712468355, -0.43854848545497693], [-0.39409142490376414, -0.22516425170789148], [-0.152352104904091, -0.33204091051628687]]",density,black,,,N011,visual,6,[],"['1', '2', '3', '4']",1,2023.2.3,harveyvisual,2.1,[],8,0.75,
0,pause,0.4,None,None,None,0,235,235,235,,,,,,,,,,,,,N011,visual,6,[],"['1', '2', '3', '4']",1,2023.2.3,harveyvisual,2.1,[],8,0.75,
3,dot,0.3,['dot'],['density'],black,0,236,236,236,,,85.00020503997803,84.71477007865906,85.01496911048889,dot,"[0.06, 0.08, 0.06]","[[0.13507679288784277, 0.012189921546254917], [0.31506600046810584, 0.10578898906948993], [0.12756957777796288, 0.2513869495778075]]",density,black,,,N011,visual,6,[],"['1', '2', '3', '4']",1,2023.2.3,harveyvisual,2.1,[],8,0.75,
0,pause,0.4,None,None,None,0,237,237,237,,,,,,,,,,,,,N011,visual,6,[],"['1', '2', '3', '4']",1,2023.2.3,harveyvisual,2.1,[],8,0.75,
3,dot,0.3,['dot'],['density'],black,0,238,238,238,,,85.70021200180054,85.41470694541931,85.71476411819458,dot,"[0.1, 0.1, 0.06]","[[-0.021384933427115945, -0.26055744462645497], [0.16478637362895734, -0.404980755917603], [-0.025077849445719256, -0.48190209473619267]]",density,black,,,N011,visual,6,[],"['1', '2', '3', '4']",1,2023.2.3,harveyvisual,2.1,[],8,0.75,
0,pause,0.4,None,None,None,0,239,239,239,,,,,,,,,,,,,N011,visual,6,[],"['1', '2', '3', '4']",1,2023.2.3,harveyvisual,2.1,[],8,0.75,
2,dot,0.3,['dot'],['density'],black,0,240,240,240,,,86.40022301673889,86.11473798751831,86.41468811035156,dot,"[0.08, 0.08]","[[0.06661886780735636, -0.3109770134588511], [-0.03502229105109153, -0.4833380692870097]]",density,black,,,N011,visual,6,[],"['1', '2', '3', '4']",1,2023.2.3,harveyvisual,2.1,[],8,0.75,
0,pause,0.4,None,None,None,0,241,241,241,,,,,,,,,,,,,N011,visual,6,[],"['1', '2', '3', '4']",1,2023.2.3,harveyvisual,2.1,[],8,0.75,
2,dot,0.3,['dot'],['density'],white,0,242,242,242,,,87.10020804405212,86.81467604637146,87.11466002464294,dot,"[0.06, 0.1]","[[-0.21141336561075566, 0.4273762957479495], [-0.1407142259739198, 0.23984948612333498]]",density,white,,,N011,visual,6,[],"['1', '2', '3', '4']",1,2023.2.3,harveyvisual,2.1,[],8,0.75,
0,pause,0.4,None,None,None,0,243,243,243,,,,,,,,,,,1,87.22257804870605,N011,visual,6,[],"['1', '2', '3', '4']",1,2023.2.3,harveyvisual,2.1,[],8,0.75,
2,dot,0.3,['dot'],['density'],black,0,244,244,244,,,87.80021095275879,87.51484394073486,87.81480193138123,dot,"[0.08, 0.06]","[[0.038501021189721846, -0.3380528513692932], [0.2360793696083702, -0.306423538752856]]",density,black,,,N011,visual,6,[],"['1', '2', '3', '4']",1,2023.2.3,harveyvisual,2.1,[],8,0.75,
0,pause,0.4,None,None,None,0,245,245,245,,,,,,,,,,,,,N011,visual,6,[],"['1', '2', '3', '4']",1,2023.2.3,harveyvisual,2.1,[],8,0.75,
2,dot,0.3,['dot'],['density'],black,0,246,246,246,,,88.50020599365234,88.21479606628418,88.51468896865845,dot,"[0.1, 0.1]","[[-0.03288134563171543, -0.4238564918242606], [-0.10611641736664675, -0.2370354775439666]]",density,black,,,N011,visual,6,[],"['1', '2', '3', '4']",1,2023.2.3,harveyvisual,2.1,[],8,0.75,
0,pause,0.4,None,None,None,0,247,247,247,,,,,,,,,,,,,N011,visual,6,[],"['1', '2', '3', '4']",1,2023.2.3,harveyvisual,2.1,[],8,0.75,
2,dot,0.3,['dot'],['density'],black,0,248,248,248,,,89.20021104812622,88.91464495658875,89.21462607383728,dot,"[0.06, 0.08]","[[0.1734117655345296, 0.46860731914486053], [-0.01847566562869785, 0.52581935004857]]",density,black,,,N011,visual,6,[],"['1', '2', '3', '4']",1,2023.2.3,harveyvisual,2.1,[],8,0.75,
0,pause,0.4,None,None,None,0,249,249,249,,,,,,,,,,,,,N011,visual,6,[],"['1', '2', '3', '4']",1,2023.2.3,harveyvisual,2.1,[],8,0.75,
2,dot,0.3,['dot'],['density'],black,0,250,250,250,,,89.9002320766449,89.6146171092987,89.9145929813385,dot,"[0.08, 0.08]","[[-0.19482721327365293, -0.5079820576301489], [-0.36119809377872014, -0.396546877814361]]",density,black,,,N011,visual,6,[],"['1', '2', '3', '4']",1,2023.2.3,harveyvisual,2.1,[],8,0.75,
0,pause,0.4,None,None,None,0,251,251,251,,,,,,,,,,,,,N011,visual,6,[],"['1', '2', '3', '4']",1,2023.2.3,harveyvisual,2.1,[],8,0.75,
1,dot,0.3,['dot'],['density'],black,0,252,252,252,,,90.60021615028381,90.31456708908081,90.61457109451294,dot,[0.08],"[-0.30422713965878023, 0.0739284850406325]",density,black,,,N011,visual,6,[],"['1', '2', '3', '4']",1,2023.2.3,harveyvisual,2.1,[],8,0.75,
0,pause,0.4,None,None,None,0,253,253,253,,,,,,,,,,,,,N011,visual,6,[],"['1', '2', '3', '4']",1,2023.2.3,harveyvisual,2.1,[],8,0.75,
1,dot,0.3,['dot'],['density'],black,0,254,254,254,,,91.300213098526,91.01457405090332,91.31452798843384,dot,[0.06],"[0.43730911014729085, 0.38068286015665653]",density,black,,,N011,visual,6,[],"['1', '2', '3', '4']",1,2023.2.3,harveyvisual,2.1,[],8,0.75,
0,pause,0.4,None,None,None,0,255,255,255,,,,,,,,,,,,,N011,visual,6,[],"['1', '2', '3', '4']",1,2023.2.3,harveyvisual,2.1,[],8,0.75,
1,dot,0.3,['dot'],['density'],black,0,256,256,256,,,92.00022792816162,91.7146909236908,92.01467394828796,dot,[0.08],"[0.19623115665255414, 0.1676894875529279]",density,black,,,N011,visual,6,[],"['1', '2', '3', '4']",1,2023.2.3,harveyvisual,2.1,[],8,0.75,
0,pause,0.4,None,None,None,0,257,257,257,,,,,,,,,,,,,N011,visual,6,[],"['1', '2', '3', '4']",1,2023.2.3,harveyvisual,2.1,[],8,0.75,
1,dot,0.3,['dot'],['density'],black,0,258,258,258,,,92.70023894309998,92.41468214988708,92.71453595161438,dot,[0.06],"[-0.3631366314731191, 0.1590646049745197]",density,black,,,N011,visual,6,[],"['1', '2', '3', '4']",1,2023.2.3,harveyvisual,2.1,[],8,0.75,
0,pause,0.4,None,None,None,0,259,259,259,,,,,,,,,,,,,N011,visual,6,[],"['1', '2', '3', '4']",1,2023.2.3,harveyvisual,2.1,[],8,0.75,
1,dot,0.3,['dot'],['density'],black,0,260,260,260,,,93.40020394325256,93.1145589351654,93.41454005241394,dot,[0.08],"[-0.40242150741388927, 0.27329756427278695]",density,black,,,N011,visual,6,[],"['1', '2', '3', '4']",1,2023.2.3,harveyvisual,2.1,[],8,0.75,
0,pause,0.4,None,None,None,0,261,261,261,,,,,,,,,,,,,N011,visual,6,[],"['1', '2', '3', '4']",1,2023.2.3,harveyvisual,2.1,[],8,0.75,
1,dot,0.3,['dot'],['density'],black,0,262,262,262,,,94.10022401809692,93.81453800201416,94.11453604698181,dot,[0.08],"[0.5363314188299194, -0.14809861569100125]",density,black,,,N011,visual,6,[],"['1', '2', '3', '4']",1,2023.2.3,harveyvisual,2.1,[],8,0.75,
0,pause,0.4,None,None,None,0,263,263,263,,,,,,,,,,,,,N011,visual,6,[],"['1', '2', '3', '4']",1,2023.2.3,harveyvisual,2.1,[],8,0.75,
20,dot,0.3,['dot'],['density'],black,0,264,264,264,,,94.80023097991943,94.51452994346619,94.8145010471344,dot,"[0.06, 0.06, 0.06, 0.06, 0.06, 0.1, 0.06, 0.1, 0.1, 0.08, 0.08, 0.1, 0.08, 0.1, 0.1, 0.06, 0.08, 0.1, 0.1, 0.08]","[[0.47983570129079534, -0.3108745187947387], [0.5970738834794612, -0.061504149786144074], [0.01935456165910676, -0.5508870709840785], [-0.1783697549566451, 0.0912395756243054], [0.18773956409416448, -0.27040294840860973], [-0.3832449834513833, 0.13609177431464142], [-0.5019793640218125, 0.2852489352633863], [-0.09217734891738272, 0.3749774951018734], [-0.008501650558750518, -0.12734460782588314], [0.04761403091319283, 0.08581011355760948], [-0.5748083558827922, 0.045171117745601896], [0.2838911713182033, 0.3202782431911798], [-0.3844114350660087, 0.43835993797102873], [-0.5468228837715543, -0.2301884120674615], [-0.2864731759883447, -0.5085953407779572], [-0.1094292803015866, -0.37828742054006737], [0.49289396501969873, 0.2906819076658442], [-0.10426754523254611, 0.5650444500440995], [-0.3770645322491077, -0.09458593159802403], [-0.21232096259229272, -0.21043211141651375]]",density,black,,,N011,visual,6,[],"['1', '2', '3', '4']",1,2023.2.3,harveyvisual,2.1,[],8,0.75,
0,pause,0.4,None,None,None,0,265,265,265,,,,,,,,,,,,,N011,visual,6,[],"['1', '2', '3', '4']",1,2023.2.3,harveyvisual,2.1,[],8,0.75,
20,dot,0.3,['dot'],['density'],white,0,266,266,266,,,95.50021314620972,95.21450400352478,95.5144579410553,dot,"[0.1, 0.08, 0.06, 0.1, 0.06, 0.08, 0.06, 0.1, 0.06, 0.08, 0.08, 0.1, 0.08, 0.06, 0.06, 0.08, 0.06, 0.06, 0.1, 0.08]","[[-0.24394754010455993, 0.3097667563256079], [-0.30137319868822426, -0.31294106923877474], [-0.05702607669272519, -0.32493881834698857], [-0.5778355631730455, -0.11484358854742314], [-0.1292094118868139, 0.15118975759282416], [-0.33109994694841305, 0.13276565780308802], [0.5987017340466007, -0.05067610331795383], [-0.22382179489959797, -0.13330746042907549], [0.31986863303787394, -0.1435138838202757], [0.1774578558568739, -0.43411905572869713], [-0.0820225838061226, 0.4165757843669917], [0.211932874610675, 0.24952403458656602], [0.27103168291098645, 0.05843403239861733], [-0.32010491990883577, -0.5030882448234172], [0.07223094306162547, -0.15942190281026103], [0.16884517039648428, 0.5049400559213152], [0.525156952881303, 0.14453267104297474], [-0.34737023231463676, 0.47205483267220305], [-0.5714627916374545, 0.15166716222262197], [-0.46494331879669615, 0.3166227545985359]]",density,white,,,N011,visual,6,[],"['1', '2', '3', '4']",1,2023.2.3,harveyvisual,2.1,[],8,0.75,
0,pause,0.4,None,None,None,0,267,267,267,,,,,,,,,,,1,95.58560514450073,N011,visual,6,[],"['1', '2', '3', '4']",1,2023.2.3,harveyvisual,2.1,[],8,0.75,
