num,mod,duration,shape,ll_cond,colors,.thisRepN,.thisTrialN,.thisN,.thisIndex,thisRow.t,notes,raw_global_time,t_start,t_stop,shapes,size,pos,cond,color,button,RT,participant,session,starting_run,left button (match/odd),right button (non-match/even),samples_per_block,psychopy version,expName,offset,audio,number_runs,radius,
1,dot,0.3,['dot'],['density'],white,0,0,0,0,,,2.400191068649292,2.116291046142578,2.416222095489502,dot,[0.08],"[-0.0300711363278092, -0.16168860719337894]",density,white,,,N011,visual,1,[],"['1', '2', '3', '4']",1,2023.2.3,harveyvisual,2.1,[],8,0.75,
0,pause,0.4,None,None,None,0,1,1,1,,,,,,,,,,,1,2.6627440452575684,N011,visual,1,[],"['1', '2', '3', '4']",1,2023.2.3,harveyvisual,2.1,[],8,0.75,
1,dot,0.3,['dot'],['density'],black,0,2,2,2,,,3.1001789569854736,2.7995240688323975,3.116755962371826,dot,[0.06],"[0.43730911014729085, 0.38068286015665653]",density,black,,,N011,visual,1,[],"['1', '2', '3', '4']",1,2023.2.3,harveyvisual,2.1,[],8,0.75,
0,pause,0.4,None,None,None,0,3,3,3,,,,,,,,,,,,,N011,visual,1,[],"['1', '2', '3', '4']",1,2023.2.3,harveyvisual,2.1,[],8,0.75,
1,dot,0.3,['dot'],['density'],black,0,4,4,4,,,3.8001840114593506,3.5167360305786133,3.8168270587921143,dot,[0.08],"[-0.31757534052014, 0.30709612076893067]",density,black,,,N011,visual,1,[],"['1', '2', '3', '4']",1,2023.2.3,harveyvisual,2.1,[],8,0.75,
0,pause,0.4,None,None,None,0,5,5,5,,,,,,,,,,,,,N011,visual,1,[],"['1', '2', '3', '4']",1,2023.2.3,harveyvisual,2.1,[],8,0.75,
1,dot,0.3,['dot'],['density'],black,0,6,6,6,,,4.500200986862183,4.216829061508179,4.516832113265991,dot,[0.06],"[0.4765699730395091, 0.34560502551113614]",density,black,,,N011,visual,1,[],"['1', '2', '3', '4']",1,2023.2.3,harveyvisual,2.1,[],8,0.75,
0,pause,0.4,None,None,None,0,7,7,7,,,,,,,,,,,,,N011,visual,1,[],"['1', '2', '3', '4']",1,2023.2.3,harveyvisual,2.1,[],8,0.75,
1,dot,0.3,['dot'],['density'],black,0,8,8,8,,,5.200179100036621,4.916796922683716,5.216813087463379,dot,[0.1],"[0.2287398259034258, -0.3932960849464651]",density,black,,,N011,visual,1,[],"['1', '2', '3', '4']",1,2023.2.3,harveyvisual,2.1,[],8,0.75,
0,pause,0.4,None,None,None,0,9,9,9,,,,,,,,,,,,,N011,visual,1,[],"['1', '2', '3', '4']",1,2023.2.3,harveyvisual,2.1,[],8,0.75,
1,dot,0.3,['dot'],['density'],black,0,10,10,10,,,5.9001898765563965,5.618974924087524,5.918962001800537,dot,[0.1],"[0.43730911014729085, 0.38068286015665653]",density,black,,,N011,visual,1,[],"['1', '2', '3', '4']",1,2023.2.3,harveyvisual,2.1,[],8,0.75,
0,pause,0.4,None,None,None,0,11,11,11,,,,,,,,,,,,,N011,visual,1,[],"['1', '2', '3', '4']",1,2023.2.3,harveyvisual,2.1,[],8,0.75,
2,dot,0.3,['dot'],['density'],black,0,12,12,12,,,6.600193977355957,6.318953037261963,6.618947982788086,dot,"[0.06, 0.1]","[[0.06661886780735636, -0.3109770134588511], [-0.03502229105109153, -0.4833380692870097]]",density,black,,,N011,visual,1,[],"['1', '2', '3', '4']",1,2023.2.3,harveyvisual,2.1,[],8,0.75,
0,pause,0.4,None,None,None,0,13,13,13,,,,,,,,,,,,,N011,visual,1,[],"['1', '2', '3', '4']",1,2023.2.3,harveyvisual,2.1,[],8,0.75,
2,dot,0.3,['dot'],['density'],black,0,14,14,14,,,7.300200939178467,7.0189430713653564,7.319053888320923,dot,"[0.08, 0.1]","[[-0.21141336561075566, 0.4273762957479495], [-0.1407142259739198, 0.23984948612333498]]",density,black,,,N011,visual,1,[],"['1', '2', '3', '4']",1,2023.2.3,harveyvisual,2.1,[],8,0.75,
0,pause,0.4,None,None,None,0,15,15,15,,,,,,,,,,,,,N011,visual,1,[],"['1', '2', '3', '4']",1,2023.2.3,harveyvisual,2.1,[],8,0.75,
2,dot,0.3,['dot'],['density'],black,0,16,16,16,,,8.000189065933228,7.718919992446899,8.0189208984375,dot,"[0.06, 0.1]","[[0.45098141687762733, -0.20237638590572143], [0.5433504117931098, -0.02475258047346216]]",density,black,,,N011,visual,1,[],"['1', '2', '3', '4']",1,2023.2.3,harveyvisual,2.1,[],8,0.75,
0,pause,0.4,None,None,None,0,17,17,17,,,,,,,,,,,,,N011,visual,1,[],"['1', '2', '3', '4']",1,2023.2.3,harveyvisual,2.1,[],8,0.75,
2,dot,0.3,['dot'],['density'],black,0,18,18,18,,,8.700184106826782,8.418900966644287,8.719084978103638,dot,"[0.08, 0.1]","[[0.29932439847351855, -0.2783039550742582], [0.14276117392638485, -0.15345139110726028]]",density,black,,,N011,visual,1,[],"['1', '2', '3', '4']",1,2023.2.3,harveyvisual,2.1,[],8,0.75,
0,pause,0.4,None,None,None,0,19,19,19,,,,,,,,,,,,,N011,visual,1,[],"['1', '2', '3', '4']",1,2023.2.3,harveyvisual,2.1,[],8,0.75,
2,dot,0.3,['dot'],['density'],black,0,20,20,20,,,9.400196075439453,9.11889100074768,9.419071912765503,dot,"[0.08, 0.1]","[[-0.19266755722762574, -0.036106715323925336], [-0.096675332858716, 0.13967695308521302]]",density,black,,,N011,visual,1,[],"['1', '2', '3', '4']",1,2023.2.3,harveyvisual,2.1,[],8,0.75,
0,pause,0.4,None,None,None,0,21,21,21,,,,,,,,,,,,,N011,visual,1,[],"['1', '2', '3', '4']",1,2023.2.3,harveyvisual,2.1,[],8,0.75,
2,dot,0.3,['dot'],['density'],black,0,22,22,22,,,10.100205898284912,9.818861961364746,10.118829011917114,dot,"[0.1, 0.06]","[[-0.4149324818804315, 0.28007444048998836], [-0.5260390884397633, 0.11347960973083408]]",density,black,,,N011,visual,1,[],"['1', '2', '3', '4']",1,2023.2.3,harveyvisual,2.1,[],8,0.75,
0,pause,0.4,None,None,None,0,23,23,23,,,,,,,,,,,,,N011,visual,1,[],"['1', '2', '3', '4']",1,2023.2.3,harveyvisual,2.1,[],8,0.75,
3,dot,0.3,['dot'],['density'],black,0,24,24,24,,,10.800196886062622,10.518966913223267,10.818974018096924,dot,"[0.08, 0.1, 0.1]","[[-0.42255820389626353, 0.35871945956833473], [-0.19896656331745483, 0.3032224324013186], [-0.25553590712368324, 0.5056038804507684]]",density,black,,,N011,visual,1,[],"['1', '2', '3', '4']",1,2023.2.3,harveyvisual,2.1,[],8,0.75,
0,pause,0.4,None,None,None,0,25,25,25,,,,,,,,,,,,,N011,visual,1,[],"['1', '2', '3', '4']",1,2023.2.3,harveyvisual,2.1,[],8,0.75,
3,dot,0.3,['dot'],['density'],black,0,26,26,26,,,11.500189065933228,11.21893310546875,11.518805980682373,dot,"[0.08, 0.08, 0.08]","[[-0.27441186418729774, -0.31428620701652393], [-0.10438281902574013, -0.2032379983598837], [-0.31523395761825285, -0.08768035506307631]]",density,black,,,N011,visual,1,[],"['1', '2', '3', '4']",1,2023.2.3,harveyvisual,2.1,[],8,0.75,
0,pause,0.4,None,None,None,0,27,27,27,,,,,,,,,,,,,N011,visual,1,[],"['1', '2', '3', '4']",1,2023.2.3,harveyvisual,2.1,[],8,0.75,
3,dot,0.3,['dot'],['density'],black,0,28,28,28,,,12.20018196105957,11.918941020965576,12.218767881393433,dot,"[0.08, 0.08, 0.08]","[[0.5267872668145167, -0.16137547842759675], [0.3420119191573968, -0.036920749927643534], [0.3185462880061428, -0.2399114968218526]]",density,black,,,N011,visual,1,[],"['1', '2', '3', '4']",1,2023.2.3,harveyvisual,2.1,[],8,0.75,
0,pause,0.4,None,None,None,0,29,29,29,,,,,,,,,,,,,N011,visual,1,[],"['1', '2', '3', '4']",1,2023.2.3,harveyvisual,2.1,[],8,0.75,
3,dot,0.3,['dot'],['density'],black,0,30,30,30,,,12.90020203590393,12.618968963623047,12.918755054473877,dot,"[0.08, 0.1, 0.1]","[[-0.5649268285189266, -0.02945458741690218], [-0.36332336008090005, 0.05160617148840915], [-0.5004673786076542, 0.20230308468415367]]",density,black,,,N011,visual,1,[],"['1', '2', '3', '4']",1,2023.2.3,harveyvisual,2.1,[],8,0.75,
0,pause,0.4,None,None,None,0,31,31,31,,,,,,,,,,,,,N011,visual,1,[],"['1', '2', '3', '4']",1,2023.2.3,harveyvisual,2.1,[],8,0.75,
3,dot,0.3,['dot'],['density'],black,0,32,32,32,,,13.600197076797485,13.318763017654419,13.618753910064697,dot,"[0.1, 0.08, 0.08]","[[-0.17720328293608806, -0.4514300161601115], [0.022754438065530718, -0.42143894503716073], [-0.10940085810899225, -0.24791511077847575]]",density,black,,,N011,visual,1,[],"['1', '2', '3', '4']",1,2023.2.3,harveyvisual,2.1,[],8,0.75,
0,pause,0.4,None,None,None,0,33,33,33,,,,,,,,,,,,,N011,visual,1,[],"['1', '2', '3', '4']",1,2023.2.3,harveyvisual,2.1,[],8,0.75,
3,dot,0.3,['dot'],['density'],black,0,34,34,34,,,14.300200939178467,14.018733978271484,14.31869101524353,dot,"[0.06, 0.06, 0.06]","[[-0.10589639487257244, 0.35295021258352427], [0.12780035046084517, 0.3479378296372768], [0.013663645537612555, 0.51889388118174]]",density,black,,,N011,visual,1,[],"['1', '2', '3', '4']",1,2023.2.3,harveyvisual,2.1,[],8,0.75,
0,pause,0.4,None,None,None,0,35,35,35,,,,,,,,,,,,,N011,visual,1,[],"['1', '2', '3', '4']",1,2023.2.3,harveyvisual,2.1,[],8,0.75,
4,dot,0.3,['dot'],['density'],black,0,36,36,36,,,15.000181913375854,14.718682050704956,15.018665075302124,dot,"[0.06, 0.1, 0.1, 0.06]","[[-0.22375678750486633, 0.16938766720995918], [-0.03438308412182927, 0.2632029670309489], [0.15312837370161694, 0.1265605786946886], [-0.035433382102469414, 0.014828983441921377]]",density,black,,,N011,visual,1,[],"['1', '2', '3', '4']",1,2023.2.3,harveyvisual,2.1,[],8,0.75,
0,pause,0.4,None,None,None,0,37,37,37,,,,,,,,,,,,,N011,visual,1,[],"['1', '2', '3', '4']",1,2023.2.3,harveyvisual,2.1,[],8,0.75,
4,dot,0.3,['dot'],['density'],black,0,38,38,38,,,15.700193881988525,15.418658971786499,15.71865701675415,dot,"[0.1, 0.06, 0.1, 0.06]","[[-0.1266132934267609, -0.4419116806690939], [0.09906976576587005, -0.33923851916676484], [0.1053941350115203, -0.5768907290059295], [0.29145715672269834, -0.49787884973145785]]",density,black,,,N011,visual,1,[],"['1', '2', '3', '4']",1,2023.2.3,harveyvisual,2.1,[],8,0.75,
0,pause,0.4,None,None,None,0,39,39,39,,,,,,,,,,,,,N011,visual,1,[],"['1', '2', '3', '4']",1,2023.2.3,harveyvisual,2.1,[],8,0.75,
4,dot,0.3,['dot'],['density'],black,0,40,40,40,,,16.400187015533447,16.118639945983887,16.41863489151001,dot,"[0.08, 0.08, 0.06, 0.06]","[[0.28769160010247724, 0.4706884012140322], [0.03735362687931127, 0.4645781312677133], [0.33102019499247487, 0.1847810932959147], [0.1685132699603264, 0.30497059043407926]]",density,black,,,N011,visual,1,[],"['1', '2', '3', '4']",1,2023.2.3,harveyvisual,2.1,[],8,0.75,
0,pause,0.4,None,None,None,0,41,41,41,,,,,,,,,,,,,N011,visual,1,[],"['1', '2', '3', '4']",1,2023.2.3,harveyvisual,2.1,[],8,0.75,
4,dot,0.3,['dot'],['density'],black,0,42,42,42,,,17.10018491744995,16.818608045578003,17.118607997894287,dot,"[0.06, 0.06, 0.1, 0.06]","[[-0.43942495523079517, -0.22401056498097033], [-0.009260832099230759, -0.1633376679159051], [-0.21598309108097546, -0.10172603009605206], [-0.2278206133413005, -0.33154874685782076]]",density,black,,,N011,visual,1,[],"['1', '2', '3', '4']",1,2023.2.3,harveyvisual,2.1,[],8,0.75,
0,pause,0.4,None,None,None,0,43,43,43,,,,,,,,,,,,,N011,visual,1,[],"['1', '2', '3', '4']",1,2023.2.3,harveyvisual,2.1,[],8,0.75,
4,dot,0.3,['dot'],['density'],black,0,44,44,44,,,17.800198078155518,17.51859998703003,17.81859803199768,dot,"[0.1, 0.08, 0.08, 0.08]","[[0.041567121943163726, -0.05225384285034155], [-0.0805660347394345, -0.3501797602382367], [-0.1695568067340664, -0.0700859275369407], [0.1361950610904954, -0.2628340353233457]]",density,black,,,N011,visual,1,[],"['1', '2', '3', '4']",1,2023.2.3,harveyvisual,2.1,[],8,0.75,
0,pause,0.4,None,None,None,0,45,45,45,,,,,,,,,,,,,N011,visual,1,[],"['1', '2', '3', '4']",1,2023.2.3,harveyvisual,2.1,[],8,0.75,
4,dot,0.3,['dot'],['density'],black,0,46,46,46,,,18.5001859664917,18.218579053878784,18.518573999404907,dot,"[0.08, 0.1, 0.06, 0.08]","[[0.012521055699324385, 0.11356654047594222], [0.23234191260135498, 0.08597184236642744], [-0.1711309036876675, 0.020891973622313913], [0.11376048882462075, -0.09104804463782627]]",density,black,,,N011,visual,1,[],"['1', '2', '3', '4']",1,2023.2.3,harveyvisual,2.1,[],8,0.75,
0,pause,0.4,None,None,None,0,47,47,47,,,,,,,,,,,,,N011,visual,1,[],"['1', '2', '3', '4']",1,2023.2.3,harveyvisual,2.1,[],8,0.75,
5,dot,0.3,['dot'],['density'],black,0,48,48,48,,,19.200201988220215,18.91855502128601,19.21855401992798,dot,"[0.06, 0.06, 0.06, 0.08, 0.06]","[[-0.17224806752104949, 0.21128771658676965], [-0.35983128753182364, -0.1328600505582573], [-0.33716814897054914, 0.09708697582185674], [-0.044562237693599294, -0.03778919281981133], [-0.17109626387405982, -0.21732524013947077]]",density,black,,,N011,visual,1,[],"['1', '2', '3', '4']",1,2023.2.3,harveyvisual,2.1,[],8,0.75,
0,pause,0.4,None,None,None,0,49,49,49,,,,,,,,,,,,,N011,visual,1,[],"['1', '2', '3', '4']",1,2023.2.3,harveyvisual,2.1,[],8,0.75,
5,dot,0.3,['dot'],['density'],white,0,50,50,50,,,19.900191068649292,19.618541955947876,19.91853404045105,dot,"[0.08, 0.08, 0.06, 0.08, 0.08]","[[0.2447541601906441, 0.3086669061463178], [0.2085849672204031, -0.04267428248465989], [0.44393754570968663, -0.061602228714441105], [0.027125763574429876, 0.05764502161176834], [0.36879828001487897, 0.1310025380577708]]",density,white,,,N011,visual,1,[],"['1', '2', '3', '4']",1,2023.2.3,harveyvisual,2.1,[],8,0.75,
0,pause,0.4,None,None,None,0,51,51,51,,,,,,,,,,,1,20.22604203224182,N011,visual,1,[],"['1', '2', '3', '4']",1,2023.2.3,harveyvisual,2.1,[],8,0.75,
5,dot,0.3,['dot'],['density'],black,0,52,52,52,,,20.600194931030273,20.31852388381958,20.61852192878723,dot,"[0.1, 0.1, 0.06, 0.1, 0.06]","[[0.36014554898799966, 0.387810422325294], [0.055757472799778995, 0.16941293674392635], [0.2210739480460382, 0.008175952352481365], [0.48495712857242873, 0.07425785546611247], [0.25975240449222103, 0.2092734881649904]]",density,black,,,N011,visual,1,[],"['1', '2', '3', '4']",1,2023.2.3,harveyvisual,2.1,[],8,0.75,
0,pause,0.4,None,None,None,0,53,53,53,,,,,,,,,,,,,N011,visual,1,[],"['1', '2', '3', '4']",1,2023.2.3,harveyvisual,2.1,[],8,0.75,
5,dot,0.3,['dot'],['density'],black,0,54,54,54,,,21.300182104110718,21.018497943878174,21.31849503517151,dot,"[0.08, 0.06, 0.08, 0.06, 0.08]","[[0.45108699871130137, 0.12052648913612102], [0.3120839015871755, -0.055344110322042436], [0.5361186937318446, -0.08608482415671545], [0.24926945818158194, 0.15209517992691748], [0.3855135356736719, -0.25840400127360613]]",density,black,,,N011,visual,1,[],"['1', '2', '3', '4']",1,2023.2.3,harveyvisual,2.1,[],8,0.75,
0,pause,0.4,None,None,None,0,55,55,55,,,,,,,,,,,,,N011,visual,1,[],"['1', '2', '3', '4']",1,2023.2.3,harveyvisual,2.1,[],8,0.75,
5,dot,0.3,['dot'],['density'],black,0,56,56,56,,,22.00020694732666,21.71849799156189,22.018510103225708,dot,"[0.1, 0.06, 0.1, 0.08, 0.08]","[[-0.16255238243643175, 0.17860987090823105], [-0.3708934258622909, -0.17994308192218272], [-0.3873401471382859, 0.23755408526324856], [-0.3082462149465763, 0.01808515368093923], [-0.09381294098683406, -0.04001219282613638]]",density,black,,,N011,visual,1,[],"['1', '2', '3', '4']",1,2023.2.3,harveyvisual,2.1,[],8,0.75,
0,pause,0.4,None,None,None,0,57,57,57,,,,,,,,,,,,,N011,visual,1,[],"['1', '2', '3', '4']",1,2023.2.3,harveyvisual,2.1,[],8,0.75,
5,dot,0.3,['dot'],['density'],white,0,58,58,58,,,22.70020604133606,22.41846489906311,22.718456983566284,dot,"[0.08, 0.06, 0.1, 0.1, 0.1]","[[-0.4702494158317004, 0.19352793081356498], [-0.36864189631283095, -0.2113573127283173], [-0.3573601989406874, -0.007363185939446715], [-0.15559938224235453, -0.02548680069503583], [-0.25069196230576396, 0.1747846118010945]]",density,white,,,N011,visual,1,[],"['1', '2', '3', '4']",1,2023.2.3,harveyvisual,2.1,[],8,0.75,
0,pause,0.4,None,None,None,0,59,59,59,,,,,,,,,,,1,22.93151593208313,N011,visual,1,[],"['1', '2', '3', '4']",1,2023.2.3,harveyvisual,2.1,[],8,0.75,
6,dot,0.3,['dot'],['density'],black,0,60,60,60,,,23.400206089019775,23.118448972702026,23.418433904647827,dot,"[0.08, 0.1, 0.06, 0.06, 0.06, 0.08]","[[0.4536033237290603, -0.10703390074252807], [0.4090862681261178, 0.14156446515860444], [0.3446070222150913, -0.333203595144996], [0.1541486512624917, 0.13839280063469406], [0.16833114318264894, -0.23068973514796048], [0.2520001164899556, -0.04323865486760776]]",density,black,,,N011,visual,1,[],"['1', '2', '3', '4']",1,2023.2.3,harveyvisual,2.1,[],8,0.75,
0,pause,0.4,None,None,None,0,61,61,61,,,,,,,,,,,,,N011,visual,1,[],"['1', '2', '3', '4']",1,2023.2.3,harveyvisual,2.1,[],8,0.75,
6,dot,0.3,['dot'],['density'],black,0,62,62,62,,,24.1001980304718,23.81842589378357,24.118431091308594,dot,"[0.06, 0.08, 0.08, 0.08, 0.08, 0.06]","[[0.1442800129286608, -0.025670240792647715], [-0.253335145558221, 0.06312541807928282], [0.15340240856287354, 0.2410349392962658], [-0.1639657784688781, 0.25075335361279655], [-0.07910231793701084, -0.12784096878077061], [-0.011661193723423325, 0.11361106492824657]]",density,black,,,N011,visual,1,[],"['1', '2', '3', '4']",1,2023.2.3,harveyvisual,2.1,[],8,0.75,
0,pause,0.4,None,None,None,0,63,63,63,,,,,,,,,,,,,N011,visual,1,[],"['1', '2', '3', '4']",1,2023.2.3,harveyvisual,2.1,[],8,0.75,
6,dot,0.3,['dot'],['density'],black,0,64,64,64,,,24.800200939178467,24.5184109210968,24.818408012390137,dot,"[0.1, 0.06, 0.08, 0.06, 0.06, 0.08]","[[0.23041567882598732, 0.45619944218456715], [0.5278859611842325, 0.18245830030246968], [0.08738225171760033, 0.1578384040678088], [0.20561463112105705, -0.03996865664556224], [0.3021721310554224, 0.21718230064421146], [0.4273755636869532, 0.38341374408431883]]",density,black,,,N011,visual,1,[],"['1', '2', '3', '4']",1,2023.2.3,harveyvisual,2.1,[],8,0.75,
0,pause,0.4,None,None,None,0,65,65,65,,,,,,,,,,,,,N011,visual,1,[],"['1', '2', '3', '4']",1,2023.2.3,harveyvisual,2.1,[],8,0.75,
6,dot,0.3,['dot'],['density'],black,0,66,66,66,,,25.500180959701538,25.21838402748108,25.518380880355835,dot,"[0.1, 0.1, 0.06, 0.06, 0.08, 0.08]","[[0.285926512064941, -0.24481785515673876], [0.418595730147314, -0.41068201076939437], [0.08023911914447063, -0.2907744195836184], [0.5255309086764915, -0.21900298349449057], [0.21619509519697316, -0.004828458463526469], [0.21043770887025895, -0.4594541383061854]]",density,black,,,N011,visual,1,[],"['1', '2', '3', '4']",1,2023.2.3,harveyvisual,2.1,[],8,0.75,
0,pause,0.4,None,None,None,0,67,67,67,,,,,,,,,,,,,N011,visual,1,[],"['1', '2', '3', '4']",1,2023.2.3,harveyvisual,2.1,[],8,0.75,
6,dot,0.3,['dot'],['density'],black,0,68,68,68,,,26.200196981430054,25.91836404800415,26.21836495399475,dot,"[0.1, 0.08, 0.06, 0.06, 0.06, 0.06]","[[0.0015484977009578463, -0.37153509484940705], [-0.24631791352898516, -0.16063896847060222], [-0.21037316856202723, -0.37491302730087106], [-0.14520134419833938, 0.05228402714841561], [-0.41979900021501537, -0.27073368115662844], [-0.020720382871846178, -0.14076137757070492]]",density,black,,,N011,visual,1,[],"['1', '2', '3', '4']",1,2023.2.3,harveyvisual,2.1,[],8,0.75,
0,pause,0.4,None,None,None,0,69,69,69,,,,,,,,,,,,,N011,visual,1,[],"['1', '2', '3', '4']",1,2023.2.3,harveyvisual,2.1,[],8,0.75,
6,dot,0.3,['dot'],['density'],black,0,70,70,70,,,26.900182008743286,26.618365049362183,26.9183509349823,dot,"[0.06, 0.1, 0.06, 0.06, 0.06, 0.06]","[[-0.5416753121247185, 0.020803147184574915], [-0.3232269173664433, -0.07161231053200118], [-0.3008479376061402, -0.286480119217458], [-0.22299540496279888, 0.12470258063391813], [-0.10776740766186912, -0.19554033341247495], [-0.5165544979209102, -0.21376225914528924]]",density,black,,,N011,visual,1,[],"['1', '2', '3', '4']",1,2023.2.3,harveyvisual,2.1,[],8,0.75,
0,pause,0.4,None,None,None,0,71,71,71,,,,,,,,,,,,,N011,visual,1,[],"['1', '2', '3', '4']",1,2023.2.3,harveyvisual,2.1,[],8,0.75,
7,dot,0.3,['dot'],['density'],black,0,72,72,72,,,27.60020899772644,27.31841206550598,27.618345975875854,dot,"[0.08, 0.06, 0.08, 0.1, 0.08, 0.1, 0.06]","[[-0.2822174821233986, 0.002117056236134186], [-0.10673242512413421, 0.4781556216085482], [-0.18432519539246728, 0.19072201575640843], [-0.4524596318479574, 0.13966285650530724], [0.06907010423411483, 0.2912708813513049], [-0.07412436007020941, -0.021022205933558278], [-0.3208835015251209, 0.3986768431743725]]",density,black,,,N011,visual,1,[],"['1', '2', '3', '4']",1,2023.2.3,harveyvisual,2.1,[],8,0.75,
0,pause,0.4,None,None,None,0,73,73,73,,,,,,,,,,,,,N011,visual,1,[],"['1', '2', '3', '4']",1,2023.2.3,harveyvisual,2.1,[],8,0.75,
7,dot,0.3,['dot'],['density'],black,0,74,74,74,,,28.30019998550415,28.018388032913208,28.318280935287476,dot,"[0.1, 0.08, 0.08, 0.06, 0.06, 0.08, 0.06]","[[0.14162553822338392, 0.3850374027840034], [0.14862566890709045, -0.11120959689479885], [0.39332636479883865, 0.3869926518090174], [0.40462455387813373, -0.12110830933676162], [0.23143806607869288, 0.12402376181071403], [0.031443448417621304, 0.15083815177969048], [0.4360523150463376, 0.1818515773867412]]",density,black,,,N011,visual,1,[],"['1', '2', '3', '4']",1,2023.2.3,harveyvisual,2.1,[],8,0.75,
0,pause,0.4,None,None,None,0,75,75,75,,,,,,,,,,,,,N011,visual,1,[],"['1', '2', '3', '4']",1,2023.2.3,harveyvisual,2.1,[],8,0.75,
7,dot,0.3,['dot'],['density'],black,0,76,76,76,,,29.000205039978027,28.71832299232483,29.018301963806152,dot,"[0.06, 0.06, 0.08, 0.08, 0.08, 0.08, 0.1]","[[-0.3025445156539714, -0.42280529123536587], [0.12162933753582021, -0.2851722644810181], [-0.2753205641105948, -0.038672864930592576], [-0.4202189534315163, -0.18742991959605093], [-0.15636117447925973, -0.27217203193286355], [-0.09967880665522989, -0.47242523529006747], [-0.06261398545311019, -0.08879309989794046]]",density,black,,,N011,visual,1,[],"['1', '2', '3', '4']",1,2023.2.3,harveyvisual,2.1,[],8,0.75,
0,pause,0.4,None,None,None,0,77,77,77,,,,,,,,,,,,,N011,visual,1,[],"['1', '2', '3', '4']",1,2023.2.3,harveyvisual,2.1,[],8,0.75,
7,dot,0.3,['dot'],['density'],black,0,78,78,78,,,29.700184106826782,29.418333053588867,29.718322038650513,dot,"[0.1, 0.08, 0.1, 0.1, 0.06, 0.06, 0.08]","[[0.1318978468379982, 0.48780960721302624], [-0.15530952210580917, 0.2429536962773128], [0.21675324185561073, 0.09111206147250148], [0.13033099328542835, 0.28547066376201063], [0.3859901392997328, 0.20497483482614012], [0.014590257841440182, 0.0970646397970693], [0.1730960121663288, -0.1180805096677859]]",density,black,,,N011,visual,1,[],"['1', '2', '3', '4']",1,2023.2.3,harveyvisual,2.1,[],8,0.75,
0,pause,0.4,None,None,None,0,79,79,79,,,,,,,,,,,,,N011,visual,1,[],"['1', '2', '3', '4']",1,2023.2.3,harveyvisual,2.1,[],8,0.75,
7,dot,0.3,['dot'],['density'],black,0,80,80,80,,,30.400194883346558,30.118308067321777,30.41826891899109,dot,"[0.06, 0.08, 0.06, 0.08, 0.1, 0.06, 0.06]","[[-0.15204905838880944, -0.5333107186751418], [-0.1519936835116667, -0.2986813487337615], [0.3123805602017952, -0.370842296180838], [-0.04397638837772695, -0.01669328424437847], [0.11716920447009348, -0.14912816843546053], [0.1067198166566748, -0.5553575834591685], [0.04038917577175449, -0.3541606866516689]]",density,black,,,N011,visual,1,[],"['1', '2', '3', '4']",1,2023.2.3,harveyvisual,2.1,[],8,0.75,
0,pause,0.4,None,None,None,0,81,81,81,,,,,,,,,,,,,N011,visual,1,[],"['1', '2', '3', '4']",1,2023.2.3,harveyvisual,2.1,[],8,0.75,
7,dot,0.3,['dot'],['density'],black,0,82,82,82,,,31.100183963775635,30.818269968032837,31.118235111236572,dot,"[0.1, 0.06, 0.06, 0.06, 0.1, 0.06, 0.06]","[[0.12902113605384963, -0.35167066519854956], [0.3838909825822851, -0.05572740120406059], [-0.02857767273637445, 0.1549795872955612], [0.19333287999408408, 0.10698923431715611], [-0.08146847087507005, -0.06064403559207536], [0.18020694687254563, -0.15550905334431223], [-0.07225335190945896, -0.28606481362007624]]",density,black,,,N011,visual,1,[],"['1', '2', '3', '4']",1,2023.2.3,harveyvisual,2.1,[],8,0.75,
0,pause,0.4,None,None,None,0,83,83,83,,,,,,,,,,,,,N011,visual,1,[],"['1', '2', '3', '4']",1,2023.2.3,harveyvisual,2.1,[],8,0.75,
8,dot,0.3,['dot'],['density'],black,0,84,84,84,,,31.800195932388306,31.518275022506714,31.818238973617554,dot,"[0.08, 0.1, 0.06, 0.06, 0.06, 0.08, 0.1, 0.06]","[[0.08034727882022866, 0.21485544138691295], [0.4485208087802622, -0.24912681836757106], [0.26129939989417056, 0.09257513963058502], [0.557413308755299, 0.1511846349250138], [0.2634990941728302, -0.1333032593777782], [0.3632073825345479, 0.269269938976799], [-0.13869722159995554, 0.017464377414806956], [0.4339652718412117, -0.009910074233595774]]",density,black,,,N011,visual,1,[],"['1', '2', '3', '4']",1,2023.2.3,harveyvisual,2.1,[],8,0.75,
0,pause,0.4,None,None,None,0,85,85,85,,,,,,,,,,,,,N011,visual,1,[],"['1', '2', '3', '4']",1,2023.2.3,harveyvisual,2.1,[],8,0.75,
8,dot,0.3,['dot'],['density'],black,0,86,86,86,,,32.5002019405365,32.21819710731506,32.51817297935486,dot,"[0.1, 0.08, 0.1, 0.1, 0.1, 0.06, 0.06, 0.1]","[[-0.30918623351354413, -0.2762980118811315], [0.03442122464869854, -0.32944299641312663], [0.20656618624830034, -0.4515266663928406], [0.20458815773351877, -0.002924552385479317], [-0.054765695239429084, -0.14491701700869716], [-0.0008776159608741382, 0.05441634750414142], [0.19975410704164612, -0.21252729673777132], [-0.19330391669800595, 0.14377227853430027]]",density,black,,,N011,visual,1,[],"['1', '2', '3', '4']",1,2023.2.3,harveyvisual,2.1,[],8,0.75,
0,pause,0.4,None,None,None,0,87,87,87,,,,,,,,,,,,,N011,visual,1,[],"['1', '2', '3', '4']",1,2023.2.3,harveyvisual,2.1,[],8,0.75,
8,dot,0.3,['dot'],['density'],black,0,88,88,88,,,33.20019197463989,32.91821503639221,33.21818995475769,dot,"[0.08, 0.1, 0.1, 0.08, 0.08, 0.1, 0.1, 0.06]","[[-0.258715538922871, 0.3828151050353194], [-0.4384035523576633, -0.18689856672911037], [-0.5586779833045601, 0.15056420889708766], [-0.1699372658897842, -0.04883432605429875], [-0.36053016753151684, 0.02858569738219561], [-0.199221799186684, 0.1876786431210615], [0.004458053620249285, 0.1240038339062716], [0.019420137312414813, -0.16023679021787893]]",density,black,,,N011,visual,1,[],"['1', '2', '3', '4']",1,2023.2.3,harveyvisual,2.1,[],8,0.75,
0,pause,0.4,None,None,None,0,89,89,89,,,,,,,,,,,,,N011,visual,1,[],"['1', '2', '3', '4']",1,2023.2.3,harveyvisual,2.1,[],8,0.75,
8,dot,0.3,['dot'],['density'],black,0,90,90,90,,,33.90018391609192,33.618170976638794,33.91815209388733,dot,"[0.08, 0.06, 0.06, 0.06, 0.08, 0.08, 0.06, 0.1]","[[-0.19469543066458847, -0.326291241472255], [0.30343637985980976, -0.10925869102227477], [-0.1969922581528186, -0.11664339975312436], [0.2570255161168456, -0.3247060146943647], [0.10684135558856425, -0.18174565546534566], [0.03482742583321104, -0.4893606045609451], [-0.015658395544436696, -0.0001692298399926468], [0.11980560642279467, 0.15585563517441894]]",density,black,,,N011,visual,1,[],"['1', '2', '3', '4']",1,2023.2.3,harveyvisual,2.1,[],8,0.75,
0,pause,0.4,None,None,None,0,91,91,91,,,,,,,,,,,,,N011,visual,1,[],"['1', '2', '3', '4']",1,2023.2.3,harveyvisual,2.1,[],8,0.75,
8,dot,0.3,['dot'],['density'],black,0,92,92,92,,,34.60018706321716,34.31815695762634,34.61814093589783,dot,"[0.08, 0.08, 0.08, 0.06, 0.08, 0.1, 0.08, 0.06]","[[-0.4462313073918426, 0.10595449025715867], [0.022923871415176152, 0.06290918987699953], [-0.12461589820496316, 0.4830175517012745], [-0.29730306390741434, 0.2752084497958106], [-0.2195410516364439, 0.056871795648565045], [0.008916049516666445, 0.2907399105306955], [-0.08256048209355603, -0.11638226771844133], [-0.4106304257826301, -0.09222594144079917]]",density,black,,,N011,visual,1,[],"['1', '2', '3', '4']",1,2023.2.3,harveyvisual,2.1,[],8,0.75,
0,pause,0.4,None,None,None,0,93,93,93,,,,,,,,,,,,,N011,visual,1,[],"['1', '2', '3', '4']",1,2023.2.3,harveyvisual,2.1,[],8,0.75,
8,dot,0.3,['dot'],['density'],white,0,94,94,94,,,35.30019688606262,35.01813197135925,35.318119049072266,dot,"[0.06, 0.1, 0.06, 0.1, 0.1, 0.08, 0.06, 0.08]","[[-0.16499387414028463, -0.418455346753131], [0.031011941373623824, -0.006148034068666969], [-0.4150712424924157, -0.28668557629476243], [-0.199054958380199, -0.21375968732837633], [-0.4870789535587041, 0.00515905815181239], [-0.198479811208303, 0.006815000109153054], [-0.3273741662815474, 0.19008037141614484], [0.04340096687518584, -0.25044408321713213]]",density,white,,,N011,visual,1,[],"['1', '2', '3', '4']",1,2023.2.3,harveyvisual,2.1,[],8,0.75,
0,pause,0.4,None,None,None,0,95,95,95,,,,,,,,,,,1,35.53784990310669,N011,visual,1,[],"['1', '2', '3', '4']",1,2023.2.3,harveyvisual,2.1,[],8,0.75,
9,dot,0.3,['dot'],['density'],white,0,96,96,96,,,36.00021290779114,35.71810603141785,36.018110036849976,dot,"[0.1, 0.06, 0.1, 0.1, 0.06, 0.06, 0.1, 0.1, 0.06]","[[0.02295687172906439, -0.4555612238154966], [0.343534432465795, -0.2595759245515751], [-0.16187815285083418, -0.09052449078383604], [0.11251247888811697, -0.27313237114007116], [0.30947849701411384, 0.04064216277921932], [0.06991680920562879, 0.010838090335221196], [-0.17538857600721916, -0.30040513178321704], [-0.11470383471809205, 0.10558329706542706], [-0.35883798189287325, -0.15372405551062507]]",density,white,,,N011,visual,1,[],"['1', '2', '3', '4']",1,2023.2.3,harveyvisual,2.1,[],8,0.75,
0,pause,0.4,None,None,None,0,97,97,97,,,,,,,,,,,,,N011,visual,1,[],"['1', '2', '3', '4']",1,2023.2.3,harveyvisual,2.1,[],8,0.75,
9,dot,0.3,['dot'],['density'],black,0,98,98,98,,,36.700186014175415,36.41807699203491,36.71806287765503,dot,"[0.1, 0.08, 0.06, 0.08, 0.06, 0.06, 0.08, 0.08, 0.06]","[[-0.01550530976013749, -0.4685693709261764], [-0.18673980358629047, -0.03677939788938074], [-0.492500386343057, -0.31631588298646995], [-0.31211872613566405, -0.49615226168915794], [-0.29213402726227655, -0.2779210730957987], [-0.48141959868665407, -0.11483975315711048], [0.2805727548720413, -0.20550850813502752], [-0.0662162642732561, -0.2200496541038322], [0.06776853683421198, -0.046300179137656175]]",density,black,,,N011,visual,1,[],"['1', '2', '3', '4']",1,2023.2.3,harveyvisual,2.1,[],8,0.75,
0,pause,0.4,None,None,None,0,99,99,99,,,,,,,,,,,,,N011,visual,1,[],"['1', '2', '3', '4']",1,2023.2.3,harveyvisual,2.1,[],8,0.75,
9,dot,0.3,['dot'],['density'],black,0,100,100,100,,,37.40020298957825,37.11813998222351,37.41806888580322,dot,"[0.06, 0.08, 0.06, 0.1, 0.08, 0.08, 0.08, 0.1, 0.06]","[[-0.1410632352740557, -0.317905811010377], [-0.01624442214728049, 0.1794094022286925], [0.09468404279643694, -0.24727132108451297], [-0.2758455249254349, -0.14491344886434532], [-0.07397021974914944, -0.09933967896750957], [-0.3580751224104431, 0.12641846535160695], [0.3672464474339042, -0.09947208873420914], [0.14679994141956812, -0.049441009882571184], [0.20049431506903384, 0.1443691092520585]]",density,black,,,N011,visual,1,[],"['1', '2', '3', '4']",1,2023.2.3,harveyvisual,2.1,[],8,0.75,
0,pause,0.4,None,None,None,0,101,101,101,,,,,,,,,,,,,N011,visual,1,[],"['1', '2', '3', '4']",1,2023.2.3,harveyvisual,2.1,[],8,0.75,
9,dot,0.3,['dot'],['density'],black,0,102,102,102,,,38.10020399093628,37.81805491447449,38.118069887161255,dot,"[0.06, 0.1, 0.06, 0.06, 0.08, 0.06, 0.1, 0.08, 0.08]","[[-0.08858128315591524, -0.3480052213079807], [0.37291707470974605, -0.0809562497479422], [-0.04311872097798103, 0.23152249840731254], [0.1734412630875083, -0.16491363602164627], [-0.024044713080900382, -0.04824256513196188], [0.126438571592319, 0.09122014985587756], [-0.2168202887682383, 0.11190421567656858], [-0.23215605484234547, -0.20356583507002532], [0.291417597339289, 0.24351333182926893]]",density,black,,,N011,visual,1,[],"['1', '2', '3', '4']",1,2023.2.3,harveyvisual,2.1,[],8,0.75,
0,pause,0.4,None,None,None,0,103,103,103,,,,,,,,,,,,,N011,visual,1,[],"['1', '2', '3', '4']",1,2023.2.3,harveyvisual,2.1,[],8,0.75,
9,dot,0.3,['dot'],['density'],black,0,104,104,104,,,38.80020594596863,38.51802396774292,38.81801390647888,dot,"[0.06, 0.08, 0.06, 0.08, 0.06, 0.08, 0.06, 0.1, 0.08]","[[-0.06218673389315922, -0.4689115343027075], [0.3660477402554353, -0.15396192139437054], [0.1401329754895462, -0.14262156541192547], [0.12293598154832706, -0.38779640022673934], [0.42645158233284447, -0.3607859009111275], [-0.06238477126329685, -0.2564764349502154], [-0.2584688277182379, -0.29964401945706215], [-0.11312192996032899, -0.05439345917292958], [0.19096873654163896, 0.1321853744035435]]",density,black,,,N011,visual,1,[],"['1', '2', '3', '4']",1,2023.2.3,harveyvisual,2.1,[],8,0.75,
0,pause,0.4,None,None,None,0,105,105,105,,,,,,,,,,,,,N011,visual,1,[],"['1', '2', '3', '4']",1,2023.2.3,harveyvisual,2.1,[],8,0.75,
9,dot,0.3,['dot'],['density'],black,0,106,106,106,,,39.50020694732666,39.21801710128784,39.51804304122925,dot,"[0.1, 0.08, 0.06, 0.06, 0.08, 0.1, 0.1, 0.1, 0.08]","[[0.019793807854907846, -0.43234396454466956], [-0.19026732246162045, -0.30921043426246514], [0.04019268118281429, 0.04496242893187172], [-0.3995051790572048, -0.35321755636659735], [-0.3855517065125252, -0.10705750392277943], [0.08372722599267078, -0.1679482296571974], [0.2622756688563642, -0.3928589043728353], [-0.14305193053609555, -0.047108980659819465], [-0.27076529918092873, 0.10825753519043561]]",density,black,,,N011,visual,1,[],"['1', '2', '3', '4']",1,2023.2.3,harveyvisual,2.1,[],8,0.75,
0,pause,0.4,None,None,None,0,107,107,107,,,,,,,,,,,,,N011,visual,1,[],"['1', '2', '3', '4']",1,2023.2.3,harveyvisual,2.1,[],8,0.75,
20,dot,0.3,['dot'],['density'],black,0,108,108,108,,,40.20020794868469,39.9179949760437,40.21799087524414,dot,"[0.1, 0.1, 0.06, 0.1, 0.06, 0.08, 0.06, 0.06, 0.1, 0.1, 0.06, 0.1, 0.08, 0.1, 0.06, 0.06, 0.08, 0.1, 0.06, 0.06]","[[0.3095844828647901, -0.17202126209687335], [-0.3709229806219642, 0.3812403085316128], [0.46436617493088816, 0.36491787594947644], [0.58927104702757, 0.08873182873736812], [0.5074584762383941, -0.286539948076876], [0.11777538400590226, -0.30355816474410735], [-0.3294186557507479, -0.10062412435086554], [0.025328479616924082, 0.2051632862160705], [-0.12862964706800295, -0.31332420110418463], [-0.5772350668118734, 0.07726135915716506], [0.013512381641894278, 0.4817455453386711], [0.37297563074688866, -0.46367704911213886], [-0.11687796807098699, -0.5170442019523996], [-0.16654390669542835, 0.16459811325794949], [-0.3691926968343949, 0.11080502330429304], [-0.4820238312065868, -0.3564335559029681], [0.14041446657404955, 0.05295430227018616], [0.16538862567875523, -0.5174313415023511], [0.19326054029012407, 0.4155043125889232], [0.31695825041962433, 0.2194909288605641]]",density,black,,,N011,visual,1,[],"['1', '2', '3', '4']",1,2023.2.3,harveyvisual,2.1,[],8,0.75,
0,pause,0.4,None,None,None,0,109,109,109,,,,,,,,,,,,,N011,visual,1,[],"['1', '2', '3', '4']",1,2023.2.3,harveyvisual,2.1,[],8,0.75,
20,dot,0.3,['dot'],['density'],black,0,110,110,110,,,40.900185108184814,40.61802792549133,40.91801309585571,dot,"[0.1, 0.1, 0.08, 0.1, 0.06, 0.06, 0.1, 0.06, 0.08, 0.1, 0.1, 0.06, 0.06, 0.1, 0.08, 0.06, 0.08, 0.08, 0.06, 0.1]","[[0.4278804967834725, 0.1473893729541479], [0.3100847535428013, -0.5111954045390426], [-0.6037541440833352, -0.021227765583706704], [0.24624850189513414, 0.4262962120252206], [-0.26889648668195093, -0.12192456486939152], [0.2853609713808055, -0.19132439962913894], [-0.09126388378914041, 0.09096572707842099], [-0.11404559084131743, -0.39369619015974694], [0.5617163891638791, -0.22481357741733637], [-0.3214977343332772, -0.46692925184419487], [-0.2061526625140238, 0.3790823788537291], [-0.3509689073786593, 0.24905867886812688], [0.09494334853531872, -0.33790509694051407], [0.1385866555474894, 0.21100564259802934], [0.11185576497154659, -0.5325453984093589], [0.4174941890774678, 0.3391504285050052], [-0.44733084722761696, -0.2860547361848245], [0.5650933190561304, 0.01583941831745772], [-0.08537133181959344, -0.5932514687476022], [0.10226209104800665, 0.5530017507230824]]",density,black,,,N011,visual,1,[],"['1', '2', '3', '4']",1,2023.2.3,harveyvisual,2.1,[],8,0.75,
0,pause,0.4,None,None,None,0,111,111,111,,,,,,,,,,,,,N011,visual,1,[],"['1', '2', '3', '4']",1,2023.2.3,harveyvisual,2.1,[],8,0.75,
20,dot,0.3,['dot'],['density'],black,0,112,112,112,,,41.600197076797485,41.31796097755432,41.618005990982056,dot,"[0.06, 0.06, 0.06, 0.08, 0.08, 0.1, 0.06, 0.1, 0.08, 0.08, 0.06, 0.08, 0.08, 0.08, 0.1, 0.08, 0.08, 0.1, 0.06, 0.08]","[[0.35224267051041147, 0.18468841340882253], [-0.1846360511931427, 0.24180958551654008], [0.16889146282813194, 0.3693446286455405], [-0.29406909759921807, 0.010898687255809225], [0.11187776372200275, -0.4030139742530039], [-0.3315370722241498, -0.22485370545950684], [0.07562835041829363, 0.5947166642003272], [0.5029241295008825, 0.3277464832821344], [0.4481088983743279, -0.2701822402582212], [0.37845656064513433, -0.0549673057402994], [-0.08581822284538443, 0.034315600648093025], [0.010876350245323296, -0.13591480733084532], [0.564856397836485, 0.11798428647400028], [0.1363235578153612, 0.09989732636293291], [-0.5822440048235346, -0.030850133333685303], [-0.1310023791664714, -0.3865002548198878], [-0.4703027270234347, 0.16838334856150938], [0.5788066286091366, -0.1113012009843465], [-0.44020377793866095, -0.3827823543632563], [-0.04876900670456574, -0.587340713664694]]",density,black,,,N011,visual,1,[],"['1', '2', '3', '4']",1,2023.2.3,harveyvisual,2.1,[],8,0.75,
0,pause,0.4,None,None,None,0,113,113,113,,,,,,,,,,,,,N011,visual,1,[],"['1', '2', '3', '4']",1,2023.2.3,harveyvisual,2.1,[],8,0.75,
20,dot,0.3,['dot'],['density'],black,0,114,114,114,,,42.30020499229431,42.017987966537476,42.317970991134644,dot,"[0.08, 0.1, 0.06, 0.1, 0.1, 0.06, 0.06, 0.1, 0.06, 0.06, 0.08, 0.1, 0.1, 0.06, 0.08, 0.06, 0.1, 0.08, 0.1, 0.06]","[[0.2447003763952248, 0.4697395010816042], [-0.3834759978008527, -0.04608395652000724], [0.020075814799838443, 0.40808397497645643], [0.06386921378930965, -0.16190764960768717], [-0.09040221858637754, 0.2335277089931398], [0.5171691061298186, 0.23014283184051354], [0.19745111130722826, 0.11861111631250976], [-0.1997568405458846, 0.010804475184235662], [0.44898957503812575, -0.17993630132305816], [0.5702416208037518, -0.011983678163882017], [0.3554985688124951, -0.34778314363584967], [-0.41305687986539363, -0.4155292115357476], [-0.5609033962313821, 0.032429309499373615], [-0.17016447056920714, -0.4787391989463084], [-0.48517329880129845, 0.303217314183432], [0.24074876753458374, -0.06856915912368572], [0.08777434818329377, -0.4877294090296881], [-0.28225455318153714, -0.2169395484504078], [-0.1809830598636663, 0.4043801920928719], [-0.5026558797181868, -0.24400785983281137]]",density,black,,,N011,visual,1,[],"['1', '2', '3', '4']",1,2023.2.3,harveyvisual,2.1,[],8,0.75,
0,pause,0.4,None,None,None,0,115,115,115,,,,,,,,,,,,,N011,visual,1,[],"['1', '2', '3', '4']",1,2023.2.3,harveyvisual,2.1,[],8,0.75,
20,dot,0.3,['dot'],['density'],black,0,116,116,116,,,43.00019192695618,42.717989921569824,43.01796793937683,dot,"[0.08, 0.06, 0.1, 0.1, 0.08, 0.08, 0.1, 0.1, 0.1, 0.06, 0.08, 0.08, 0.1, 0.08, 0.1, 0.08, 0.08, 0.08, 0.08, 0.06]","[[0.572713341952828, -0.04583255852557458], [0.3735559795728407, 0.021694815815087587], [-0.5238803824326221, -0.14707929748967113], [0.48898132094434044, -0.35270002983873777], [0.011567817442659445, 0.11205358537825005], [0.09913637511917472, -0.5273849340347174], [-0.3977440992237268, 0.37941095339875386], [0.11131729752614439, -0.32825322090562303], [-0.32281269490579595, -0.4529168341265599], [-0.11062575793328422, 0.3614489992442722], [-0.30394001822583805, 0.1925005210749018], [0.3756323566921377, 0.3432774383495472], [-0.4798723419376107, -0.33512667650243744], [0.17789649479961178, -0.13232007566613163], [-0.5915169436677497, 0.10243008417074892], [-0.33187609291663317, -0.02032731650051517], [-0.09006834384840823, -0.12014973282263447], [0.4946358837347328, 0.1778196128282553], [0.10526729847005356, 0.4525833773217598], [-0.09108848116190893, -0.49543369826577316]]",density,black,,,N011,visual,1,[],"['1', '2', '3', '4']",1,2023.2.3,harveyvisual,2.1,[],8,0.75,
0,pause,0.4,None,None,None,0,117,117,117,,,,,,,,,,,,,N011,visual,1,[],"['1', '2', '3', '4']",1,2023.2.3,harveyvisual,2.1,[],8,0.75,
20,dot,0.3,['dot'],['density'],black,0,118,118,118,,,43.70018696784973,43.41795492172241,43.71795296669006,dot,"[0.06, 0.1, 0.1, 0.06, 0.1, 0.06, 0.08, 0.06, 0.06, 0.1, 0.1, 0.08, 0.06, 0.08, 0.1, 0.06, 0.06, 0.06, 0.1, 0.06]","[[-0.16887672286018762, 0.45899146058127116], [-0.25861226233281054, -0.4769991148171846], [0.242111640332207, -0.02562042363908712], [0.18913694839806916, -0.5226506745966747], [-0.15175133115326217, -0.045411045981538334], [-0.024493754837562, -0.3763702777007186], [0.3188600194304374, 0.2055432723476126], [-0.5132557177984736, -0.12532305070273064], [-0.5698317924226339, 0.07625770328457976], [-0.32437041006945166, 0.2307242827928634], [0.3528404150495794, 0.43013525085850324], [0.1698292301870713, 0.5633340774061677], [-0.03317047779803828, 0.23159872778983503], [0.2757192793448302, -0.30031838334084693], [-0.4664128222478692, 0.3635802661106668], [0.5861859771362042, -0.04861087655400399], [-0.5071652245765556, -0.3196567625160962], [0.49536507894201487, -0.28768661642935534], [-0.17550226945412306, -0.2537677718541084], [-0.03045780531946063, 0.6029923314357164]]",density,black,,,N011,visual,1,[],"['1', '2', '3', '4']",1,2023.2.3,harveyvisual,2.1,[],8,0.75,
0,pause,0.4,None,None,None,0,119,119,119,,,,,,,,,,,,,N011,visual,1,[],"['1', '2', '3', '4']",1,2023.2.3,harveyvisual,2.1,[],8,0.75,
20,dot,0.3,['dot'],['density'],black,0,120,120,120,,,44.4001989364624,44.11799097061157,44.418018102645874,dot,"[0.1, 0.06, 0.06, 0.08, 0.06, 0.1, 0.06, 0.06, 0.08, 0.1, 0.1, 0.1, 0.06, 0.1, 0.08, 0.1, 0.1, 0.06, 0.06, 0.1]","[[0.3108010316928621, -0.16358358176607357], [0.02654157895755016, -0.4287295828591082], [-0.29479261690759134, -0.47084066931724644], [-0.19862973272942774, -0.07096998842672597], [0.2998759490565782, 0.31789152635737883], [0.5835654160037363, 0.10423926829782915], [-0.4386180101901471, 0.3133910774055064], [0.18895202455451743, 0.09287974148336098], [0.4199648402797084, -0.3835408454147577], [-0.43229561585843895, -0.04725954219142242], [-0.017606302129764884, 0.41990653800769573], [-0.13635687821716108, 0.143681428759739], [-0.43995587851836404, -0.2955231798322677], [0.5501571955788215, -0.21889641574075236], [-0.13906361965968356, 0.5687448349969462], [0.0685496153817916, 0.2468189686549742], [0.04731859142788275, -0.2109417128594137], [-0.5853331833089497, 0.06732625188329078], [0.39526623833752306, 0.044478916018508285], [0.15526293201429764, 0.5016404546607012]]",density,black,,,N011,visual,1,[],"['1', '2', '3', '4']",1,2023.2.3,harveyvisual,2.1,[],8,0.75,
0,pause,0.4,None,None,None,0,121,121,121,,,,,,,,,,,,,N011,visual,1,[],"['1', '2', '3', '4']",1,2023.2.3,harveyvisual,2.1,[],8,0.75,
20,dot,0.3,['dot'],['density'],black,0,122,122,122,,,45.10019898414612,44.817878007888794,45.11800408363342,dot,"[0.08, 0.06, 0.1, 0.1, 0.1, 0.06, 0.1, 0.06, 0.1, 0.06, 0.1, 0.06, 0.08, 0.1, 0.08, 0.1, 0.08, 0.1, 0.1, 0.1]","[[-0.3674447516719628, -0.07252138058815027], [0.040794956346029254, 0.4972941345589694], [0.24682260247599896, 0.534141227527848], [-0.1810523276506864, -0.4931845522169236], [-0.267034067900206, 0.35854609299572293], [0.3707891172397213, 0.13661410477285368], [0.07252669570956416, -0.42333389451890513], [0.5134707681315364, -0.06582437782443029], [0.13091012661625956, 0.1786692781259558], [0.4702681509967622, 0.30739061665641204], [-0.5976930218064321, 0.007655667815690895], [-0.16092154904673894, -0.26496492915574454], [-0.16153523569865996, 0.07363085664219216], [0.3278066840922156, -0.49627987402742757], [-0.5310836212083672, 0.2836993476341521], [0.4009259135173161, -0.2546182604830045], [0.13042624673023306, -0.15570862844800737], [-0.4580322065383047, -0.2783514291243997], [-0.17092266378996518, 0.5416302727373109], [-0.06450373012049049, 0.32469753962599524]]",density,black,,,N011,visual,1,[],"['1', '2', '3', '4']",1,2023.2.3,harveyvisual,2.1,[],8,0.75,
0,pause,0.4,None,None,None,0,123,123,123,,,,,,,,,,,,,N011,visual,1,[],"['1', '2', '3', '4']",1,2023.2.3,harveyvisual,2.1,[],8,0.75,
20,dot,0.3,['dot'],['density'],white,0,124,124,124,,,45.80018997192383,45.51801109313965,45.81800389289856,dot,"[0.1, 0.06, 0.08, 0.06, 0.08, 0.1, 0.06, 0.08, 0.06, 0.06, 0.06, 0.06, 0.06, 0.06, 0.06, 0.1, 0.06, 0.08, 0.08, 0.08]","[[-0.11793691923590743, 0.559882756288479], [0.43218028399134567, -0.12296537120507761], [0.1905964903779297, -0.24739495779104148], [-0.19028691408386633, 0.36113927694565184], [0.3141563827592073, -0.46076599238369426], [0.04305021320155089, -0.4661185769993026], [-0.10428916481595552, -0.2069835057508933], [-0.5532105639657565, 0.1872178734912677], [0.13529709635202702, 0.2906044936954727], [0.4938894803825583, 0.23225459635715823], [-0.4151118628153171, -0.4061454515448575], [0.5967581835453136, 0.06322962218049043], [-0.20519615333561275, 0.16575531519343767], [-0.3332976016512188, -0.2129720154486835], [-0.3933413385301292, 0.36625015446160913], [0.38270994725801244, 0.06052347681186365], [-0.20945352840004833, -0.5664310876311924], [-0.5870061659631547, -0.11222867373904281], [0.03906388626378443, 0.1144486694426029], [-0.25504017546723023, -0.028527227866773863]]",density,white,,,N011,visual,1,[],"['1', '2', '3', '4']",1,2023.2.3,harveyvisual,2.1,[],8,0.75,
0,pause,0.4,None,None,None,0,125,125,125,,,,,,,,,,,1,45.944310903549194,N011,visual,1,[],"['1', '2', '3', '4']",1,2023.2.3,harveyvisual,2.1,[],8,0.75,
20,dot,0.3,['dot'],['density'],black,0,126,126,126,,,46.50019097328186,46.21783995628357,46.51796293258667,dot,"[0.08, 0.06, 0.06, 0.06, 0.1, 0.1, 0.06, 0.1, 0.08, 0.06, 0.06, 0.06, 0.06, 0.08, 0.06, 0.1, 0.1, 0.1, 0.1, 0.06]","[[0.02877376757198069, -0.37897845079583303], [-0.167473580510078, -0.17561204995048368], [-0.35043870828626345, 0.25817823581753807], [-0.5293241029964629, 0.16787199059134672], [0.6041608714919865, 0.03279665739615736], [-0.411480894915755, -0.0814394757385914], [0.26738916179598704, -0.21058708628838202], [0.2434145597791032, 0.4631031078044314], [0.5192228219692719, 0.22681645116578952], [0.007570696594261239, 0.033056793002552265], [-0.43188687351255906, -0.3006281062188193], [0.18787875936105047, 0.2580345717516209], [-0.05738657623438981, 0.5477315527243829], [-0.1885178717582544, 0.08368012343194742], [0.43093016030761333, -0.07080307088936627], [-0.08372970689936143, -0.5516503624211629], [0.20163512585647736, 0.010982403228073534], [0.4453287458334815, -0.30317370819284395], [-0.30506032707677966, -0.442885766364122], [-0.04061906478259647, 0.2959193458065209]]",density,black,,,N011,visual,1,[],"['1', '2', '3', '4']",1,2023.2.3,harveyvisual,2.1,[],8,0.75,
0,pause,0.4,None,None,None,0,127,127,127,,,,,,,,,,,,,N011,visual,1,[],"['1', '2', '3', '4']",1,2023.2.3,harveyvisual,2.1,[],8,0.75,
20,dot,0.3,['dot'],['density'],black,0,128,128,128,,,47.20018410682678,46.91799807548523,47.217814922332764,dot,"[0.08, 0.1, 0.1, 0.06, 0.06, 0.08, 0.08, 0.1, 0.08, 0.1, 0.08, 0.08, 0.08, 0.1, 0.1, 0.1, 0.06, 0.1, 0.06, 0.06]","[[-0.0010753049389838898, 0.2910261909442097], [0.2808052076722596, 0.12354421090004486], [-0.388564770591344, -0.3191305211106243], [-0.44759357274258604, 0.16436388640980704], [-0.061528948285766494, -0.23915857622703057], [0.2562987329792792, -0.4743444364423421], [0.47019195846421347, 0.04641071982768674], [0.14539908599853413, 0.5435401187509808], [0.45112886412563113, -0.290034387670797], [-0.5472654068509504, -0.165472955131244], [-0.16434165691324798, 0.5169471202363356], [-0.08618879555682812, -0.012953960353805583], [0.058693688515689124, -0.6005534068601056], [0.2871869197140158, 0.3458350087130324], [0.2932354385804762, -0.07042548699545986], [0.4845207495701168, 0.3185065835471547], [-0.6017644840875722, 0.0179553660347114], [-0.1935716119258215, -0.41106758824069], [-0.36520183356345165, -0.0629735045824591], [-0.23383850362418512, 0.270359923831583]]",density,black,,,N011,visual,1,[],"['1', '2', '3', '4']",1,2023.2.3,harveyvisual,2.1,[],8,0.75,
0,pause,0.4,None,None,None,0,129,129,129,,,,,,,,,,,,,N011,visual,1,[],"['1', '2', '3', '4']",1,2023.2.3,harveyvisual,2.1,[],8,0.75,
20,dot,0.3,['dot'],['density'],black,0,130,130,130,,,47.900206089019775,47.617801904678345,47.9178249835968,dot,"[0.08, 0.08, 0.06, 0.1, 0.1, 0.1, 0.06, 0.08, 0.06, 0.1, 0.06, 0.08, 0.08, 0.1, 0.06, 0.1, 0.08, 0.08, 0.06, 0.06]","[[0.04563682584619522, -0.3218138191219121], [0.004702864539975704, 0.3517181410255936], [-0.11177806475381613, -0.45909014945448867], [-0.5678302454929893, -0.20086189559402529], [0.25709923963681847, -0.24234719638994845], [0.4170353192521018, 0.3420559816428554], [-0.2849332529149399, 0.31136272552192734], [0.16804591136004954, -0.5017310679553378], [0.5597320166784255, -0.09630551169494786], [-0.5011323222649748, 0.33891413388568364], [-0.5874463848960548, 0.023434354421422554], [-0.030306361932685877, 0.048284051405547146], [-0.21456096356549786, -0.29273832042624615], [0.23219655362717329, 0.28596394000870184], [-0.33164665679456484, -0.062304349957803096], [0.023696083409807778, 0.5428714615812088], [0.4849375945362243, 0.13134270249934704], [0.26704358165456676, 0.09151850485656188], [0.22544740973776034, 0.4996496423447051], [0.3929045619532028, -0.45494124019756077]]",density,black,,,N011,visual,1,[],"['1', '2', '3', '4']",1,2023.2.3,harveyvisual,2.1,[],8,0.75,
0,pause,0.4,None,None,None,0,131,131,131,,,,,,,,,,,,,N011,visual,1,[],"['1', '2', '3', '4']",1,2023.2.3,harveyvisual,2.1,[],8,0.75,
20,dot,0.3,['dot'],['density'],black,0,132,132,132,,,48.60018801689148,48.31777811050415,48.61790490150452,dot,"[0.08, 0.1, 0.1, 0.1, 0.06, 0.1, 0.08, 0.1, 0.06, 0.08, 0.1, 0.08, 0.1, 0.06, 0.08, 0.06, 0.08, 0.08, 0.06, 0.08]","[[-0.595566066679931, -0.03781319925871318], [0.12186253507825318, 0.1418442852700803], [-0.12683280084219412, -0.49095806212593596], [0.22614269905550288, -0.4571358163302321], [0.11248077985791616, 0.49090587435519617], [-0.3869704043588864, -0.30667441343378643], [0.5250621564104169, -0.016740359039287278], [0.3094000885662963, 0.5149731530592009], [0.3478043946728502, -0.15444001102207372], [-0.18702668390595328, 0.25715847909037104], [0.018036522257225296, -0.11051497467941623], [-0.19810446271872295, 0.4637286112992234], [-0.42104558762930144, 0.34455478032205994], [-0.30303008781156043, -0.09872028795255389], [-0.5414383897935333, 0.1502191553778392], [0.5267149997758344, -0.22066631768245792], [-0.046025484625238366, 0.6034880126447066], [0.4884504128254038, 0.24841653160074245], [0.04937517134594005, -0.37466526548002077], [-0.1865268175951344, 0.06128609957675557]]",density,black,,,N011,visual,1,[],"['1', '2', '3', '4']",1,2023.2.3,harveyvisual,2.1,[],8,0.75,
0,pause,0.4,None,None,None,0,133,133,133,,,,,,,,,,,,,N011,visual,1,[],"['1', '2', '3', '4']",1,2023.2.3,harveyvisual,2.1,[],8,0.75,
20,dot,0.3,['dot'],['density'],black,0,134,134,134,,,49.300195932388306,49.01780891418457,49.317758083343506,dot,"[0.08, 0.06, 0.1, 0.06, 0.1, 0.1, 0.1, 0.08, 0.08, 0.08, 0.06, 0.06, 0.06, 0.08, 0.06, 0.08, 0.06, 0.08, 0.1, 0.08]","[[0.31128122674162084, -0.29353626329482624], [-0.4181935769032218, -0.21924204101513314], [0.5099165446995239, -0.16566538555551824], [0.5587215129786028, 0.22792865860945094], [0.37144329691452693, 0.46562801847459717], [-0.1349879485530367, -0.369099722549725], [0.09191875150917983, -0.45908974671616876], [-0.5273189479772721, 0.2558796253002622], [-0.42228944446626165, 0.0799215076657867], [0.4738031912902164, 0.03591758585274807], [0.08914875460521288, 0.3791172711261628], [0.14147299256134294, 0.14284442693893218], [-0.30132489117065564, 0.49002516313222155], [-0.20495879240369602, 0.1561259895581133], [-0.035087346207978265, 0.5633324888230433], [0.18616526160044156, -0.06667601452191141], [-0.1684347171069136, -0.10470172211790557], [-0.5815106825589315, -0.03419651007730437], [0.312507805791317, 0.23192850481426586], [-0.3851280121917934, -0.4351092191745144]]",density,black,,,N011,visual,1,[],"['1', '2', '3', '4']",1,2023.2.3,harveyvisual,2.1,[],8,0.75,
0,pause,0.4,None,None,None,0,135,135,135,,,,,,,,,,,,,N011,visual,1,[],"['1', '2', '3', '4']",1,2023.2.3,harveyvisual,2.1,[],8,0.75,
20,dot,0.3,['dot'],['density'],black,0,136,136,136,,,50.00020503997803,49.71779489517212,50.017739057540894,dot,"[0.06, 0.08, 0.06, 0.06, 0.06, 0.08, 0.08, 0.1, 0.1, 0.08, 0.08, 0.06, 0.1, 0.08, 0.08, 0.1, 0.1, 0.06, 0.08, 0.08]","[[-0.5836196484495347, -0.1318421375855384], [-0.5550810868474289, 0.16479343420684708], [0.19922702475854792, -0.14105671283173915], [0.21823450582988368, -0.5468885879805049], [0.36718010927924616, 0.28436378662294537], [0.5844526927880788, 0.1554458970460791], [0.45732264022619173, -0.012155896203271177], [-0.05934700409602556, -0.5635028435834802], [-0.2858089840396289, 0.42239714620615465], [-0.29026780207394726, 0.09693672975593959], [-0.2449544203818071, -0.22752209349326719], [0.3787104408711739, -0.4004153864773516], [0.13855112256516589, -0.3607551289357571], [0.5274343180799933, -0.2391198635844174], [0.1094460566767732, 0.1745580564824074], [-0.06276899025551386, 0.3263421422179795], [-0.07993328026577451, 0.5641160670654376], [0.19438503748942892, 0.37795473343272], [-0.4846842263163348, -0.2953188448579519], [0.049116246547011855, -0.017061379554454636]]",density,black,,,N011,visual,1,[],"['1', '2', '3', '4']",1,2023.2.3,harveyvisual,2.1,[],8,0.75,
0,pause,0.4,None,None,None,0,137,137,137,,,,,,,,,,,,,N011,visual,1,[],"['1', '2', '3', '4']",1,2023.2.3,harveyvisual,2.1,[],8,0.75,
20,dot,0.3,['dot'],['density'],white,0,138,138,138,,,50.70020890235901,50.41791296005249,50.7178680896759,dot,"[0.1, 0.06, 0.06, 0.08, 0.1, 0.1, 0.1, 0.1, 0.08, 0.1, 0.06, 0.08, 0.06, 0.08, 0.06, 0.06, 0.1, 0.08, 0.08, 0.1]","[[-0.5342433131876407, -0.1265953401087154], [0.16559722025870138, -0.13041751497143317], [0.3863883939544849, 0.3834141574844052], [-0.48884601426203445, 0.3364931635758942], [-0.23426981973701444, 0.45668163880078905], [-0.16213325747340118, 0.09108319137585497], [0.2919530121885453, 0.10321385049809395], [0.20868653225274292, 0.5609224496106731], [-0.3211355700451137, -0.16939538204183047], [-0.031912217325412384, -0.36021987322188903], [0.46871067454387216, 0.01129182716670768], [-0.5741264846502323, 0.09227063931925344], [0.24376752009862457, -0.45608334149148616], [0.02321600213747199, 0.14839602269917518], [-0.054835569794275285, 0.33194400687649206], [0.17520309937860767, 0.33686115372854664], [-0.07865089428777661, -0.09740063897514739], [-0.2932780123109741, -0.4371892385704398], [0.4976847661535254, -0.20309123819797076], [0.5355995910103678, 0.21355027898786716]]",density,white,,,N011,visual,1,[],"['1', '2', '3', '4']",1,2023.2.3,harveyvisual,2.1,[],8,0.75,
0,pause,0.4,None,None,None,0,139,139,139,,,,,,,,,,,1,50.79775905609131,N011,visual,1,[],"['1', '2', '3', '4']",1,2023.2.3,harveyvisual,2.1,[],8,0.75,
20,dot,0.3,['dot'],['density'],black,0,140,140,140,,,51.400201082229614,51.117748975753784,51.417860984802246,dot,"[0.08, 0.08, 0.1, 0.06, 0.1, 0.1, 0.1, 0.06, 0.08, 0.08, 0.08, 0.06, 0.1, 0.08, 0.06, 0.08, 0.06, 0.1, 0.1, 0.1]","[[-0.004901662368758886, -0.5156357558393353], [0.31371446552579574, 0.04452913099154909], [-0.22895024425666016, -0.249385038587222], [-0.4714246403463148, -0.36260763378678157], [0.537510670043046, -0.2102051262961276], [0.5863971000734062, -0.021097727800147986], [-0.3105651102593057, 0.5102750390527817], [0.4232628256231151, 0.20389392765123293], [-0.36826689635980486, 0.09054693116665669], [-0.5951917140306424, -0.10444959368677317], [-0.13648601449097442, 0.3100669205104716], [-0.035062177146365836, -0.32138734434801974], [-0.28966698590631546, -0.43412275107003956], [0.1961479915121146, -0.5514497807022134], [0.06974243016555792, 0.281312199057107], [-0.527461253477888, 0.2275886031498235], [0.27213899115629825, -0.3458115057412532], [0.23651038569582883, 0.5335207437136571], [-0.08534187371206736, -0.007764365306170862], [0.011660431982406516, 0.5624325400329719]]",density,black,,,N011,visual,1,[],"['1', '2', '3', '4']",1,2023.2.3,harveyvisual,2.1,[],8,0.75,
0,pause,0.4,None,None,None,0,141,141,141,,,,,,,,,,,,,N011,visual,1,[],"['1', '2', '3', '4']",1,2023.2.3,harveyvisual,2.1,[],8,0.75,
20,dot,0.3,['dot'],['density'],white,0,142,142,142,,,52.100188970565796,51.817728996276855,52.11783695220947,dot,"[0.1, 0.08, 0.06, 0.06, 0.1, 0.1, 0.08, 0.06, 0.1, 0.1, 0.06, 0.1, 0.1, 0.08, 0.06, 0.1, 0.1, 0.1, 0.06, 0.1]","[[-0.35072763397309253, -0.48501009980083376], [-0.09173293634552204, 0.01888378767841692], [0.37839041281629504, 0.33537953518831876], [-0.5451329784167094, 0.17788233953100735], [-0.08934156306278729, 0.549694195879395], [-0.5471315499905055, -0.01992191409086949], [-0.05673498159997192, 0.23878829268052382], [0.4898831912144309, 0.13488738307471254], [-0.1755591527859509, -0.20697375857497768], [0.4080879347378855, -0.1592269722528477], [0.07701279843449271, -0.5926082133542785], [0.17384923102852345, -0.3394993470141533], [0.14571138847964193, 0.14716584519363463], [-0.3456990081031877, 0.1867076799150244], [0.27871483421982657, 0.5187928625790279], [-0.4268550003242466, -0.287588097076483], [-0.06155567806337303, -0.3832560061671354], [0.287710031778849, -0.4968204449164621], [0.11219183808018318, -0.08636124233917919], [0.4872197006064366, -0.3585798017058432]]",density,white,,,N011,visual,1,[],"['1', '2', '3', '4']",1,2023.2.3,harveyvisual,2.1,[],8,0.75,
0,pause,0.4,None,None,None,0,143,143,143,,,,,,,,,,,1,52.30707406997681,N011,visual,1,[],"['1', '2', '3', '4']",1,2023.2.3,harveyvisual,2.1,[],8,0.75,
20,dot,0.3,['dot'],['density'],black,0,144,144,144,,,52.80019807815552,52.51783108711243,52.81767201423645,dot,"[0.06, 0.1, 0.1, 0.1, 0.1, 0.08, 0.08, 0.06, 0.08, 0.08, 0.08, 0.08, 0.08, 0.1, 0.06, 0.06, 0.06, 0.06, 0.08, 0.06]","[[0.18664140320738742, 0.40131120181510227], [-0.014113308178423045, 0.3747130889834964], [0.03829000690348794, -0.4511610839995248], [0.18739786935088099, 0.19639743025935208], [-0.21166797811662907, 0.06624686677412739], [-0.49175254600593876, -0.002180134753457963], [-0.3143619509345219, -0.4336099624804828], [0.4384147768456751, 0.22005812139338826], [-0.3067882027228779, -0.22941417798991487], [-0.5413769637461141, 0.2223647001783564], [-0.10154107037039029, -0.08976916865520623], [0.5653842440685802, -0.19692767802451297], [0.3709910851116084, -0.1643321784694431], [-0.397263629742043, 0.353451254610394], [0.5974030888607432, -0.006704569132181662], [0.24011517689265482, -0.027055329936061634], [-0.19349821969326875, 0.3018516723043907], [0.06344344654384593, 0.5805016203361897], [-0.11654552791890382, -0.32598843425832347], [0.0743155226583162, -0.17017468958679488]]",density,black,,,N011,visual,1,[],"['1', '2', '3', '4']",1,2023.2.3,harveyvisual,2.1,[],8,0.75,
0,pause,0.4,None,None,None,0,145,145,145,,,,,,,,,,,,,N011,visual,1,[],"['1', '2', '3', '4']",1,2023.2.3,harveyvisual,2.1,[],8,0.75,
20,dot,0.3,['dot'],['density'],black,0,146,146,146,,,53.50020790100098,53.217817068099976,53.517800092697144,dot,"[0.08, 0.06, 0.06, 0.08, 0.08, 0.08, 0.06, 0.1, 0.08, 0.06, 0.1, 0.06, 0.08, 0.08, 0.06, 0.06, 0.1, 0.06, 0.06, 0.06]","[[-0.10809325426330374, 0.572764207070557], [-0.5611379101681646, -0.09305995207629547], [-0.029301237886870446, -0.4544250978826741], [0.13772569176923455, 0.278001967372697], [0.2563424723976242, -0.0931804710737445], [-0.30985067011049316, 0.14960786625182565], [-0.06288485202886829, 0.2291878520836077], [-0.47396903395569767, 0.3162723650159736], [-0.2616976429809778, -0.07352118051886386], [-0.0503554173691374, -0.16240272733757888], [-0.4478314292072045, -0.3817113094000938], [0.5914450057764241, 0.001169878235229349], [0.16368559591627718, 0.0801226563399895], [0.36157558446362603, -0.36312655551756345], [0.19083588249144035, -0.47345180286158745], [0.47368723515916844, 0.198437357867155], [0.29203764685708933, 0.5177504333058693], [-0.21103633779496112, -0.2961700558621192], [-0.2366919057151472, 0.39732638561300637], [0.5550534143257605, -0.19887735785838964]]",density,black,,,N011,visual,1,[],"['1', '2', '3', '4']",1,2023.2.3,harveyvisual,2.1,[],8,0.75,
0,pause,0.4,None,None,None,0,147,147,147,,,,,,,,,,,,,N011,visual,1,[],"['1', '2', '3', '4']",1,2023.2.3,harveyvisual,2.1,[],8,0.75,
20,dot,0.3,['dot'],['density'],black,0,148,148,148,,,54.20020508766174,53.9177041053772,54.217814922332764,dot,"[0.06, 0.08, 0.1, 0.06, 0.08, 0.08, 0.06, 0.08, 0.1, 0.08, 0.08, 0.06, 0.08, 0.06, 0.08, 0.06, 0.1, 0.06, 0.06, 0.08]","[[0.5317354762217349, -0.0569517001827603], [0.31090231163004567, -0.27882869645491815], [0.36193709086792225, 0.3487910470389988], [-0.5381628463761484, 0.26498338718382813], [0.040546762561221694, -0.4642906024354384], [-0.3293783123029687, 0.38086540760338294], [-0.4589339186655884, -0.34450886509820383], [0.22762988943352602, 0.5146084975776488], [-0.5073794701532144, -0.021822762325878764], [-0.24467027500343824, -0.01791281386961907], [-0.1331282102870741, 0.5810515205458899], [0.1817272427178993, 0.17708686612882119], [-0.14497209398272548, 0.32926356544385715], [-0.2737103711438669, -0.22300374292067832], [0.3308515220947885, -0.0689230956569502], [-0.21268581118215418, -0.43049720088798415], [-0.06895120655624998, -0.09598735394678648], [0.5249701408533035, 0.16994471065458305], [-0.032439290189388514, 0.16970830511661628], [0.33780875939835964, -0.49553686454734724]]",density,black,,,N011,visual,1,[],"['1', '2', '3', '4']",1,2023.2.3,harveyvisual,2.1,[],8,0.75,
0,pause,0.4,None,None,None,0,149,149,149,,,,,,,,,,,,,N011,visual,1,[],"['1', '2', '3', '4']",1,2023.2.3,harveyvisual,2.1,[],8,0.75,
20,dot,0.3,['dot'],['density'],black,0,150,150,150,,,54.90021204948425,54.61764097213745,54.91764497756958,dot,"[0.08, 0.1, 0.08, 0.1, 0.1, 0.06, 0.08, 0.1, 0.1, 0.08, 0.1, 0.06, 0.08, 0.08, 0.1, 0.08, 0.06, 0.08, 0.08, 0.06]","[[0.32365928016448753, 0.1124741245218811], [-0.5696085853336141, 0.17607335595478507], [0.45731841806195084, -0.26672897337764157], [-0.40533079306317976, -0.17150370476703286], [-0.031441074651562095, -0.418154449428182], [-0.11831563000269141, 0.35928118707960355], [0.10906712712966782, -0.1674253485074459], [0.164357600347946, 0.38398946436619597], [-0.4721633612532592, 0.3707766782826525], [-0.21327646508162212, 0.02984489968287818], [-0.28061030585657804, -0.3631042315651505], [0.20706964613827783, -0.5527253146491206], [0.07462789251288426, 0.05722072989306659], [0.5570559830862002, 0.03602644519120665], [0.4865380353965959, 0.3150046244967417], [-0.1847689410088103, -0.5444483214559251], [-0.559408975832057, -0.017550069831703957], [0.39613227100905124, -0.07242043020089595], [-0.28953886760287323, 0.4846470626174292], [0.23227240294870377, -0.34738851170739565]]",density,black,,,N011,visual,1,[],"['1', '2', '3', '4']",1,2023.2.3,harveyvisual,2.1,[],8,0.75,
0,pause,0.4,None,None,None,0,151,151,151,,,,,,,,,,,,,N011,visual,1,[],"['1', '2', '3', '4']",1,2023.2.3,harveyvisual,2.1,[],8,0.75,
20,dot,0.3,['dot'],['density'],black,0,152,152,152,,,55.60020399093628,55.31765007972717,55.6176381111145,dot,"[0.06, 0.06, 0.1, 0.1, 0.08, 0.08, 0.1, 0.1, 0.08, 0.06, 0.1, 0.1, 0.08, 0.08, 0.06, 0.08, 0.08, 0.08, 0.1, 0.1]","[[0.3479868183633448, -0.1449858447643455], [0.5151393080461985, 0.23626087487120484], [-0.18013651024603428, 0.5367161666959531], [-0.08574932266377466, 0.045147459080166596], [-0.4435542467405237, 0.13524012058789409], [0.5376115226720141, -0.07975337281462522], [-0.45973555584702874, -0.1908492608629046], [-0.3268238525144901, 0.4144552664218082], [0.15479651594359167, 0.34486728741221484], [0.17074149636322655, 0.08455710211572187], [-0.2263596906355705, -0.1146418267366972], [-0.06112931843904679, -0.39873543771569986], [0.09675593593998955, -0.18405152144905512], [0.3788448007808747, 0.4332633158487978], [-0.6038331872558139, -0.026537510199242817], [0.20529867781122713, 0.5621790634892497], [0.5109526063298854, -0.3149130227562392], [-0.018069956439888735, 0.43262635436764907], [0.036135567120514245, -0.5953097568091871], [0.24319330783870996, -0.478396313019343]]",density,black,,,N011,visual,1,[],"['1', '2', '3', '4']",1,2023.2.3,harveyvisual,2.1,[],8,0.75,
0,pause,0.4,None,None,None,0,153,153,153,,,,,,,,,,,,,N011,visual,1,[],"['1', '2', '3', '4']",1,2023.2.3,harveyvisual,2.1,[],8,0.75,
20,dot,0.3,['dot'],['density'],black,0,154,154,154,,,56.30018591880798,56.017765045166016,56.317610025405884,dot,"[0.06, 0.08, 0.1, 0.08, 0.06, 0.08, 0.1, 0.06, 0.1, 0.06, 0.1, 0.08, 0.06, 0.1, 0.08, 0.1, 0.1, 0.1, 0.1, 0.08]","[[0.07929944403133404, 0.22732420153942134], [0.3704997666618295, 0.1736031987106993], [-0.22053515971424242, -0.41684530905777223], [-0.3734984087666754, 0.08810788373171263], [0.2614097026948746, -0.4386393559638396], [0.48982011095432043, 0.3208522975018034], [-0.2124302913908137, 0.3041695052663147], [0.4964288485722682, -0.3241905022970135], [-0.3749902034157998, -0.23505127249126306], [0.5988606002118745, 0.008476792049921411], [-0.0016145220739044452, -0.057649292243607264], [0.21303589068471385, -0.039946041268769106], [-0.1274005768955438, 0.5414379152938956], [-0.02576300336852355, -0.37888231521878085], [0.1168561827907022, 0.48272206896344294], [-0.4124255558638512, 0.3140529284578974], [0.40199500726088944, -0.12136068588825827], [-0.582517808796476, -0.05899244469991462], [-0.10115157334160108, -0.5895676675986321], [-0.3090927995512605, 0.48500096145562377]]",density,black,,,N011,visual,1,[],"['1', '2', '3', '4']",1,2023.2.3,harveyvisual,2.1,[],8,0.75,
0,pause,0.4,None,None,None,0,155,155,155,,,,,,,,,,,,,N011,visual,1,[],"['1', '2', '3', '4']",1,2023.2.3,harveyvisual,2.1,[],8,0.75,
9,dot,0.3,['dot'],['density'],white,0,156,156,156,,,57.000186920166016,56.7177460193634,57.01763105392456,dot,"[0.1, 0.06, 0.1, 0.1, 0.08, 0.1, 0.1, 0.08, 0.08]","[[0.27429149071172837, 0.34251676390746333], [0.46797507249945486, 0.005491811463162166], [0.21235580877939833, 0.08757146436558581], [0.046223583492975936, 0.2932249054251131], [0.07051592556679111, -0.0704922843318231], [0.30438918969270623, -0.13028831600800136], [0.11534598117609637, 0.5236829685630697], [-0.06673610159464062, 0.12515255452502297], [-0.14439101605953233, -0.1332028051536465]]",density,white,,,N011,visual,1,[],"['1', '2', '3', '4']",1,2023.2.3,harveyvisual,2.1,[],8,0.75,
0,pause,0.4,None,None,None,0,157,157,157,,,,,,,,,,,1,57.26368308067322,N011,visual,1,[],"['1', '2', '3', '4']",1,2023.2.3,harveyvisual,2.1,[],8,0.75,
9,dot,0.3,['dot'],['density'],black,0,158,158,158,,,57.70019888877869,57.41770100593567,57.71755409240723,dot,"[0.08, 0.06, 0.1, 0.06, 0.06, 0.08, 0.06, 0.1, 0.1]","[[0.5176022259896301, 0.07013652950073157], [0.29073914382076843, 0.49095716113391286], [0.25755010907869064, 0.10321661572421419], [0.11549350267606502, 0.37871636325142816], [-0.040248060121338324, 0.07603447111469516], [0.35733910828644905, -0.07238149579930037], [0.09184169877402729, -0.10424630849328012], [-0.10934901156313583, -0.14911132891814113], [0.4158094160330474, 0.26019999263529187]]",density,black,,,N011,visual,1,[],"['1', '2', '3', '4']",1,2023.2.3,harveyvisual,2.1,[],8,0.75,
0,pause,0.4,None,None,None,0,159,159,159,,,,,,,,,,,,,N011,visual,1,[],"['1', '2', '3', '4']",1,2023.2.3,harveyvisual,2.1,[],8,0.75,
9,dot,0.3,['dot'],['density'],black,0,160,160,160,,,58.400187969207764,58.11755108833313,58.417542934417725,dot,"[0.1, 0.08, 0.1, 0.1, 0.1, 0.06, 0.06, 0.06, 0.06]","[[-0.05049485011715354, 0.3013521193238899], [0.15354596755057998, 0.36785015051376163], [0.22995749783639982, 0.07309138415424772], [0.13460311710395165, -0.18603378415368982], [0.33097739113381164, -0.13822260855557728], [-0.16464148731134703, 0.07190493829483618], [0.521154897315396, -0.007803673430992942], [0.02684304494395013, 0.0018704401699241912], [-0.15545279255173522, -0.15329938800760382]]",density,black,,,N011,visual,1,[],"['1', '2', '3', '4']",1,2023.2.3,harveyvisual,2.1,[],8,0.75,
0,pause,0.4,None,None,None,0,161,161,161,,,,,,,,,,,,,N011,visual,1,[],"['1', '2', '3', '4']",1,2023.2.3,harveyvisual,2.1,[],8,0.75,
9,dot,0.3,['dot'],['density'],black,0,162,162,162,,,59.10020899772644,58.81753993034363,59.11745595932007,dot,"[0.1, 0.08, 0.08, 0.08, 0.08, 0.1, 0.1, 0.08, 0.1]","[[0.5571797577834091, 0.07732674165650813], [0.16332656704353227, -0.09331314560094064], [0.4138178119161903, 0.3925230053806507], [0.28711316854655766, 0.07147022394212545], [0.052100496024031176, 0.3810199549023822], [0.2172039135420496, 0.26337040755706287], [-0.2646845915772586, 0.12849707234668142], [0.21844181080216274, 0.4926952285236599], [0.0761275456309072, 0.11718001140956479]]",density,black,,,N011,visual,1,[],"['1', '2', '3', '4']",1,2023.2.3,harveyvisual,2.1,[],8,0.75,
0,pause,0.4,None,None,None,0,163,163,163,,,,,,,,,,,,,N011,visual,1,[],"['1', '2', '3', '4']",1,2023.2.3,harveyvisual,2.1,[],8,0.75,
9,dot,0.3,['dot'],['density'],black,0,164,164,164,,,59.800206899642944,59.517452001571655,59.817429065704346,dot,"[0.08, 0.08, 0.06, 0.1, 0.06, 0.08, 0.06, 0.06, 0.06]","[[0.11766436913102363, -0.04327704920019282], [0.17973489876850246, -0.2957558932143311], [0.4322853556796634, 0.1292829237047714], [-0.0348924626991882, -0.2091692004054023], [0.511593351462966, -0.2715393032181878], [0.39631341359825684, -0.10388811790353111], [0.1759041025424718, 0.35783279634564974], [-0.11077337801993212, 0.08002505665429639], [0.1915495233696259, 0.15329463501335125]]",density,black,,,N011,visual,1,[],"['1', '2', '3', '4']",1,2023.2.3,harveyvisual,2.1,[],8,0.75,
0,pause,0.4,None,None,None,0,165,165,165,,,,,,,,,,,,,N011,visual,1,[],"['1', '2', '3', '4']",1,2023.2.3,harveyvisual,2.1,[],8,0.75,
9,dot,0.3,['dot'],['density'],black,0,166,166,166,,,60.50019693374634,60.21743202209473,60.517422914505005,dot,"[0.08, 0.1, 0.08, 0.1, 0.1, 0.06, 0.06, 0.06, 0.1]","[[0.26246064217380705, -0.20881461689055444], [-0.05738061480455322, -0.2104867327221427], [-0.15279665209492657, -0.4570696492981838], [-0.25848085101471047, 0.03539482855188907], [0.05438928923437074, -0.041842351158073866], [-0.266438460152573, -0.22510974363943476], [-0.08630847597628627, 0.16925380219028288], [0.1378984379274782, 0.16880467564350782], [0.14927440204233722, -0.41110624343475755]]",density,black,,,N011,visual,1,[],"['1', '2', '3', '4']",1,2023.2.3,harveyvisual,2.1,[],8,0.75,
0,pause,0.4,None,None,None,0,167,167,167,,,,,,,,,,,,,N011,visual,1,[],"['1', '2', '3', '4']",1,2023.2.3,harveyvisual,2.1,[],8,0.75,
8,dot,0.3,['dot'],['density'],black,0,168,168,168,,,61.20019793510437,60.917409896850586,61.217397928237915,dot,"[0.08, 0.08, 0.06, 0.1, 0.06, 0.1, 0.08, 0.08]","[[0.2715518471235014, -0.4245138665073026], [0.03602391524707561, -0.40638782213015096], [0.4828297141312073, -0.09119901312376678], [0.02835794216237903, 0.028275321652194735], [-0.0895445032969687, -0.19822740391127236], [0.3178997883629752, 0.08245100984997318], [0.21920060966397442, -0.22342839817001514], [0.46807969757011175, -0.32427319705723295]]",density,black,,,N011,visual,1,[],"['1', '2', '3', '4']",1,2023.2.3,harveyvisual,2.1,[],8,0.75,
0,pause,0.4,None,None,None,0,169,169,169,,,,,,,,,,,,,N011,visual,1,[],"['1', '2', '3', '4']",1,2023.2.3,harveyvisual,2.1,[],8,0.75,
8,dot,0.3,['dot'],['density'],white,0,170,170,170,,,61.90018892288208,61.61739802360535,61.917383909225464,dot,"[0.1, 0.1, 0.08, 0.06, 0.08, 0.1, 0.06, 0.06]","[[0.3129921899656287, 0.2226642157048143], [0.41298599633021416, -0.001766323215076977], [0.013785601627645026, 0.39275307090924344], [-0.009407606244017683, 0.02333367620517349], [0.20163499737495916, -0.08731087547331118], [0.31235423233837933, 0.42762820752661124], [0.10705959187470679, 0.21318577255187057], [-0.13233007013452783, 0.20605257250075132]]",density,white,,,N011,visual,1,[],"['1', '2', '3', '4']",1,2023.2.3,harveyvisual,2.1,[],8,0.75,
0,pause,0.4,None,None,None,0,171,171,171,,,,,,,,,,,1,62.03209185600281,N011,visual,1,[],"['1', '2', '3', '4']",1,2023.2.3,harveyvisual,2.1,[],8,0.75,
8,dot,0.3,['dot'],['density'],black,0,172,172,172,,,62.60020089149475,62.317365884780884,62.6173620223999,dot,"[0.06, 0.08, 0.06, 0.1, 0.1, 0.08, 0.08, 0.1]","[[-0.13214754069031825, -0.5402677255150703], [0.1288984478000013, -0.5519726475135984], [0.27401725229332, -0.34994268047279037], [-0.052680844420756816, 0.006786609240531098], [0.03557367748195712, -0.3699094958310016], [-0.23170140006741713, -0.18198058676873416], [-0.33504621301322857, -0.3611685350886627], [0.0760940577115827, -0.14857148175569432]]",density,black,,,N011,visual,1,[],"['1', '2', '3', '4']",1,2023.2.3,harveyvisual,2.1,[],8,0.75,
0,pause,0.4,None,None,None,0,173,173,173,,,,,,,,,,,,,N011,visual,1,[],"['1', '2', '3', '4']",1,2023.2.3,harveyvisual,2.1,[],8,0.75,
8,dot,0.3,['dot'],['density'],black,0,174,174,174,,,63.300190925598145,63.017350912094116,63.31733202934265,dot,"[0.06, 0.1, 0.06, 0.08, 0.06, 0.06, 0.08, 0.1]","[[-0.21605400050023119, -0.36806604112140096], [-0.4331556331222778, 0.1336594927324191], [-0.3157474098875971, -0.1371073420352747], [-0.10064365538588134, -0.10053754910436148], [0.10862445751928086, -0.04115753002163663], [-0.19663983546434133, 0.09424647547905109], [-0.5379272585723496, -0.06117038891009633], [0.023355790718173546, -0.2955553217846553]]",density,black,,,N011,visual,1,[],"['1', '2', '3', '4']",1,2023.2.3,harveyvisual,2.1,[],8,0.75,
0,pause,0.4,None,None,None,0,175,175,175,,,,,,,,,,,,,N011,visual,1,[],"['1', '2', '3', '4']",1,2023.2.3,harveyvisual,2.1,[],8,0.75,
8,dot,0.3,['dot'],['density'],black,0,176,176,176,,,64.00021195411682,63.717350006103516,64.01733803749084,dot,"[0.1, 0.1, 0.1, 0.08, 0.1, 0.06, 0.06, 0.06]","[[-0.43120034012996816, -0.3965796075128045], [0.1478983624034229, -0.46770986256388064], [-0.23058307999139557, -0.3238539366063682], [-0.07988642296593639, -0.13993938361429092], [-0.08664795903044427, -0.5418074813242995], [0.11879255589163208, -0.1637425359681226], [-0.09873641234556067, 0.08705286872936738], [-0.025120016651009644, -0.34045580780112095]]",density,black,,,N011,visual,1,[],"['1', '2', '3', '4']",1,2023.2.3,harveyvisual,2.1,[],8,0.75,
0,pause,0.4,None,None,None,0,177,177,177,,,,,,,,,,,,,N011,visual,1,[],"['1', '2', '3', '4']",1,2023.2.3,harveyvisual,2.1,[],8,0.75,
8,dot,0.3,['dot'],['density'],black,0,178,178,178,,,64.70019388198853,64.41736102104187,64.71737003326416,dot,"[0.06, 0.06, 0.1, 0.1, 0.08, 0.1, 0.06, 0.08]","[[-0.3265204970111284, 0.22652760434067618], [0.11129643684023392, 0.07926950251467085], [0.07893474341784651, 0.4315681374945237], [-0.2000017914838315, -0.08445279674287073], [-0.29956068591909263, 0.4664910923320479], [-0.09828291121522204, 0.1483319570086381], [0.07400994184747142, -0.11883630301138211], [-0.12650192453358844, 0.35264367728062257]]",density,black,,,N011,visual,1,[],"['1', '2', '3', '4']",1,2023.2.3,harveyvisual,2.1,[],8,0.75,
0,pause,0.4,None,None,None,0,179,179,179,,,,,,,,,,,,,N011,visual,1,[],"['1', '2', '3', '4']",1,2023.2.3,harveyvisual,2.1,[],8,0.75,
7,dot,0.3,['dot'],['density'],black,0,180,180,180,,,65.40019989013672,65.11736392974854,65.41735005378723,dot,"[0.1, 0.1, 0.08, 0.08, 0.1, 0.06, 0.1]","[[-0.0015444251822213466, 0.17452400993182896], [-0.3864233363803332, 0.3856338194384884], [-0.45841970572989144, 0.11901701190004808], [-0.23552014845846486, 0.11986313412455778], [-0.06694767956243396, -0.029831379541550785], [-0.3576154478026905, -0.11072010138878656], [-0.17113735677840214, 0.37123035181888253]]",density,black,,,N011,visual,1,[],"['1', '2', '3', '4']",1,2023.2.3,harveyvisual,2.1,[],8,0.75,
0,pause,0.4,None,None,None,0,181,181,181,,,,,,,,,,,,,N011,visual,1,[],"['1', '2', '3', '4']",1,2023.2.3,harveyvisual,2.1,[],8,0.75,
7,dot,0.3,['dot'],['density'],black,0,182,182,182,,,66.10019207000732,65.8173360824585,66.11732697486877,dot,"[0.06, 0.1, 0.06, 0.08, 0.08, 0.06, 0.08]","[[-0.026372969700101213, 0.05085620782211805], [-0.16304282038196347, -0.3616501386780019], [-0.013762327205412121, -0.14910430285435466], [0.14729449770710015, -0.3647544547161306], [-0.22494517313234175, -0.12035103032643314], [-0.36514670174418407, -0.33057163197754225], [0.21417125919861074, -0.06627923590771367]]",density,black,,,N011,visual,1,[],"['1', '2', '3', '4']",1,2023.2.3,harveyvisual,2.1,[],8,0.75,
0,pause,0.4,None,None,None,0,183,183,183,,,,,,,,,,,,,N011,visual,1,[],"['1', '2', '3', '4']",1,2023.2.3,harveyvisual,2.1,[],8,0.75,
7,dot,0.3,['dot'],['density'],black,0,184,184,184,,,66.80020594596863,66.51729798316956,66.81725311279297,dot,"[0.08, 0.08, 0.08, 0.1, 0.08, 0.08, 0.08]","[[0.21536278937261513, -0.01733091677764761], [-0.08931035591216824, -0.05246349631749078], [0.21870610454298933, 0.21067491250041093], [-0.1587576617113587, 0.26068369883413384], [0.04623079518225047, 0.4568527369480977], [0.022942391481424712, 0.13939122930077608], [-0.27674911739568203, 0.09730719745121558]]",density,black,,,N011,visual,1,[],"['1', '2', '3', '4']",1,2023.2.3,harveyvisual,2.1,[],8,0.75,
0,pause,0.4,None,None,None,0,185,185,185,,,,,,,,,,,,,N011,visual,1,[],"['1', '2', '3', '4']",1,2023.2.3,harveyvisual,2.1,[],8,0.75,
7,dot,0.3,['dot'],['density'],white,0,186,186,186,,,67.50019788742065,67.21724009513855,67.51726698875427,dot,"[0.06, 0.1, 0.1, 0.06, 0.08, 0.1, 0.1]","[[-0.3025445156539714, -0.42280529123536587], [0.12162933753582021, -0.2851722644810181], [-0.2753205641105948, -0.038672864930592576], [-0.4202189534315163, -0.18742991959605093], [-0.15636117447925973, -0.27217203193286355], [-0.09967880665522989, -0.47242523529006747], [-0.06261398545311019, -0.08879309989794046]]",density,white,,,N011,visual,1,[],"['1', '2', '3', '4']",1,2023.2.3,harveyvisual,2.1,[],8,0.75,
0,pause,0.4,None,None,None,0,187,187,187,,,,,,,,,,,1,67.68273997306824,N011,visual,1,[],"['1', '2', '3', '4']",1,2023.2.3,harveyvisual,2.1,[],8,0.75,
7,dot,0.3,['dot'],['density'],black,0,188,188,188,,,68.20019102096558,67.91723704338074,68.21721196174622,dot,"[0.08, 0.1, 0.1, 0.06, 0.06, 0.1, 0.06]","[[-0.08751196138777266, -0.40239331021683095], [-0.1389983634140625, -0.1821537091642013], [-0.5212097088452917, -0.15879536445288125], [-0.24197016774290594, 0.025691971861017886], [-0.324083892787021, -0.3083678109532634], [0.06465625853811506, -0.19815494036826437], [-0.2569867334647868, -0.5155038850209747]]",density,black,,,N011,visual,1,[],"['1', '2', '3', '4']",1,2023.2.3,harveyvisual,2.1,[],8,0.75,
0,pause,0.4,None,None,None,0,189,189,189,,,,,,,,,,,,,N011,visual,1,[],"['1', '2', '3', '4']",1,2023.2.3,harveyvisual,2.1,[],8,0.75,
7,dot,0.3,['dot'],['density'],black,0,190,190,190,,,68.90020895004272,68.61724710464478,68.91725397109985,dot,"[0.08, 0.08, 0.1, 0.08, 0.1, 0.08, 0.08]","[[-0.3423230189937584, -0.41219609722212536], [-0.1182323968952694, -0.35552357509158045], [-0.4111032443031386, -0.006313161275750597], [-0.5095560862941229, -0.2529410328503813], [-0.2588176969072235, -0.18091026219072012], [-0.0026253510642934245, -0.12197054074907589], [-0.16586784627322051, 0.0941069694468023]]",density,black,,,N011,visual,1,[],"['1', '2', '3', '4']",1,2023.2.3,harveyvisual,2.1,[],8,0.75,
0,pause,0.4,None,None,None,0,191,191,191,,,,,,,,,,,,,N011,visual,1,[],"['1', '2', '3', '4']",1,2023.2.3,harveyvisual,2.1,[],8,0.75,
6,dot,0.3,['dot'],['density'],black,0,192,192,192,,,69.6001980304718,69.31719398498535,69.61724400520325,dot,"[0.06, 0.08, 0.08, 0.06, 0.06, 0.08]","[[-0.362545063880459, -0.421860962952156], [-0.24010638466002518, -0.0327569241266412], [-0.22622339336134992, -0.23590116153186103], [-0.41823503972227205, -0.14060420183103206], [-0.028992295722001654, -0.1293578273409096], [-0.1459617666416116, -0.4591052827033254]]",density,black,,,N011,visual,1,[],"['1', '2', '3', '4']",1,2023.2.3,harveyvisual,2.1,[],8,0.75,
0,pause,0.4,None,None,None,0,193,193,193,,,,,,,,,,,,,N011,visual,1,[],"['1', '2', '3', '4']",1,2023.2.3,harveyvisual,2.1,[],8,0.75,
6,dot,0.3,['dot'],['density'],white,0,194,194,194,,,70.3002119064331,70.01723194122314,70.317214012146,dot,"[0.06, 0.06, 0.1, 0.06, 0.08, 0.06]","[[0.26568550625605564, -0.48823100126060537], [0.030589778490880962, -0.34307155488476027], [0.2920158589989485, -0.005481777194348812], [0.4969139129819881, -0.3034402107212153], [0.2924968692334099, -0.2393606426967254], [0.09404279540557291, -0.1505005030192783]]",density,white,,,N011,visual,1,[],"['1', '2', '3', '4']",1,2023.2.3,harveyvisual,2.1,[],8,0.75,
0,pause,0.4,None,None,None,0,195,195,195,,,,,,,,,,,1,70.4390618801117,N011,visual,1,[],"['1', '2', '3', '4']",1,2023.2.3,harveyvisual,2.1,[],8,0.75,
6,dot,0.3,['dot'],['density'],black,0,196,196,196,,,71.00019598007202,70.7172019481659,71.01719307899475,dot,"[0.06, 0.06, 0.08, 0.08, 0.06, 0.08]","[[0.500827999951601, -0.23304028533624072], [0.20916386845998064, 0.08030245107060778], [0.27809793757338463, -0.1905950399710685], [0.08327260932553728, -0.13599284299194644], [0.16768982653485215, -0.38480252821003114], [0.4174962964646186, 0.01069632702004041]]",density,black,,,N011,visual,1,[],"['1', '2', '3', '4']",1,2023.2.3,harveyvisual,2.1,[],8,0.75,
0,pause,0.4,None,None,None,0,197,197,197,,,,,,,,,,,,,N011,visual,1,[],"['1', '2', '3', '4']",1,2023.2.3,harveyvisual,2.1,[],8,0.75,
6,dot,0.3,['dot'],['density'],black,0,198,198,198,,,71.70019102096558,71.41712689399719,71.71713590621948,dot,"[0.1, 0.1, 0.08, 0.1, 0.08, 0.08]","[[-0.3495133471434448, -0.27378397825191725], [-0.13100446626766318, 0.13866361521721876], [-0.5155090776439144, 0.11776884681908774], [-0.4780287848267884, -0.11588239978167382], [-0.11897161770401087, -0.0933943475842369], [-0.303431097341306, -0.010759678588622423]]",density,black,,,N011,visual,1,[],"['1', '2', '3', '4']",1,2023.2.3,harveyvisual,2.1,[],8,0.75,
0,pause,0.4,None,None,None,0,199,199,199,,,,,,,,,,,,,N011,visual,1,[],"['1', '2', '3', '4']",1,2023.2.3,harveyvisual,2.1,[],8,0.75,
6,dot,0.3,['dot'],['density'],black,0,200,200,200,,,72.40019202232361,72.11711692810059,72.41710209846497,dot,"[0.06, 0.08, 0.06, 0.08, 0.06, 0.08]","[[0.500827999951601, -0.23304028533624072], [0.20916386845998064, 0.08030245107060778], [0.27809793757338463, -0.1905950399710685], [0.08327260932553728, -0.13599284299194644], [0.16768982653485215, -0.38480252821003114], [0.4174962964646186, 0.01069632702004041]]",density,black,,,N011,visual,1,[],"['1', '2', '3', '4']",1,2023.2.3,harveyvisual,2.1,[],8,0.75,
0,pause,0.4,None,None,None,0,201,201,201,,,,,,,,,,,,,N011,visual,1,[],"['1', '2', '3', '4']",1,2023.2.3,harveyvisual,2.1,[],8,0.75,
6,dot,0.3,['dot'],['density'],black,0,202,202,202,,,73.10020589828491,72.81714200973511,73.11712288856506,dot,"[0.1, 0.06, 0.06, 0.08, 0.06, 0.1]","[[0.01776890784276672, 0.3448500499300058], [-0.18238616215991446, 0.4840889924469993], [-0.2129582374372363, 0.07157874559070018], [-0.41549008775918617, 0.14353268657608398], [0.019487844458329944, 0.1389587799501653], [-0.21004805074000235, 0.2837936954907191]]",density,black,,,N011,visual,1,[],"['1', '2', '3', '4']",1,2023.2.3,harveyvisual,2.1,[],8,0.75,
0,pause,0.4,None,None,None,0,203,203,203,,,,,,,,,,,,,N011,visual,1,[],"['1', '2', '3', '4']",1,2023.2.3,harveyvisual,2.1,[],8,0.75,
5,dot,0.3,['dot'],['density'],black,0,204,204,204,,,73.80020093917847,73.51716589927673,73.81709694862366,dot,"[0.06, 0.1, 0.06, 0.08, 0.06]","[[-0.13250041589442924, 0.4634743177333449], [-0.03625216126902591, 0.28212032656479163], [0.10864293512180892, 0.5244886061775208], [-0.2806491611955352, 0.29160063440784684], [-0.17458602784440078, 0.11997474961663163]]",density,black,,,N011,visual,1,[],"['1', '2', '3', '4']",1,2023.2.3,harveyvisual,2.1,[],8,0.75,
0,pause,0.4,None,None,None,0,205,205,205,,,,,,,,,,,,,N011,visual,1,[],"['1', '2', '3', '4']",1,2023.2.3,harveyvisual,2.1,[],8,0.75,
5,dot,0.3,['dot'],['density'],black,0,206,206,206,,,74.50020003318787,74.21708297729492,74.51738500595093,dot,"[0.08, 0.08, 0.06, 0.06, 0.08]","[[-0.006164932418690097, -0.4528126201229341], [-0.1681524682570009, -0.11721653268637569], [-0.1959903964051736, -0.3710708837277218], [0.03544926667602863, -0.1302589477940128], [0.16830580561999814, -0.32298356607012285]]",density,black,,,N011,visual,1,[],"['1', '2', '3', '4']",1,2023.2.3,harveyvisual,2.1,[],8,0.75,
0,pause,0.4,None,None,None,0,207,207,207,,,,,,,,,,,,,N011,visual,1,[],"['1', '2', '3', '4']",1,2023.2.3,harveyvisual,2.1,[],8,0.75,
5,dot,0.3,['dot'],['density'],black,0,208,208,208,,,75.20019102096558,74.91707611083984,75.21724390983582,dot,"[0.08, 0.08, 0.1, 0.06, 0.06]","[[-0.17224806752104949, 0.21128771658676965], [-0.35983128753182364, -0.1328600505582573], [-0.33716814897054914, 0.09708697582185674], [-0.044562237693599294, -0.03778919281981133], [-0.17109626387405982, -0.21732524013947077]]",density,black,,,N011,visual,1,[],"['1', '2', '3', '4']",1,2023.2.3,harveyvisual,2.1,[],8,0.75,
0,pause,0.4,None,None,None,0,209,209,209,,,,,,,,,,,,,N011,visual,1,[],"['1', '2', '3', '4']",1,2023.2.3,harveyvisual,2.1,[],8,0.75,
5,dot,0.3,['dot'],['density'],black,0,210,210,210,,,75.90019202232361,75.61704993247986,75.91708087921143,dot,"[0.08, 0.06, 0.06, 0.08, 0.08]","[[0.08548847697718086, 0.4135790235028826], [-0.012611048966726563, 0.22662400259503446], [0.27435170057987585, 0.4853016025774898], [-0.23063129862993442, 0.3109017384705433], [-0.11887524344887646, 0.49040580377695175]]",density,black,,,N011,visual,1,[],"['1', '2', '3', '4']",1,2023.2.3,harveyvisual,2.1,[],8,0.75,
0,pause,0.4,None,None,None,0,211,211,211,,,,,,,,,,,,,N011,visual,1,[],"['1', '2', '3', '4']",1,2023.2.3,harveyvisual,2.1,[],8,0.75,
5,dot,0.3,['dot'],['density'],black,0,212,212,212,,,76.60021495819092,76.31709909439087,76.61702704429626,dot,"[0.1, 0.08, 0.06, 0.1, 0.1]","[[-0.18510638544872327, 0.41559840932892733], [-0.057175862535637494, 0.18304904272057057], [0.24003340414173915, 0.43371676657957026], [0.006490958465160464, 0.4770521622163581], [0.13658455045585424, 0.2476502540597336]]",density,black,,,N011,visual,1,[],"['1', '2', '3', '4']",1,2023.2.3,harveyvisual,2.1,[],8,0.75,
0,pause,0.4,None,None,None,0,213,213,213,,,,,,,,,,,,,N011,visual,1,[],"['1', '2', '3', '4']",1,2023.2.3,harveyvisual,2.1,[],8,0.75,
5,dot,0.3,['dot'],['density'],black,0,214,214,214,,,77.300213098526,77.017009973526,77.31727695465088,dot,"[0.06, 0.06, 0.1, 0.06, 0.06]","[[-0.26965218803342234, -0.06061691990321757], [-0.44412238708790114, -0.1605793459593267], [-0.2738608688716076, -0.33598391440877745], [-0.06160694910013377, -0.19463283807086704], [-0.16469008497891707, 0.13324638745272324]]",density,black,,,N011,visual,1,[],"['1', '2', '3', '4']",1,2023.2.3,harveyvisual,2.1,[],8,0.75,
0,pause,0.4,None,None,None,0,215,215,215,,,,,,,,,,,,,N011,visual,1,[],"['1', '2', '3', '4']",1,2023.2.3,harveyvisual,2.1,[],8,0.75,
4,dot,0.3,['dot'],['density'],black,0,216,216,216,,,78.00019907951355,77.71701192855835,78.01698589324951,dot,"[0.08, 0.06, 0.1, 0.06]","[[0.06019618102804278, 0.17823994931545822], [-0.1876584465411705, -0.07971170835358893], [0.026807447441335588, -0.04038633305360204], [-0.17818728785032123, 0.12753763641901858]]",density,black,,,N011,visual,1,[],"['1', '2', '3', '4']",1,2023.2.3,harveyvisual,2.1,[],8,0.75,
0,pause,0.4,None,None,None,0,217,217,217,,,,,,,,,,,,,N011,visual,1,[],"['1', '2', '3', '4']",1,2023.2.3,harveyvisual,2.1,[],8,0.75,
4,dot,0.3,['dot'],['density'],black,0,218,218,218,,,78.7002170085907,78.41705703735352,78.71697092056274,dot,"[0.08, 0.08, 0.1, 0.06]","[[-0.43942495523079517, -0.22401056498097033], [-0.009260832099230759, -0.1633376679159051], [-0.21598309108097546, -0.10172603009605206], [-0.2278206133413005, -0.33154874685782076]]",density,black,,,N011,visual,1,[],"['1', '2', '3', '4']",1,2023.2.3,harveyvisual,2.1,[],8,0.75,
0,pause,0.4,None,None,None,0,219,219,219,,,,,,,,,,,,,N011,visual,1,[],"['1', '2', '3', '4']",1,2023.2.3,harveyvisual,2.1,[],8,0.75,
4,dot,0.3,['dot'],['density'],black,0,220,220,220,,,79.40021109580994,79.11700010299683,79.41695189476013,dot,"[0.1, 0.1, 0.08, 0.1]","[[-0.5372831058023291, 0.07679305146548565], [-0.47746952625478134, -0.11455356156484316], [-0.2888199447118168, 0.02804534169422597], [-0.3317661241759115, -0.2533775510137967]]",density,black,,,N011,visual,1,[],"['1', '2', '3', '4']",1,2023.2.3,harveyvisual,2.1,[],8,0.75,
0,pause,0.4,None,None,None,0,221,221,221,,,,,,,,,,,,,N011,visual,1,[],"['1', '2', '3', '4']",1,2023.2.3,harveyvisual,2.1,[],8,0.75,
4,dot,0.3,['dot'],['density'],black,0,222,222,222,,,80.10019588470459,79.81693506240845,80.11692810058594,dot,"[0.06, 0.06, 0.06, 0.06]","[[-0.1266132934267609, -0.4419116806690939], [0.09906976576587005, -0.33923851916676484], [0.1053941350115203, -0.5768907290059295], [0.29145715672269834, -0.49787884973145785]]",density,black,,,N011,visual,1,[],"['1', '2', '3', '4']",1,2023.2.3,harveyvisual,2.1,[],8,0.75,
0,pause,0.4,None,None,None,0,223,223,223,,,,,,,,,,,,,N011,visual,1,[],"['1', '2', '3', '4']",1,2023.2.3,harveyvisual,2.1,[],8,0.75,
4,dot,0.3,['dot'],['density'],white,0,224,224,224,,,80.80020499229431,80.51696491241455,80.81697106361389,dot,"[0.1, 0.06, 0.08, 0.06]","[[0.3225849294362846, -0.13157286681700714], [0.2615083713376798, -0.38790318245483907], [0.48399895238698887, -0.2981397300552969], [0.514252162939949, -0.043630752066028525]]",density,white,,,N011,visual,1,[],"['1', '2', '3', '4']",1,2023.2.3,harveyvisual,2.1,[],8,0.75,
0,pause,0.4,None,None,None,0,225,225,225,,,,,,,,,,,1,80.98942399024963,N011,visual,1,[],"['1', '2', '3', '4']",1,2023.2.3,harveyvisual,2.1,[],8,0.75,
4,dot,0.3,['dot'],['density'],white,0,226,226,226,,,81.50019598007202,81.21689891815186,81.51688599586487,dot,"[0.08, 0.06, 0.06, 0.06]","[[-0.5133923796685119, -0.13567638448558317], [-0.3102378593599109, -0.17790160316510653], [-0.5338837235738882, 0.07316730980410076], [-0.255286731521037, 0.022123457211080083]]",density,white,,,N011,visual,1,[],"['1', '2', '3', '4']",1,2023.2.3,harveyvisual,2.1,[],8,0.75,
0,pause,0.4,None,None,None,0,227,227,227,,,,,,,,,,,1,81.82251691818237,N011,visual,1,[],"['1', '2', '3', '4']",1,2023.2.3,harveyvisual,2.1,[],8,0.75,
3,dot,0.3,['dot'],['density'],black,0,228,228,228,,,82.20020890235901,81.91687798500061,82.21686506271362,dot,"[0.06, 0.06, 0.08]","[[0.4995185571857965, 0.14229679706320136], [0.2944600495073675, 0.23335097983198633], [0.330752226915583, 0.0299241169750933]]",density,black,,,N011,visual,1,[],"['1', '2', '3', '4']",1,2023.2.3,harveyvisual,2.1,[],8,0.75,
0,pause,0.4,None,None,None,0,229,229,229,,,,,,,,,,,,,N011,visual,1,[],"['1', '2', '3', '4']",1,2023.2.3,harveyvisual,2.1,[],8,0.75,
3,dot,0.3,['dot'],['density'],black,0,230,230,230,,,82.90019392967224,82.61688208580017,82.91686296463013,dot,"[0.1, 0.08, 0.1]","[[0.315495050057846, 0.10724904305018564], [0.5180852452909619, 0.013799590611742229], [0.3819545826159732, -0.1334380777916547]]",density,black,,,N011,visual,1,[],"['1', '2', '3', '4']",1,2023.2.3,harveyvisual,2.1,[],8,0.75,
0,pause,0.4,None,None,None,0,231,231,231,,,,,,,,,,,,,N011,visual,1,[],"['1', '2', '3', '4']",1,2023.2.3,harveyvisual,2.1,[],8,0.75,
3,dot,0.3,['dot'],['density'],black,0,232,232,232,,,83.60021209716797,83.31689310073853,83.61684107780457,dot,"[0.1, 0.1, 0.1]","[[-0.1827482077423914, 0.13189758396693702], [0.006935645283384683, 0.04732296079382947], [-0.049709858873230685, 0.28599666368451326]]",density,black,,,N011,visual,1,[],"['1', '2', '3', '4']",1,2023.2.3,harveyvisual,2.1,[],8,0.75,
0,pause,0.4,None,None,None,0,233,233,233,,,,,,,,,,,,,N011,visual,1,[],"['1', '2', '3', '4']",1,2023.2.3,harveyvisual,2.1,[],8,0.75,
3,dot,0.3,['dot'],['density'],black,0,234,234,234,,,84.30021095275879,84.01681804656982,84.31710410118103,dot,"[0.1, 0.1, 0.1]","[[0.1555504186016049, 0.15532406847092056], [-0.0680535881648269, 0.26220909641571793], [0.08533315121688807, 0.39122308779032533]]",density,black,,,N011,visual,1,[],"['1', '2', '3', '4']",1,2023.2.3,harveyvisual,2.1,[],8,0.75,
0,pause,0.4,None,None,None,0,235,235,235,,,,,,,,,,,,,N011,visual,1,[],"['1', '2', '3', '4']",1,2023.2.3,harveyvisual,2.1,[],8,0.75,
3,dot,0.3,['dot'],['density'],black,0,236,236,236,,,85.0002179145813,84.71677589416504,85.01676487922668,dot,"[0.08, 0.06, 0.08]","[[-0.10589639487257244, 0.35295021258352427], [0.12780035046084517, 0.3479378296372768], [0.013663645537612555, 0.51889388118174]]",density,black,,,N011,visual,1,[],"['1', '2', '3', '4']",1,2023.2.3,harveyvisual,2.1,[],8,0.75,
0,pause,0.4,None,None,None,0,237,237,237,,,,,,,,,,,,,N011,visual,1,[],"['1', '2', '3', '4']",1,2023.2.3,harveyvisual,2.1,[],8,0.75,
3,dot,0.3,['dot'],['density'],black,0,238,238,238,,,85.70019888877869,85.41675996780396,85.71675109863281,dot,"[0.08, 0.06, 0.08]","[[0.5383732683216915, 0.24050044654635605], [0.337973319445641, 0.36292363064724675], [0.3422154310588786, 0.14570949010333048]]",density,black,,,N011,visual,1,[],"['1', '2', '3', '4']",1,2023.2.3,harveyvisual,2.1,[],8,0.75,
0,pause,0.4,None,None,None,0,239,239,239,,,,,,,,,,,,,N011,visual,1,[],"['1', '2', '3', '4']",1,2023.2.3,harveyvisual,2.1,[],8,0.75,
2,dot,0.3,['dot'],['density'],black,0,240,240,240,,,86.40020489692688,86.11674404144287,86.4167149066925,dot,"[0.06, 0.1]","[[-0.2277318593301165, -0.35289300204507235], [-0.09400723608355734, -0.20388512549033708]]",density,black,,,N011,visual,1,[],"['1', '2', '3', '4']",1,2023.2.3,harveyvisual,2.1,[],8,0.75,
0,pause,0.4,None,None,None,0,241,241,241,,,,,,,,,,,,,N011,visual,1,[],"['1', '2', '3', '4']",1,2023.2.3,harveyvisual,2.1,[],8,0.75,
2,dot,0.3,['dot'],['density'],black,0,242,242,242,,,87.10020208358765,86.81672501564026,87.11671209335327,dot,"[0.08, 0.06]","[[0.29932439847351855, -0.2783039550742582], [0.14276117392638485, -0.15345139110726028]]",density,black,,,N011,visual,1,[],"['1', '2', '3', '4']",1,2023.2.3,harveyvisual,2.1,[],8,0.75,
0,pause,0.4,None,None,None,0,243,243,243,,,,,,,,,,,,,N011,visual,1,[],"['1', '2', '3', '4']",1,2023.2.3,harveyvisual,2.1,[],8,0.75,
2,dot,0.3,['dot'],['density'],black,0,244,244,244,,,87.80019998550415,87.51669692993164,87.81669592857361,dot,"[0.06, 0.06]","[[0.29932439847351855, -0.2783039550742582], [0.14276117392638485, -0.15345139110726028]]",density,black,,,N011,visual,1,[],"['1', '2', '3', '4']",1,2023.2.3,harveyvisual,2.1,[],8,0.75,
0,pause,0.4,None,None,None,0,245,245,245,,,,,,,,,,,,,N011,visual,1,[],"['1', '2', '3', '4']",1,2023.2.3,harveyvisual,2.1,[],8,0.75,
2,dot,0.3,['dot'],['density'],black,0,246,246,246,,,88.50019907951355,88.2167010307312,88.516676902771,dot,"[0.08, 0.1]","[[-0.16440981108753766, 0.5378091218652469], [-0.08422838651173449, 0.35445914222875186]]",density,black,,,N011,visual,1,[],"['1', '2', '3', '4']",1,2023.2.3,harveyvisual,2.1,[],8,0.75,
0,pause,0.4,None,None,None,0,247,247,247,,,,,,,,,,,,,N011,visual,1,[],"['1', '2', '3', '4']",1,2023.2.3,harveyvisual,2.1,[],8,0.75,
2,dot,0.3,['dot'],['density'],black,0,248,248,248,,,89.20022296905518,88.91670393943787,89.21668696403503,dot,"[0.08, 0.06]","[[0.45098141687762733, -0.20237638590572143], [0.5433504117931098, -0.02475258047346216]]",density,black,,,N011,visual,1,[],"['1', '2', '3', '4']",1,2023.2.3,harveyvisual,2.1,[],8,0.75,
0,pause,0.4,None,None,None,0,249,249,249,,,,,,,,,,,,,N011,visual,1,[],"['1', '2', '3', '4']",1,2023.2.3,harveyvisual,2.1,[],8,0.75,
2,dot,0.3,['dot'],['density'],black,0,250,250,250,,,89.90019798278809,89.61665892601013,89.9167959690094,dot,"[0.06, 0.1]","[[0.510744558366804, -0.07965895932329134], [0.5183014925016622, -0.2796299572401246]]",density,black,,,N011,visual,1,[],"['1', '2', '3', '4']",1,2023.2.3,harveyvisual,2.1,[],8,0.75,
0,pause,0.4,None,None,None,0,251,251,251,,,,,,,,,,,,,N011,visual,1,[],"['1', '2', '3', '4']",1,2023.2.3,harveyvisual,2.1,[],8,0.75,
1,dot,0.3,['dot'],['density'],white,0,252,252,252,,,90.60019087791443,90.31666994094849,90.61665105819702,dot,[0.1],"[0.2443568370277045, -0.23874091154858243]",density,white,,,N011,visual,1,[],"['1', '2', '3', '4']",1,2023.2.3,harveyvisual,2.1,[],8,0.75,
0,pause,0.4,None,None,None,0,253,253,253,,,,,,,,,,,1,90.71875500679016,N011,visual,1,[],"['1', '2', '3', '4']",1,2023.2.3,harveyvisual,2.1,[],8,0.75,
1,dot,0.3,['dot'],['density'],black,0,254,254,254,,,91.30020308494568,91.01678609848022,91.31668400764465,dot,[0.1],"[0.0956549371127339, 0.09579573331985794]",density,black,,,N011,visual,1,[],"['1', '2', '3', '4']",1,2023.2.3,harveyvisual,2.1,[],8,0.75,
0,pause,0.4,None,None,None,0,255,255,255,,,,,,,,,,,,,N011,visual,1,[],"['1', '2', '3', '4']",1,2023.2.3,harveyvisual,2.1,[],8,0.75,
1,dot,0.3,['dot'],['density'],white,0,256,256,256,,,92.00021600723267,91.71665596961975,92.01662302017212,dot,[0.08],"[0.5286010678554951, -0.2554598500704326]",density,white,,,N011,visual,1,[],"['1', '2', '3', '4']",1,2023.2.3,harveyvisual,2.1,[],8,0.75,
0,pause,0.4,None,None,None,0,257,257,257,,,,,,,,,,,1,92.22778606414795,N011,visual,1,[],"['1', '2', '3', '4']",1,2023.2.3,harveyvisual,2.1,[],8,0.75,
1,dot,0.3,['dot'],['density'],black,0,258,258,258,,,92.70019888877869,92.41677594184875,92.71659088134766,dot,[0.06],"[0.01430498756481247, 0.36429701967127975]",density,black,,,N011,visual,1,[],"['1', '2', '3', '4']",1,2023.2.3,harveyvisual,2.1,[],8,0.75,
0,pause,0.4,None,None,None,0,259,259,259,,,,,,,,,,,,,N011,visual,1,[],"['1', '2', '3', '4']",1,2023.2.3,harveyvisual,2.1,[],8,0.75,
1,dot,0.3,['dot'],['density'],black,0,260,260,260,,,93.40020108222961,93.11678194999695,93.41678094863892,dot,[0.1],"[0.5668064281626585, -0.020013277593342628]",density,black,,,N011,visual,1,[],"['1', '2', '3', '4']",1,2023.2.3,harveyvisual,2.1,[],8,0.75,
0,pause,0.4,None,None,None,0,261,261,261,,,,,,,,,,,,,N011,visual,1,[],"['1', '2', '3', '4']",1,2023.2.3,harveyvisual,2.1,[],8,0.75,
1,dot,0.3,['dot'],['density'],black,0,262,262,262,,,94.1002049446106,93.81680798530579,94.1165668964386,dot,[0.1],"[0.19623115665255414, 0.1676894875529279]",density,black,,,N011,visual,1,[],"['1', '2', '3', '4']",1,2023.2.3,harveyvisual,2.1,[],8,0.75,
0,pause,0.4,None,None,None,0,263,263,263,,,,,,,,,,,,,N011,visual,1,[],"['1', '2', '3', '4']",1,2023.2.3,harveyvisual,2.1,[],8,0.75,
20,dot,0.3,['dot'],['density'],black,0,264,264,264,,,94.80020093917847,94.51656007766724,94.81655287742615,dot,"[0.08, 0.1, 0.1, 0.06, 0.1, 0.1, 0.06, 0.06, 0.1, 0.06, 0.1, 0.1, 0.1, 0.08, 0.06, 0.1, 0.1, 0.06, 0.06, 0.06]","[[-0.5065387245078203, 0.2665761614952181], [0.18928088472495386, 0.2601941247009316], [-0.35631189029548405, 0.14916585556614964], [0.4078234729760023, -0.2654210491670115], [-0.08355170387242461, -0.18746081913734242], [0.5923623668116401, 0.07677483009736917], [-0.03488319043364718, -0.37118794019894563], [-0.43813666906310783, -0.19268798613239557], [0.38401061249090207, 0.0007426989266403616], [0.10103310574484992, -0.01894338655429939], [-0.13765899332347675, 0.24995981292015212], [-0.6018102464953483, -0.011876284645589825], [0.22661349281674115, 0.4532829371825031], [0.3618109987338062, -0.48167234518658525], [-0.3523728792214464, -0.4327353303549125], [-0.18254469173357935, -0.009313015451555162], [-0.11504167860138365, 0.5329770061065351], [0.4624877266136861, 0.3752022952042512], [0.17336760112690908, -0.3876875422977514], [0.07181154822073077, -0.5541708240962525]]",density,black,,,N011,visual,1,[],"['1', '2', '3', '4']",1,2023.2.3,harveyvisual,2.1,[],8,0.75,
0,pause,0.4,None,None,None,0,265,265,265,,,,,,,,,,,,,N011,visual,1,[],"['1', '2', '3', '4']",1,2023.2.3,harveyvisual,2.1,[],8,0.75,
20,dot,0.3,['dot'],['density'],white,0,266,266,266,,,95.50020289421082,95.2166850566864,95.51667594909668,dot,"[0.1, 0.08, 0.1, 0.06, 0.08, 0.1, 0.1, 0.06, 0.1, 0.06, 0.08, 0.1, 0.08, 0.06, 0.1, 0.1, 0.08, 0.08, 0.08, 0.06]","[[-0.4652165577207733, 0.3523907494649471], [-0.4628457045728058, 0.0033937639757212756], [0.3367000858332537, 0.0920901663249809], [-0.11635950230929326, 0.26387082872832124], [0.2374376872695274, -0.4249305557120253], [-0.1210277721703612, -0.2417378284493017], [0.31493270012632113, -0.10472435200529445], [-0.18526602672758352, 0.4513228102255059], [0.46990699638511113, 0.2386025008542012], [-0.2533905888189344, -0.016249318740022223], [-0.20013415196541484, -0.4804772086411873], [0.2381365127523597, 0.5316425279762115], [0.5207169437895055, -0.24284604184981584], [0.05479255770413072, 0.4257249512817435], [-0.3213722288088511, -0.2759754338179451], [0.1397880888567773, 0.09650468641367405], [0.5557539554802108, 0.01773631146427082], [0.09332098357261742, -0.23885812249533755], [-0.05999287685823562, 0.08203900893708227], [-0.5672689914257191, 0.16641601267615166]]",density,white,,,N011,visual,1,[],"['1', '2', '3', '4']",1,2023.2.3,harveyvisual,2.1,[],8,0.75,
0,pause,0.4,None,None,None,0,267,267,267,,,,,,,,,,,1,95.6292359828949,N011,visual,1,[],"['1', '2', '3', '4']",1,2023.2.3,harveyvisual,2.1,[],8,0.75,
