num,mod,duration,shape,ll_cond,colors,.thisRepN,.thisTrialN,.thisN,.thisIndex,thisRow.t,notes,raw_global_time,t_start,t_stop,pos,fonts,size,button,RT,answer,participant,session,starting_run,left button (match/odd),right button (non-match/even),samples_per_block,psychopy version,expName,offset,audio,number_runs,radius,
1,digit,0.3,['dot'],['big_1'],black,0,0,0,0,,,2.4002158641815186,2.1163530349731445,2.4161980152130127,"[[0.14396719030406172, -0.12904816369578445]]",['DejaVu Sans'],[0.9],,,,N008,digit,1,"['6', '7', '8', '9']","['1', '2', '3', '4']",1,2023.2.3,harveydigits,2.1,[],8,0.75,
0,pause,0.4,None,None,None,0,1,1,1,,,,,,,,,,,,N008,digit,1,"['6', '7', '8', '9']","['1', '2', '3', '4']",1,2023.2.3,harveydigits,2.1,[],8,0.75,
1,digit,0.3,['dot'],['big_1'],black,0,2,2,2,,,3.100192070007324,2.799525022506714,3.1166799068450928,"[[0.18065981185081484, 0.03396604774381207]]",['DejaVu Sans'],[0.9],,,,N008,digit,1,"['6', '7', '8', '9']","['1', '2', '3', '4']",1,2023.2.3,harveydigits,2.1,[],8,0.75,
0,pause,0.4,None,None,None,0,3,3,3,,,,,,,,,,,,N008,digit,1,"['6', '7', '8', '9']","['1', '2', '3', '4']",1,2023.2.3,harveydigits,2.1,[],8,0.75,
1,digit,0.3,['dot'],['big_1'],black,0,4,4,4,,,3.8002068996429443,3.516874074935913,3.8166630268096924,"[[0.02243877276157208, -0.12353989143303376]]",['DejaVu Sans'],[0.9],,,,N008,digit,1,"['6', '7', '8', '9']","['1', '2', '3', '4']",1,2023.2.3,harveydigits,2.1,[],8,0.75,
0,pause,0.4,None,None,None,0,5,5,5,,,,,,,,,,,,N008,digit,1,"['6', '7', '8', '9']","['1', '2', '3', '4']",1,2023.2.3,harveydigits,2.1,[],8,0.75,
1,digit,0.3,['dot'],['big_1'],black,0,6,6,6,,,4.500196933746338,4.216654062271118,4.516649007797241,"[[0.1764777185502913, -0.003659547723709078]]",['DejaVu Sans'],[0.9],,,,N008,digit,1,"['6', '7', '8', '9']","['1', '2', '3', '4']",1,2023.2.3,harveydigits,2.1,[],8,0.75,
0,pause,0.4,None,None,None,0,7,7,7,,,,,,,,,,,,N008,digit,1,"['6', '7', '8', '9']","['1', '2', '3', '4']",1,2023.2.3,harveydigits,2.1,[],8,0.75,
1,digit,0.3,['dot'],['big_1'],black,0,8,8,8,,,5.200201034545898,4.916744947433472,5.2167699337005615,"[[0.10886172517389311, 0.1492561400004905]]",['DejaVu Sans'],[0.9],,,,N008,digit,1,"['6', '7', '8', '9']","['1', '2', '3', '4']",1,2023.2.3,harveydigits,2.1,[],8,0.75,
0,pause,0.4,None,None,None,0,9,9,9,,,,,,,,,,,,N008,digit,1,"['6', '7', '8', '9']","['1', '2', '3', '4']",1,2023.2.3,harveydigits,2.1,[],8,0.75,
1,digit,0.3,['dot'],['big_1'],black,0,10,10,10,,,5.900207996368408,5.616611003875732,5.918938875198364,"[[0.14504496698529665, 0.07141942637118476]]",['DejaVu Sans'],[0.9],,,,N008,digit,1,"['6', '7', '8', '9']","['1', '2', '3', '4']",1,2023.2.3,harveydigits,2.1,[],8,0.75,
0,pause,0.4,None,None,None,0,11,11,11,,,,,,,,,,,,N008,digit,1,"['6', '7', '8', '9']","['1', '2', '3', '4']",1,2023.2.3,harveydigits,2.1,[],8,0.75,
2,digit,0.3,['dot'],['big_1'],black,0,12,12,12,,,6.600205898284912,6.318964958190918,6.618997097015381,"[[0.06867340418071358, 0.11124060298246827]]",['DejaVu Sans'],[0.9],,,,N008,digit,1,"['6', '7', '8', '9']","['1', '2', '3', '4']",1,2023.2.3,harveydigits,2.1,[],8,0.75,
0,pause,0.4,None,None,None,0,13,13,13,,,,,,,,,,,,N008,digit,1,"['6', '7', '8', '9']","['1', '2', '3', '4']",1,2023.2.3,harveydigits,2.1,[],8,0.75,
2,digit,0.3,['dot'],['big_1'],black,0,14,14,14,,,7.300194978713989,7.018919944763184,7.31889796257019,"[[0.09748009597498794, 0.16322117462244973]]",['DejaVu Sans'],[0.9],,,,N008,digit,1,"['6', '7', '8', '9']","['1', '2', '3', '4']",1,2023.2.3,harveydigits,2.1,[],8,0.75,
0,pause,0.4,None,None,None,0,15,15,15,,,,,,,,,,,,N008,digit,1,"['6', '7', '8', '9']","['1', '2', '3', '4']",1,2023.2.3,harveydigits,2.1,[],8,0.75,
2,digit,0.3,['dot'],['big_1'],black,0,16,16,16,,,8.000209093093872,7.718894958496094,8.018863916397095,"[[-0.17122242374516014, -0.04844175900964427]]",['DejaVu Sans'],[0.9],,,,N008,digit,1,"['6', '7', '8', '9']","['1', '2', '3', '4']",1,2023.2.3,harveydigits,2.1,[],8,0.75,
0,pause,0.4,None,None,None,0,17,17,17,,,,,,,,,,,,N008,digit,1,"['6', '7', '8', '9']","['1', '2', '3', '4']",1,2023.2.3,harveydigits,2.1,[],8,0.75,
2,digit,0.3,['dot'],['big_1'],black,0,18,18,18,,,8.700212001800537,8.418945074081421,8.718858003616333,"[[-0.021298685416483887, 0.07295102444103818]]",['DejaVu Sans'],[0.9],,,,N008,digit,1,"['6', '7', '8', '9']","['1', '2', '3', '4']",1,2023.2.3,harveydigits,2.1,[],8,0.75,
0,pause,0.4,None,None,None,0,19,19,19,,,,,,,,,,,,N008,digit,1,"['6', '7', '8', '9']","['1', '2', '3', '4']",1,2023.2.3,harveydigits,2.1,[],8,0.75,
2,digit,0.3,['dot'],['big_1'],black,0,20,20,20,,,9.400203943252563,9.11885690689087,9.418833017349243,"[[0.11538265350690843, -0.13287091052097227]]",['DejaVu Sans'],[0.9],,,,N008,digit,1,"['6', '7', '8', '9']","['1', '2', '3', '4']",1,2023.2.3,harveydigits,2.1,[],8,0.75,
0,pause,0.4,None,None,None,0,21,21,21,,,,,,,,,,,,N008,digit,1,"['6', '7', '8', '9']","['1', '2', '3', '4']",1,2023.2.3,harveydigits,2.1,[],8,0.75,
2,digit,0.3,['dot'],['big_1'],black,0,22,22,22,,,10.100214004516602,9.818875074386597,10.11883807182312,"[[-0.11884242885788548, 0.07103635167519329]]",['DejaVu Sans'],[0.9],,,,N008,digit,1,"['6', '7', '8', '9']","['1', '2', '3', '4']",1,2023.2.3,harveydigits,2.1,[],8,0.75,
0,pause,0.4,None,None,None,0,23,23,23,,,,,,,,,,,,N008,digit,1,"['6', '7', '8', '9']","['1', '2', '3', '4']",1,2023.2.3,harveydigits,2.1,[],8,0.75,
3,digit,0.3,['dot'],['big_1'],black,0,24,24,24,,,10.800213098526001,10.51881194114685,10.818814992904663,"[[-0.011603173278593726, 0.1717142994806901]]",['DejaVu Sans'],[0.9],,,,N008,digit,1,"['6', '7', '8', '9']","['1', '2', '3', '4']",1,2023.2.3,harveydigits,2.1,[],8,0.75,
0,pause,0.4,None,None,None,0,25,25,25,,,,,,,,,,,,N008,digit,1,"['6', '7', '8', '9']","['1', '2', '3', '4']",1,2023.2.3,harveydigits,2.1,[],8,0.75,
3,digit,0.3,['dot'],['big_1'],black,0,26,26,26,,,11.500197887420654,11.218780994415283,11.518903017044067,"[[0.10280382076864739, 0.15016092229063627]]",['DejaVu Sans'],[0.9],,,,N008,digit,1,"['6', '7', '8', '9']","['1', '2', '3', '4']",1,2023.2.3,harveydigits,2.1,[],8,0.75,
0,pause,0.4,None,None,None,0,27,27,27,,,,,,,,,,,,N008,digit,1,"['6', '7', '8', '9']","['1', '2', '3', '4']",1,2023.2.3,harveydigits,2.1,[],8,0.75,
3,digit,0.3,['dot'],['big_1'],black,0,28,28,28,,,12.200198888778687,11.918781042098999,12.218767881393433,"[[0.09338487007230337, 0.1717191864779823]]",['DejaVu Sans'],[0.9],,,,N008,digit,1,"['6', '7', '8', '9']","['1', '2', '3', '4']",1,2023.2.3,harveydigits,2.1,[],8,0.75,
0,pause,0.4,None,None,None,0,29,29,29,,,,,,,,,,,,N008,digit,1,"['6', '7', '8', '9']","['1', '2', '3', '4']",1,2023.2.3,harveydigits,2.1,[],8,0.75,
3,digit,0.3,['dot'],['big_1'],black,0,30,30,30,,,12.900203943252563,12.618767976760864,12.918792963027954,"[[-0.15560806448687792, -0.12076892134007146]]",['DejaVu Sans'],[0.9],,,,N008,digit,1,"['6', '7', '8', '9']","['1', '2', '3', '4']",1,2023.2.3,harveydigits,2.1,[],8,0.75,
0,pause,0.4,None,None,None,0,31,31,31,,,,,,,,,,,,N008,digit,1,"['6', '7', '8', '9']","['1', '2', '3', '4']",1,2023.2.3,harveydigits,2.1,[],8,0.75,
3,digit,0.3,['dot'],['big_1'],black,0,32,32,32,,,13.600199937820435,13.318777084350586,13.618727922439575,"[[0.020519330535018726, -0.07187654589799894]]",['DejaVu Sans'],[0.9],,,,N008,digit,1,"['6', '7', '8', '9']","['1', '2', '3', '4']",1,2023.2.3,harveydigits,2.1,[],8,0.75,
0,pause,0.4,None,None,None,0,33,33,33,,,,,,,,,,,,N008,digit,1,"['6', '7', '8', '9']","['1', '2', '3', '4']",1,2023.2.3,harveydigits,2.1,[],8,0.75,
3,digit,0.3,['dot'],['big_1'],black,0,34,34,34,,,14.300210952758789,14.018728017807007,14.318705081939697,"[[-0.05652507479878638, -0.07570964607256592]]",['DejaVu Sans'],[0.9],,,,N008,digit,1,"['6', '7', '8', '9']","['1', '2', '3', '4']",1,2023.2.3,harveydigits,2.1,[],8,0.75,
0,pause,0.4,None,None,None,0,35,35,35,,,,,,,,,,,,N008,digit,1,"['6', '7', '8', '9']","['1', '2', '3', '4']",1,2023.2.3,harveydigits,2.1,[],8,0.75,
4,digit,0.3,['dot'],['big_1'],black,0,36,36,36,,,15.000212907791138,14.718784093856812,15.018691062927246,"[[0.01643031390492125, -0.11335802940225832]]",['DejaVu Sans'],[0.9],,,,N008,digit,1,"['6', '7', '8', '9']","['1', '2', '3', '4']",1,2023.2.3,harveydigits,2.1,[],8,0.75,
0,pause,0.4,None,None,None,0,37,37,37,,,,,,,,,,,,N008,digit,1,"['6', '7', '8', '9']","['1', '2', '3', '4']",1,2023.2.3,harveydigits,2.1,[],8,0.75,
4,digit,0.3,['dot'],['big_1'],black,0,38,38,38,,,15.700202941894531,15.418678045272827,15.718674898147583,"[[-0.16909555938179477, 0.08570189869607524]]",['DejaVu Sans'],[0.9],,,,N008,digit,1,"['6', '7', '8', '9']","['1', '2', '3', '4']",1,2023.2.3,harveydigits,2.1,[],8,0.75,
0,pause,0.4,None,None,None,0,39,39,39,,,,,,,,,,,,N008,digit,1,"['6', '7', '8', '9']","['1', '2', '3', '4']",1,2023.2.3,harveydigits,2.1,[],8,0.75,
4,digit,0.3,['dot'],['big_1'],black,0,40,40,40,,,16.400192975997925,16.118704080581665,16.418721914291382,"[[-0.15615029496257202, -0.007668281574164909]]",['DejaVu Sans'],[0.9],,,,N008,digit,1,"['6', '7', '8', '9']","['1', '2', '3', '4']",1,2023.2.3,harveydigits,2.1,[],8,0.75,
0,pause,0.4,None,None,None,0,41,41,41,,,,,,,,,,,,N008,digit,1,"['6', '7', '8', '9']","['1', '2', '3', '4']",1,2023.2.3,harveydigits,2.1,[],8,0.75,
4,digit,0.3,['dot'],['big_1'],black,0,42,42,42,,,17.100209951400757,16.818646907806396,17.118640899658203,"[[-0.12259138377777247, -0.15629936829000943]]",['DejaVu Sans'],[0.9],,,,N008,digit,1,"['6', '7', '8', '9']","['1', '2', '3', '4']",1,2023.2.3,harveydigits,2.1,[],8,0.75,
0,pause,0.4,None,None,None,0,43,43,43,,,,,,,,,,,,N008,digit,1,"['6', '7', '8', '9']","['1', '2', '3', '4']",1,2023.2.3,harveydigits,2.1,[],8,0.75,
4,digit,0.3,['dot'],['big_1'],black,0,44,44,44,,,17.800217866897583,17.518622875213623,17.818655014038086,"[[0.05085358019138517, -0.18258331219155705]]",['DejaVu Sans'],[0.9],,,,N008,digit,1,"['6', '7', '8', '9']","['1', '2', '3', '4']",1,2023.2.3,harveydigits,2.1,[],8,0.75,
0,pause,0.4,None,None,None,0,45,45,45,,,,,,,,,,,,N008,digit,1,"['6', '7', '8', '9']","['1', '2', '3', '4']",1,2023.2.3,harveydigits,2.1,[],8,0.75,
4,digit,0.3,['dot'],['big_1'],black,0,46,46,46,,,18.500195026397705,18.21861505508423,18.51859402656555,"[[0.1681868269332175, 0.07539556302669741]]",['DejaVu Sans'],[0.9],,,,N008,digit,1,"['6', '7', '8', '9']","['1', '2', '3', '4']",1,2023.2.3,harveydigits,2.1,[],8,0.75,
0,pause,0.4,None,None,None,0,47,47,47,,,,,,,,,,,,N008,digit,1,"['6', '7', '8', '9']","['1', '2', '3', '4']",1,2023.2.3,harveydigits,2.1,[],8,0.75,
5,digit,0.3,['dot'],['big_1'],black,0,48,48,48,,,19.20021104812622,18.918586015701294,19.21856689453125,"[[0.0021767643736560205, 0.18305776785798397]]",['DejaVu Sans'],[0.9],,,,N008,digit,1,"['6', '7', '8', '9']","['1', '2', '3', '4']",1,2023.2.3,harveydigits,2.1,[],8,0.75,
0,pause,0.4,None,None,None,0,49,49,49,,,,,,,,,,,,N008,digit,1,"['6', '7', '8', '9']","['1', '2', '3', '4']",1,2023.2.3,harveydigits,2.1,[],8,0.75,
5,digit,0.3,['dot'],['big_1'],black,0,50,50,50,,,19.90021800994873,19.618628978729248,19.91856288909912,"[[0.10837034042971985, 0.16180180615090128]]",['DejaVu Sans'],[0.9],,,,N008,digit,1,"['6', '7', '8', '9']","['1', '2', '3', '4']",1,2023.2.3,harveydigits,2.1,[],8,0.75,
0,pause,0.4,None,None,None,0,51,51,51,,,,,,,,,,,,N008,digit,1,"['6', '7', '8', '9']","['1', '2', '3', '4']",1,2023.2.3,harveydigits,2.1,[],8,0.75,
5,digit,0.3,['dot'],['big_1'],black,0,52,52,52,,,20.600198984146118,20.31855797767639,20.618540048599243,"[[-0.007835369388878771, -0.17125850346940935]]",['DejaVu Sans'],[0.9],,,,N008,digit,1,"['6', '7', '8', '9']","['1', '2', '3', '4']",1,2023.2.3,harveydigits,2.1,[],8,0.75,
0,pause,0.4,None,None,None,0,53,53,53,,,,,,,,,,,,N008,digit,1,"['6', '7', '8', '9']","['1', '2', '3', '4']",1,2023.2.3,harveydigits,2.1,[],8,0.75,
5,digit,0.3,['dot'],['big_1'],black,0,54,54,54,,,21.30019998550415,21.018578052520752,21.318547010421753,"[[-0.08510528694884635, 0.07823307899143828]]",['DejaVu Sans'],[0.9],,,,N008,digit,1,"['6', '7', '8', '9']","['1', '2', '3', '4']",1,2023.2.3,harveydigits,2.1,[],8,0.75,
0,pause,0.4,None,None,None,0,55,55,55,,,,,,,,,,,,N008,digit,1,"['6', '7', '8', '9']","['1', '2', '3', '4']",1,2023.2.3,harveydigits,2.1,[],8,0.75,
5,digit,0.3,['dot'],['big_1'],black,0,56,56,56,,,22.000209093093872,21.71852993965149,22.01850390434265,"[[0.055088634369957895, -0.07042792486104711]]",['DejaVu Sans'],[0.9],,,,N008,digit,1,"['6', '7', '8', '9']","['1', '2', '3', '4']",1,2023.2.3,harveydigits,2.1,[],8,0.75,
0,pause,0.4,None,None,None,0,57,57,57,,,,,,,,,,,,N008,digit,1,"['6', '7', '8', '9']","['1', '2', '3', '4']",1,2023.2.3,harveydigits,2.1,[],8,0.75,
5,digit,0.3,['dot'],['big_1'],black,0,58,58,58,,,22.70020890235901,22.418498039245605,22.718530893325806,"[[-0.07321489885121449, -0.1750953254005587]]",['DejaVu Sans'],[0.9],,,,N008,digit,1,"['6', '7', '8', '9']","['1', '2', '3', '4']",1,2023.2.3,harveydigits,2.1,[],8,0.75,
0,pause,0.4,None,None,None,0,59,59,59,,,,,,,,,,,,N008,digit,1,"['6', '7', '8', '9']","['1', '2', '3', '4']",1,2023.2.3,harveydigits,2.1,[],8,0.75,
6,digit,0.3,['dot'],['big_1'],black,0,60,60,60,,,23.40021800994873,23.118491888046265,23.418471097946167,"[[-0.10287333196257918, -0.12347386411422935]]",['DejaVu Sans'],[0.9],,,,N008,digit,1,"['6', '7', '8', '9']","['1', '2', '3', '4']",1,2023.2.3,harveydigits,2.1,[],8,0.75,
0,pause,0.4,None,None,None,0,61,61,61,,,,,,,,,,,,N008,digit,1,"['6', '7', '8', '9']","['1', '2', '3', '4']",1,2023.2.3,harveydigits,2.1,[],8,0.75,
6,digit,0.3,['dot'],['big_1'],black,0,62,62,62,,,24.10021686553955,23.818456888198853,24.118432998657227,"[[0.07678767531868055, -0.06345269484307013]]",['DejaVu Sans'],[0.9],,,,N008,digit,1,"['6', '7', '8', '9']","['1', '2', '3', '4']",1,2023.2.3,harveydigits,2.1,[],8,0.75,
0,pause,0.4,None,None,None,0,63,63,63,,,,,,,,,,,,N008,digit,1,"['6', '7', '8', '9']","['1', '2', '3', '4']",1,2023.2.3,harveydigits,2.1,[],8,0.75,
6,digit,0.3,['dot'],['big_1'],black,0,64,64,64,,,24.80020809173584,24.518506050109863,24.818428993225098,"[[0.152928023882782, 0.1279902716180782]]",['DejaVu Sans'],[0.9],,,,N008,digit,1,"['6', '7', '8', '9']","['1', '2', '3', '4']",1,2023.2.3,harveydigits,2.1,[],8,0.75,
0,pause,0.4,None,None,None,0,65,65,65,,,,,,,,,,,,N008,digit,1,"['6', '7', '8', '9']","['1', '2', '3', '4']",1,2023.2.3,harveydigits,2.1,[],8,0.75,
6,digit,0.3,['dot'],['big_1'],black,0,66,66,66,,,25.50021004676819,25.218415021896362,25.51840901374817,"[[-0.13775071786493986, -0.03405212995559344]]",['DejaVu Sans'],[0.9],,,,N008,digit,1,"['6', '7', '8', '9']","['1', '2', '3', '4']",1,2023.2.3,harveydigits,2.1,[],8,0.75,
0,pause,0.4,None,None,None,0,67,67,67,,,,,,,,,,,,N008,digit,1,"['6', '7', '8', '9']","['1', '2', '3', '4']",1,2023.2.3,harveydigits,2.1,[],8,0.75,
6,digit,0.3,['dot'],['big_1'],black,0,68,68,68,,,26.20020604133606,25.918487071990967,26.21847701072693,"[[-0.04086441884926137, -0.10363301535103997]]",['DejaVu Sans'],[0.9],,,,N008,digit,1,"['6', '7', '8', '9']","['1', '2', '3', '4']",1,2023.2.3,harveydigits,2.1,[],8,0.75,
0,pause,0.4,None,None,None,0,69,69,69,,,,,,,,,,,,N008,digit,1,"['6', '7', '8', '9']","['1', '2', '3', '4']",1,2023.2.3,harveydigits,2.1,[],8,0.75,
6,digit,0.3,['dot'],['big_1'],black,0,70,70,70,,,26.90022087097168,26.618391036987305,26.918370962142944,"[[-0.05470781966751978, -0.09617119694354255]]",['DejaVu Sans'],[0.9],,,,N008,digit,1,"['6', '7', '8', '9']","['1', '2', '3', '4']",1,2023.2.3,harveydigits,2.1,[],8,0.75,
0,pause,0.4,None,None,None,0,71,71,71,,,,,,,,,,,,N008,digit,1,"['6', '7', '8', '9']","['1', '2', '3', '4']",1,2023.2.3,harveydigits,2.1,[],8,0.75,
7,digit,0.3,['dot'],['big_1'],black,0,72,72,72,,,27.600215911865234,27.318363904953003,27.618392944335938,"[[-0.1075383689454648, -0.12680244712808886]]",['DejaVu Sans'],[0.9],,,,N008,digit,1,"['6', '7', '8', '9']","['1', '2', '3', '4']",1,2023.2.3,harveydigits,2.1,[],8,0.75,
0,pause,0.4,None,None,None,0,73,73,73,,,,,,,,,,,,N008,digit,1,"['6', '7', '8', '9']","['1', '2', '3', '4']",1,2023.2.3,harveydigits,2.1,[],8,0.75,
7,digit,0.3,['dot'],['big_1'],black,0,74,74,74,,,28.300198078155518,28.018346071243286,28.31834101676941,"[[0.18296063146500205, 0.015932744590508946]]",['DejaVu Sans'],[0.9],,,,N008,digit,1,"['6', '7', '8', '9']","['1', '2', '3', '4']",1,2023.2.3,harveydigits,2.1,[],8,0.75,
0,pause,0.4,None,None,None,0,75,75,75,,,,,,,,,,,,N008,digit,1,"['6', '7', '8', '9']","['1', '2', '3', '4']",1,2023.2.3,harveydigits,2.1,[],8,0.75,
7,digit,0.3,['dot'],['big_1'],black,0,76,76,76,,,29.000221967697144,28.718337059020996,29.01830506324768,"[[0.045146594236139675, 0.17611711650798914]]",['DejaVu Sans'],[0.9],,,,N008,digit,1,"['6', '7', '8', '9']","['1', '2', '3', '4']",1,2023.2.3,harveydigits,2.1,[],8,0.75,
0,pause,0.4,None,None,None,0,77,77,77,,,,,,,,,,,,N008,digit,1,"['6', '7', '8', '9']","['1', '2', '3', '4']",1,2023.2.3,harveydigits,2.1,[],8,0.75,
7,digit,0.3,['dot'],['big_1'],black,0,78,78,78,,,29.700201988220215,29.418372869491577,29.71829390525818,"[[0.1931539864167882, -0.019950202048064497]]",['DejaVu Sans'],[0.9],,,,N008,digit,1,"['6', '7', '8', '9']","['1', '2', '3', '4']",1,2023.2.3,harveydigits,2.1,[],8,0.75,
0,pause,0.4,None,None,None,0,79,79,79,,,,,,,,,,,,N008,digit,1,"['6', '7', '8', '9']","['1', '2', '3', '4']",1,2023.2.3,harveydigits,2.1,[],8,0.75,
7,digit,0.3,['dot'],['big_1'],black,0,80,80,80,,,30.400211095809937,30.118298053741455,30.41828989982605,"[[0.03526750469171519, -0.08221184756956236]]",['DejaVu Sans'],[0.9],,,,N008,digit,1,"['6', '7', '8', '9']","['1', '2', '3', '4']",1,2023.2.3,harveydigits,2.1,[],8,0.75,
0,pause,0.4,None,None,None,0,81,81,81,,,,,,,,,,,,N008,digit,1,"['6', '7', '8', '9']","['1', '2', '3', '4']",1,2023.2.3,harveydigits,2.1,[],8,0.75,
7,digit,0.3,['dot'],['big_1'],black,0,82,82,82,,,31.100205898284912,30.81830596923828,31.118340015411377,"[[-0.13685322310978898, -0.11263504776403091]]",['DejaVu Sans'],[0.9],,,,N008,digit,1,"['6', '7', '8', '9']","['1', '2', '3', '4']",1,2023.2.3,harveydigits,2.1,[],8,0.75,
0,pause,0.4,None,None,None,0,83,83,83,,,,,,,,,,,,N008,digit,1,"['6', '7', '8', '9']","['1', '2', '3', '4']",1,2023.2.3,harveydigits,2.1,[],8,0.75,
8,digit,0.3,['dot'],['big_1'],black,0,84,84,84,,,31.800217866897583,31.518255949020386,31.818242073059082,"[[-0.1828953919552532, 0.038994367600190066]]",['DejaVu Sans'],[0.9],,,,N008,digit,1,"['6', '7', '8', '9']","['1', '2', '3', '4']",1,2023.2.3,harveydigits,2.1,[],8,0.75,
0,pause,0.4,None,None,None,0,85,85,85,,,,,,,,,,,,N008,digit,1,"['6', '7', '8', '9']","['1', '2', '3', '4']",1,2023.2.3,harveydigits,2.1,[],8,0.75,
8,digit,0.3,['dot'],['big_1'],black,0,86,86,86,,,32.50021505355835,32.21821999549866,32.51825189590454,"[[0.15788369736948607, -0.03779134958569039]]",['DejaVu Sans'],[0.9],,,,N008,digit,1,"['6', '7', '8', '9']","['1', '2', '3', '4']",1,2023.2.3,harveydigits,2.1,[],8,0.75,
0,pause,0.4,None,None,None,0,87,87,87,,,,,,,,,,,,N008,digit,1,"['6', '7', '8', '9']","['1', '2', '3', '4']",1,2023.2.3,harveydigits,2.1,[],8,0.75,
8,digit,0.3,['dot'],['big_1'],black,0,88,88,88,,,33.20022106170654,32.91823101043701,33.21820688247681,"[[0.10657289060559685, -0.1273152153328785]]",['DejaVu Sans'],[0.9],,,,N008,digit,1,"['6', '7', '8', '9']","['1', '2', '3', '4']",1,2023.2.3,harveydigits,2.1,[],8,0.75,
0,pause,0.4,None,None,None,0,89,89,89,,,,,,,,,,,,N008,digit,1,"['6', '7', '8', '9']","['1', '2', '3', '4']",1,2023.2.3,harveydigits,2.1,[],8,0.75,
8,digit,0.3,['dot'],['big_1'],black,0,90,90,90,,,33.90021586418152,33.618200063705444,33.918179988861084,"[[0.18778705719776104, 0.043201403152405615]]",['DejaVu Sans'],[0.9],,,,N008,digit,1,"['6', '7', '8', '9']","['1', '2', '3', '4']",1,2023.2.3,harveydigits,2.1,[],8,0.75,
0,pause,0.4,None,None,None,0,91,91,91,,,,,,,,,,,,N008,digit,1,"['6', '7', '8', '9']","['1', '2', '3', '4']",1,2023.2.3,harveydigits,2.1,[],8,0.75,
8,digit,0.3,['dot'],['big_1'],black,0,92,92,92,,,34.600224018096924,34.31826305389404,34.618162870407104,"[[-0.03270690105135188, -0.047495226314480415]]",['DejaVu Sans'],[0.9],,,,N008,digit,1,"['6', '7', '8', '9']","['1', '2', '3', '4']",1,2023.2.3,harveydigits,2.1,[],8,0.75,
0,pause,0.4,None,None,None,0,93,93,93,,,,,,,,,,,,N008,digit,1,"['6', '7', '8', '9']","['1', '2', '3', '4']",1,2023.2.3,harveydigits,2.1,[],8,0.75,
8,digit,0.3,['dot'],['big_1'],black,0,94,94,94,,,35.30020999908447,35.01816201210022,35.31814098358154,"[[0.18060808177793272, 0.07138485390832616]]",['DejaVu Sans'],[0.9],,,,N008,digit,1,"['6', '7', '8', '9']","['1', '2', '3', '4']",1,2023.2.3,harveydigits,2.1,[],8,0.75,
0,pause,0.4,None,None,None,0,95,95,95,,,,,,,,,,,,N008,digit,1,"['6', '7', '8', '9']","['1', '2', '3', '4']",1,2023.2.3,harveydigits,2.1,[],8,0.75,
9,digit,0.3,['dot'],['big_1'],black,0,96,96,96,,,36.000200033187866,35.71815896034241,36.018178939819336,"[[-0.000800053405374479, 0.10330494914099375]]",['DejaVu Sans'],[0.9],,,,N008,digit,1,"['6', '7', '8', '9']","['1', '2', '3', '4']",1,2023.2.3,harveydigits,2.1,[],8,0.75,
0,pause,0.4,None,None,None,0,97,97,97,,,,,,,,,,,,N008,digit,1,"['6', '7', '8', '9']","['1', '2', '3', '4']",1,2023.2.3,harveydigits,2.1,[],8,0.75,
9,digit,0.3,['dot'],['big_1'],black,0,98,98,98,,,36.70021104812622,36.41811800003052,36.718111991882324,"[[-0.18363204105977593, -0.03310506351418765]]",['DejaVu Sans'],[0.9],,,,N008,digit,1,"['6', '7', '8', '9']","['1', '2', '3', '4']",1,2023.2.3,harveydigits,2.1,[],8,0.75,
0,pause,0.4,None,None,None,0,99,99,99,,,,,,,,,,,,N008,digit,1,"['6', '7', '8', '9']","['1', '2', '3', '4']",1,2023.2.3,harveydigits,2.1,[],8,0.75,
9,digit,0.3,['dot'],['big_1'],black,0,100,100,100,,,37.400217056274414,37.11810803413391,37.418133020401,"[[-0.09688604270522817, 0.0794780657471052]]",['DejaVu Sans'],[0.9],,,,N008,digit,1,"['6', '7', '8', '9']","['1', '2', '3', '4']",1,2023.2.3,harveydigits,2.1,[],8,0.75,
0,pause,0.4,None,None,None,0,101,101,101,,,,,,,,,,,,N008,digit,1,"['6', '7', '8', '9']","['1', '2', '3', '4']",1,2023.2.3,harveydigits,2.1,[],8,0.75,
9,digit,0.3,['dot'],['big_1'],black,0,102,102,102,,,38.10021209716797,37.818142890930176,38.11806797981262,"[[-0.12165135355542381, -0.11959091409300453]]",['DejaVu Sans'],[0.9],,,,N008,digit,1,"['6', '7', '8', '9']","['1', '2', '3', '4']",1,2023.2.3,harveydigits,2.1,[],8,0.75,
0,pause,0.4,None,None,None,0,103,103,103,,,,,,,,,,,,N008,digit,1,"['6', '7', '8', '9']","['1', '2', '3', '4']",1,2023.2.3,harveydigits,2.1,[],8,0.75,
9,digit,0.3,['dot'],['big_1'],black,0,104,104,104,,,38.80020499229431,38.51807188987732,38.81806492805481,"[[8.772596980577418e-05, 0.17599112312653425]]",['DejaVu Sans'],[0.9],,,,N008,digit,1,"['6', '7', '8', '9']","['1', '2', '3', '4']",1,2023.2.3,harveydigits,2.1,[],8,0.75,
0,pause,0.4,None,None,None,0,105,105,105,,,,,,,,,,,,N008,digit,1,"['6', '7', '8', '9']","['1', '2', '3', '4']",1,2023.2.3,harveydigits,2.1,[],8,0.75,
9,digit,0.3,['dot'],['big_1'],black,0,106,106,106,,,39.50021505355835,39.21811890602112,39.51806688308716,"[[0.016345893360682207, -0.05851750691506152]]",['DejaVu Sans'],[0.9],,,,N008,digit,1,"['6', '7', '8', '9']","['1', '2', '3', '4']",1,2023.2.3,harveydigits,2.1,[],8,0.75,
0,pause,0.4,None,None,None,0,107,107,107,,,,,,,,,,,,N008,digit,1,"['6', '7', '8', '9']","['1', '2', '3', '4']",1,2023.2.3,harveydigits,2.1,[],8,0.75,
20,digit,0.3,['dot'],['big_1'],black,0,108,108,108,,,40.20020890235901,39.91803193092346,40.21801805496216,"[[0.06866466251613776, -0.07394164032498596]]",['DejaVu Sans'],[0.9],,,,N008,digit,1,"['6', '7', '8', '9']","['1', '2', '3', '4']",1,2023.2.3,harveydigits,2.1,[],8,0.75,
0,pause,0.4,None,None,None,0,109,109,109,,,,,,,,,,,,N008,digit,1,"['6', '7', '8', '9']","['1', '2', '3', '4']",1,2023.2.3,harveydigits,2.1,[],8,0.75,
20,digit,0.3,['dot'],['big_1'],black,0,110,110,110,,,40.90020203590393,40.61826992034912,40.91804504394531,"[[-0.13136957025988813, 0.08950235505427953]]",['DejaVu Sans'],[0.9],,,,N008,digit,1,"['6', '7', '8', '9']","['1', '2', '3', '4']",1,2023.2.3,harveydigits,2.1,[],8,0.75,
0,pause,0.4,None,None,None,0,111,111,111,,,,,,,,,,,,N008,digit,1,"['6', '7', '8', '9']","['1', '2', '3', '4']",1,2023.2.3,harveydigits,2.1,[],8,0.75,
20,digit,0.3,['dot'],['big_1'],black,0,112,112,112,,,41.60020995140076,41.31799101829529,41.617980003356934,"[[-0.023751675688154894, -0.09634719216465776]]",['DejaVu Sans'],[0.9],,,,N008,digit,1,"['6', '7', '8', '9']","['1', '2', '3', '4']",1,2023.2.3,harveydigits,2.1,[],8,0.75,
0,pause,0.4,None,None,None,0,113,113,113,,,,,,,,,,,,N008,digit,1,"['6', '7', '8', '9']","['1', '2', '3', '4']",1,2023.2.3,harveydigits,2.1,[],8,0.75,
20,digit,0.3,['dot'],['big_1'],black,0,114,114,114,,,42.30022096633911,42.017966985702515,42.31795597076416,"[[-0.119806253679311, -0.0822202152973455]]",['DejaVu Sans'],[0.9],,,,N008,digit,1,"['6', '7', '8', '9']","['1', '2', '3', '4']",1,2023.2.3,harveydigits,2.1,[],8,0.75,
0,pause,0.4,None,None,None,0,115,115,115,,,,,,,,,,,,N008,digit,1,"['6', '7', '8', '9']","['1', '2', '3', '4']",1,2023.2.3,harveydigits,2.1,[],8,0.75,
20,digit,0.3,['dot'],['big_1'],black,0,116,116,116,,,43.000221967697144,42.71804690361023,43.01794195175171,"[[-0.11902587283162312, -0.14400893797980285]]",['DejaVu Sans'],[0.9],,,,N008,digit,1,"['6', '7', '8', '9']","['1', '2', '3', '4']",1,2023.2.3,harveydigits,2.1,[],8,0.75,
0,pause,0.4,None,None,None,0,117,117,117,,,,,,,,,,,,N008,digit,1,"['6', '7', '8', '9']","['1', '2', '3', '4']",1,2023.2.3,harveydigits,2.1,[],8,0.75,
20,digit,0.3,['dot'],['big_1'],black,0,118,118,118,,,43.70022201538086,43.41793394088745,43.71794104576111,"[[0.09720973001696384, 0.12420639209572801]]",['DejaVu Sans'],[0.9],,,,N008,digit,1,"['6', '7', '8', '9']","['1', '2', '3', '4']",1,2023.2.3,harveydigits,2.1,[],8,0.75,
0,pause,0.4,None,None,None,0,119,119,119,,,,,,,,,,,,N008,digit,1,"['6', '7', '8', '9']","['1', '2', '3', '4']",1,2023.2.3,harveydigits,2.1,[],8,0.75,
20,digit,0.3,['dot'],['big_1'],black,0,120,120,120,,,44.40021586418152,44.11796188354492,44.417953968048096,"[[-0.09844645953893898, 0.13023741697939234]]",['DejaVu Sans'],[0.9],,,,N008,digit,1,"['6', '7', '8', '9']","['1', '2', '3', '4']",1,2023.2.3,harveydigits,2.1,[],8,0.75,
0,pause,0.4,None,None,None,0,121,121,121,,,,,,,,,,,,N008,digit,1,"['6', '7', '8', '9']","['1', '2', '3', '4']",1,2023.2.3,harveydigits,2.1,[],8,0.75,
20,digit,0.3,['dot'],['big_1'],black,0,122,122,122,,,45.10020589828491,44.81789207458496,45.11788487434387,"[[-0.05689012887858927, -0.0474378177273542]]",['DejaVu Sans'],[0.9],,,,N008,digit,1,"['6', '7', '8', '9']","['1', '2', '3', '4']",1,2023.2.3,harveydigits,2.1,[],8,0.75,
0,pause,0.4,None,None,None,0,123,123,123,,,,,,,,,,,,N008,digit,1,"['6', '7', '8', '9']","['1', '2', '3', '4']",1,2023.2.3,harveydigits,2.1,[],8,0.75,
20,digit,0.3,['dot'],['big_1'],black,0,124,124,124,,,45.80022096633911,45.517876863479614,45.81789493560791,"[[-0.023436736652620527, 0.036329583460717324]]",['DejaVu Sans'],[0.9],,,,N008,digit,1,"['6', '7', '8', '9']","['1', '2', '3', '4']",1,2023.2.3,harveydigits,2.1,[],8,0.75,
0,pause,0.4,None,None,None,0,125,125,125,,,,,,,,,,,,N008,digit,1,"['6', '7', '8', '9']","['1', '2', '3', '4']",1,2023.2.3,harveydigits,2.1,[],8,0.75,
20,digit,0.3,['dot'],['big_1'],black,0,126,126,126,,,46.5002179145813,46.21792697906494,46.51783609390259,"[[-0.10310460655502508, -0.1553341271962141]]",['DejaVu Sans'],[0.9],,,,N008,digit,1,"['6', '7', '8', '9']","['1', '2', '3', '4']",1,2023.2.3,harveydigits,2.1,[],8,0.75,
0,pause,0.4,None,None,None,0,127,127,127,,,,,,,,,,,,N008,digit,1,"['6', '7', '8', '9']","['1', '2', '3', '4']",1,2023.2.3,harveydigits,2.1,[],8,0.75,
20,digit,0.3,['dot'],['big_1'],black,0,128,128,128,,,47.20021986961365,46.917845010757446,47.21782207489014,"[[0.05385009348045103, 0.0020952629254909205]]",['DejaVu Sans'],[0.9],,,,N008,digit,1,"['6', '7', '8', '9']","['1', '2', '3', '4']",1,2023.2.3,harveydigits,2.1,[],8,0.75,
0,pause,0.4,None,None,None,0,129,129,129,,,,,,,,,,,,N008,digit,1,"['6', '7', '8', '9']","['1', '2', '3', '4']",1,2023.2.3,harveydigits,2.1,[],8,0.75,
20,digit,0.3,['dot'],['big_1'],black,0,130,130,130,,,47.90020298957825,47.61788988113403,47.9178740978241,"[[-0.09095685401508961, -0.08241808783634423]]",['DejaVu Sans'],[0.9],,,,N008,digit,1,"['6', '7', '8', '9']","['1', '2', '3', '4']",1,2023.2.3,harveydigits,2.1,[],8,0.75,
0,pause,0.4,None,None,None,0,131,131,131,,,,,,,,,,,,N008,digit,1,"['6', '7', '8', '9']","['1', '2', '3', '4']",1,2023.2.3,harveydigits,2.1,[],8,0.75,
20,digit,0.3,['dot'],['big_1'],black,0,132,132,132,,,48.60022497177124,48.31780195236206,48.617794036865234,"[[0.16448662361517438, 0.059053076958073034]]",['DejaVu Sans'],[0.9],,,,N008,digit,1,"['6', '7', '8', '9']","['1', '2', '3', '4']",1,2023.2.3,harveydigits,2.1,[],8,0.75,
0,pause,0.4,None,None,None,0,133,133,133,,,,,,,,,,,,N008,digit,1,"['6', '7', '8', '9']","['1', '2', '3', '4']",1,2023.2.3,harveydigits,2.1,[],8,0.75,
20,digit,0.3,['dot'],['big_1'],black,0,134,134,134,,,49.30021405220032,49.01780700683594,49.31780791282654,"[[0.1264736427445272, -0.045584230812245455]]",['DejaVu Sans'],[0.9],,,,N008,digit,1,"['6', '7', '8', '9']","['1', '2', '3', '4']",1,2023.2.3,harveydigits,2.1,[],8,0.75,
0,pause,0.4,None,None,None,0,135,135,135,,,,,,,,,,,,N008,digit,1,"['6', '7', '8', '9']","['1', '2', '3', '4']",1,2023.2.3,harveydigits,2.1,[],8,0.75,
20,digit,0.3,['dot'],['big_1'],black,0,136,136,136,,,50.000205993652344,49.71779704093933,50.01775288581848,"[[-0.14695638420866008, -0.12755304615795918]]",['DejaVu Sans'],[0.9],,,,N008,digit,1,"['6', '7', '8', '9']","['1', '2', '3', '4']",1,2023.2.3,harveydigits,2.1,[],8,0.75,
0,pause,0.4,None,None,None,0,137,137,137,,,,,,,,,,,,N008,digit,1,"['6', '7', '8', '9']","['1', '2', '3', '4']",1,2023.2.3,harveydigits,2.1,[],8,0.75,
20,digit,0.3,['dot'],['big_1'],black,0,138,138,138,,,50.70020008087158,50.41773986816406,50.71776008605957,"[[0.08505920589503854, -0.03623908874297957]]",['DejaVu Sans'],[0.9],,,,N008,digit,1,"['6', '7', '8', '9']","['1', '2', '3', '4']",1,2023.2.3,harveydigits,2.1,[],8,0.75,
0,pause,0.4,None,None,None,0,139,139,139,,,,,,,,,,,,N008,digit,1,"['6', '7', '8', '9']","['1', '2', '3', '4']",1,2023.2.3,harveydigits,2.1,[],8,0.75,
20,digit,0.3,['dot'],['big_1'],black,0,140,140,140,,,51.40021800994873,51.117841958999634,51.41778087615967,"[[0.07731039945841175, -0.0559550939671217]]",['DejaVu Sans'],[0.9],,,,N008,digit,1,"['6', '7', '8', '9']","['1', '2', '3', '4']",1,2023.2.3,harveydigits,2.1,[],8,0.75,
0,pause,0.4,None,None,None,0,141,141,141,,,,,,,,,,,,N008,digit,1,"['6', '7', '8', '9']","['1', '2', '3', '4']",1,2023.2.3,harveydigits,2.1,[],8,0.75,
20,digit,0.3,['dot'],['big_1'],black,0,142,142,142,,,52.100215911865234,51.81771492958069,52.117685079574585,"[[0.01919917371426036, -0.10418311890776343]]",['DejaVu Sans'],[0.9],,,,N008,digit,1,"['6', '7', '8', '9']","['1', '2', '3', '4']",1,2023.2.3,harveydigits,2.1,[],8,0.75,
0,pause,0.4,None,None,None,0,143,143,143,,,,,,,,,,,,N008,digit,1,"['6', '7', '8', '9']","['1', '2', '3', '4']",1,2023.2.3,harveydigits,2.1,[],8,0.75,
20,digit,0.3,['dot'],['big_1'],black,0,144,144,144,,,52.80022406578064,52.51768088340759,52.81772994995117,"[[-0.12475739452842574, -0.07786409048888629]]",['DejaVu Sans'],[0.9],,,,N008,digit,1,"['6', '7', '8', '9']","['1', '2', '3', '4']",1,2023.2.3,harveydigits,2.1,[],8,0.75,
0,pause,0.4,None,None,None,0,145,145,145,,,,,,,,,,,,N008,digit,1,"['6', '7', '8', '9']","['1', '2', '3', '4']",1,2023.2.3,harveydigits,2.1,[],8,0.75,
20,digit,0.3,['dot'],['big_1'],black,0,146,146,146,,,53.500211000442505,53.217686891555786,53.51766300201416,"[[0.04594986070778409, 0.09109066512869249]]",['DejaVu Sans'],[0.9],,,,N008,digit,1,"['6', '7', '8', '9']","['1', '2', '3', '4']",1,2023.2.3,harveydigits,2.1,[],8,0.75,
0,pause,0.4,None,None,None,0,147,147,147,,,,,,,,,,,,N008,digit,1,"['6', '7', '8', '9']","['1', '2', '3', '4']",1,2023.2.3,harveydigits,2.1,[],8,0.75,
20,digit,0.3,['dot'],['big_1'],black,0,148,148,148,,,54.20021986961365,53.91765594482422,54.217631101608276,"[[-0.1936652179664905, -0.020281869381332248]]",['DejaVu Sans'],[0.9],,,,N008,digit,1,"['6', '7', '8', '9']","['1', '2', '3', '4']",1,2023.2.3,harveydigits,2.1,[],8,0.75,
0,pause,0.4,None,None,None,0,149,149,149,,,,,,,,,,,,N008,digit,1,"['6', '7', '8', '9']","['1', '2', '3', '4']",1,2023.2.3,harveydigits,2.1,[],8,0.75,
20,digit,0.3,['dot'],['big_1'],black,0,150,150,150,,,54.90022397041321,54.61767792701721,54.917628049850464,"[[-0.011674396277152443, -0.0907168308727537]]",['DejaVu Sans'],[0.9],,,,N008,digit,1,"['6', '7', '8', '9']","['1', '2', '3', '4']",1,2023.2.3,harveydigits,2.1,[],8,0.75,
0,pause,0.4,None,None,None,0,151,151,151,,,,,,,,,,,,N008,digit,1,"['6', '7', '8', '9']","['1', '2', '3', '4']",1,2023.2.3,harveydigits,2.1,[],8,0.75,
20,digit,0.3,['dot'],['big_1'],black,0,152,152,152,,,55.60021495819092,55.31761693954468,55.61761498451233,"[[-0.08040362574382115, 0.11924552855198614]]",['DejaVu Sans'],[0.9],,,,N008,digit,1,"['6', '7', '8', '9']","['1', '2', '3', '4']",1,2023.2.3,harveydigits,2.1,[],8,0.75,
0,pause,0.4,None,None,None,0,153,153,153,,,,,,,,,,,,N008,digit,1,"['6', '7', '8', '9']","['1', '2', '3', '4']",1,2023.2.3,harveydigits,2.1,[],8,0.75,
20,digit,0.3,['dot'],['big_1'],black,0,154,154,154,,,56.30022692680359,56.01759600639343,56.31765103340149,"[[-0.08204465017018311, 0.15645696146880075]]",['DejaVu Sans'],[0.9],,,,N008,digit,1,"['6', '7', '8', '9']","['1', '2', '3', '4']",1,2023.2.3,harveydigits,2.1,[],8,0.75,
0,pause,0.4,None,None,None,0,155,155,155,,,,,,,,,,,,N008,digit,1,"['6', '7', '8', '9']","['1', '2', '3', '4']",1,2023.2.3,harveydigits,2.1,[],8,0.75,
9,digit,0.3,['dot'],['big_1'],black,0,156,156,156,,,57.00021004676819,56.717588901519775,57.017595052719116,"[[-0.026676358311787995, -0.03483543908953579]]",['DejaVu Sans'],[0.9],,,,N008,digit,1,"['6', '7', '8', '9']","['1', '2', '3', '4']",1,2023.2.3,harveydigits,2.1,[],8,0.75,
0,pause,0.4,None,None,None,0,157,157,157,,,,,,,,,,,,N008,digit,1,"['6', '7', '8', '9']","['1', '2', '3', '4']",1,2023.2.3,harveydigits,2.1,[],8,0.75,
9,digit,0.3,['dot'],['big_1'],black,0,158,158,158,,,57.700226068496704,57.41758394241333,57.71754503250122,"[[0.15547150385485217, 0.046201650376997694]]",['DejaVu Sans'],[0.9],,,,N008,digit,1,"['6', '7', '8', '9']","['1', '2', '3', '4']",1,2023.2.3,harveydigits,2.1,[],8,0.75,
0,pause,0.4,None,None,None,0,159,159,159,,,,,,,,,,,,N008,digit,1,"['6', '7', '8', '9']","['1', '2', '3', '4']",1,2023.2.3,harveydigits,2.1,[],8,0.75,
9,digit,0.3,['dot'],['big_1'],black,0,160,160,160,,,58.40020990371704,58.11763000488281,58.41752600669861,"[[0.10149230658707117, 0.03215796303919016]]",['DejaVu Sans'],[0.9],,,,N008,digit,1,"['6', '7', '8', '9']","['1', '2', '3', '4']",1,2023.2.3,harveydigits,2.1,[],8,0.75,
0,pause,0.4,None,None,None,0,161,161,161,,,,,,,,,,,,N008,digit,1,"['6', '7', '8', '9']","['1', '2', '3', '4']",1,2023.2.3,harveydigits,2.1,[],8,0.75,
9,digit,0.3,['dot'],['big_1'],black,0,162,162,162,,,59.100208044052124,58.81751990318298,59.11751198768616,"[[0.01826600740052778, 0.18870120190974174]]",['DejaVu Sans'],[0.9],,,,N008,digit,1,"['6', '7', '8', '9']","['1', '2', '3', '4']",1,2023.2.3,harveydigits,2.1,[],8,0.75,
0,pause,0.4,None,None,None,0,163,163,163,,,,,,,,,,,,N008,digit,1,"['6', '7', '8', '9']","['1', '2', '3', '4']",1,2023.2.3,harveydigits,2.1,[],8,0.75,
9,digit,0.3,['dot'],['big_1'],black,0,164,164,164,,,59.800220012664795,59.517549991607666,59.817588090896606,"[[-0.12798290586406832, 0.0014069797916556048]]",['DejaVu Sans'],[0.9],,,,N008,digit,1,"['6', '7', '8', '9']","['1', '2', '3', '4']",1,2023.2.3,harveydigits,2.1,[],8,0.75,
0,pause,0.4,None,None,None,0,165,165,165,,,,,,,,,,,,N008,digit,1,"['6', '7', '8', '9']","['1', '2', '3', '4']",1,2023.2.3,harveydigits,2.1,[],8,0.75,
9,digit,0.3,['dot'],['big_1'],black,0,166,166,166,,,60.50021290779114,60.217474937438965,60.51746606826782,"[[0.03537710527891805, 0.08899070165797876]]",['DejaVu Sans'],[0.9],,,,N008,digit,1,"['6', '7', '8', '9']","['1', '2', '3', '4']",1,2023.2.3,harveydigits,2.1,[],8,0.75,
0,pause,0.4,None,None,None,0,167,167,167,,,,,,,,,,,,N008,digit,1,"['6', '7', '8', '9']","['1', '2', '3', '4']",1,2023.2.3,harveydigits,2.1,[],8,0.75,
8,digit,0.3,['dot'],['big_1'],black,0,168,168,168,,,61.20020890235901,60.91745686531067,61.21744108200073,"[[-0.12646675877915453, -0.13197413346071304]]",['DejaVu Sans'],[0.9],,,,N008,digit,1,"['6', '7', '8', '9']","['1', '2', '3', '4']",1,2023.2.3,harveydigits,2.1,[],8,0.75,
0,pause,0.4,None,None,None,0,169,169,169,,,,,,,,,,,,N008,digit,1,"['6', '7', '8', '9']","['1', '2', '3', '4']",1,2023.2.3,harveydigits,2.1,[],8,0.75,
8,digit,0.3,['dot'],['big_1'],black,0,170,170,170,,,61.90021109580994,61.61751389503479,61.91742300987244,"[[0.055256819253409944, 0.179618596945968]]",['DejaVu Sans'],[0.9],,,,N008,digit,1,"['6', '7', '8', '9']","['1', '2', '3', '4']",1,2023.2.3,harveydigits,2.1,[],8,0.75,
0,pause,0.4,None,None,None,0,171,171,171,,,,,,,,,,,,N008,digit,1,"['6', '7', '8', '9']","['1', '2', '3', '4']",1,2023.2.3,harveydigits,2.1,[],8,0.75,
8,digit,0.3,['dot'],['big_1'],black,0,172,172,172,,,62.60020709037781,62.3174250125885,62.61740803718567,"[[-0.09958971514155766, -0.17160019749898364]]",['DejaVu Sans'],[0.9],,,,N008,digit,1,"['6', '7', '8', '9']","['1', '2', '3', '4']",1,2023.2.3,harveydigits,2.1,[],8,0.75,
0,pause,0.4,None,None,None,0,173,173,173,,,,,,,,,,,,N008,digit,1,"['6', '7', '8', '9']","['1', '2', '3', '4']",1,2023.2.3,harveydigits,2.1,[],8,0.75,
8,digit,0.3,['dot'],['big_1'],black,0,174,174,174,,,63.300206899642944,63.01743292808533,63.31748008728027,"[[-0.009311871209433387, -0.09042267869324547]]",['DejaVu Sans'],[0.9],,,,N008,digit,1,"['6', '7', '8', '9']","['1', '2', '3', '4']",1,2023.2.3,harveydigits,2.1,[],8,0.75,
0,pause,0.4,None,None,None,0,175,175,175,,,,,,,,,,,,N008,digit,1,"['6', '7', '8', '9']","['1', '2', '3', '4']",1,2023.2.3,harveydigits,2.1,[],8,0.75,
8,digit,0.3,['dot'],['big_1'],black,0,176,176,176,,,64.00022292137146,63.71738600730896,64.01736998558044,"[[-0.03400569424205918, 0.042963518719799865]]",['DejaVu Sans'],[0.9],,,,N008,digit,1,"['6', '7', '8', '9']","['1', '2', '3', '4']",1,2023.2.3,harveydigits,2.1,[],8,0.75,
0,pause,0.4,None,None,None,0,177,177,177,,,,,,,,,,,,N008,digit,1,"['6', '7', '8', '9']","['1', '2', '3', '4']",1,2023.2.3,harveydigits,2.1,[],8,0.75,
8,digit,0.3,['dot'],['big_1'],black,0,178,178,178,,,64.70021200180054,64.41737008094788,64.71734809875488,"[[-0.15750288500183685, 0.0859846390321462]]",['DejaVu Sans'],[0.9],,,,N008,digit,1,"['6', '7', '8', '9']","['1', '2', '3', '4']",1,2023.2.3,harveydigits,2.1,[],8,0.75,
0,pause,0.4,None,None,None,0,179,179,179,,,,,,,,,,,,N008,digit,1,"['6', '7', '8', '9']","['1', '2', '3', '4']",1,2023.2.3,harveydigits,2.1,[],8,0.75,
7,digit,0.3,['dot'],['big_1'],black,0,180,180,180,,,65.40020394325256,65.11740493774414,65.41733908653259,"[[-0.1634373228134125, -0.1139532814823836]]",['DejaVu Sans'],[0.9],,,,N008,digit,1,"['6', '7', '8', '9']","['1', '2', '3', '4']",1,2023.2.3,harveydigits,2.1,[],8,0.75,
0,pause,0.4,None,None,None,0,181,181,181,,,,,,,,,,,,N008,digit,1,"['6', '7', '8', '9']","['1', '2', '3', '4']",1,2023.2.3,harveydigits,2.1,[],8,0.75,
7,digit,0.3,['dot'],['big_1'],black,0,182,182,182,,,66.10021209716797,65.81734108924866,66.11731886863708,"[[-0.14261442692185622, -0.05753248664788094]]",['DejaVu Sans'],[0.9],,,,N008,digit,1,"['6', '7', '8', '9']","['1', '2', '3', '4']",1,2023.2.3,harveydigits,2.1,[],8,0.75,
0,pause,0.4,None,None,None,0,183,183,183,,,,,,,,,,,,N008,digit,1,"['6', '7', '8', '9']","['1', '2', '3', '4']",1,2023.2.3,harveydigits,2.1,[],8,0.75,
7,digit,0.3,['dot'],['big_1'],black,0,184,184,184,,,66.80022406578064,66.51733994483948,66.81734704971313,"[[-0.10999692476649464, 0.12109919170891278]]",['DejaVu Sans'],[0.9],,,,N008,digit,1,"['6', '7', '8', '9']","['1', '2', '3', '4']",1,2023.2.3,harveydigits,2.1,[],8,0.75,
0,pause,0.4,None,None,None,0,185,185,185,,,,,,,,,,,,N008,digit,1,"['6', '7', '8', '9']","['1', '2', '3', '4']",1,2023.2.3,harveydigits,2.1,[],8,0.75,
7,digit,0.3,['dot'],['big_1'],black,0,186,186,186,,,67.50021409988403,67.2172999382019,67.51729488372803,"[[-0.13330207328774443, 0.00625934411536927]]",['DejaVu Sans'],[0.9],,,,N008,digit,1,"['6', '7', '8', '9']","['1', '2', '3', '4']",1,2023.2.3,harveydigits,2.1,[],8,0.75,
0,pause,0.4,None,None,None,0,187,187,187,,,,,,,,,,,,N008,digit,1,"['6', '7', '8', '9']","['1', '2', '3', '4']",1,2023.2.3,harveydigits,2.1,[],8,0.75,
7,digit,0.3,['dot'],['big_1'],black,0,188,188,188,,,68.20021104812622,67.91727805137634,68.21724891662598,"[[-0.012757476465733664, 0.12500505933246484]]",['DejaVu Sans'],[0.9],,,,N008,digit,1,"['6', '7', '8', '9']","['1', '2', '3', '4']",1,2023.2.3,harveydigits,2.1,[],8,0.75,
0,pause,0.4,None,None,None,0,189,189,189,,,,,,,,,,,,N008,digit,1,"['6', '7', '8', '9']","['1', '2', '3', '4']",1,2023.2.3,harveydigits,2.1,[],8,0.75,
7,digit,0.3,['dot'],['big_1'],black,0,190,190,190,,,68.90021705627441,68.61733388900757,68.91724991798401,"[[0.05722731798456279, -0.09382973119861289]]",['DejaVu Sans'],[0.9],,,,N008,digit,1,"['6', '7', '8', '9']","['1', '2', '3', '4']",1,2023.2.3,harveydigits,2.1,[],8,0.75,
0,pause,0.4,None,None,None,0,191,191,191,,,,,,,,,,,,N008,digit,1,"['6', '7', '8', '9']","['1', '2', '3', '4']",1,2023.2.3,harveydigits,2.1,[],8,0.75,
6,digit,0.3,['dot'],['big_1'],black,0,192,192,192,,,69.60023093223572,69.31724095344543,69.61722207069397,"[[-0.1357796998278656, 0.12635090872007723]]",['DejaVu Sans'],[0.9],,,,N008,digit,1,"['6', '7', '8', '9']","['1', '2', '3', '4']",1,2023.2.3,harveydigits,2.1,[],8,0.75,
0,pause,0.4,None,None,None,0,193,193,193,,,,,,,,,,,,N008,digit,1,"['6', '7', '8', '9']","['1', '2', '3', '4']",1,2023.2.3,harveydigits,2.1,[],8,0.75,
6,digit,0.3,['dot'],['big_1'],black,0,194,194,194,,,70.30021405220032,70.01721787452698,70.31725192070007,"[[-0.0537675682280275, -0.16959594670644101]]",['DejaVu Sans'],[0.9],,,,N008,digit,1,"['6', '7', '8', '9']","['1', '2', '3', '4']",1,2023.2.3,harveydigits,2.1,[],8,0.75,
0,pause,0.4,None,None,None,0,195,195,195,,,,,,,,,,,,N008,digit,1,"['6', '7', '8', '9']","['1', '2', '3', '4']",1,2023.2.3,harveydigits,2.1,[],8,0.75,
6,digit,0.3,['dot'],['big_1'],black,0,196,196,196,,,71.00022196769714,70.71720504760742,71.01717901229858,"[[0.1877003912983188, -0.0671203600083955]]",['DejaVu Sans'],[0.9],,,,N008,digit,1,"['6', '7', '8', '9']","['1', '2', '3', '4']",1,2023.2.3,harveydigits,2.1,[],8,0.75,
0,pause,0.4,None,None,None,0,197,197,197,,,,,,,,,,,,N008,digit,1,"['6', '7', '8', '9']","['1', '2', '3', '4']",1,2023.2.3,harveydigits,2.1,[],8,0.75,
6,digit,0.3,['dot'],['big_1'],black,0,198,198,198,,,71.70021986961365,71.41717791557312,71.71715188026428,"[[0.1543264669354875, -0.07838977448081849]]",['DejaVu Sans'],[0.9],,,,N008,digit,1,"['6', '7', '8', '9']","['1', '2', '3', '4']",1,2023.2.3,harveydigits,2.1,[],8,0.75,
0,pause,0.4,None,None,None,0,199,199,199,,,,,,,,,,,,N008,digit,1,"['6', '7', '8', '9']","['1', '2', '3', '4']",1,2023.2.3,harveydigits,2.1,[],8,0.75,
6,digit,0.3,['dot'],['big_1'],black,0,200,200,200,,,72.40021109580994,72.11722087860107,72.41715502738953,"[[-0.0374309909899633, 0.07297049232917288]]",['DejaVu Sans'],[0.9],,,,N008,digit,1,"['6', '7', '8', '9']","['1', '2', '3', '4']",1,2023.2.3,harveydigits,2.1,[],8,0.75,
0,pause,0.4,None,None,None,0,201,201,201,,,,,,,,,,,,N008,digit,1,"['6', '7', '8', '9']","['1', '2', '3', '4']",1,2023.2.3,harveydigits,2.1,[],8,0.75,
6,digit,0.3,['dot'],['big_1'],black,0,202,202,202,,,73.10021901130676,72.81714797019958,73.11713004112244,"[[0.14691349402725926, 0.11887891883746174]]",['DejaVu Sans'],[0.9],,,,N008,digit,1,"['6', '7', '8', '9']","['1', '2', '3', '4']",1,2023.2.3,harveydigits,2.1,[],8,0.75,
0,pause,0.4,None,None,None,0,203,203,203,,,,,,,,,,,,N008,digit,1,"['6', '7', '8', '9']","['1', '2', '3', '4']",1,2023.2.3,harveydigits,2.1,[],8,0.75,
5,digit,0.3,['dot'],['big_1'],black,0,204,204,204,,,73.8002290725708,73.51711106300354,73.81714987754822,"[[0.10250805569020202, -0.15057117831341096]]",['DejaVu Sans'],[0.9],,,,N008,digit,1,"['6', '7', '8', '9']","['1', '2', '3', '4']",1,2023.2.3,harveydigits,2.1,[],8,0.75,
0,pause,0.4,None,None,None,0,205,205,205,,,,,,,,,,,,N008,digit,1,"['6', '7', '8', '9']","['1', '2', '3', '4']",1,2023.2.3,harveydigits,2.1,[],8,0.75,
5,digit,0.3,['dot'],['big_1'],black,0,206,206,206,,,74.50020599365234,74.21711301803589,74.5170829296112,"[[0.13879628874632008, -0.014762064500078748]]",['DejaVu Sans'],[0.9],,,,N008,digit,1,"['6', '7', '8', '9']","['1', '2', '3', '4']",1,2023.2.3,harveydigits,2.1,[],8,0.75,
0,pause,0.4,None,None,None,0,207,207,207,,,,,,,,,,,,N008,digit,1,"['6', '7', '8', '9']","['1', '2', '3', '4']",1,2023.2.3,harveydigits,2.1,[],8,0.75,
5,digit,0.3,['dot'],['big_1'],black,0,208,208,208,,,75.20021104812622,74.91709399223328,75.21706509590149,"[[0.15954740486680877, 0.012369568926766925]]",['DejaVu Sans'],[0.9],,,,N008,digit,1,"['6', '7', '8', '9']","['1', '2', '3', '4']",1,2023.2.3,harveydigits,2.1,[],8,0.75,
0,pause,0.4,None,None,None,0,209,209,209,,,,,,,,,,,,N008,digit,1,"['6', '7', '8', '9']","['1', '2', '3', '4']",1,2023.2.3,harveydigits,2.1,[],8,0.75,
5,digit,0.3,['dot'],['big_1'],black,0,210,210,210,,,75.90022706985474,75.61717009544373,75.91714096069336,"[[0.0764867018020379, -0.048327334958091384]]",['DejaVu Sans'],[0.9],,,,N008,digit,1,"['6', '7', '8', '9']","['1', '2', '3', '4']",1,2023.2.3,harveydigits,2.1,[],8,0.75,
0,pause,0.4,None,None,None,0,211,211,211,,,,,,,,,,,,N008,digit,1,"['6', '7', '8', '9']","['1', '2', '3', '4']",1,2023.2.3,harveydigits,2.1,[],8,0.75,
5,digit,0.3,['dot'],['big_1'],black,0,212,212,212,,,76.60020899772644,76.3170599937439,76.61703395843506,"[[0.011535207556576499, -0.16582336009133417]]",['DejaVu Sans'],[0.9],,,,N008,digit,1,"['6', '7', '8', '9']","['1', '2', '3', '4']",1,2023.2.3,harveydigits,2.1,[],8,0.75,
0,pause,0.4,None,None,None,0,213,213,213,,,,,,,,,,,,N008,digit,1,"['6', '7', '8', '9']","['1', '2', '3', '4']",1,2023.2.3,harveydigits,2.1,[],8,0.75,
5,digit,0.3,['dot'],['big_1'],black,0,214,214,214,,,77.30020809173584,77.01703000068665,77.31710004806519,"[[-0.10402934138982557, -0.145438008709855]]",['DejaVu Sans'],[0.9],,,,N008,digit,1,"['6', '7', '8', '9']","['1', '2', '3', '4']",1,2023.2.3,harveydigits,2.1,[],8,0.75,
0,pause,0.4,None,None,None,0,215,215,215,,,,,,,,,,,,N008,digit,1,"['6', '7', '8', '9']","['1', '2', '3', '4']",1,2023.2.3,harveydigits,2.1,[],8,0.75,
4,digit,0.3,['dot'],['big_1'],black,0,216,216,216,,,78.00023007392883,77.71704888343811,78.01699805259705,"[[0.07967436455122659, -0.15653076342993893]]",['DejaVu Sans'],[0.9],,,,N008,digit,1,"['6', '7', '8', '9']","['1', '2', '3', '4']",1,2023.2.3,harveydigits,2.1,[],8,0.75,
0,pause,0.4,None,None,None,0,217,217,217,,,,,,,,,,,,N008,digit,1,"['6', '7', '8', '9']","['1', '2', '3', '4']",1,2023.2.3,harveydigits,2.1,[],8,0.75,
4,digit,0.3,['dot'],['big_1'],black,0,218,218,218,,,78.70023202896118,78.41698908805847,78.71701407432556,"[[-0.00806718695377015, 0.1304851222492245]]",['DejaVu Sans'],[0.9],,,,N008,digit,1,"['6', '7', '8', '9']","['1', '2', '3', '4']",1,2023.2.3,harveydigits,2.1,[],8,0.75,
0,pause,0.4,None,None,None,0,219,219,219,,,,,,,,,,,,N008,digit,1,"['6', '7', '8', '9']","['1', '2', '3', '4']",1,2023.2.3,harveydigits,2.1,[],8,0.75,
4,digit,0.3,['dot'],['big_1'],black,0,220,220,220,,,79.40022087097168,79.11700487136841,79.41700887680054,"[[-0.09297583446906364, 0.022012749773789614]]",['DejaVu Sans'],[0.9],,,,N008,digit,1,"['6', '7', '8', '9']","['1', '2', '3', '4']",1,2023.2.3,harveydigits,2.1,[],8,0.75,
0,pause,0.4,None,None,None,0,221,221,221,,,,,,,,,,,,N008,digit,1,"['6', '7', '8', '9']","['1', '2', '3', '4']",1,2023.2.3,harveydigits,2.1,[],8,0.75,
4,digit,0.3,['dot'],['big_1'],black,0,222,222,222,,,80.10020899772644,79.81695103645325,80.11694192886353,"[[-0.10711544750114962, 0.030744707741342192]]",['DejaVu Sans'],[0.9],,,,N008,digit,1,"['6', '7', '8', '9']","['1', '2', '3', '4']",1,2023.2.3,harveydigits,2.1,[],8,0.75,
0,pause,0.4,None,None,None,0,223,223,223,,,,,,,,,,,,N008,digit,1,"['6', '7', '8', '9']","['1', '2', '3', '4']",1,2023.2.3,harveydigits,2.1,[],8,0.75,
4,digit,0.3,['dot'],['big_1'],black,0,224,224,224,,,80.80023288726807,80.51697301864624,80.81689405441284,"[[0.18683992135494684, 0.0415789289460715]]",['DejaVu Sans'],[0.9],,,,N008,digit,1,"['6', '7', '8', '9']","['1', '2', '3', '4']",1,2023.2.3,harveydigits,2.1,[],8,0.75,
0,pause,0.4,None,None,None,0,225,225,225,,,,,,,,,,,,N008,digit,1,"['6', '7', '8', '9']","['1', '2', '3', '4']",1,2023.2.3,harveydigits,2.1,[],8,0.75,
4,digit,0.3,['dot'],['big_1'],black,0,226,226,226,,,81.50020694732666,81.21689009666443,81.51689291000366,"[[0.07433568282010675, -0.12900846304008465]]",['DejaVu Sans'],[0.9],,,,N008,digit,1,"['6', '7', '8', '9']","['1', '2', '3', '4']",1,2023.2.3,harveydigits,2.1,[],8,0.75,
0,pause,0.4,None,None,None,0,227,227,227,,,,,,,,,,,,N008,digit,1,"['6', '7', '8', '9']","['1', '2', '3', '4']",1,2023.2.3,harveydigits,2.1,[],8,0.75,
3,digit,0.3,['dot'],['big_1'],black,0,228,228,228,,,82.20021796226501,81.9168848991394,82.21686005592346,"[[0.14513453671679052, 0.0562875054083293]]",['DejaVu Sans'],[0.9],,,,N008,digit,1,"['6', '7', '8', '9']","['1', '2', '3', '4']",1,2023.2.3,harveydigits,2.1,[],8,0.75,
0,pause,0.4,None,None,None,0,229,229,229,,,,,,,,,,,,N008,digit,1,"['6', '7', '8', '9']","['1', '2', '3', '4']",1,2023.2.3,harveydigits,2.1,[],8,0.75,
3,digit,0.3,['dot'],['big_1'],black,0,230,230,230,,,82.90020704269409,82.61686205863953,82.91684007644653,"[[-0.158653017127037, 0.038340754525444304]]",['DejaVu Sans'],[0.9],,,,N008,digit,1,"['6', '7', '8', '9']","['1', '2', '3', '4']",1,2023.2.3,harveydigits,2.1,[],8,0.75,
0,pause,0.4,None,None,None,0,231,231,231,,,,,,,,,,,,N008,digit,1,"['6', '7', '8', '9']","['1', '2', '3', '4']",1,2023.2.3,harveydigits,2.1,[],8,0.75,
3,digit,0.3,['dot'],['big_1'],black,0,232,232,232,,,83.60022807121277,83.31684803962708,83.61682796478271,"[[0.12304890759552792, 0.06481742965772208]]",['DejaVu Sans'],[0.9],,,,N008,digit,1,"['6', '7', '8', '9']","['1', '2', '3', '4']",1,2023.2.3,harveydigits,2.1,[],8,0.75,
0,pause,0.4,None,None,None,0,233,233,233,,,,,,,,,,,,N008,digit,1,"['6', '7', '8', '9']","['1', '2', '3', '4']",1,2023.2.3,harveydigits,2.1,[],8,0.75,
3,digit,0.3,['dot'],['big_1'],black,0,234,234,234,,,84.30020904541016,84.01681590080261,84.31681108474731,"[[0.17555744710910523, -0.07456670523339479]]",['DejaVu Sans'],[0.9],,,,N008,digit,1,"['6', '7', '8', '9']","['1', '2', '3', '4']",1,2023.2.3,harveydigits,2.1,[],8,0.75,
0,pause,0.4,None,None,None,0,235,235,235,,,,,,,,,,,,N008,digit,1,"['6', '7', '8', '9']","['1', '2', '3', '4']",1,2023.2.3,harveydigits,2.1,[],8,0.75,
3,digit,0.3,['dot'],['big_1'],black,0,236,236,236,,,85.00022101402283,84.71681809425354,85.0167920589447,"[[0.13593521295505848, 0.12291387380146637]]",['DejaVu Sans'],[0.9],,,,N008,digit,1,"['6', '7', '8', '9']","['1', '2', '3', '4']",1,2023.2.3,harveydigits,2.1,[],8,0.75,
0,pause,0.4,None,None,None,0,237,237,237,,,,,,,,,,,,N008,digit,1,"['6', '7', '8', '9']","['1', '2', '3', '4']",1,2023.2.3,harveydigits,2.1,[],8,0.75,
3,digit,0.3,['dot'],['big_1'],black,0,238,238,238,,,85.70022392272949,85.41678094863892,85.71677494049072,"[[0.05793443090732306, 0.1393649032626598]]",['DejaVu Sans'],[0.9],,,,N008,digit,1,"['6', '7', '8', '9']","['1', '2', '3', '4']",1,2023.2.3,harveydigits,2.1,[],8,0.75,
0,pause,0.4,None,None,None,0,239,239,239,,,,,,,,,,,,N008,digit,1,"['6', '7', '8', '9']","['1', '2', '3', '4']",1,2023.2.3,harveydigits,2.1,[],8,0.75,
2,digit,0.3,['dot'],['big_1'],white,0,240,240,240,,,86.40022587776184,86.11676287651062,86.41675400733948,"[[0.11266138543790147, -0.06056503747565163]]",['DejaVu Sans'],[0.9],,,,N008,digit,1,"['6', '7', '8', '9']","['1', '2', '3', '4']",1,2023.2.3,harveydigits,2.1,[],8,0.75,
0,pause,0.4,None,None,None,0,241,241,241,,,,,,,,,,,,N008,digit,1,"['6', '7', '8', '9']","['1', '2', '3', '4']",1,2023.2.3,harveydigits,2.1,[],8,0.75,
2,digit,0.3,['dot'],['big_1'],white,0,242,242,242,,,87.10022902488708,86.81674790382385,87.1167368888855,"[[-0.009530253014527729, 0.10620138322328349]]",['DejaVu Sans'],[0.9],,,,N008,digit,1,"['6', '7', '8', '9']","['1', '2', '3', '4']",1,2023.2.3,harveydigits,2.1,[],8,0.75,
0,pause,0.4,None,None,None,0,243,243,243,,,,,,,,,,,,N008,digit,1,"['6', '7', '8', '9']","['1', '2', '3', '4']",1,2023.2.3,harveydigits,2.1,[],8,0.75,
2,digit,0.3,['dot'],['big_1'],white,0,244,244,244,,,87.80022597312927,87.51673197746277,87.81674695014954,"[[-0.13613892120261895, -0.1289360601073957]]",['DejaVu Sans'],[0.9],,,,N008,digit,1,"['6', '7', '8', '9']","['1', '2', '3', '4']",1,2023.2.3,harveydigits,2.1,[],8,0.75,
0,pause,0.4,None,None,None,0,245,245,245,,,,,,,,,1,87.81210589408875,,N008,digit,1,"['6', '7', '8', '9']","['1', '2', '3', '4']",1,2023.2.3,harveydigits,2.1,[],8,0.75,
2,digit,0.3,['dot'],['big_1'],white,0,246,246,246,,,88.50022006034851,88.21668887138367,88.51669502258301,"[[0.11578759653468682, 0.15710828784100783]]",['DejaVu Sans'],[0.9],,,,N008,digit,1,"['6', '7', '8', '9']","['1', '2', '3', '4']",1,2023.2.3,harveydigits,2.1,[],8,0.75,
0,pause,0.4,None,None,None,0,247,247,247,,,,,,,,,,,,N008,digit,1,"['6', '7', '8', '9']","['1', '2', '3', '4']",1,2023.2.3,harveydigits,2.1,[],8,0.75,
2,digit,0.3,['dot'],['big_1'],white,0,248,248,248,,,89.2002100944519,88.91669392585754,89.21668100357056,"[[0.135133567040136, 0.006703178529303133]]",['DejaVu Sans'],[0.9],,,,N008,digit,1,"['6', '7', '8', '9']","['1', '2', '3', '4']",1,2023.2.3,harveydigits,2.1,[],8,0.75,
0,pause,0.4,None,None,None,0,249,249,249,,,,,,,,,,,,N008,digit,1,"['6', '7', '8', '9']","['1', '2', '3', '4']",1,2023.2.3,harveydigits,2.1,[],8,0.75,
2,digit,0.3,['dot'],['big_1'],white,0,250,250,250,,,89.9002320766449,89.61670589447021,89.9166579246521,"[[0.05870731328846032, -0.1563426269944129]]",['DejaVu Sans'],[0.9],,,,N008,digit,1,"['6', '7', '8', '9']","['1', '2', '3', '4']",1,2023.2.3,harveydigits,2.1,[],8,0.75,
0,pause,0.4,None,None,None,0,251,251,251,,,,,,,,,,,,N008,digit,1,"['6', '7', '8', '9']","['1', '2', '3', '4']",1,2023.2.3,harveydigits,2.1,[],8,0.75,
1,digit,0.3,['dot'],['big_1'],black,0,252,252,252,,,90.60022592544556,90.31665992736816,90.61663389205933,"[[0.02630015107173339, 0.047694061247980285]]",['DejaVu Sans'],[0.9],,,,N008,digit,1,"['6', '7', '8', '9']","['1', '2', '3', '4']",1,2023.2.3,harveydigits,2.1,[],8,0.75,
0,pause,0.4,None,None,None,0,253,253,253,,,,,,,,,,,,N008,digit,1,"['6', '7', '8', '9']","['1', '2', '3', '4']",1,2023.2.3,harveydigits,2.1,[],8,0.75,
1,digit,0.3,['dot'],['big_1'],black,0,254,254,254,,,91.300213098526,91.01664805412292,91.3166298866272,"[[-0.023538965205856466, -0.04595621377928491]]",['DejaVu Sans'],[0.9],,,,N008,digit,1,"['6', '7', '8', '9']","['1', '2', '3', '4']",1,2023.2.3,harveydigits,2.1,[],8,0.75,
0,pause,0.4,None,None,None,0,255,255,255,,,,,,,,,,,,N008,digit,1,"['6', '7', '8', '9']","['1', '2', '3', '4']",1,2023.2.3,harveydigits,2.1,[],8,0.75,
1,digit,0.3,['dot'],['big_1'],black,0,256,256,256,,,92.00022792816162,91.71663999557495,92.01659297943115,"[[-0.15080744904855783, -0.13011912381889007]]",['DejaVu Sans'],[0.9],,,,N008,digit,1,"['6', '7', '8', '9']","['1', '2', '3', '4']",1,2023.2.3,harveydigits,2.1,[],8,0.75,
0,pause,0.4,None,None,None,0,257,257,257,,,,,,,,,,,,N008,digit,1,"['6', '7', '8', '9']","['1', '2', '3', '4']",1,2023.2.3,harveydigits,2.1,[],8,0.75,
1,digit,0.3,['dot'],['big_1'],black,0,258,258,258,,,92.70022702217102,92.41659593582153,92.71658897399902,"[[-0.04649849033418599, 0.01686191701806236]]",['DejaVu Sans'],[0.9],,,,N008,digit,1,"['6', '7', '8', '9']","['1', '2', '3', '4']",1,2023.2.3,harveydigits,2.1,[],8,0.75,
0,pause,0.4,None,None,None,0,259,259,259,,,,,,,,,,,,N008,digit,1,"['6', '7', '8', '9']","['1', '2', '3', '4']",1,2023.2.3,harveydigits,2.1,[],8,0.75,
1,digit,0.3,['dot'],['big_1'],black,0,260,260,260,,,93.40023493766785,93.11658787727356,93.41655492782593,"[[-0.002837800694748538, 0.14936938635346533]]",['DejaVu Sans'],[0.9],,,,N008,digit,1,"['6', '7', '8', '9']","['1', '2', '3', '4']",1,2023.2.3,harveydigits,2.1,[],8,0.75,
0,pause,0.4,None,None,None,0,261,261,261,,,,,,,,,,,,N008,digit,1,"['6', '7', '8', '9']","['1', '2', '3', '4']",1,2023.2.3,harveydigits,2.1,[],8,0.75,
1,digit,0.3,['dot'],['big_1'],black,0,262,262,262,,,94.10020709037781,93.81665802001953,94.11664891242981,"[[-0.1047489311684441, 0.04326926874455658]]",['DejaVu Sans'],[0.9],,,,N008,digit,1,"['6', '7', '8', '9']","['1', '2', '3', '4']",1,2023.2.3,harveydigits,2.1,[],8,0.75,
0,pause,0.4,None,None,None,0,263,263,263,,,,,,,,,,,,N008,digit,1,"['6', '7', '8', '9']","['1', '2', '3', '4']",1,2023.2.3,harveydigits,2.1,[],8,0.75,
20,digit,0.3,['dot'],['big_1'],white,0,264,264,264,,,94.80020809173584,94.51655888557434,94.81654095649719,"[[-0.12385066981713314, -0.046833021524617435]]",['DejaVu Sans'],[0.9],,,,N008,digit,1,"['6', '7', '8', '9']","['1', '2', '3', '4']",1,2023.2.3,harveydigits,2.1,[],8,0.75,
0,pause,0.4,None,None,None,0,265,265,265,,,,,,,,,,,,N008,digit,1,"['6', '7', '8', '9']","['1', '2', '3', '4']",1,2023.2.3,harveydigits,2.1,[],8,0.75,
20,digit,0.3,['dot'],['big_1'],white,0,266,266,266,,,95.50022506713867,95.21654391288757,95.51658296585083,"[[0.14182254680020498, -0.08154647038196083]]",['DejaVu Sans'],[0.9],,,,N008,digit,1,"['6', '7', '8', '9']","['1', '2', '3', '4']",1,2023.2.3,harveydigits,2.1,[],8,0.75,
0,pause,0.4,None,None,None,0,267,267,267,,,,,,,,,,,,N008,digit,1,"['6', '7', '8', '9']","['1', '2', '3', '4']",1,2023.2.3,harveydigits,2.1,[],8,0.75,
20,digit,0.3,['dot'],['big_1'],white,0,268,268,268,,,96.20022702217102,95.91659307479858,96.2164990901947,"[[0.14433732678004615, 0.029444495991625463]]",['DejaVu Sans'],[0.9],,,,N008,digit,1,"['6', '7', '8', '9']","['1', '2', '3', '4']",1,2023.2.3,harveydigits,2.1,[],8,0.75,
0,pause,0.4,None,None,None,0,269,269,269,,,,,,,,,,,,N008,digit,1,"['6', '7', '8', '9']","['1', '2', '3', '4']",1,2023.2.3,harveydigits,2.1,[],8,0.75,
20,digit,0.3,['dot'],['big_1'],white,0,270,270,270,,,96.90023303031921,96.61649489402771,96.91648888587952,"[[0.13639226175799643, -0.07706818604267532]]",['DejaVu Sans'],[0.9],,,,N008,digit,1,"['6', '7', '8', '9']","['1', '2', '3', '4']",1,2023.2.3,harveydigits,2.1,[],8,0.75,
0,pause,0.4,None,None,None,0,271,271,271,,,,,,,,,,,,N008,digit,1,"['6', '7', '8', '9']","['1', '2', '3', '4']",1,2023.2.3,harveydigits,2.1,[],8,0.75,
20,digit,0.3,['dot'],['big_1'],white,0,272,272,272,,,97.60023593902588,97.31650495529175,97.61652302742004,"[[0.051329134651188796, 0.08766180078632954]]",['DejaVu Sans'],[0.9],,,,N008,digit,1,"['6', '7', '8', '9']","['1', '2', '3', '4']",1,2023.2.3,harveydigits,2.1,[],8,0.75,
0,pause,0.4,None,None,None,0,273,273,273,,,,,,,,,,,,N008,digit,1,"['6', '7', '8', '9']","['1', '2', '3', '4']",1,2023.2.3,harveydigits,2.1,[],8,0.75,
20,digit,0.3,['dot'],['big_1'],white,0,274,274,274,,,98.30023193359375,98.01647210121155,98.31645607948303,"[[-0.15831701420125555, -0.019758110262335926]]",['DejaVu Sans'],[0.9],,,,N008,digit,1,"['6', '7', '8', '9']","['1', '2', '3', '4']",1,2023.2.3,harveydigits,2.1,[],8,0.75,
0,pause,0.4,None,None,None,0,275,275,275,,,,,,,,,,,,N008,digit,1,"['6', '7', '8', '9']","['1', '2', '3', '4']",1,2023.2.3,harveydigits,2.1,[],8,0.75,
20,digit,0.3,['dot'],['big_1'],black,0,276,276,276,,,99.00023603439331,98.71643590927124,99.01642990112305,"[[-0.018939309123642334, 0.13577037090445157]]",['DejaVu Sans'],[0.9],,,,N008,digit,1,"['6', '7', '8', '9']","['1', '2', '3', '4']",1,2023.2.3,harveydigits,2.1,[],8,0.75,
0,pause,0.4,None,None,None,0,277,277,277,,,,,,,,,,,,N008,digit,1,"['6', '7', '8', '9']","['1', '2', '3', '4']",1,2023.2.3,harveydigits,2.1,[],8,0.75,
20,digit,0.3,['dot'],['big_1'],black,0,278,278,278,,,99.7002100944519,99.41648292541504,99.71640992164612,"[[0.04623121309488054, -0.026215496140826883]]",['DejaVu Sans'],[0.9],,,,N008,digit,1,"['6', '7', '8', '9']","['1', '2', '3', '4']",1,2023.2.3,harveydigits,2.1,[],8,0.75,
0,pause,0.4,None,None,None,0,279,279,279,,,,,,,,,,,,N008,digit,1,"['6', '7', '8', '9']","['1', '2', '3', '4']",1,2023.2.3,harveydigits,2.1,[],8,0.75,
20,digit,0.3,['dot'],['big_1'],black,0,280,280,280,,,100.40022802352905,100.11640787124634,100.41640305519104,"[[0.11141582431533911, -0.0485647782896189]]",['DejaVu Sans'],[0.9],,,,N008,digit,1,"['6', '7', '8', '9']","['1', '2', '3', '4']",1,2023.2.3,harveydigits,2.1,[],8,0.75,
0,pause,0.4,None,None,None,0,281,281,281,,,,,,,,,,,,N008,digit,1,"['6', '7', '8', '9']","['1', '2', '3', '4']",1,2023.2.3,harveydigits,2.1,[],8,0.75,
20,digit,0.3,['dot'],['big_1'],black,0,282,282,282,,,101.10022401809692,100.81639003753662,101.11641001701355,"[[-0.19176534068452228, 0.044029280330832324]]",['DejaVu Sans'],[0.9],,,,N008,digit,1,"['6', '7', '8', '9']","['1', '2', '3', '4']",1,2023.2.3,harveydigits,2.1,[],8,0.75,
0,pause,0.4,None,None,None,0,283,283,283,,,,,,,,,,,,N008,digit,1,"['6', '7', '8', '9']","['1', '2', '3', '4']",1,2023.2.3,harveydigits,2.1,[],8,0.75,
20,digit,0.3,['dot'],['big_1'],black,0,284,284,284,,,101.80022406578064,101.51642107963562,101.81637787818909,"[[-0.16955896341539822, 0.06501158575062656]]",['DejaVu Sans'],[0.9],,,,N008,digit,1,"['6', '7', '8', '9']","['1', '2', '3', '4']",1,2023.2.3,harveydigits,2.1,[],8,0.75,
0,pause,0.4,None,None,None,0,285,285,285,,,,,,,,,,,,N008,digit,1,"['6', '7', '8', '9']","['1', '2', '3', '4']",1,2023.2.3,harveydigits,2.1,[],8,0.75,
20,digit,0.3,['dot'],['big_1'],black,0,286,286,286,,,102.50023102760315,102.21637797355652,102.51634693145752,"[[-0.14223789355416638, -0.004512937777901488]]",['DejaVu Sans'],[0.9],,,,N008,digit,1,"['6', '7', '8', '9']","['1', '2', '3', '4']",1,2023.2.3,harveydigits,2.1,[],8,0.75,
0,pause,0.4,None,None,None,0,287,287,287,,,,,,,,,,,,N008,digit,1,"['6', '7', '8', '9']","['1', '2', '3', '4']",1,2023.2.3,harveydigits,2.1,[],8,0.75,
20,digit,0.3,['dot'],['big_1'],black,0,288,288,288,,,103.20023989677429,102.91638398170471,103.216392993927,"[[-0.008769128710332807, 0.17554922042552118]]",['DejaVu Sans'],[0.9],,,,N008,digit,1,"['6', '7', '8', '9']","['1', '2', '3', '4']",1,2023.2.3,harveydigits,2.1,[],8,0.75,
0,pause,0.4,None,None,None,0,289,289,289,,,,,,,,,,,,N008,digit,1,"['6', '7', '8', '9']","['1', '2', '3', '4']",1,2023.2.3,harveydigits,2.1,[],8,0.75,
20,digit,0.3,['dot'],['big_1'],black,0,290,290,290,,,103.90023899078369,103.61632299423218,103.91630506515503,"[[-0.07585243463341795, 0.0588485664499343]]",['DejaVu Sans'],[0.9],,,,N008,digit,1,"['6', '7', '8', '9']","['1', '2', '3', '4']",1,2023.2.3,harveydigits,2.1,[],8,0.75,
0,pause,0.4,None,None,None,0,291,291,291,,,,,,,,,,,,N008,digit,1,"['6', '7', '8', '9']","['1', '2', '3', '4']",1,2023.2.3,harveydigits,2.1,[],8,0.75,
20,digit,0.3,['dot'],['big_1'],black,0,292,292,292,,,104.60021591186523,104.3163070678711,104.61628699302673,"[[-0.0833765743340507, 0.0803395084882293]]",['DejaVu Sans'],[0.9],,,,N008,digit,1,"['6', '7', '8', '9']","['1', '2', '3', '4']",1,2023.2.3,harveydigits,2.1,[],8,0.75,
0,pause,0.4,None,None,None,0,293,293,293,,,,,,,,,,,,N008,digit,1,"['6', '7', '8', '9']","['1', '2', '3', '4']",1,2023.2.3,harveydigits,2.1,[],8,0.75,
20,digit,0.3,['dot'],['big_1'],black,0,294,294,294,,,105.30023288726807,105.01636099815369,105.31626605987549,"[[-0.15799386422010894, -0.009755728581331002]]",['DejaVu Sans'],[0.9],,,,N008,digit,1,"['6', '7', '8', '9']","['1', '2', '3', '4']",1,2023.2.3,harveydigits,2.1,[],8,0.75,
0,pause,0.4,None,None,None,0,295,295,295,,,,,,,,,,,,N008,digit,1,"['6', '7', '8', '9']","['1', '2', '3', '4']",1,2023.2.3,harveydigits,2.1,[],8,0.75,
20,digit,0.3,['dot'],['big_1'],black,0,296,296,296,,,106.00021886825562,105.71625995635986,106.0162410736084,"[[0.16950658299577073, 0.060971302972122526]]",['DejaVu Sans'],[0.9],,,,N008,digit,1,"['6', '7', '8', '9']","['1', '2', '3', '4']",1,2023.2.3,harveydigits,2.1,[],8,0.75,
0,pause,0.4,None,None,None,0,297,297,297,,,,,,,,,,,,N008,digit,1,"['6', '7', '8', '9']","['1', '2', '3', '4']",1,2023.2.3,harveydigits,2.1,[],8,0.75,
20,digit,0.3,['dot'],['big_1'],black,0,298,298,298,,,106.70023894309998,106.41623187065125,106.7162880897522,"[[0.17056950204249602, 0.055017068657378126]]",['DejaVu Sans'],[0.9],,,,N008,digit,1,"['6', '7', '8', '9']","['1', '2', '3', '4']",1,2023.2.3,harveydigits,2.1,[],8,0.75,
0,pause,0.4,None,None,None,0,299,299,299,,,,,,,,,,,,N008,digit,1,"['6', '7', '8', '9']","['1', '2', '3', '4']",1,2023.2.3,harveydigits,2.1,[],8,0.75,
20,digit,0.3,['dot'],['big_1'],black,0,300,300,300,,,107.40022206306458,107.11629986763,107.4162049293518,"[[0.11586463267992239, 0.020817169441411126]]",['DejaVu Sans'],[0.9],,,,N008,digit,1,"['6', '7', '8', '9']","['1', '2', '3', '4']",1,2023.2.3,harveydigits,2.1,[],8,0.75,
0,pause,0.4,None,None,None,0,301,301,301,,,,,,,,,,,,N008,digit,1,"['6', '7', '8', '9']","['1', '2', '3', '4']",1,2023.2.3,harveydigits,2.1,[],8,0.75,
20,digit,0.3,['dot'],['big_1'],black,0,302,302,302,,,108.1002368927002,107.81619095802307,108.11618995666504,"[[-0.1197846183633655, 0.13137216483790962]]",['DejaVu Sans'],[0.9],,,,N008,digit,1,"['6', '7', '8', '9']","['1', '2', '3', '4']",1,2023.2.3,harveydigits,2.1,[],8,0.75,
0,pause,0.4,None,None,None,0,303,303,303,,,,,,,,,,,,N008,digit,1,"['6', '7', '8', '9']","['1', '2', '3', '4']",1,2023.2.3,harveydigits,2.1,[],8,0.75,
20,digit,0.3,['dot'],['big_1'],black,0,304,304,304,,,108.80022501945496,108.51622104644775,108.81623792648315,"[[-0.039155601166621784, -0.03143033341156529]]",['DejaVu Sans'],[0.9],,,,N008,digit,1,"['6', '7', '8', '9']","['1', '2', '3', '4']",1,2023.2.3,harveydigits,2.1,[],8,0.75,
0,pause,0.4,None,None,None,0,305,305,305,,,,,,,,,,,,N008,digit,1,"['6', '7', '8', '9']","['1', '2', '3', '4']",1,2023.2.3,harveydigits,2.1,[],8,0.75,
20,digit,0.3,['dot'],['big_1'],black,0,306,306,306,,,109.50023198127747,109.21616291999817,109.51614904403687,"[[0.0320031932131232, 0.1315144204892024]]",['DejaVu Sans'],[0.9],,,,N008,digit,1,"['6', '7', '8', '9']","['1', '2', '3', '4']",1,2023.2.3,harveydigits,2.1,[],8,0.75,
0,pause,0.4,None,None,None,0,307,307,307,,,,,,,,,,,,N008,digit,1,"['6', '7', '8', '9']","['1', '2', '3', '4']",1,2023.2.3,harveydigits,2.1,[],8,0.75,
20,digit,0.3,['dot'],['big_1'],black,0,308,308,308,,,110.20022988319397,109.91614103317261,110.2161169052124,"[[-0.06382091936432568, 0.10384713991244923]]",['DejaVu Sans'],[0.9],,,,N008,digit,1,"['6', '7', '8', '9']","['1', '2', '3', '4']",1,2023.2.3,harveydigits,2.1,[],8,0.75,
0,pause,0.4,None,None,None,0,309,309,309,,,,,,,,,,,,N008,digit,1,"['6', '7', '8', '9']","['1', '2', '3', '4']",1,2023.2.3,harveydigits,2.1,[],8,0.75,
20,digit,0.3,['dot'],['big_1'],black,0,310,310,310,,,110.90023493766785,110.61615991592407,110.91618299484253,"[[0.17894471774164064, 0.0708032179972041]]",['DejaVu Sans'],[0.9],,,,N008,digit,1,"['6', '7', '8', '9']","['1', '2', '3', '4']",1,2023.2.3,harveydigits,2.1,[],8,0.75,
0,pause,0.4,None,None,None,0,311,311,311,,,,,,,,,,,,N008,digit,1,"['6', '7', '8', '9']","['1', '2', '3', '4']",1,2023.2.3,harveydigits,2.1,[],8,0.75,
1,digit,0.3,['dot'],['small_1'],black,0,312,312,312,,,111.60021495819092,111.3160948753357,111.61609292030334,"[[0.1693267115085083, -0.14417418874364965]]",['DejaVu Sans'],[0.6],,,,N008,digit,1,"['6', '7', '8', '9']","['1', '2', '3', '4']",1,2023.2.3,harveydigits,2.1,[],8,0.75,
0,pause,0.4,None,None,None,0,313,313,313,,,,,,,,,,,,N008,digit,1,"['6', '7', '8', '9']","['1', '2', '3', '4']",1,2023.2.3,harveydigits,2.1,[],8,0.75,
1,digit,0.3,['dot'],['small_1'],black,0,314,314,314,,,112.30024099349976,112.01607489585876,112.31611394882202,"[[-0.27232740859024723, 0.08196716677729554]]",['DejaVu Sans'],[0.6],,,,N008,digit,1,"['6', '7', '8', '9']","['1', '2', '3', '4']",1,2023.2.3,harveydigits,2.1,[],8,0.75,
0,pause,0.4,None,None,None,0,315,315,315,,,,,,,,,,,,N008,digit,1,"['6', '7', '8', '9']","['1', '2', '3', '4']",1,2023.2.3,harveydigits,2.1,[],8,0.75,
1,digit,0.3,['dot'],['small_1'],black,0,316,316,316,,,113.00022387504578,112.71613907814026,113.01605606079102,"[[0.30091252421725223, 0.008777328993869182]]",['DejaVu Sans'],[0.6],,,,N008,digit,1,"['6', '7', '8', '9']","['1', '2', '3', '4']",1,2023.2.3,harveydigits,2.1,[],8,0.75,
0,pause,0.4,None,None,None,0,317,317,317,,,,,,,,,,,,N008,digit,1,"['6', '7', '8', '9']","['1', '2', '3', '4']",1,2023.2.3,harveydigits,2.1,[],8,0.75,
1,digit,0.3,['dot'],['small_1'],black,0,318,318,318,,,113.70023488998413,113.41605401039124,113.71603894233704,"[[-0.29581072854024276, 0.1806146069117616]]",['DejaVu Sans'],[0.6],,,,N008,digit,1,"['6', '7', '8', '9']","['1', '2', '3', '4']",1,2023.2.3,harveydigits,2.1,[],8,0.75,
0,pause,0.4,None,None,None,0,319,319,319,,,,,,,,,,,,N008,digit,1,"['6', '7', '8', '9']","['1', '2', '3', '4']",1,2023.2.3,harveydigits,2.1,[],8,0.75,
1,digit,0.3,['dot'],['small_1'],black,0,320,320,320,,,114.40021395683289,114.11605405807495,114.41608095169067,"[[-0.15387760792444935, -0.08367530605100917]]",['DejaVu Sans'],[0.6],,,,N008,digit,1,"['6', '7', '8', '9']","['1', '2', '3', '4']",1,2023.2.3,harveydigits,2.1,[],8,0.75,
0,pause,0.4,None,None,None,0,321,321,321,,,,,,,,,,,,N008,digit,1,"['6', '7', '8', '9']","['1', '2', '3', '4']",1,2023.2.3,harveydigits,2.1,[],8,0.75,
1,digit,0.3,['dot'],['small_1'],black,0,322,322,322,,,115.10023307800293,114.81600594520569,115.11599206924438,"[[-0.061900716034833714, 0.07750057611521138]]",['DejaVu Sans'],[0.6],,,,N008,digit,1,"['6', '7', '8', '9']","['1', '2', '3', '4']",1,2023.2.3,harveydigits,2.1,[],8,0.75,
0,pause,0.4,None,None,None,0,323,323,323,,,,,,,,,,,,N008,digit,1,"['6', '7', '8', '9']","['1', '2', '3', '4']",1,2023.2.3,harveydigits,2.1,[],8,0.75,
2,digit,0.3,['dot'],['small_1'],black,0,324,324,324,,,115.80021405220032,115.51598906517029,115.81597399711609,"[[0.3189645896343427, 0.0501960386642778]]",['DejaVu Sans'],[0.6],,,,N008,digit,1,"['6', '7', '8', '9']","['1', '2', '3', '4']",1,2023.2.3,harveydigits,2.1,[],8,0.75,
0,pause,0.4,None,None,None,0,325,325,325,,,,,,,,,,,,N008,digit,1,"['6', '7', '8', '9']","['1', '2', '3', '4']",1,2023.2.3,harveydigits,2.1,[],8,0.75,
2,digit,0.3,['dot'],['small_1'],black,0,326,326,326,,,116.50022506713867,116.21603298187256,116.51599788665771,"[[0.10204174569553137, -0.15215151602317903]]",['DejaVu Sans'],[0.6],,,,N008,digit,1,"['6', '7', '8', '9']","['1', '2', '3', '4']",1,2023.2.3,harveydigits,2.1,[],8,0.75,
0,pause,0.4,None,None,None,0,327,327,327,,,,,,,,,,,,N008,digit,1,"['6', '7', '8', '9']","['1', '2', '3', '4']",1,2023.2.3,harveydigits,2.1,[],8,0.75,
2,digit,0.3,['dot'],['small_1'],black,0,328,328,328,,,117.20021390914917,116.91595888137817,117.2159469127655,"[[0.2780029546924523, -0.07274127698003496]]",['DejaVu Sans'],[0.6],,,,N008,digit,1,"['6', '7', '8', '9']","['1', '2', '3', '4']",1,2023.2.3,harveydigits,2.1,[],8,0.75,
0,pause,0.4,None,None,None,0,329,329,329,,,,,,,,,,,,N008,digit,1,"['6', '7', '8', '9']","['1', '2', '3', '4']",1,2023.2.3,harveydigits,2.1,[],8,0.75,
2,digit,0.3,['dot'],['small_1'],black,0,330,330,330,,,117.90023398399353,117.61593008041382,117.91596603393555,"[[0.1497079413280092, -0.05419662068710107]]",['DejaVu Sans'],[0.6],,,,N008,digit,1,"['6', '7', '8', '9']","['1', '2', '3', '4']",1,2023.2.3,harveydigits,2.1,[],8,0.75,
0,pause,0.4,None,None,None,0,331,331,331,,,,,,,,,,,,N008,digit,1,"['6', '7', '8', '9']","['1', '2', '3', '4']",1,2023.2.3,harveydigits,2.1,[],8,0.75,
2,digit,0.3,['dot'],['small_1'],black,0,332,332,332,,,118.60021495819092,118.31597089767456,118.61591506004333,"[[0.159366455508263, 0.09680924520776146]]",['DejaVu Sans'],[0.6],,,,N008,digit,1,"['6', '7', '8', '9']","['1', '2', '3', '4']",1,2023.2.3,harveydigits,2.1,[],8,0.75,
0,pause,0.4,None,None,None,0,333,333,333,,,,,,,,,,,,N008,digit,1,"['6', '7', '8', '9']","['1', '2', '3', '4']",1,2023.2.3,harveydigits,2.1,[],8,0.75,
2,digit,0.3,['dot'],['small_1'],black,0,334,334,334,,,119.30023407936096,119.01589703559875,119.31588196754456,"[[-0.086066484600343, 0.07477813201440753]]",['DejaVu Sans'],[0.6],,,,N008,digit,1,"['6', '7', '8', '9']","['1', '2', '3', '4']",1,2023.2.3,harveydigits,2.1,[],8,0.75,
0,pause,0.4,None,None,None,0,335,335,335,,,,,,,,,,,,N008,digit,1,"['6', '7', '8', '9']","['1', '2', '3', '4']",1,2023.2.3,harveydigits,2.1,[],8,0.75,
3,digit,0.3,['dot'],['small_1'],black,0,336,336,336,,,120.00023603439331,119.71587300300598,120.0158920288086,"[[-0.264910731447903, 0.09673202958044874]]",['DejaVu Sans'],[0.6],,,,N008,digit,1,"['6', '7', '8', '9']","['1', '2', '3', '4']",1,2023.2.3,harveydigits,2.1,[],8,0.75,
0,pause,0.4,None,None,None,0,337,337,337,,,,,,,,,,,,N008,digit,1,"['6', '7', '8', '9']","['1', '2', '3', '4']",1,2023.2.3,harveydigits,2.1,[],8,0.75,
3,digit,0.3,['dot'],['small_1'],black,0,338,338,338,,,120.7002420425415,120.4159369468689,120.71585607528687,"[[0.23863336163319415, -0.05542535109892208]]",['DejaVu Sans'],[0.6],,,,N008,digit,1,"['6', '7', '8', '9']","['1', '2', '3', '4']",1,2023.2.3,harveydigits,2.1,[],8,0.75,
0,pause,0.4,None,None,None,0,339,339,339,,,,,,,,,,,,N008,digit,1,"['6', '7', '8', '9']","['1', '2', '3', '4']",1,2023.2.3,harveydigits,2.1,[],8,0.75,
3,digit,0.3,['dot'],['small_1'],black,0,340,340,340,,,121.40022587776184,121.11584186553955,121.41583204269409,"[[-0.22434825839446187, -0.1557225862782761]]",['DejaVu Sans'],[0.6],,,,N008,digit,1,"['6', '7', '8', '9']","['1', '2', '3', '4']",1,2023.2.3,harveydigits,2.1,[],8,0.75,
0,pause,0.4,None,None,None,0,341,341,341,,,,,,,,,,,,N008,digit,1,"['6', '7', '8', '9']","['1', '2', '3', '4']",1,2023.2.3,harveydigits,2.1,[],8,0.75,
3,digit,0.3,['dot'],['small_1'],black,0,342,342,342,,,122.10021901130676,121.81585788726807,122.11578798294067,"[[0.31346015257693616, 0.14135463384200664]]",['DejaVu Sans'],[0.6],,,,N008,digit,1,"['6', '7', '8', '9']","['1', '2', '3', '4']",1,2023.2.3,harveydigits,2.1,[],8,0.75,
0,pause,0.4,None,None,None,0,343,343,343,,,,,,,,,,,,N008,digit,1,"['6', '7', '8', '9']","['1', '2', '3', '4']",1,2023.2.3,harveydigits,2.1,[],8,0.75,
3,digit,0.3,['dot'],['small_1'],black,0,344,344,344,,,122.80021500587463,122.51578998565674,122.81577801704407,"[[-0.02093647690661632, -0.17675793488945535]]",['DejaVu Sans'],[0.6],,,,N008,digit,1,"['6', '7', '8', '9']","['1', '2', '3', '4']",1,2023.2.3,harveydigits,2.1,[],8,0.75,
0,pause,0.4,None,None,None,0,345,345,345,,,,,,,,,,,,N008,digit,1,"['6', '7', '8', '9']","['1', '2', '3', '4']",1,2023.2.3,harveydigits,2.1,[],8,0.75,
3,digit,0.3,['dot'],['small_1'],black,0,346,346,346,,,123.50022387504578,123.21577286720276,123.51577687263489,"[[0.27318505239439717, -0.17981185790075285]]",['DejaVu Sans'],[0.6],,,,N008,digit,1,"['6', '7', '8', '9']","['1', '2', '3', '4']",1,2023.2.3,harveydigits,2.1,[],8,0.75,
0,pause,0.4,None,None,None,0,347,347,347,,,,,,,,,,,,N008,digit,1,"['6', '7', '8', '9']","['1', '2', '3', '4']",1,2023.2.3,harveydigits,2.1,[],8,0.75,
4,digit,0.3,['dot'],['small_1'],white,0,348,348,348,,,124.2002260684967,123.91580700874329,124.21581792831421,"[[-0.08409700142351634, -0.319819183566389]]",['DejaVu Sans'],[0.6],,,,N008,digit,1,"['6', '7', '8', '9']","['1', '2', '3', '4']",1,2023.2.3,harveydigits,2.1,[],8,0.75,
0,pause,0.4,None,None,None,0,349,349,349,,,,,,,,,,,,N008,digit,1,"['6', '7', '8', '9']","['1', '2', '3', '4']",1,2023.2.3,harveydigits,2.1,[],8,0.75,
4,digit,0.3,['dot'],['small_1'],white,0,350,350,350,,,124.90021586418152,124.61574697494507,124.91573095321655,"[[0.27290187555820733, -0.009481883700429877]]",['DejaVu Sans'],[0.6],,,,N008,digit,1,"['6', '7', '8', '9']","['1', '2', '3', '4']",1,2023.2.3,harveydigits,2.1,[],8,0.75,
0,pause,0.4,None,None,None,0,351,351,351,,,,,,,,,1,125.01576900482178,,N008,digit,1,"['6', '7', '8', '9']","['1', '2', '3', '4']",1,2023.2.3,harveydigits,2.1,[],8,0.75,
4,digit,0.3,['dot'],['small_1'],white,0,352,352,352,,,125.60023903846741,125.31572198867798,125.61570191383362,"[[-0.049650473253745, 0.12469294242296508]]",['DejaVu Sans'],[0.6],,,,N008,digit,1,"['6', '7', '8', '9']","['1', '2', '3', '4']",1,2023.2.3,harveydigits,2.1,[],8,0.75,
0,pause,0.4,None,None,None,0,353,353,353,,,,,,,,,,,,N008,digit,1,"['6', '7', '8', '9']","['1', '2', '3', '4']",1,2023.2.3,harveydigits,2.1,[],8,0.75,
4,digit,0.3,['dot'],['small_1'],white,0,354,354,354,,,126.30021905899048,126.01576900482178,126.31568789482117,"[[-0.2369817458572431, -0.21447242667725697]]",['DejaVu Sans'],[0.6],,,,N008,digit,1,"['6', '7', '8', '9']","['1', '2', '3', '4']",1,2023.2.3,harveydigits,2.1,[],8,0.75,
0,pause,0.4,None,None,None,0,355,355,355,,,,,,,,,,,,N008,digit,1,"['6', '7', '8', '9']","['1', '2', '3', '4']",1,2023.2.3,harveydigits,2.1,[],8,0.75,
4,digit,0.3,['dot'],['small_1'],white,0,356,356,356,,,127.00023007392883,126.71570801734924,127.01568603515625,"[[-0.23052828072577836, 0.15503194701199863]]",['DejaVu Sans'],[0.6],,,,N008,digit,1,"['6', '7', '8', '9']","['1', '2', '3', '4']",1,2023.2.3,harveydigits,2.1,[],8,0.75,
0,pause,0.4,None,None,None,0,357,357,357,,,,,,,,,,,,N008,digit,1,"['6', '7', '8', '9']","['1', '2', '3', '4']",1,2023.2.3,harveydigits,2.1,[],8,0.75,
4,digit,0.3,['dot'],['small_1'],white,0,358,358,358,,,127.70021510124207,127.41566801071167,127.71568202972412,"[[0.05052363126856119, -0.12009173479396609]]",['DejaVu Sans'],[0.6],,,,N008,digit,1,"['6', '7', '8', '9']","['1', '2', '3', '4']",1,2023.2.3,harveydigits,2.1,[],8,0.75,
0,pause,0.4,None,None,None,0,359,359,359,,,,,,,,,,,,N008,digit,1,"['6', '7', '8', '9']","['1', '2', '3', '4']",1,2023.2.3,harveydigits,2.1,[],8,0.75,
5,digit,0.3,['dot'],['small_1'],black,0,360,360,360,,,128.40024495124817,128.1156668663025,128.41564202308655,"[[-0.16818309353969282, 0.008945576185174775]]",['DejaVu Sans'],[0.6],,,,N008,digit,1,"['6', '7', '8', '9']","['1', '2', '3', '4']",1,2023.2.3,harveydigits,2.1,[],8,0.75,
0,pause,0.4,None,None,None,0,361,361,361,,,,,,,,,,,,N008,digit,1,"['6', '7', '8', '9']","['1', '2', '3', '4']",1,2023.2.3,harveydigits,2.1,[],8,0.75,
5,digit,0.3,['dot'],['small_1'],black,0,362,362,362,,,129.10023093223572,128.8156340122223,129.1156289577484,"[[0.21535462890071855, 0.06503677276846487]]",['DejaVu Sans'],[0.6],,,,N008,digit,1,"['6', '7', '8', '9']","['1', '2', '3', '4']",1,2023.2.3,harveydigits,2.1,[],8,0.75,
0,pause,0.4,None,None,None,0,363,363,363,,,,,,,,,,,,N008,digit,1,"['6', '7', '8', '9']","['1', '2', '3', '4']",1,2023.2.3,harveydigits,2.1,[],8,0.75,
5,digit,0.3,['dot'],['small_1'],black,0,364,364,364,,,129.8002278804779,129.51561403274536,129.81565499305725,"[[-0.09857738058239152, 0.001400891663452919]]",['DejaVu Sans'],[0.6],,,,N008,digit,1,"['6', '7', '8', '9']","['1', '2', '3', '4']",1,2023.2.3,harveydigits,2.1,[],8,0.75,
0,pause,0.4,None,None,None,0,365,365,365,,,,,,,,,,,,N008,digit,1,"['6', '7', '8', '9']","['1', '2', '3', '4']",1,2023.2.3,harveydigits,2.1,[],8,0.75,
5,digit,0.3,['dot'],['small_1'],black,0,366,366,366,,,130.5002360343933,130.21559309959412,130.5155599117279,"[[-0.09633300672084388, -0.01253318654450708]]",['DejaVu Sans'],[0.6],,,,N008,digit,1,"['6', '7', '8', '9']","['1', '2', '3', '4']",1,2023.2.3,harveydigits,2.1,[],8,0.75,
0,pause,0.4,None,None,None,0,367,367,367,,,,,,,,,,,,N008,digit,1,"['6', '7', '8', '9']","['1', '2', '3', '4']",1,2023.2.3,harveydigits,2.1,[],8,0.75,
5,digit,0.3,['dot'],['small_1'],black,0,368,368,368,,,131.20021986961365,130.91557002067566,131.21554589271545,"[[-0.09448050931521634, -0.09216344058293455]]",['DejaVu Sans'],[0.6],,,,N008,digit,1,"['6', '7', '8', '9']","['1', '2', '3', '4']",1,2023.2.3,harveydigits,2.1,[],8,0.75,
0,pause,0.4,None,None,None,0,369,369,369,,,,,,,,,,,,N008,digit,1,"['6', '7', '8', '9']","['1', '2', '3', '4']",1,2023.2.3,harveydigits,2.1,[],8,0.75,
5,digit,0.3,['dot'],['small_1'],black,0,370,370,370,,,131.9002230167389,131.61552906036377,131.91551899909973,"[[0.2753917165684461, -0.15176045414774553]]",['DejaVu Sans'],[0.6],,,,N008,digit,1,"['6', '7', '8', '9']","['1', '2', '3', '4']",1,2023.2.3,harveydigits,2.1,[],8,0.75,
0,pause,0.4,None,None,None,0,371,371,371,,,,,,,,,,,,N008,digit,1,"['6', '7', '8', '9']","['1', '2', '3', '4']",1,2023.2.3,harveydigits,2.1,[],8,0.75,
6,digit,0.3,['dot'],['small_1'],black,0,372,372,372,,,132.60023188591003,132.31551790237427,132.6155059337616,"[[-0.012271786843150223, 0.05213452935780932]]",['DejaVu Sans'],[0.6],,,,N008,digit,1,"['6', '7', '8', '9']","['1', '2', '3', '4']",1,2023.2.3,harveydigits,2.1,[],8,0.75,
0,pause,0.4,None,None,None,0,373,373,373,,,,,,,,,,,,N008,digit,1,"['6', '7', '8', '9']","['1', '2', '3', '4']",1,2023.2.3,harveydigits,2.1,[],8,0.75,
6,digit,0.3,['dot'],['small_1'],black,0,374,374,374,,,133.30024194717407,133.01550698280334,133.31548690795898,"[[-0.21564085709546524, 0.0848060092661328]]",['DejaVu Sans'],[0.6],,,,N008,digit,1,"['6', '7', '8', '9']","['1', '2', '3', '4']",1,2023.2.3,harveydigits,2.1,[],8,0.75,
0,pause,0.4,None,None,None,0,375,375,375,,,,,,,,,,,,N008,digit,1,"['6', '7', '8', '9']","['1', '2', '3', '4']",1,2023.2.3,harveydigits,2.1,[],8,0.75,
6,digit,0.3,['dot'],['small_1'],black,0,376,376,376,,,134.00023198127747,133.71548008918762,134.01546788215637,"[[-0.14017810899333757, 0.22994362247104316]]",['DejaVu Sans'],[0.6],,,,N008,digit,1,"['6', '7', '8', '9']","['1', '2', '3', '4']",1,2023.2.3,harveydigits,2.1,[],8,0.75,
0,pause,0.4,None,None,None,0,377,377,377,,,,,,,,,,,,N008,digit,1,"['6', '7', '8', '9']","['1', '2', '3', '4']",1,2023.2.3,harveydigits,2.1,[],8,0.75,
6,digit,0.3,['dot'],['small_1'],black,0,378,378,378,,,134.70023608207703,134.4154589176178,134.71544694900513,"[[0.13807860479758627, 0.25071513366584164]]",['DejaVu Sans'],[0.6],,,,N008,digit,1,"['6', '7', '8', '9']","['1', '2', '3', '4']",1,2023.2.3,harveydigits,2.1,[],8,0.75,
0,pause,0.4,None,None,None,0,379,379,379,,,,,,,,,,,,N008,digit,1,"['6', '7', '8', '9']","['1', '2', '3', '4']",1,2023.2.3,harveydigits,2.1,[],8,0.75,
6,digit,0.3,['dot'],['small_1'],black,0,380,380,380,,,135.40022802352905,135.1154489517212,135.41543292999268,"[[-0.344197869327077, -0.061144543073928734]]",['DejaVu Sans'],[0.6],,,,N008,digit,1,"['6', '7', '8', '9']","['1', '2', '3', '4']",1,2023.2.3,harveydigits,2.1,[],8,0.75,
0,pause,0.4,None,None,None,0,381,381,381,,,,,,,,,,,,N008,digit,1,"['6', '7', '8', '9']","['1', '2', '3', '4']",1,2023.2.3,harveydigits,2.1,[],8,0.75,
6,digit,0.3,['dot'],['small_1'],black,0,382,382,382,,,136.10022497177124,135.81542897224426,136.11540508270264,"[[-0.16153388618738795, 0.1605416185542034]]",['DejaVu Sans'],[0.6],,,,N008,digit,1,"['6', '7', '8', '9']","['1', '2', '3', '4']",1,2023.2.3,harveydigits,2.1,[],8,0.75,
0,pause,0.4,None,None,None,0,383,383,383,,,,,,,,,,,,N008,digit,1,"['6', '7', '8', '9']","['1', '2', '3', '4']",1,2023.2.3,harveydigits,2.1,[],8,0.75,
7,digit,0.3,['dot'],['small_1'],black,0,384,384,384,,,136.8002200126648,136.5154149532318,136.8154010772705,"[[-0.25636418490045293, -0.07230433091339705]]",['DejaVu Sans'],[0.6],,,,N008,digit,1,"['6', '7', '8', '9']","['1', '2', '3', '4']",1,2023.2.3,harveydigits,2.1,[],8,0.75,
0,pause,0.4,None,None,None,0,385,385,385,,,,,,,,,,,,N008,digit,1,"['6', '7', '8', '9']","['1', '2', '3', '4']",1,2023.2.3,harveydigits,2.1,[],8,0.75,
7,digit,0.3,['dot'],['small_1'],black,0,386,386,386,,,137.50024509429932,137.2154290676117,137.5153820514679,"[[-0.1844164707399585, -0.10542027861938635]]",['DejaVu Sans'],[0.6],,,,N008,digit,1,"['6', '7', '8', '9']","['1', '2', '3', '4']",1,2023.2.3,harveydigits,2.1,[],8,0.75,
0,pause,0.4,None,None,None,0,387,387,387,,,,,,,,,,,,N008,digit,1,"['6', '7', '8', '9']","['1', '2', '3', '4']",1,2023.2.3,harveydigits,2.1,[],8,0.75,
7,digit,0.3,['dot'],['small_1'],black,0,388,388,388,,,138.20021891593933,137.91536808013916,138.21536588668823,"[[0.13772885548227431, 0.08262600037656098]]",['DejaVu Sans'],[0.6],,,,N008,digit,1,"['6', '7', '8', '9']","['1', '2', '3', '4']",1,2023.2.3,harveydigits,2.1,[],8,0.75,
0,pause,0.4,None,None,None,0,389,389,389,,,,,,,,,,,,N008,digit,1,"['6', '7', '8', '9']","['1', '2', '3', '4']",1,2023.2.3,harveydigits,2.1,[],8,0.75,
7,digit,0.3,['dot'],['small_1'],black,0,390,390,390,,,138.90022706985474,138.6153519153595,138.91534399986267,"[[-0.2352966972735422, -0.16287993527881583]]",['DejaVu Sans'],[0.6],,,,N008,digit,1,"['6', '7', '8', '9']","['1', '2', '3', '4']",1,2023.2.3,harveydigits,2.1,[],8,0.75,
0,pause,0.4,None,None,None,0,391,391,391,,,,,,,,,,,,N008,digit,1,"['6', '7', '8', '9']","['1', '2', '3', '4']",1,2023.2.3,harveydigits,2.1,[],8,0.75,
7,digit,0.3,['dot'],['small_1'],black,0,392,392,392,,,139.60024404525757,139.3153359889984,139.61539697647095,"[[0.13327435693789713, -0.1250037238129636]]",['DejaVu Sans'],[0.6],,,,N008,digit,1,"['6', '7', '8', '9']","['1', '2', '3', '4']",1,2023.2.3,harveydigits,2.1,[],8,0.75,
0,pause,0.4,None,None,None,0,393,393,393,,,,,,,,,,,,N008,digit,1,"['6', '7', '8', '9']","['1', '2', '3', '4']",1,2023.2.3,harveydigits,2.1,[],8,0.75,
7,digit,0.3,['dot'],['small_1'],black,0,394,394,394,,,140.30024409294128,140.0154049396515,140.31531691551208,"[[0.1701331284336164, -0.15279221432464832]]",['DejaVu Sans'],[0.6],,,,N008,digit,1,"['6', '7', '8', '9']","['1', '2', '3', '4']",1,2023.2.3,harveydigits,2.1,[],8,0.75,
0,pause,0.4,None,None,None,0,395,395,395,,,,,,,,,,,,N008,digit,1,"['6', '7', '8', '9']","['1', '2', '3', '4']",1,2023.2.3,harveydigits,2.1,[],8,0.75,
8,digit,0.3,['dot'],['small_1'],black,0,396,396,396,,,141.0002429485321,140.7153069972992,141.01528787612915,"[[-0.22338146732036693, 0.0744123698440784]]",['DejaVu Sans'],[0.6],,,,N008,digit,1,"['6', '7', '8', '9']","['1', '2', '3', '4']",1,2023.2.3,harveydigits,2.1,[],8,0.75,
0,pause,0.4,None,None,None,0,397,397,397,,,,,,,,,,,,N008,digit,1,"['6', '7', '8', '9']","['1', '2', '3', '4']",1,2023.2.3,harveydigits,2.1,[],8,0.75,
8,digit,0.3,['dot'],['small_1'],black,0,398,398,398,,,141.7002420425415,141.4152810573578,141.71533393859863,"[[0.10644314100009455, 0.11722795114480139]]",['DejaVu Sans'],[0.6],,,,N008,digit,1,"['6', '7', '8', '9']","['1', '2', '3', '4']",1,2023.2.3,harveydigits,2.1,[],8,0.75,
0,pause,0.4,None,None,None,0,399,399,399,,,,,,,,,,,,N008,digit,1,"['6', '7', '8', '9']","['1', '2', '3', '4']",1,2023.2.3,harveydigits,2.1,[],8,0.75,
8,digit,0.3,['dot'],['small_1'],black,0,400,400,400,,,142.40024495124817,142.11527609825134,142.41526198387146,"[[-0.12320387986488279, -0.05809586888535978]]",['DejaVu Sans'],[0.6],,,,N008,digit,1,"['6', '7', '8', '9']","['1', '2', '3', '4']",1,2023.2.3,harveydigits,2.1,[],8,0.75,
0,pause,0.4,None,None,None,0,401,401,401,,,,,,,,,,,,N008,digit,1,"['6', '7', '8', '9']","['1', '2', '3', '4']",1,2023.2.3,harveydigits,2.1,[],8,0.75,
8,digit,0.3,['dot'],['small_1'],black,0,402,402,402,,,143.1002459526062,142.81524801254272,143.1152379512787,"[[-0.013914737983837688, -0.024740141487804623]]",['DejaVu Sans'],[0.6],,,,N008,digit,1,"['6', '7', '8', '9']","['1', '2', '3', '4']",1,2023.2.3,harveydigits,2.1,[],8,0.75,
0,pause,0.4,None,None,None,0,403,403,403,,,,,,,,,,,,N008,digit,1,"['6', '7', '8', '9']","['1', '2', '3', '4']",1,2023.2.3,harveydigits,2.1,[],8,0.75,
8,digit,0.3,['dot'],['small_1'],black,0,404,404,404,,,143.80021786689758,143.51527500152588,143.815279006958,"[[-0.05735965999745207, -0.336943552702023]]",['DejaVu Sans'],[0.6],,,,N008,digit,1,"['6', '7', '8', '9']","['1', '2', '3', '4']",1,2023.2.3,harveydigits,2.1,[],8,0.75,
0,pause,0.4,None,None,None,0,405,405,405,,,,,,,,,,,,N008,digit,1,"['6', '7', '8', '9']","['1', '2', '3', '4']",1,2023.2.3,harveydigits,2.1,[],8,0.75,
8,digit,0.3,['dot'],['small_1'],black,0,406,406,406,,,144.50024604797363,144.2152168750763,144.515202999115,"[[-0.22074536322323327, 0.16405310252395122]]",['DejaVu Sans'],[0.6],,,,N008,digit,1,"['6', '7', '8', '9']","['1', '2', '3', '4']",1,2023.2.3,harveydigits,2.1,[],8,0.75,
0,pause,0.4,None,None,None,0,407,407,407,,,,,,,,,,,,N008,digit,1,"['6', '7', '8', '9']","['1', '2', '3', '4']",1,2023.2.3,harveydigits,2.1,[],8,0.75,
9,digit,0.3,['dot'],['small_1'],white,0,408,408,408,,,145.2002420425415,144.91519808769226,145.21517300605774,"[[0.2878305236190313, -0.07108636785694175]]",['DejaVu Sans'],[0.6],,,,N008,digit,1,"['6', '7', '8', '9']","['1', '2', '3', '4']",1,2023.2.3,harveydigits,2.1,[],8,0.75,
0,pause,0.4,None,None,None,0,409,409,409,,,,,,,,,,,,N008,digit,1,"['6', '7', '8', '9']","['1', '2', '3', '4']",1,2023.2.3,harveydigits,2.1,[],8,0.75,
9,digit,0.3,['dot'],['small_1'],white,0,410,410,410,,,145.9002320766449,145.6152799129486,145.91523599624634,"[[0.2949099295656268, -0.12130818451513481]]",['DejaVu Sans'],[0.6],,,,N008,digit,1,"['6', '7', '8', '9']","['1', '2', '3', '4']",1,2023.2.3,harveydigits,2.1,[],8,0.75,
0,pause,0.4,None,None,None,0,411,411,411,,,,,,,,,,,,N008,digit,1,"['6', '7', '8', '9']","['1', '2', '3', '4']",1,2023.2.3,harveydigits,2.1,[],8,0.75,
9,digit,0.3,['dot'],['small_1'],white,0,412,412,412,,,146.6002640724182,146.31516790390015,146.61514592170715,"[[-0.19110023906512397, -0.015261874168692013]]",['DejaVu Sans'],[0.6],left,146.2951958179474,odd,N008,digit,1,"['6', '7', '8', '9']","['1', '2', '3', '4']",1,2023.2.3,harveydigits,2.1,[],8,0.75,
0,pause,0.4,None,None,None,0,413,413,413,,,,,,,,,,,,N008,digit,1,"['6', '7', '8', '9']","['1', '2', '3', '4']",1,2023.2.3,harveydigits,2.1,[],8,0.75,
9,digit,0.3,['dot'],['small_1'],white,0,414,414,414,,,147.30023002624512,147.01514601707458,147.31512308120728,"[[0.2336744825724687, -0.1694256740623396]]",['DejaVu Sans'],[0.6],,,,N008,digit,1,"['6', '7', '8', '9']","['1', '2', '3', '4']",1,2023.2.3,harveydigits,2.1,[],8,0.75,
0,pause,0.4,None,None,None,0,415,415,415,,,,,,,,,,,,N008,digit,1,"['6', '7', '8', '9']","['1', '2', '3', '4']",1,2023.2.3,harveydigits,2.1,[],8,0.75,
9,digit,0.3,['dot'],['small_1'],white,0,416,416,416,,,148.00024390220642,147.71516394615173,148.01516389846802,"[[0.10485744932291824, -0.03188720347187285]]",['DejaVu Sans'],[0.6],,,,N008,digit,1,"['6', '7', '8', '9']","['1', '2', '3', '4']",1,2023.2.3,harveydigits,2.1,[],8,0.75,
0,pause,0.4,None,None,None,0,417,417,417,,,,,,,,,,,,N008,digit,1,"['6', '7', '8', '9']","['1', '2', '3', '4']",1,2023.2.3,harveydigits,2.1,[],8,0.75,
9,digit,0.3,['dot'],['small_1'],white,0,418,418,418,,,148.7002398967743,148.41511297225952,148.71509408950806,"[[0.09242731542905663, 0.17563558674490426]]",['DejaVu Sans'],[0.6],,,,N008,digit,1,"['6', '7', '8', '9']","['1', '2', '3', '4']",1,2023.2.3,harveydigits,2.1,[],8,0.75,
0,pause,0.4,None,None,None,0,419,419,419,,,,,,,,,,,,N008,digit,1,"['6', '7', '8', '9']","['1', '2', '3', '4']",1,2023.2.3,harveydigits,2.1,[],8,0.75,
20,digit,0.3,['dot'],['small_1'],black,0,420,420,420,,,149.40024209022522,149.11507606506348,149.4150629043579,"[[0.29959214675374746, 0.14746214251081682]]",['DejaVu Sans'],[0.6],,,,N008,digit,1,"['6', '7', '8', '9']","['1', '2', '3', '4']",1,2023.2.3,harveydigits,2.1,[],8,0.75,
0,pause,0.4,None,None,None,0,421,421,421,,,,,,,,,,,,N008,digit,1,"['6', '7', '8', '9']","['1', '2', '3', '4']",1,2023.2.3,harveydigits,2.1,[],8,0.75,
20,digit,0.3,['dot'],['small_1'],black,0,422,422,422,,,150.10023188591003,149.81513810157776,150.11505699157715,"[[-0.3343768970509775, 0.040516118359225875]]",['DejaVu Sans'],[0.6],,,,N008,digit,1,"['6', '7', '8', '9']","['1', '2', '3', '4']",1,2023.2.3,harveydigits,2.1,[],8,0.75,
0,pause,0.4,None,None,None,0,423,423,423,,,,,,,,,,,,N008,digit,1,"['6', '7', '8', '9']","['1', '2', '3', '4']",1,2023.2.3,harveydigits,2.1,[],8,0.75,
20,digit,0.3,['dot'],['small_1'],black,0,424,424,424,,,150.80023002624512,150.51505494117737,150.81504201889038,"[[-0.017835346935347385, 0.30089431197313893]]",['DejaVu Sans'],[0.6],,,,N008,digit,1,"['6', '7', '8', '9']","['1', '2', '3', '4']",1,2023.2.3,harveydigits,2.1,[],8,0.75,
0,pause,0.4,None,None,None,0,425,425,425,,,,,,,,,,,,N008,digit,1,"['6', '7', '8', '9']","['1', '2', '3', '4']",1,2023.2.3,harveydigits,2.1,[],8,0.75,
20,digit,0.3,['dot'],['small_1'],black,0,426,426,426,,,151.50023007392883,151.21507287025452,151.51504397392273,"[[0.03990688494278266, -0.3234086419558996]]",['DejaVu Sans'],[0.6],,,,N008,digit,1,"['6', '7', '8', '9']","['1', '2', '3', '4']",1,2023.2.3,harveydigits,2.1,[],8,0.75,
0,pause,0.4,None,None,None,0,427,427,427,,,,,,,,,,,,N008,digit,1,"['6', '7', '8', '9']","['1', '2', '3', '4']",1,2023.2.3,harveydigits,2.1,[],8,0.75,
20,digit,0.3,['dot'],['small_1'],black,0,428,428,428,,,152.20022797584534,151.9150800704956,152.21499609947205,"[[-0.1002627025261015, -0.190666882019057]]",['DejaVu Sans'],[0.6],,,,N008,digit,1,"['6', '7', '8', '9']","['1', '2', '3', '4']",1,2023.2.3,harveydigits,2.1,[],8,0.75,
0,pause,0.4,None,None,None,0,429,429,429,,,,,,,,,,,,N008,digit,1,"['6', '7', '8', '9']","['1', '2', '3', '4']",1,2023.2.3,harveydigits,2.1,[],8,0.75,
20,digit,0.3,['dot'],['small_1'],black,0,430,430,430,,,152.90023803710938,152.6149890422821,152.91497588157654,"[[0.22866698070450298, -0.12925114001709861]]",['DejaVu Sans'],[0.6],,,,N008,digit,1,"['6', '7', '8', '9']","['1', '2', '3', '4']",1,2023.2.3,harveydigits,2.1,[],8,0.75,
0,pause,0.4,None,None,None,0,431,431,431,,,,,,,,,,,,N008,digit,1,"['6', '7', '8', '9']","['1', '2', '3', '4']",1,2023.2.3,harveydigits,2.1,[],8,0.75,
20,digit,0.3,['dot'],['small_1'],black,0,432,432,432,,,153.60024189949036,153.31495904922485,153.61500787734985,"[[0.1935686760324603, -0.051173803510304594]]",['DejaVu Sans'],[0.6],,,,N008,digit,1,"['6', '7', '8', '9']","['1', '2', '3', '4']",1,2023.2.3,harveydigits,2.1,[],8,0.75,
0,pause,0.4,None,None,None,0,433,433,433,,,,,,,,,,,,N008,digit,1,"['6', '7', '8', '9']","['1', '2', '3', '4']",1,2023.2.3,harveydigits,2.1,[],8,0.75,
20,digit,0.3,['dot'],['small_1'],black,0,434,434,434,,,154.30023789405823,154.01497101783752,154.3149449825287,"[[-0.23588133279492818, 0.17545798557865383]]",['DejaVu Sans'],[0.6],,,,N008,digit,1,"['6', '7', '8', '9']","['1', '2', '3', '4']",1,2023.2.3,harveydigits,2.1,[],8,0.75,
0,pause,0.4,None,None,None,0,435,435,435,,,,,,,,,,,,N008,digit,1,"['6', '7', '8', '9']","['1', '2', '3', '4']",1,2023.2.3,harveydigits,2.1,[],8,0.75,
20,digit,0.3,['dot'],['small_1'],black,0,436,436,436,,,155.000235080719,154.7149429321289,155.01491689682007,"[[0.15734733708656334, -0.024475694230294276]]",['DejaVu Sans'],[0.6],,,,N008,digit,1,"['6', '7', '8', '9']","['1', '2', '3', '4']",1,2023.2.3,harveydigits,2.1,[],8,0.75,
0,pause,0.4,None,None,None,0,437,437,437,,,,,,,,,,,,N008,digit,1,"['6', '7', '8', '9']","['1', '2', '3', '4']",1,2023.2.3,harveydigits,2.1,[],8,0.75,
20,digit,0.3,['dot'],['small_1'],black,0,438,438,438,,,155.70024609565735,155.41490197181702,155.71497106552124,"[[0.23060947424964073, 0.20734853076926602]]",['DejaVu Sans'],[0.6],,,,N008,digit,1,"['6', '7', '8', '9']","['1', '2', '3', '4']",1,2023.2.3,harveydigits,2.1,[],8,0.75,
0,pause,0.4,None,None,None,0,439,439,439,,,,,,,,,,,,N008,digit,1,"['6', '7', '8', '9']","['1', '2', '3', '4']",1,2023.2.3,harveydigits,2.1,[],8,0.75,
20,digit,0.3,['dot'],['small_1'],black,0,440,440,440,,,156.40024399757385,156.1149480342865,156.41487908363342,"[[-0.24518479085225592, -0.00534910845404471]]",['DejaVu Sans'],[0.6],,,,N008,digit,1,"['6', '7', '8', '9']","['1', '2', '3', '4']",1,2023.2.3,harveydigits,2.1,[],8,0.75,
0,pause,0.4,None,None,None,0,441,441,441,,,,,,,,,,,,N008,digit,1,"['6', '7', '8', '9']","['1', '2', '3', '4']",1,2023.2.3,harveydigits,2.1,[],8,0.75,
20,digit,0.3,['dot'],['small_1'],black,0,442,442,442,,,157.10022497177124,156.8148889541626,157.11487197875977,"[[0.30977141719216517, 0.14647784085702528]]",['DejaVu Sans'],[0.6],,,,N008,digit,1,"['6', '7', '8', '9']","['1', '2', '3', '4']",1,2023.2.3,harveydigits,2.1,[],8,0.75,
0,pause,0.4,None,None,None,0,443,443,443,,,,,,,,,,,,N008,digit,1,"['6', '7', '8', '9']","['1', '2', '3', '4']",1,2023.2.3,harveydigits,2.1,[],8,0.75,
20,digit,0.3,['dot'],['small_1'],black,0,444,444,444,,,157.80025005340576,157.51486802101135,157.81490302085876,"[[-0.3068914516511693, -0.1444446041988562]]",['DejaVu Sans'],[0.6],,,,N008,digit,1,"['6', '7', '8', '9']","['1', '2', '3', '4']",1,2023.2.3,harveydigits,2.1,[],8,0.75,
0,pause,0.4,None,None,None,0,445,445,445,,,,,,,,,,,,N008,digit,1,"['6', '7', '8', '9']","['1', '2', '3', '4']",1,2023.2.3,harveydigits,2.1,[],8,0.75,
20,digit,0.3,['dot'],['small_1'],black,0,446,446,446,,,158.50023794174194,158.21493697166443,158.51485395431519,"[[0.10271169372539046, 0.22307487830183587]]",['DejaVu Sans'],[0.6],,,,N008,digit,1,"['6', '7', '8', '9']","['1', '2', '3', '4']",1,2023.2.3,harveydigits,2.1,[],8,0.75,
0,pause,0.4,None,None,None,0,447,447,447,,,,,,,,,,,,N008,digit,1,"['6', '7', '8', '9']","['1', '2', '3', '4']",1,2023.2.3,harveydigits,2.1,[],8,0.75,
20,digit,0.3,['dot'],['small_1'],black,0,448,448,448,,,159.20024490356445,158.91484594345093,159.2148540019989,"[[0.1863887120815796, 0.2607698291476431]]",['DejaVu Sans'],[0.6],,,,N008,digit,1,"['6', '7', '8', '9']","['1', '2', '3', '4']",1,2023.2.3,harveydigits,2.1,[],8,0.75,
0,pause,0.4,None,None,None,0,449,449,449,,,,,,,,,,,,N008,digit,1,"['6', '7', '8', '9']","['1', '2', '3', '4']",1,2023.2.3,harveydigits,2.1,[],8,0.75,
20,digit,0.3,['dot'],['small_1'],black,0,450,450,450,,,159.90024399757385,159.61481499671936,159.91491389274597,"[[-0.263742638967035, 0.057193030841212245]]",['DejaVu Sans'],[0.6],,,,N008,digit,1,"['6', '7', '8', '9']","['1', '2', '3', '4']",1,2023.2.3,harveydigits,2.1,[],8,0.75,
0,pause,0.4,None,None,None,0,451,451,451,,,,,,,,,,,,N008,digit,1,"['6', '7', '8', '9']","['1', '2', '3', '4']",1,2023.2.3,harveydigits,2.1,[],8,0.75,
20,digit,0.3,['dot'],['small_1'],black,0,452,452,452,,,160.60024905204773,160.31486701965332,160.6147758960724,"[[0.2330914272381982, 0.22927667063487595]]",['DejaVu Sans'],[0.6],,,,N008,digit,1,"['6', '7', '8', '9']","['1', '2', '3', '4']",1,2023.2.3,harveydigits,2.1,[],8,0.75,
0,pause,0.4,None,None,None,0,453,453,453,,,,,,,,,,,,N008,digit,1,"['6', '7', '8', '9']","['1', '2', '3', '4']",1,2023.2.3,harveydigits,2.1,[],8,0.75,
20,digit,0.3,['dot'],['small_1'],black,0,454,454,454,,,161.3002450466156,161.0147430896759,161.31475186347961,"[[0.13555675737700773, -0.0443182522776403]]",['DejaVu Sans'],[0.6],,,,N008,digit,1,"['6', '7', '8', '9']","['1', '2', '3', '4']",1,2023.2.3,harveydigits,2.1,[],8,0.75,
0,pause,0.4,None,None,None,0,455,455,455,,,,,,,,,,,,N008,digit,1,"['6', '7', '8', '9']","['1', '2', '3', '4']",1,2023.2.3,harveydigits,2.1,[],8,0.75,
20,digit,0.3,['dot'],['small_1'],black,0,456,456,456,,,162.00022888183594,161.71477794647217,162.01471209526062,"[[0.1675502776627843, 0.050944462435670745]]",['DejaVu Sans'],[0.6],,,,N008,digit,1,"['6', '7', '8', '9']","['1', '2', '3', '4']",1,2023.2.3,harveydigits,2.1,[],8,0.75,
0,pause,0.4,None,None,None,0,457,457,457,,,,,,,,,,,,N008,digit,1,"['6', '7', '8', '9']","['1', '2', '3', '4']",1,2023.2.3,harveydigits,2.1,[],8,0.75,
20,digit,0.3,['dot'],['small_1'],black,0,458,458,458,,,162.70022988319397,162.41471409797668,162.71470594406128,"[[0.1703702698195, 0.16782121761308588]]",['DejaVu Sans'],[0.6],,,,N008,digit,1,"['6', '7', '8', '9']","['1', '2', '3', '4']",1,2023.2.3,harveydigits,2.1,[],8,0.75,
0,pause,0.4,None,None,None,0,459,459,459,,,,,,,,,,,,N008,digit,1,"['6', '7', '8', '9']","['1', '2', '3', '4']",1,2023.2.3,harveydigits,2.1,[],8,0.75,
20,digit,0.3,['dot'],['small_1'],black,0,460,460,460,,,163.4002330303192,163.11468887329102,163.4146649837494,"[[-0.10868702860607915, 0.11082124234843765]]",['DejaVu Sans'],[0.6],,,,N008,digit,1,"['6', '7', '8', '9']","['1', '2', '3', '4']",1,2023.2.3,harveydigits,2.1,[],8,0.75,
0,pause,0.4,None,None,None,0,461,461,461,,,,,,,,,,,,N008,digit,1,"['6', '7', '8', '9']","['1', '2', '3', '4']",1,2023.2.3,harveydigits,2.1,[],8,0.75,
20,digit,0.3,['dot'],['small_1'],black,0,462,462,462,,,164.10024690628052,163.81467700004578,164.11466193199158,"[[0.12436087160060438, 0.1966372270911118]]",['DejaVu Sans'],[0.6],,,,N008,digit,1,"['6', '7', '8', '9']","['1', '2', '3', '4']",1,2023.2.3,harveydigits,2.1,[],8,0.75,
0,pause,0.4,None,None,None,0,463,463,463,,,,,,,,,,,,N008,digit,1,"['6', '7', '8', '9']","['1', '2', '3', '4']",1,2023.2.3,harveydigits,2.1,[],8,0.75,
20,digit,0.3,['dot'],['small_1'],black,0,464,464,464,,,164.80025386810303,164.5146770477295,164.81466388702393,"[[0.010139664439375029, -0.27306133582808095]]",['DejaVu Sans'],[0.6],,,,N008,digit,1,"['6', '7', '8', '9']","['1', '2', '3', '4']",1,2023.2.3,harveydigits,2.1,[],8,0.75,
