num,mod,duration,shape,ll_cond,colors,.thisRepN,.thisTrialN,.thisN,.thisIndex,thisRow.t,notes,t_start,t_stop,shapes,size,pos,cond,color,match,answer_truth,RT,participant,session,starting_run,left button (match/odd),right button (non-match/even),samples_per_block,_thisDir,out_path,psychopy version,expName,win,MR_settings,routine_timer,background,offset,audio,number_runs,radius,fix_cross,defaultKeyboard,
1,dot,0.3,['dot'],['density'],black,0,0,0,0,,,2.1085238456726074,2.4084479808807373,dot,[0.06],"[0.39967490259390637, -0.2576437183111264]",density,black,,,,N004,visual,1,"['1', '2']","['3', '4']",1,/NOBACKUP2/USER/Jeong/experiment2,/NOBACKUP2/USER/Jeong/experiment2/logfiles/visual/N004_d-20240925,2023.2.3,harveyvisual,"Window(allowGUI=False, allowStencil=False, autoLog=True, backendConf=UNKNOWN, backgroundFit='cover', backgroundImage=None, bitsMode=UNKNOWN, blendMode='avg', bpc=(8, 8, 8), color=array([-1, -1, -1]), colorSpace='rgb', depthBits=8, fullscr=<method-wrapper '__getattribute__' of attributeSetter object at 0x7f693362d610>, gamma=None, gammaErrorPolicy='raise', lms=UNKNOWN, monitor=<psychopy.monitors.calibTools.Monitor object at 0x7f692c723bb0>, multiSample=False, name='stim_window', numSamples=2, pos=[0.0, 0.0], screen=0, size=array([1920, 1080]), stencilBits=0, stereo=False, title='PsychoPy', units='deg', useFBO=True, useRetina=False, viewOri=0.0, viewPos=None, viewScale=None, waitBlanking=True, winType='pyglet')","{'TR': 2.1, 'volumes': 5, 'sync': '5', 'skip': 0, 'sound': False}",<psychopy.clock.CountdownTimer object at 0x7f692c700550>,"Rect(__class__=<class 'psychopy.visual.rect.Rect'>, anchor=('center', 'center'), autoDraw=True, autoLog=True, closeShape=True, color=method-wrapper(...), colorSpace='rgb', contrast=None, depth=0, draggable=False, fillColor=array([0.00392157, 0.00392157, 0.00392157]), fillColorSpace='rgb', fillRGB=array([0.00392157, 0.00392157, 0.00392157]), interpolate=True, lineColor=array([0., 0., 0.]), lineColorSpace='rgb', lineRGB=array([0, 0, 0]), lineWidth=1.5, name='unnamed Rect', opacity=0.5, ori=0.0, pos=array([0., 0.]), size=array([2., 2.]), units='norm', vertices=ndarray(...), win=Window(...))",2.1,[],8,0.75,"[<psychopy.visual.line.Line object at 0x7f6929649df0>, <psychopy.visual.line.Line object at 0x7f692964f130>]",<psychopy.hardware.keyboard.Keyboard object at 0x7f690f4db880>,
0,pause,0.4,None,None,None,0,1,1,1,,,,,,,,,,,,,N004,visual,1,"['1', '2']","['3', '4']",1,/NOBACKUP2/USER/Jeong/experiment2,/NOBACKUP2/USER/Jeong/experiment2/logfiles/visual/N004_d-20240925,2023.2.3,harveyvisual,"Window(allowGUI=False, allowStencil=False, autoLog=True, backendConf=UNKNOWN, backgroundFit='cover', backgroundImage=None, bitsMode=UNKNOWN, blendMode='avg', bpc=(8, 8, 8), color=array([-1, -1, -1]), colorSpace='rgb', depthBits=8, fullscr=<method-wrapper '__getattribute__' of attributeSetter object at 0x7f693362d610>, gamma=None, gammaErrorPolicy='raise', lms=UNKNOWN, monitor=<psychopy.monitors.calibTools.Monitor object at 0x7f692c723bb0>, multiSample=False, name='stim_window', numSamples=2, pos=[0.0, 0.0], screen=0, size=array([1920, 1080]), stencilBits=0, stereo=False, title='PsychoPy', units='deg', useFBO=True, useRetina=False, viewOri=0.0, viewPos=None, viewScale=None, waitBlanking=True, winType='pyglet')","{'TR': 2.1, 'volumes': 5, 'sync': '5', 'skip': 0, 'sound': False}",<psychopy.clock.CountdownTimer object at 0x7f692c700550>,"Rect(__class__=<class 'psychopy.visual.rect.Rect'>, anchor=('center', 'center'), autoDraw=True, autoLog=True, closeShape=True, color=method-wrapper(...), colorSpace='rgb', contrast=None, depth=0, draggable=False, fillColor=array([0.00392157, 0.00392157, 0.00392157]), fillColorSpace='rgb', fillRGB=array([0.00392157, 0.00392157, 0.00392157]), interpolate=True, lineColor=array([0., 0., 0.]), lineColorSpace='rgb', lineRGB=array([0, 0, 0]), lineWidth=1.5, name='unnamed Rect', opacity=0.5, ori=0.0, pos=array([0., 0.]), size=array([2., 2.]), units='norm', vertices=ndarray(...), win=Window(...))",2.1,[],8,0.75,"[<psychopy.visual.line.Line object at 0x7f6929649df0>, <psychopy.visual.line.Line object at 0x7f692964f130>]",<psychopy.hardware.keyboard.Keyboard object at 0x7f690f4db880>,
1,dot,0.3,['dot'],['density'],black,0,2,2,2,,,2.808588981628418,3.1090219020843506,dot,[0.06],"[0.4123293050259286, 0.03564095151647579]",density,black,true,correct,nan,N004,visual,1,"['1', '2']","['3', '4']",1,/NOBACKUP2/USER/Jeong/experiment2,/NOBACKUP2/USER/Jeong/experiment2/logfiles/visual/N004_d-20240925,2023.2.3,harveyvisual,"Window(allowGUI=False, allowStencil=False, autoLog=True, backendConf=UNKNOWN, backgroundFit='cover', backgroundImage=None, bitsMode=UNKNOWN, blendMode='avg', bpc=(8, 8, 8), color=array([-1, -1, -1]), colorSpace='rgb', depthBits=8, fullscr=<method-wrapper '__getattribute__' of attributeSetter object at 0x7f693362d610>, gamma=None, gammaErrorPolicy='raise', lms=UNKNOWN, monitor=<psychopy.monitors.calibTools.Monitor object at 0x7f692c723bb0>, multiSample=False, name='stim_window', numSamples=2, pos=[0.0, 0.0], screen=0, size=array([1920, 1080]), stencilBits=0, stereo=False, title='PsychoPy', units='deg', useFBO=True, useRetina=False, viewOri=0.0, viewPos=None, viewScale=None, waitBlanking=True, winType='pyglet')","{'TR': 2.1, 'volumes': 5, 'sync': '5', 'skip': 0, 'sound': False}",<psychopy.clock.CountdownTimer object at 0x7f692c700550>,"Rect(__class__=<class 'psychopy.visual.rect.Rect'>, anchor=('center', 'center'), autoDraw=True, autoLog=True, closeShape=True, color=method-wrapper(...), colorSpace='rgb', contrast=None, depth=0, draggable=False, fillColor=array([0.00392157, 0.00392157, 0.00392157]), fillColorSpace='rgb', fillRGB=array([0.00392157, 0.00392157, 0.00392157]), interpolate=True, lineColor=array([0., 0., 0.]), lineColorSpace='rgb', lineRGB=array([0, 0, 0]), lineWidth=1.5, name='unnamed Rect', opacity=0.5, ori=0.0, pos=array([0., 0.]), size=array([2., 2.]), units='norm', vertices=ndarray(...), win=Window(...))",2.1,[],8,0.75,"[<psychopy.visual.line.Line object at 0x7f6929649df0>, <psychopy.visual.line.Line object at 0x7f692964f130>]",<psychopy.hardware.keyboard.Keyboard object at 0x7f690f4db880>,
0,pause,0.4,None,None,None,0,3,3,3,,,,,,,,,,,,,N004,visual,1,"['1', '2']","['3', '4']",1,/NOBACKUP2/USER/Jeong/experiment2,/NOBACKUP2/USER/Jeong/experiment2/logfiles/visual/N004_d-20240925,2023.2.3,harveyvisual,"Window(allowGUI=False, allowStencil=False, autoLog=True, backendConf=UNKNOWN, backgroundFit='cover', backgroundImage=None, bitsMode=UNKNOWN, blendMode='avg', bpc=(8, 8, 8), color=array([-1, -1, -1]), colorSpace='rgb', depthBits=8, fullscr=<method-wrapper '__getattribute__' of attributeSetter object at 0x7f693362d610>, gamma=None, gammaErrorPolicy='raise', lms=UNKNOWN, monitor=<psychopy.monitors.calibTools.Monitor object at 0x7f692c723bb0>, multiSample=False, name='stim_window', numSamples=2, pos=[0.0, 0.0], screen=0, size=array([1920, 1080]), stencilBits=0, stereo=False, title='PsychoPy', units='deg', useFBO=True, useRetina=False, viewOri=0.0, viewPos=None, viewScale=None, waitBlanking=True, winType='pyglet')","{'TR': 2.1, 'volumes': 5, 'sync': '5', 'skip': 0, 'sound': False}",<psychopy.clock.CountdownTimer object at 0x7f692c700550>,"Rect(__class__=<class 'psychopy.visual.rect.Rect'>, anchor=('center', 'center'), autoDraw=True, autoLog=True, closeShape=True, color=method-wrapper(...), colorSpace='rgb', contrast=None, depth=0, draggable=False, fillColor=array([0.00392157, 0.00392157, 0.00392157]), fillColorSpace='rgb', fillRGB=array([0.00392157, 0.00392157, 0.00392157]), interpolate=True, lineColor=array([0., 0., 0.]), lineColorSpace='rgb', lineRGB=array([0, 0, 0]), lineWidth=1.5, name='unnamed Rect', opacity=0.5, ori=0.0, pos=array([0., 0.]), size=array([2., 2.]), units='norm', vertices=ndarray(...), win=Window(...))",2.1,[],8,0.75,"[<psychopy.visual.line.Line object at 0x7f6929649df0>, <psychopy.visual.line.Line object at 0x7f692964f130>]",<psychopy.hardware.keyboard.Keyboard object at 0x7f690f4db880>,
1,dot,0.3,['dot'],['density'],black,0,4,4,4,,,3.509014844894409,3.8090059757232666,dot,[0.1],"[0.4230572171255965, 0.15564154118015242]",density,black,true,correct,nan,N004,visual,1,"['1', '2']","['3', '4']",1,/NOBACKUP2/USER/Jeong/experiment2,/NOBACKUP2/USER/Jeong/experiment2/logfiles/visual/N004_d-20240925,2023.2.3,harveyvisual,"Window(allowGUI=False, allowStencil=False, autoLog=True, backendConf=UNKNOWN, backgroundFit='cover', backgroundImage=None, bitsMode=UNKNOWN, blendMode='avg', bpc=(8, 8, 8), color=array([-1, -1, -1]), colorSpace='rgb', depthBits=8, fullscr=<method-wrapper '__getattribute__' of attributeSetter object at 0x7f693362d610>, gamma=None, gammaErrorPolicy='raise', lms=UNKNOWN, monitor=<psychopy.monitors.calibTools.Monitor object at 0x7f692c723bb0>, multiSample=False, name='stim_window', numSamples=2, pos=[0.0, 0.0], screen=0, size=array([1920, 1080]), stencilBits=0, stereo=False, title='PsychoPy', units='deg', useFBO=True, useRetina=False, viewOri=0.0, viewPos=None, viewScale=None, waitBlanking=True, winType='pyglet')","{'TR': 2.1, 'volumes': 5, 'sync': '5', 'skip': 0, 'sound': False}",<psychopy.clock.CountdownTimer object at 0x7f692c700550>,"Rect(__class__=<class 'psychopy.visual.rect.Rect'>, anchor=('center', 'center'), autoDraw=True, autoLog=True, closeShape=True, color=method-wrapper(...), colorSpace='rgb', contrast=None, depth=0, draggable=False, fillColor=array([0.00392157, 0.00392157, 0.00392157]), fillColorSpace='rgb', fillRGB=array([0.00392157, 0.00392157, 0.00392157]), interpolate=True, lineColor=array([0., 0., 0.]), lineColorSpace='rgb', lineRGB=array([0, 0, 0]), lineWidth=1.5, name='unnamed Rect', opacity=0.5, ori=0.0, pos=array([0., 0.]), size=array([2., 2.]), units='norm', vertices=ndarray(...), win=Window(...))",2.1,[],8,0.75,"[<psychopy.visual.line.Line object at 0x7f6929649df0>, <psychopy.visual.line.Line object at 0x7f692964f130>]",<psychopy.hardware.keyboard.Keyboard object at 0x7f690f4db880>,
0,pause,0.4,None,None,None,0,5,5,5,,,,,,,,,,,,,N004,visual,1,"['1', '2']","['3', '4']",1,/NOBACKUP2/USER/Jeong/experiment2,/NOBACKUP2/USER/Jeong/experiment2/logfiles/visual/N004_d-20240925,2023.2.3,harveyvisual,"Window(allowGUI=False, allowStencil=False, autoLog=True, backendConf=UNKNOWN, backgroundFit='cover', backgroundImage=None, bitsMode=UNKNOWN, blendMode='avg', bpc=(8, 8, 8), color=array([-1, -1, -1]), colorSpace='rgb', depthBits=8, fullscr=<method-wrapper '__getattribute__' of attributeSetter object at 0x7f693362d610>, gamma=None, gammaErrorPolicy='raise', lms=UNKNOWN, monitor=<psychopy.monitors.calibTools.Monitor object at 0x7f692c723bb0>, multiSample=False, name='stim_window', numSamples=2, pos=[0.0, 0.0], screen=0, size=array([1920, 1080]), stencilBits=0, stereo=False, title='PsychoPy', units='deg', useFBO=True, useRetina=False, viewOri=0.0, viewPos=None, viewScale=None, waitBlanking=True, winType='pyglet')","{'TR': 2.1, 'volumes': 5, 'sync': '5', 'skip': 0, 'sound': False}",<psychopy.clock.CountdownTimer object at 0x7f692c700550>,"Rect(__class__=<class 'psychopy.visual.rect.Rect'>, anchor=('center', 'center'), autoDraw=True, autoLog=True, closeShape=True, color=method-wrapper(...), colorSpace='rgb', contrast=None, depth=0, draggable=False, fillColor=array([0.00392157, 0.00392157, 0.00392157]), fillColorSpace='rgb', fillRGB=array([0.00392157, 0.00392157, 0.00392157]), interpolate=True, lineColor=array([0., 0., 0.]), lineColorSpace='rgb', lineRGB=array([0, 0, 0]), lineWidth=1.5, name='unnamed Rect', opacity=0.5, ori=0.0, pos=array([0., 0.]), size=array([2., 2.]), units='norm', vertices=ndarray(...), win=Window(...))",2.1,[],8,0.75,"[<psychopy.visual.line.Line object at 0x7f6929649df0>, <psychopy.visual.line.Line object at 0x7f692964f130>]",<psychopy.hardware.keyboard.Keyboard object at 0x7f690f4db880>,
1,dot,0.3,['dot'],['density'],black,0,6,6,6,,,4.209685802459717,4.5091729164123535,dot,[0.08],"[0.5363314188299194, -0.14809861569100125]",density,black,true,correct,nan,N004,visual,1,"['1', '2']","['3', '4']",1,/NOBACKUP2/USER/Jeong/experiment2,/NOBACKUP2/USER/Jeong/experiment2/logfiles/visual/N004_d-20240925,2023.2.3,harveyvisual,"Window(allowGUI=False, allowStencil=False, autoLog=True, backendConf=UNKNOWN, backgroundFit='cover', backgroundImage=None, bitsMode=UNKNOWN, blendMode='avg', bpc=(8, 8, 8), color=array([-1, -1, -1]), colorSpace='rgb', depthBits=8, fullscr=<method-wrapper '__getattribute__' of attributeSetter object at 0x7f693362d610>, gamma=None, gammaErrorPolicy='raise', lms=UNKNOWN, monitor=<psychopy.monitors.calibTools.Monitor object at 0x7f692c723bb0>, multiSample=False, name='stim_window', numSamples=2, pos=[0.0, 0.0], screen=0, size=array([1920, 1080]), stencilBits=0, stereo=False, title='PsychoPy', units='deg', useFBO=True, useRetina=False, viewOri=0.0, viewPos=None, viewScale=None, waitBlanking=True, winType='pyglet')","{'TR': 2.1, 'volumes': 5, 'sync': '5', 'skip': 0, 'sound': False}",<psychopy.clock.CountdownTimer object at 0x7f692c700550>,"Rect(__class__=<class 'psychopy.visual.rect.Rect'>, anchor=('center', 'center'), autoDraw=True, autoLog=True, closeShape=True, color=method-wrapper(...), colorSpace='rgb', contrast=None, depth=0, draggable=False, fillColor=array([0.00392157, 0.00392157, 0.00392157]), fillColorSpace='rgb', fillRGB=array([0.00392157, 0.00392157, 0.00392157]), interpolate=True, lineColor=array([0., 0., 0.]), lineColorSpace='rgb', lineRGB=array([0, 0, 0]), lineWidth=1.5, name='unnamed Rect', opacity=0.5, ori=0.0, pos=array([0., 0.]), size=array([2., 2.]), units='norm', vertices=ndarray(...), win=Window(...))",2.1,[],8,0.75,"[<psychopy.visual.line.Line object at 0x7f6929649df0>, <psychopy.visual.line.Line object at 0x7f692964f130>]",<psychopy.hardware.keyboard.Keyboard object at 0x7f690f4db880>,
0,pause,0.4,None,None,None,0,7,7,7,,,,,,,,,,,,,N004,visual,1,"['1', '2']","['3', '4']",1,/NOBACKUP2/USER/Jeong/experiment2,/NOBACKUP2/USER/Jeong/experiment2/logfiles/visual/N004_d-20240925,2023.2.3,harveyvisual,"Window(allowGUI=False, allowStencil=False, autoLog=True, backendConf=UNKNOWN, backgroundFit='cover', backgroundImage=None, bitsMode=UNKNOWN, blendMode='avg', bpc=(8, 8, 8), color=array([-1, -1, -1]), colorSpace='rgb', depthBits=8, fullscr=<method-wrapper '__getattribute__' of attributeSetter object at 0x7f693362d610>, gamma=None, gammaErrorPolicy='raise', lms=UNKNOWN, monitor=<psychopy.monitors.calibTools.Monitor object at 0x7f692c723bb0>, multiSample=False, name='stim_window', numSamples=2, pos=[0.0, 0.0], screen=0, size=array([1920, 1080]), stencilBits=0, stereo=False, title='PsychoPy', units='deg', useFBO=True, useRetina=False, viewOri=0.0, viewPos=None, viewScale=None, waitBlanking=True, winType='pyglet')","{'TR': 2.1, 'volumes': 5, 'sync': '5', 'skip': 0, 'sound': False}",<psychopy.clock.CountdownTimer object at 0x7f692c700550>,"Rect(__class__=<class 'psychopy.visual.rect.Rect'>, anchor=('center', 'center'), autoDraw=True, autoLog=True, closeShape=True, color=method-wrapper(...), colorSpace='rgb', contrast=None, depth=0, draggable=False, fillColor=array([0.00392157, 0.00392157, 0.00392157]), fillColorSpace='rgb', fillRGB=array([0.00392157, 0.00392157, 0.00392157]), interpolate=True, lineColor=array([0., 0., 0.]), lineColorSpace='rgb', lineRGB=array([0, 0, 0]), lineWidth=1.5, name='unnamed Rect', opacity=0.5, ori=0.0, pos=array([0., 0.]), size=array([2., 2.]), units='norm', vertices=ndarray(...), win=Window(...))",2.1,[],8,0.75,"[<psychopy.visual.line.Line object at 0x7f6929649df0>, <psychopy.visual.line.Line object at 0x7f692964f130>]",<psychopy.hardware.keyboard.Keyboard object at 0x7f690f4db880>,
1,dot,0.3,['dot'],['density'],black,0,8,8,8,,,4.909847974777222,5.208988904953003,dot,[0.1],"[0.14557363600905707, -0.03994760510263185]",density,black,true,correct,nan,N004,visual,1,"['1', '2']","['3', '4']",1,/NOBACKUP2/USER/Jeong/experiment2,/NOBACKUP2/USER/Jeong/experiment2/logfiles/visual/N004_d-20240925,2023.2.3,harveyvisual,"Window(allowGUI=False, allowStencil=False, autoLog=True, backendConf=UNKNOWN, backgroundFit='cover', backgroundImage=None, bitsMode=UNKNOWN, blendMode='avg', bpc=(8, 8, 8), color=array([-1, -1, -1]), colorSpace='rgb', depthBits=8, fullscr=<method-wrapper '__getattribute__' of attributeSetter object at 0x7f693362d610>, gamma=None, gammaErrorPolicy='raise', lms=UNKNOWN, monitor=<psychopy.monitors.calibTools.Monitor object at 0x7f692c723bb0>, multiSample=False, name='stim_window', numSamples=2, pos=[0.0, 0.0], screen=0, size=array([1920, 1080]), stencilBits=0, stereo=False, title='PsychoPy', units='deg', useFBO=True, useRetina=False, viewOri=0.0, viewPos=None, viewScale=None, waitBlanking=True, winType='pyglet')","{'TR': 2.1, 'volumes': 5, 'sync': '5', 'skip': 0, 'sound': False}",<psychopy.clock.CountdownTimer object at 0x7f692c700550>,"Rect(__class__=<class 'psychopy.visual.rect.Rect'>, anchor=('center', 'center'), autoDraw=True, autoLog=True, closeShape=True, color=method-wrapper(...), colorSpace='rgb', contrast=None, depth=0, draggable=False, fillColor=array([0.00392157, 0.00392157, 0.00392157]), fillColorSpace='rgb', fillRGB=array([0.00392157, 0.00392157, 0.00392157]), interpolate=True, lineColor=array([0., 0., 0.]), lineColorSpace='rgb', lineRGB=array([0, 0, 0]), lineWidth=1.5, name='unnamed Rect', opacity=0.5, ori=0.0, pos=array([0., 0.]), size=array([2., 2.]), units='norm', vertices=ndarray(...), win=Window(...))",2.1,[],8,0.75,"[<psychopy.visual.line.Line object at 0x7f6929649df0>, <psychopy.visual.line.Line object at 0x7f692964f130>]",<psychopy.hardware.keyboard.Keyboard object at 0x7f690f4db880>,
0,pause,0.4,None,None,None,0,9,9,9,,,,,,,,,,,,,N004,visual,1,"['1', '2']","['3', '4']",1,/NOBACKUP2/USER/Jeong/experiment2,/NOBACKUP2/USER/Jeong/experiment2/logfiles/visual/N004_d-20240925,2023.2.3,harveyvisual,"Window(allowGUI=False, allowStencil=False, autoLog=True, backendConf=UNKNOWN, backgroundFit='cover', backgroundImage=None, bitsMode=UNKNOWN, blendMode='avg', bpc=(8, 8, 8), color=array([-1, -1, -1]), colorSpace='rgb', depthBits=8, fullscr=<method-wrapper '__getattribute__' of attributeSetter object at 0x7f693362d610>, gamma=None, gammaErrorPolicy='raise', lms=UNKNOWN, monitor=<psychopy.monitors.calibTools.Monitor object at 0x7f692c723bb0>, multiSample=False, name='stim_window', numSamples=2, pos=[0.0, 0.0], screen=0, size=array([1920, 1080]), stencilBits=0, stereo=False, title='PsychoPy', units='deg', useFBO=True, useRetina=False, viewOri=0.0, viewPos=None, viewScale=None, waitBlanking=True, winType='pyglet')","{'TR': 2.1, 'volumes': 5, 'sync': '5', 'skip': 0, 'sound': False}",<psychopy.clock.CountdownTimer object at 0x7f692c700550>,"Rect(__class__=<class 'psychopy.visual.rect.Rect'>, anchor=('center', 'center'), autoDraw=True, autoLog=True, closeShape=True, color=method-wrapper(...), colorSpace='rgb', contrast=None, depth=0, draggable=False, fillColor=array([0.00392157, 0.00392157, 0.00392157]), fillColorSpace='rgb', fillRGB=array([0.00392157, 0.00392157, 0.00392157]), interpolate=True, lineColor=array([0., 0., 0.]), lineColorSpace='rgb', lineRGB=array([0, 0, 0]), lineWidth=1.5, name='unnamed Rect', opacity=0.5, ori=0.0, pos=array([0., 0.]), size=array([2., 2.]), units='norm', vertices=ndarray(...), win=Window(...))",2.1,[],8,0.75,"[<psychopy.visual.line.Line object at 0x7f6929649df0>, <psychopy.visual.line.Line object at 0x7f692964f130>]",<psychopy.hardware.keyboard.Keyboard object at 0x7f690f4db880>,
1,dot,0.3,['dot'],['density'],black,0,10,10,10,,,5.611330986022949,5.911195993423462,dot,[0.06],"[0.4765699730395091, 0.34560502551113614]",density,black,true,correct,nan,N004,visual,1,"['1', '2']","['3', '4']",1,/NOBACKUP2/USER/Jeong/experiment2,/NOBACKUP2/USER/Jeong/experiment2/logfiles/visual/N004_d-20240925,2023.2.3,harveyvisual,"Window(allowGUI=False, allowStencil=False, autoLog=True, backendConf=UNKNOWN, backgroundFit='cover', backgroundImage=None, bitsMode=UNKNOWN, blendMode='avg', bpc=(8, 8, 8), color=array([-1, -1, -1]), colorSpace='rgb', depthBits=8, fullscr=<method-wrapper '__getattribute__' of attributeSetter object at 0x7f693362d610>, gamma=None, gammaErrorPolicy='raise', lms=UNKNOWN, monitor=<psychopy.monitors.calibTools.Monitor object at 0x7f692c723bb0>, multiSample=False, name='stim_window', numSamples=2, pos=[0.0, 0.0], screen=0, size=array([1920, 1080]), stencilBits=0, stereo=False, title='PsychoPy', units='deg', useFBO=True, useRetina=False, viewOri=0.0, viewPos=None, viewScale=None, waitBlanking=True, winType='pyglet')","{'TR': 2.1, 'volumes': 5, 'sync': '5', 'skip': 0, 'sound': False}",<psychopy.clock.CountdownTimer object at 0x7f692c700550>,"Rect(__class__=<class 'psychopy.visual.rect.Rect'>, anchor=('center', 'center'), autoDraw=True, autoLog=True, closeShape=True, color=method-wrapper(...), colorSpace='rgb', contrast=None, depth=0, draggable=False, fillColor=array([0.00392157, 0.00392157, 0.00392157]), fillColorSpace='rgb', fillRGB=array([0.00392157, 0.00392157, 0.00392157]), interpolate=True, lineColor=array([0., 0., 0.]), lineColorSpace='rgb', lineRGB=array([0, 0, 0]), lineWidth=1.5, name='unnamed Rect', opacity=0.5, ori=0.0, pos=array([0., 0.]), size=array([2., 2.]), units='norm', vertices=ndarray(...), win=Window(...))",2.1,[],8,0.75,"[<psychopy.visual.line.Line object at 0x7f6929649df0>, <psychopy.visual.line.Line object at 0x7f692964f130>]",<psychopy.hardware.keyboard.Keyboard object at 0x7f690f4db880>,
0,pause,0.4,None,None,None,0,11,11,11,,,,,,,,,,,,,N004,visual,1,"['1', '2']","['3', '4']",1,/NOBACKUP2/USER/Jeong/experiment2,/NOBACKUP2/USER/Jeong/experiment2/logfiles/visual/N004_d-20240925,2023.2.3,harveyvisual,"Window(allowGUI=False, allowStencil=False, autoLog=True, backendConf=UNKNOWN, backgroundFit='cover', backgroundImage=None, bitsMode=UNKNOWN, blendMode='avg', bpc=(8, 8, 8), color=array([-1, -1, -1]), colorSpace='rgb', depthBits=8, fullscr=<method-wrapper '__getattribute__' of attributeSetter object at 0x7f693362d610>, gamma=None, gammaErrorPolicy='raise', lms=UNKNOWN, monitor=<psychopy.monitors.calibTools.Monitor object at 0x7f692c723bb0>, multiSample=False, name='stim_window', numSamples=2, pos=[0.0, 0.0], screen=0, size=array([1920, 1080]), stencilBits=0, stereo=False, title='PsychoPy', units='deg', useFBO=True, useRetina=False, viewOri=0.0, viewPos=None, viewScale=None, waitBlanking=True, winType='pyglet')","{'TR': 2.1, 'volumes': 5, 'sync': '5', 'skip': 0, 'sound': False}",<psychopy.clock.CountdownTimer object at 0x7f692c700550>,"Rect(__class__=<class 'psychopy.visual.rect.Rect'>, anchor=('center', 'center'), autoDraw=True, autoLog=True, closeShape=True, color=method-wrapper(...), colorSpace='rgb', contrast=None, depth=0, draggable=False, fillColor=array([0.00392157, 0.00392157, 0.00392157]), fillColorSpace='rgb', fillRGB=array([0.00392157, 0.00392157, 0.00392157]), interpolate=True, lineColor=array([0., 0., 0.]), lineColorSpace='rgb', lineRGB=array([0, 0, 0]), lineWidth=1.5, name='unnamed Rect', opacity=0.5, ori=0.0, pos=array([0., 0.]), size=array([2., 2.]), units='norm', vertices=ndarray(...), win=Window(...))",2.1,[],8,0.75,"[<psychopy.visual.line.Line object at 0x7f6929649df0>, <psychopy.visual.line.Line object at 0x7f692964f130>]",<psychopy.hardware.keyboard.Keyboard object at 0x7f690f4db880>,
2,dot,0.3,['dot'],['density'],black,0,12,12,12,,,6.311186790466309,6.611173868179321,dot,"[0.08, 0.08]","[[0.07059805578258149, -0.2458188734665979], [0.058763118304238846, -0.4455693812784497]]",density,black,false,wrong,nan,N004,visual,1,"['1', '2']","['3', '4']",1,/NOBACKUP2/USER/Jeong/experiment2,/NOBACKUP2/USER/Jeong/experiment2/logfiles/visual/N004_d-20240925,2023.2.3,harveyvisual,"Window(allowGUI=False, allowStencil=False, autoLog=True, backendConf=UNKNOWN, backgroundFit='cover', backgroundImage=None, bitsMode=UNKNOWN, blendMode='avg', bpc=(8, 8, 8), color=array([-1, -1, -1]), colorSpace='rgb', depthBits=8, fullscr=<method-wrapper '__getattribute__' of attributeSetter object at 0x7f693362d610>, gamma=None, gammaErrorPolicy='raise', lms=UNKNOWN, monitor=<psychopy.monitors.calibTools.Monitor object at 0x7f692c723bb0>, multiSample=False, name='stim_window', numSamples=2, pos=[0.0, 0.0], screen=0, size=array([1920, 1080]), stencilBits=0, stereo=False, title='PsychoPy', units='deg', useFBO=True, useRetina=False, viewOri=0.0, viewPos=None, viewScale=None, waitBlanking=True, winType='pyglet')","{'TR': 2.1, 'volumes': 5, 'sync': '5', 'skip': 0, 'sound': False}",<psychopy.clock.CountdownTimer object at 0x7f692c700550>,"Rect(__class__=<class 'psychopy.visual.rect.Rect'>, anchor=('center', 'center'), autoDraw=True, autoLog=True, closeShape=True, color=method-wrapper(...), colorSpace='rgb', contrast=None, depth=0, draggable=False, fillColor=array([0.00392157, 0.00392157, 0.00392157]), fillColorSpace='rgb', fillRGB=array([0.00392157, 0.00392157, 0.00392157]), interpolate=True, lineColor=array([0., 0., 0.]), lineColorSpace='rgb', lineRGB=array([0, 0, 0]), lineWidth=1.5, name='unnamed Rect', opacity=0.5, ori=0.0, pos=array([0., 0.]), size=array([2., 2.]), units='norm', vertices=ndarray(...), win=Window(...))",2.1,[],8,0.75,"[<psychopy.visual.line.Line object at 0x7f6929649df0>, <psychopy.visual.line.Line object at 0x7f692964f130>]",<psychopy.hardware.keyboard.Keyboard object at 0x7f690f4db880>,
0,pause,0.4,None,None,None,0,13,13,13,,,,,,,,,,,,,N004,visual,1,"['1', '2']","['3', '4']",1,/NOBACKUP2/USER/Jeong/experiment2,/NOBACKUP2/USER/Jeong/experiment2/logfiles/visual/N004_d-20240925,2023.2.3,harveyvisual,"Window(allowGUI=False, allowStencil=False, autoLog=True, backendConf=UNKNOWN, backgroundFit='cover', backgroundImage=None, bitsMode=UNKNOWN, blendMode='avg', bpc=(8, 8, 8), color=array([-1, -1, -1]), colorSpace='rgb', depthBits=8, fullscr=<method-wrapper '__getattribute__' of attributeSetter object at 0x7f693362d610>, gamma=None, gammaErrorPolicy='raise', lms=UNKNOWN, monitor=<psychopy.monitors.calibTools.Monitor object at 0x7f692c723bb0>, multiSample=False, name='stim_window', numSamples=2, pos=[0.0, 0.0], screen=0, size=array([1920, 1080]), stencilBits=0, stereo=False, title='PsychoPy', units='deg', useFBO=True, useRetina=False, viewOri=0.0, viewPos=None, viewScale=None, waitBlanking=True, winType='pyglet')","{'TR': 2.1, 'volumes': 5, 'sync': '5', 'skip': 0, 'sound': False}",<psychopy.clock.CountdownTimer object at 0x7f692c700550>,"Rect(__class__=<class 'psychopy.visual.rect.Rect'>, anchor=('center', 'center'), autoDraw=True, autoLog=True, closeShape=True, color=method-wrapper(...), colorSpace='rgb', contrast=None, depth=0, draggable=False, fillColor=array([0.00392157, 0.00392157, 0.00392157]), fillColorSpace='rgb', fillRGB=array([0.00392157, 0.00392157, 0.00392157]), interpolate=True, lineColor=array([0., 0., 0.]), lineColorSpace='rgb', lineRGB=array([0, 0, 0]), lineWidth=1.5, name='unnamed Rect', opacity=0.5, ori=0.0, pos=array([0., 0.]), size=array([2., 2.]), units='norm', vertices=ndarray(...), win=Window(...))",2.1,[],8,0.75,"[<psychopy.visual.line.Line object at 0x7f6929649df0>, <psychopy.visual.line.Line object at 0x7f692964f130>]",<psychopy.hardware.keyboard.Keyboard object at 0x7f690f4db880>,
2,dot,0.3,['dot'],['density'],black,0,14,14,14,,,7.011159896850586,7.311165809631348,dot,"[0.1, 0.06]","[[-0.22226122312079244, -0.00806926593831646], [-0.023245446524914906, -0.037240983575548024]]",density,black,true,correct,nan,N004,visual,1,"['1', '2']","['3', '4']",1,/NOBACKUP2/USER/Jeong/experiment2,/NOBACKUP2/USER/Jeong/experiment2/logfiles/visual/N004_d-20240925,2023.2.3,harveyvisual,"Window(allowGUI=False, allowStencil=False, autoLog=True, backendConf=UNKNOWN, backgroundFit='cover', backgroundImage=None, bitsMode=UNKNOWN, blendMode='avg', bpc=(8, 8, 8), color=array([-1, -1, -1]), colorSpace='rgb', depthBits=8, fullscr=<method-wrapper '__getattribute__' of attributeSetter object at 0x7f693362d610>, gamma=None, gammaErrorPolicy='raise', lms=UNKNOWN, monitor=<psychopy.monitors.calibTools.Monitor object at 0x7f692c723bb0>, multiSample=False, name='stim_window', numSamples=2, pos=[0.0, 0.0], screen=0, size=array([1920, 1080]), stencilBits=0, stereo=False, title='PsychoPy', units='deg', useFBO=True, useRetina=False, viewOri=0.0, viewPos=None, viewScale=None, waitBlanking=True, winType='pyglet')","{'TR': 2.1, 'volumes': 5, 'sync': '5', 'skip': 0, 'sound': False}",<psychopy.clock.CountdownTimer object at 0x7f692c700550>,"Rect(__class__=<class 'psychopy.visual.rect.Rect'>, anchor=('center', 'center'), autoDraw=True, autoLog=True, closeShape=True, color=method-wrapper(...), colorSpace='rgb', contrast=None, depth=0, draggable=False, fillColor=array([0.00392157, 0.00392157, 0.00392157]), fillColorSpace='rgb', fillRGB=array([0.00392157, 0.00392157, 0.00392157]), interpolate=True, lineColor=array([0., 0., 0.]), lineColorSpace='rgb', lineRGB=array([0, 0, 0]), lineWidth=1.5, name='unnamed Rect', opacity=0.5, ori=0.0, pos=array([0., 0.]), size=array([2., 2.]), units='norm', vertices=ndarray(...), win=Window(...))",2.1,[],8,0.75,"[<psychopy.visual.line.Line object at 0x7f6929649df0>, <psychopy.visual.line.Line object at 0x7f692964f130>]",<psychopy.hardware.keyboard.Keyboard object at 0x7f690f4db880>,
0,pause,0.4,None,None,None,0,15,15,15,,,,,,,,,,,,,N004,visual,1,"['1', '2']","['3', '4']",1,/NOBACKUP2/USER/Jeong/experiment2,/NOBACKUP2/USER/Jeong/experiment2/logfiles/visual/N004_d-20240925,2023.2.3,harveyvisual,"Window(allowGUI=False, allowStencil=False, autoLog=True, backendConf=UNKNOWN, backgroundFit='cover', backgroundImage=None, bitsMode=UNKNOWN, blendMode='avg', bpc=(8, 8, 8), color=array([-1, -1, -1]), colorSpace='rgb', depthBits=8, fullscr=<method-wrapper '__getattribute__' of attributeSetter object at 0x7f693362d610>, gamma=None, gammaErrorPolicy='raise', lms=UNKNOWN, monitor=<psychopy.monitors.calibTools.Monitor object at 0x7f692c723bb0>, multiSample=False, name='stim_window', numSamples=2, pos=[0.0, 0.0], screen=0, size=array([1920, 1080]), stencilBits=0, stereo=False, title='PsychoPy', units='deg', useFBO=True, useRetina=False, viewOri=0.0, viewPos=None, viewScale=None, waitBlanking=True, winType='pyglet')","{'TR': 2.1, 'volumes': 5, 'sync': '5', 'skip': 0, 'sound': False}",<psychopy.clock.CountdownTimer object at 0x7f692c700550>,"Rect(__class__=<class 'psychopy.visual.rect.Rect'>, anchor=('center', 'center'), autoDraw=True, autoLog=True, closeShape=True, color=method-wrapper(...), colorSpace='rgb', contrast=None, depth=0, draggable=False, fillColor=array([0.00392157, 0.00392157, 0.00392157]), fillColorSpace='rgb', fillRGB=array([0.00392157, 0.00392157, 0.00392157]), interpolate=True, lineColor=array([0., 0., 0.]), lineColorSpace='rgb', lineRGB=array([0, 0, 0]), lineWidth=1.5, name='unnamed Rect', opacity=0.5, ori=0.0, pos=array([0., 0.]), size=array([2., 2.]), units='norm', vertices=ndarray(...), win=Window(...))",2.1,[],8,0.75,"[<psychopy.visual.line.Line object at 0x7f6929649df0>, <psychopy.visual.line.Line object at 0x7f692964f130>]",<psychopy.hardware.keyboard.Keyboard object at 0x7f690f4db880>,
2,dot,0.3,['dot'],['density'],black,0,16,16,16,,,7.711152791976929,8.011153936386108,dot,"[0.06, 0.1]","[[0.4298854344354601, 0.24556028782034023], [0.23727674624932948, 0.18886586315459258]]",density,black,true,correct,nan,N004,visual,1,"['1', '2']","['3', '4']",1,/NOBACKUP2/USER/Jeong/experiment2,/NOBACKUP2/USER/Jeong/experiment2/logfiles/visual/N004_d-20240925,2023.2.3,harveyvisual,"Window(allowGUI=False, allowStencil=False, autoLog=True, backendConf=UNKNOWN, backgroundFit='cover', backgroundImage=None, bitsMode=UNKNOWN, blendMode='avg', bpc=(8, 8, 8), color=array([-1, -1, -1]), colorSpace='rgb', depthBits=8, fullscr=<method-wrapper '__getattribute__' of attributeSetter object at 0x7f693362d610>, gamma=None, gammaErrorPolicy='raise', lms=UNKNOWN, monitor=<psychopy.monitors.calibTools.Monitor object at 0x7f692c723bb0>, multiSample=False, name='stim_window', numSamples=2, pos=[0.0, 0.0], screen=0, size=array([1920, 1080]), stencilBits=0, stereo=False, title='PsychoPy', units='deg', useFBO=True, useRetina=False, viewOri=0.0, viewPos=None, viewScale=None, waitBlanking=True, winType='pyglet')","{'TR': 2.1, 'volumes': 5, 'sync': '5', 'skip': 0, 'sound': False}",<psychopy.clock.CountdownTimer object at 0x7f692c700550>,"Rect(__class__=<class 'psychopy.visual.rect.Rect'>, anchor=('center', 'center'), autoDraw=True, autoLog=True, closeShape=True, color=method-wrapper(...), colorSpace='rgb', contrast=None, depth=0, draggable=False, fillColor=array([0.00392157, 0.00392157, 0.00392157]), fillColorSpace='rgb', fillRGB=array([0.00392157, 0.00392157, 0.00392157]), interpolate=True, lineColor=array([0., 0., 0.]), lineColorSpace='rgb', lineRGB=array([0, 0, 0]), lineWidth=1.5, name='unnamed Rect', opacity=0.5, ori=0.0, pos=array([0., 0.]), size=array([2., 2.]), units='norm', vertices=ndarray(...), win=Window(...))",2.1,[],8,0.75,"[<psychopy.visual.line.Line object at 0x7f6929649df0>, <psychopy.visual.line.Line object at 0x7f692964f130>]",<psychopy.hardware.keyboard.Keyboard object at 0x7f690f4db880>,
0,pause,0.4,None,None,None,0,17,17,17,,,,,,,,,,,,,N004,visual,1,"['1', '2']","['3', '4']",1,/NOBACKUP2/USER/Jeong/experiment2,/NOBACKUP2/USER/Jeong/experiment2/logfiles/visual/N004_d-20240925,2023.2.3,harveyvisual,"Window(allowGUI=False, allowStencil=False, autoLog=True, backendConf=UNKNOWN, backgroundFit='cover', backgroundImage=None, bitsMode=UNKNOWN, blendMode='avg', bpc=(8, 8, 8), color=array([-1, -1, -1]), colorSpace='rgb', depthBits=8, fullscr=<method-wrapper '__getattribute__' of attributeSetter object at 0x7f693362d610>, gamma=None, gammaErrorPolicy='raise', lms=UNKNOWN, monitor=<psychopy.monitors.calibTools.Monitor object at 0x7f692c723bb0>, multiSample=False, name='stim_window', numSamples=2, pos=[0.0, 0.0], screen=0, size=array([1920, 1080]), stencilBits=0, stereo=False, title='PsychoPy', units='deg', useFBO=True, useRetina=False, viewOri=0.0, viewPos=None, viewScale=None, waitBlanking=True, winType='pyglet')","{'TR': 2.1, 'volumes': 5, 'sync': '5', 'skip': 0, 'sound': False}",<psychopy.clock.CountdownTimer object at 0x7f692c700550>,"Rect(__class__=<class 'psychopy.visual.rect.Rect'>, anchor=('center', 'center'), autoDraw=True, autoLog=True, closeShape=True, color=method-wrapper(...), colorSpace='rgb', contrast=None, depth=0, draggable=False, fillColor=array([0.00392157, 0.00392157, 0.00392157]), fillColorSpace='rgb', fillRGB=array([0.00392157, 0.00392157, 0.00392157]), interpolate=True, lineColor=array([0., 0., 0.]), lineColorSpace='rgb', lineRGB=array([0, 0, 0]), lineWidth=1.5, name='unnamed Rect', opacity=0.5, ori=0.0, pos=array([0., 0.]), size=array([2., 2.]), units='norm', vertices=ndarray(...), win=Window(...))",2.1,[],8,0.75,"[<psychopy.visual.line.Line object at 0x7f6929649df0>, <psychopy.visual.line.Line object at 0x7f692964f130>]",<psychopy.hardware.keyboard.Keyboard object at 0x7f690f4db880>,
2,dot,0.3,['dot'],['density'],black,0,18,18,18,,,8.411149978637695,8.71112585067749,dot,"[0.1, 0.1]","[[0.17083311991776792, -0.05558111512160733], [0.1461049568064877, -0.25438559320493304]]",density,black,true,correct,nan,N004,visual,1,"['1', '2']","['3', '4']",1,/NOBACKUP2/USER/Jeong/experiment2,/NOBACKUP2/USER/Jeong/experiment2/logfiles/visual/N004_d-20240925,2023.2.3,harveyvisual,"Window(allowGUI=False, allowStencil=False, autoLog=True, backendConf=UNKNOWN, backgroundFit='cover', backgroundImage=None, bitsMode=UNKNOWN, blendMode='avg', bpc=(8, 8, 8), color=array([-1, -1, -1]), colorSpace='rgb', depthBits=8, fullscr=<method-wrapper '__getattribute__' of attributeSetter object at 0x7f693362d610>, gamma=None, gammaErrorPolicy='raise', lms=UNKNOWN, monitor=<psychopy.monitors.calibTools.Monitor object at 0x7f692c723bb0>, multiSample=False, name='stim_window', numSamples=2, pos=[0.0, 0.0], screen=0, size=array([1920, 1080]), stencilBits=0, stereo=False, title='PsychoPy', units='deg', useFBO=True, useRetina=False, viewOri=0.0, viewPos=None, viewScale=None, waitBlanking=True, winType='pyglet')","{'TR': 2.1, 'volumes': 5, 'sync': '5', 'skip': 0, 'sound': False}",<psychopy.clock.CountdownTimer object at 0x7f692c700550>,"Rect(__class__=<class 'psychopy.visual.rect.Rect'>, anchor=('center', 'center'), autoDraw=True, autoLog=True, closeShape=True, color=method-wrapper(...), colorSpace='rgb', contrast=None, depth=0, draggable=False, fillColor=array([0.00392157, 0.00392157, 0.00392157]), fillColorSpace='rgb', fillRGB=array([0.00392157, 0.00392157, 0.00392157]), interpolate=True, lineColor=array([0., 0., 0.]), lineColorSpace='rgb', lineRGB=array([0, 0, 0]), lineWidth=1.5, name='unnamed Rect', opacity=0.5, ori=0.0, pos=array([0., 0.]), size=array([2., 2.]), units='norm', vertices=ndarray(...), win=Window(...))",2.1,[],8,0.75,"[<psychopy.visual.line.Line object at 0x7f6929649df0>, <psychopy.visual.line.Line object at 0x7f692964f130>]",<psychopy.hardware.keyboard.Keyboard object at 0x7f690f4db880>,
0,pause,0.4,None,None,None,0,19,19,19,,,,,,,,,,,,,N004,visual,1,"['1', '2']","['3', '4']",1,/NOBACKUP2/USER/Jeong/experiment2,/NOBACKUP2/USER/Jeong/experiment2/logfiles/visual/N004_d-20240925,2023.2.3,harveyvisual,"Window(allowGUI=False, allowStencil=False, autoLog=True, backendConf=UNKNOWN, backgroundFit='cover', backgroundImage=None, bitsMode=UNKNOWN, blendMode='avg', bpc=(8, 8, 8), color=array([-1, -1, -1]), colorSpace='rgb', depthBits=8, fullscr=<method-wrapper '__getattribute__' of attributeSetter object at 0x7f693362d610>, gamma=None, gammaErrorPolicy='raise', lms=UNKNOWN, monitor=<psychopy.monitors.calibTools.Monitor object at 0x7f692c723bb0>, multiSample=False, name='stim_window', numSamples=2, pos=[0.0, 0.0], screen=0, size=array([1920, 1080]), stencilBits=0, stereo=False, title='PsychoPy', units='deg', useFBO=True, useRetina=False, viewOri=0.0, viewPos=None, viewScale=None, waitBlanking=True, winType='pyglet')","{'TR': 2.1, 'volumes': 5, 'sync': '5', 'skip': 0, 'sound': False}",<psychopy.clock.CountdownTimer object at 0x7f692c700550>,"Rect(__class__=<class 'psychopy.visual.rect.Rect'>, anchor=('center', 'center'), autoDraw=True, autoLog=True, closeShape=True, color=method-wrapper(...), colorSpace='rgb', contrast=None, depth=0, draggable=False, fillColor=array([0.00392157, 0.00392157, 0.00392157]), fillColorSpace='rgb', fillRGB=array([0.00392157, 0.00392157, 0.00392157]), interpolate=True, lineColor=array([0., 0., 0.]), lineColorSpace='rgb', lineRGB=array([0, 0, 0]), lineWidth=1.5, name='unnamed Rect', opacity=0.5, ori=0.0, pos=array([0., 0.]), size=array([2., 2.]), units='norm', vertices=ndarray(...), win=Window(...))",2.1,[],8,0.75,"[<psychopy.visual.line.Line object at 0x7f6929649df0>, <psychopy.visual.line.Line object at 0x7f692964f130>]",<psychopy.hardware.keyboard.Keyboard object at 0x7f690f4db880>,
2,dot,0.3,['dot'],['density'],black,0,20,20,20,,,9.111158847808838,9.411141872406006,dot,"[0.1, 0.06]","[[-0.03288134563171543, -0.4238564918242606], [-0.10611641736664675, -0.2370354775439666]]",density,black,true,correct,nan,N004,visual,1,"['1', '2']","['3', '4']",1,/NOBACKUP2/USER/Jeong/experiment2,/NOBACKUP2/USER/Jeong/experiment2/logfiles/visual/N004_d-20240925,2023.2.3,harveyvisual,"Window(allowGUI=False, allowStencil=False, autoLog=True, backendConf=UNKNOWN, backgroundFit='cover', backgroundImage=None, bitsMode=UNKNOWN, blendMode='avg', bpc=(8, 8, 8), color=array([-1, -1, -1]), colorSpace='rgb', depthBits=8, fullscr=<method-wrapper '__getattribute__' of attributeSetter object at 0x7f693362d610>, gamma=None, gammaErrorPolicy='raise', lms=UNKNOWN, monitor=<psychopy.monitors.calibTools.Monitor object at 0x7f692c723bb0>, multiSample=False, name='stim_window', numSamples=2, pos=[0.0, 0.0], screen=0, size=array([1920, 1080]), stencilBits=0, stereo=False, title='PsychoPy', units='deg', useFBO=True, useRetina=False, viewOri=0.0, viewPos=None, viewScale=None, waitBlanking=True, winType='pyglet')","{'TR': 2.1, 'volumes': 5, 'sync': '5', 'skip': 0, 'sound': False}",<psychopy.clock.CountdownTimer object at 0x7f692c700550>,"Rect(__class__=<class 'psychopy.visual.rect.Rect'>, anchor=('center', 'center'), autoDraw=True, autoLog=True, closeShape=True, color=method-wrapper(...), colorSpace='rgb', contrast=None, depth=0, draggable=False, fillColor=array([0.00392157, 0.00392157, 0.00392157]), fillColorSpace='rgb', fillRGB=array([0.00392157, 0.00392157, 0.00392157]), interpolate=True, lineColor=array([0., 0., 0.]), lineColorSpace='rgb', lineRGB=array([0, 0, 0]), lineWidth=1.5, name='unnamed Rect', opacity=0.5, ori=0.0, pos=array([0., 0.]), size=array([2., 2.]), units='norm', vertices=ndarray(...), win=Window(...))",2.1,[],8,0.75,"[<psychopy.visual.line.Line object at 0x7f6929649df0>, <psychopy.visual.line.Line object at 0x7f692964f130>]",<psychopy.hardware.keyboard.Keyboard object at 0x7f690f4db880>,
0,pause,0.4,None,None,None,0,21,21,21,,,,,,,,,,,,,N004,visual,1,"['1', '2']","['3', '4']",1,/NOBACKUP2/USER/Jeong/experiment2,/NOBACKUP2/USER/Jeong/experiment2/logfiles/visual/N004_d-20240925,2023.2.3,harveyvisual,"Window(allowGUI=False, allowStencil=False, autoLog=True, backendConf=UNKNOWN, backgroundFit='cover', backgroundImage=None, bitsMode=UNKNOWN, blendMode='avg', bpc=(8, 8, 8), color=array([-1, -1, -1]), colorSpace='rgb', depthBits=8, fullscr=<method-wrapper '__getattribute__' of attributeSetter object at 0x7f693362d610>, gamma=None, gammaErrorPolicy='raise', lms=UNKNOWN, monitor=<psychopy.monitors.calibTools.Monitor object at 0x7f692c723bb0>, multiSample=False, name='stim_window', numSamples=2, pos=[0.0, 0.0], screen=0, size=array([1920, 1080]), stencilBits=0, stereo=False, title='PsychoPy', units='deg', useFBO=True, useRetina=False, viewOri=0.0, viewPos=None, viewScale=None, waitBlanking=True, winType='pyglet')","{'TR': 2.1, 'volumes': 5, 'sync': '5', 'skip': 0, 'sound': False}",<psychopy.clock.CountdownTimer object at 0x7f692c700550>,"Rect(__class__=<class 'psychopy.visual.rect.Rect'>, anchor=('center', 'center'), autoDraw=True, autoLog=True, closeShape=True, color=method-wrapper(...), colorSpace='rgb', contrast=None, depth=0, draggable=False, fillColor=array([0.00392157, 0.00392157, 0.00392157]), fillColorSpace='rgb', fillRGB=array([0.00392157, 0.00392157, 0.00392157]), interpolate=True, lineColor=array([0., 0., 0.]), lineColorSpace='rgb', lineRGB=array([0, 0, 0]), lineWidth=1.5, name='unnamed Rect', opacity=0.5, ori=0.0, pos=array([0., 0.]), size=array([2., 2.]), units='norm', vertices=ndarray(...), win=Window(...))",2.1,[],8,0.75,"[<psychopy.visual.line.Line object at 0x7f6929649df0>, <psychopy.visual.line.Line object at 0x7f692964f130>]",<psychopy.hardware.keyboard.Keyboard object at 0x7f690f4db880>,
2,dot,0.3,['dot'],['density'],black,0,22,22,22,,,9.811147928237915,10.111259937286377,dot,"[0.08, 0.08]","[[0.24818458179829028, -0.5230613829255512], [0.05315527151035717, -0.47711981276458415]]",density,black,true,correct,nan,N004,visual,1,"['1', '2']","['3', '4']",1,/NOBACKUP2/USER/Jeong/experiment2,/NOBACKUP2/USER/Jeong/experiment2/logfiles/visual/N004_d-20240925,2023.2.3,harveyvisual,"Window(allowGUI=False, allowStencil=False, autoLog=True, backendConf=UNKNOWN, backgroundFit='cover', backgroundImage=None, bitsMode=UNKNOWN, blendMode='avg', bpc=(8, 8, 8), color=array([-1, -1, -1]), colorSpace='rgb', depthBits=8, fullscr=<method-wrapper '__getattribute__' of attributeSetter object at 0x7f693362d610>, gamma=None, gammaErrorPolicy='raise', lms=UNKNOWN, monitor=<psychopy.monitors.calibTools.Monitor object at 0x7f692c723bb0>, multiSample=False, name='stim_window', numSamples=2, pos=[0.0, 0.0], screen=0, size=array([1920, 1080]), stencilBits=0, stereo=False, title='PsychoPy', units='deg', useFBO=True, useRetina=False, viewOri=0.0, viewPos=None, viewScale=None, waitBlanking=True, winType='pyglet')","{'TR': 2.1, 'volumes': 5, 'sync': '5', 'skip': 0, 'sound': False}",<psychopy.clock.CountdownTimer object at 0x7f692c700550>,"Rect(__class__=<class 'psychopy.visual.rect.Rect'>, anchor=('center', 'center'), autoDraw=True, autoLog=True, closeShape=True, color=method-wrapper(...), colorSpace='rgb', contrast=None, depth=0, draggable=False, fillColor=array([0.00392157, 0.00392157, 0.00392157]), fillColorSpace='rgb', fillRGB=array([0.00392157, 0.00392157, 0.00392157]), interpolate=True, lineColor=array([0., 0., 0.]), lineColorSpace='rgb', lineRGB=array([0, 0, 0]), lineWidth=1.5, name='unnamed Rect', opacity=0.5, ori=0.0, pos=array([0., 0.]), size=array([2., 2.]), units='norm', vertices=ndarray(...), win=Window(...))",2.1,[],8,0.75,"[<psychopy.visual.line.Line object at 0x7f6929649df0>, <psychopy.visual.line.Line object at 0x7f692964f130>]",<psychopy.hardware.keyboard.Keyboard object at 0x7f690f4db880>,
0,pause,0.4,None,None,None,0,23,23,23,,,,,,,,,,,,,N004,visual,1,"['1', '2']","['3', '4']",1,/NOBACKUP2/USER/Jeong/experiment2,/NOBACKUP2/USER/Jeong/experiment2/logfiles/visual/N004_d-20240925,2023.2.3,harveyvisual,"Window(allowGUI=False, allowStencil=False, autoLog=True, backendConf=UNKNOWN, backgroundFit='cover', backgroundImage=None, bitsMode=UNKNOWN, blendMode='avg', bpc=(8, 8, 8), color=array([-1, -1, -1]), colorSpace='rgb', depthBits=8, fullscr=<method-wrapper '__getattribute__' of attributeSetter object at 0x7f693362d610>, gamma=None, gammaErrorPolicy='raise', lms=UNKNOWN, monitor=<psychopy.monitors.calibTools.Monitor object at 0x7f692c723bb0>, multiSample=False, name='stim_window', numSamples=2, pos=[0.0, 0.0], screen=0, size=array([1920, 1080]), stencilBits=0, stereo=False, title='PsychoPy', units='deg', useFBO=True, useRetina=False, viewOri=0.0, viewPos=None, viewScale=None, waitBlanking=True, winType='pyglet')","{'TR': 2.1, 'volumes': 5, 'sync': '5', 'skip': 0, 'sound': False}",<psychopy.clock.CountdownTimer object at 0x7f692c700550>,"Rect(__class__=<class 'psychopy.visual.rect.Rect'>, anchor=('center', 'center'), autoDraw=True, autoLog=True, closeShape=True, color=method-wrapper(...), colorSpace='rgb', contrast=None, depth=0, draggable=False, fillColor=array([0.00392157, 0.00392157, 0.00392157]), fillColorSpace='rgb', fillRGB=array([0.00392157, 0.00392157, 0.00392157]), interpolate=True, lineColor=array([0., 0., 0.]), lineColorSpace='rgb', lineRGB=array([0, 0, 0]), lineWidth=1.5, name='unnamed Rect', opacity=0.5, ori=0.0, pos=array([0., 0.]), size=array([2., 2.]), units='norm', vertices=ndarray(...), win=Window(...))",2.1,[],8,0.75,"[<psychopy.visual.line.Line object at 0x7f6929649df0>, <psychopy.visual.line.Line object at 0x7f692964f130>]",<psychopy.hardware.keyboard.Keyboard object at 0x7f690f4db880>,
3,dot,0.3,['dot'],['density'],white,0,24,24,24,,,10.511225938796997,10.811089992523193,dot,"[0.1, 0.06, 0.06]","[[0.29938275938101017, 0.44415474715472736], [0.13070782598704628, 0.5557174004537693], [0.11832456902218637, 0.3273615767427578]]",density,white,false,wrong,nan,N004,visual,1,"['1', '2']","['3', '4']",1,/NOBACKUP2/USER/Jeong/experiment2,/NOBACKUP2/USER/Jeong/experiment2/logfiles/visual/N004_d-20240925,2023.2.3,harveyvisual,"Window(allowGUI=False, allowStencil=False, autoLog=True, backendConf=UNKNOWN, backgroundFit='cover', backgroundImage=None, bitsMode=UNKNOWN, blendMode='avg', bpc=(8, 8, 8), color=array([-1, -1, -1]), colorSpace='rgb', depthBits=8, fullscr=<method-wrapper '__getattribute__' of attributeSetter object at 0x7f693362d610>, gamma=None, gammaErrorPolicy='raise', lms=UNKNOWN, monitor=<psychopy.monitors.calibTools.Monitor object at 0x7f692c723bb0>, multiSample=False, name='stim_window', numSamples=2, pos=[0.0, 0.0], screen=0, size=array([1920, 1080]), stencilBits=0, stereo=False, title='PsychoPy', units='deg', useFBO=True, useRetina=False, viewOri=0.0, viewPos=None, viewScale=None, waitBlanking=True, winType='pyglet')","{'TR': 2.1, 'volumes': 5, 'sync': '5', 'skip': 0, 'sound': False}",<psychopy.clock.CountdownTimer object at 0x7f692c700550>,"Rect(__class__=<class 'psychopy.visual.rect.Rect'>, anchor=('center', 'center'), autoDraw=True, autoLog=True, closeShape=True, color=method-wrapper(...), colorSpace='rgb', contrast=None, depth=0, draggable=False, fillColor=array([0.00392157, 0.00392157, 0.00392157]), fillColorSpace='rgb', fillRGB=array([0.00392157, 0.00392157, 0.00392157]), interpolate=True, lineColor=array([0., 0., 0.]), lineColorSpace='rgb', lineRGB=array([0, 0, 0]), lineWidth=1.5, name='unnamed Rect', opacity=0.5, ori=0.0, pos=array([0., 0.]), size=array([2., 2.]), units='norm', vertices=ndarray(...), win=Window(...))",2.1,[],8,0.75,"[<psychopy.visual.line.Line object at 0x7f6929649df0>, <psychopy.visual.line.Line object at 0x7f692964f130>]",<psychopy.hardware.keyboard.Keyboard object at 0x7f690f4db880>,
0,pause,0.4,None,None,None,0,25,25,25,,,,,,,,,,,,,N004,visual,1,"['1', '2']","['3', '4']",1,/NOBACKUP2/USER/Jeong/experiment2,/NOBACKUP2/USER/Jeong/experiment2/logfiles/visual/N004_d-20240925,2023.2.3,harveyvisual,"Window(allowGUI=False, allowStencil=False, autoLog=True, backendConf=UNKNOWN, backgroundFit='cover', backgroundImage=None, bitsMode=UNKNOWN, blendMode='avg', bpc=(8, 8, 8), color=array([-1, -1, -1]), colorSpace='rgb', depthBits=8, fullscr=<method-wrapper '__getattribute__' of attributeSetter object at 0x7f693362d610>, gamma=None, gammaErrorPolicy='raise', lms=UNKNOWN, monitor=<psychopy.monitors.calibTools.Monitor object at 0x7f692c723bb0>, multiSample=False, name='stim_window', numSamples=2, pos=[0.0, 0.0], screen=0, size=array([1920, 1080]), stencilBits=0, stereo=False, title='PsychoPy', units='deg', useFBO=True, useRetina=False, viewOri=0.0, viewPos=None, viewScale=None, waitBlanking=True, winType='pyglet')","{'TR': 2.1, 'volumes': 5, 'sync': '5', 'skip': 0, 'sound': False}",<psychopy.clock.CountdownTimer object at 0x7f692c700550>,"Rect(__class__=<class 'psychopy.visual.rect.Rect'>, anchor=('center', 'center'), autoDraw=True, autoLog=True, closeShape=True, color=method-wrapper(...), colorSpace='rgb', contrast=None, depth=0, draggable=False, fillColor=array([0.00392157, 0.00392157, 0.00392157]), fillColorSpace='rgb', fillRGB=array([0.00392157, 0.00392157, 0.00392157]), interpolate=True, lineColor=array([0., 0., 0.]), lineColorSpace='rgb', lineRGB=array([0, 0, 0]), lineWidth=1.5, name='unnamed Rect', opacity=0.5, ori=0.0, pos=array([0., 0.]), size=array([2., 2.]), units='norm', vertices=ndarray(...), win=Window(...))",2.1,[],8,0.75,"[<psychopy.visual.line.Line object at 0x7f6929649df0>, <psychopy.visual.line.Line object at 0x7f692964f130>]",<psychopy.hardware.keyboard.Keyboard object at 0x7f690f4db880>,
3,dot,0.3,['dot'],['density'],black,0,26,26,26,,,11.211071968078613,11.511093854904175,dot,"[0.06, 0.1, 0.08]","[[0.348550694073714, -0.26372109460002424], [0.5073713069625243, -0.14206826334288786], [0.3419709386041379, 0.005891602819957491]]",density,black,true,correct,nan,N004,visual,1,"['1', '2']","['3', '4']",1,/NOBACKUP2/USER/Jeong/experiment2,/NOBACKUP2/USER/Jeong/experiment2/logfiles/visual/N004_d-20240925,2023.2.3,harveyvisual,"Window(allowGUI=False, allowStencil=False, autoLog=True, backendConf=UNKNOWN, backgroundFit='cover', backgroundImage=None, bitsMode=UNKNOWN, blendMode='avg', bpc=(8, 8, 8), color=array([-1, -1, -1]), colorSpace='rgb', depthBits=8, fullscr=<method-wrapper '__getattribute__' of attributeSetter object at 0x7f693362d610>, gamma=None, gammaErrorPolicy='raise', lms=UNKNOWN, monitor=<psychopy.monitors.calibTools.Monitor object at 0x7f692c723bb0>, multiSample=False, name='stim_window', numSamples=2, pos=[0.0, 0.0], screen=0, size=array([1920, 1080]), stencilBits=0, stereo=False, title='PsychoPy', units='deg', useFBO=True, useRetina=False, viewOri=0.0, viewPos=None, viewScale=None, waitBlanking=True, winType='pyglet')","{'TR': 2.1, 'volumes': 5, 'sync': '5', 'skip': 0, 'sound': False}",<psychopy.clock.CountdownTimer object at 0x7f692c700550>,"Rect(__class__=<class 'psychopy.visual.rect.Rect'>, anchor=('center', 'center'), autoDraw=True, autoLog=True, closeShape=True, color=method-wrapper(...), colorSpace='rgb', contrast=None, depth=0, draggable=False, fillColor=array([0.00392157, 0.00392157, 0.00392157]), fillColorSpace='rgb', fillRGB=array([0.00392157, 0.00392157, 0.00392157]), interpolate=True, lineColor=array([0., 0., 0.]), lineColorSpace='rgb', lineRGB=array([0, 0, 0]), lineWidth=1.5, name='unnamed Rect', opacity=0.5, ori=0.0, pos=array([0., 0.]), size=array([2., 2.]), units='norm', vertices=ndarray(...), win=Window(...))",2.1,[],8,0.75,"[<psychopy.visual.line.Line object at 0x7f6929649df0>, <psychopy.visual.line.Line object at 0x7f692964f130>]",<psychopy.hardware.keyboard.Keyboard object at 0x7f690f4db880>,
0,pause,0.4,None,None,None,0,27,27,27,,,,,,,,,,,,,N004,visual,1,"['1', '2']","['3', '4']",1,/NOBACKUP2/USER/Jeong/experiment2,/NOBACKUP2/USER/Jeong/experiment2/logfiles/visual/N004_d-20240925,2023.2.3,harveyvisual,"Window(allowGUI=False, allowStencil=False, autoLog=True, backendConf=UNKNOWN, backgroundFit='cover', backgroundImage=None, bitsMode=UNKNOWN, blendMode='avg', bpc=(8, 8, 8), color=array([-1, -1, -1]), colorSpace='rgb', depthBits=8, fullscr=<method-wrapper '__getattribute__' of attributeSetter object at 0x7f693362d610>, gamma=None, gammaErrorPolicy='raise', lms=UNKNOWN, monitor=<psychopy.monitors.calibTools.Monitor object at 0x7f692c723bb0>, multiSample=False, name='stim_window', numSamples=2, pos=[0.0, 0.0], screen=0, size=array([1920, 1080]), stencilBits=0, stereo=False, title='PsychoPy', units='deg', useFBO=True, useRetina=False, viewOri=0.0, viewPos=None, viewScale=None, waitBlanking=True, winType='pyglet')","{'TR': 2.1, 'volumes': 5, 'sync': '5', 'skip': 0, 'sound': False}",<psychopy.clock.CountdownTimer object at 0x7f692c700550>,"Rect(__class__=<class 'psychopy.visual.rect.Rect'>, anchor=('center', 'center'), autoDraw=True, autoLog=True, closeShape=True, color=method-wrapper(...), colorSpace='rgb', contrast=None, depth=0, draggable=False, fillColor=array([0.00392157, 0.00392157, 0.00392157]), fillColorSpace='rgb', fillRGB=array([0.00392157, 0.00392157, 0.00392157]), interpolate=True, lineColor=array([0., 0., 0.]), lineColorSpace='rgb', lineRGB=array([0, 0, 0]), lineWidth=1.5, name='unnamed Rect', opacity=0.5, ori=0.0, pos=array([0., 0.]), size=array([2., 2.]), units='norm', vertices=ndarray(...), win=Window(...))",2.1,[],8,0.75,"[<psychopy.visual.line.Line object at 0x7f6929649df0>, <psychopy.visual.line.Line object at 0x7f692964f130>]",<psychopy.hardware.keyboard.Keyboard object at 0x7f690f4db880>,
3,dot,0.3,['dot'],['density'],black,0,28,28,28,,,11.911223888397217,12.211066961288452,dot,"[0.1, 0.1, 0.1]","[[-0.021384933427115945, -0.26055744462645497], [0.16478637362895734, -0.404980755917603], [-0.025077849445719256, -0.48190209473619267]]",density,black,true,correct,nan,N004,visual,1,"['1', '2']","['3', '4']",1,/NOBACKUP2/USER/Jeong/experiment2,/NOBACKUP2/USER/Jeong/experiment2/logfiles/visual/N004_d-20240925,2023.2.3,harveyvisual,"Window(allowGUI=False, allowStencil=False, autoLog=True, backendConf=UNKNOWN, backgroundFit='cover', backgroundImage=None, bitsMode=UNKNOWN, blendMode='avg', bpc=(8, 8, 8), color=array([-1, -1, -1]), colorSpace='rgb', depthBits=8, fullscr=<method-wrapper '__getattribute__' of attributeSetter object at 0x7f693362d610>, gamma=None, gammaErrorPolicy='raise', lms=UNKNOWN, monitor=<psychopy.monitors.calibTools.Monitor object at 0x7f692c723bb0>, multiSample=False, name='stim_window', numSamples=2, pos=[0.0, 0.0], screen=0, size=array([1920, 1080]), stencilBits=0, stereo=False, title='PsychoPy', units='deg', useFBO=True, useRetina=False, viewOri=0.0, viewPos=None, viewScale=None, waitBlanking=True, winType='pyglet')","{'TR': 2.1, 'volumes': 5, 'sync': '5', 'skip': 0, 'sound': False}",<psychopy.clock.CountdownTimer object at 0x7f692c700550>,"Rect(__class__=<class 'psychopy.visual.rect.Rect'>, anchor=('center', 'center'), autoDraw=True, autoLog=True, closeShape=True, color=method-wrapper(...), colorSpace='rgb', contrast=None, depth=0, draggable=False, fillColor=array([0.00392157, 0.00392157, 0.00392157]), fillColorSpace='rgb', fillRGB=array([0.00392157, 0.00392157, 0.00392157]), interpolate=True, lineColor=array([0., 0., 0.]), lineColorSpace='rgb', lineRGB=array([0, 0, 0]), lineWidth=1.5, name='unnamed Rect', opacity=0.5, ori=0.0, pos=array([0., 0.]), size=array([2., 2.]), units='norm', vertices=ndarray(...), win=Window(...))",2.1,[],8,0.75,"[<psychopy.visual.line.Line object at 0x7f6929649df0>, <psychopy.visual.line.Line object at 0x7f692964f130>]",<psychopy.hardware.keyboard.Keyboard object at 0x7f690f4db880>,
0,pause,0.4,None,None,None,0,29,29,29,,,,,,,,,,,,,N004,visual,1,"['1', '2']","['3', '4']",1,/NOBACKUP2/USER/Jeong/experiment2,/NOBACKUP2/USER/Jeong/experiment2/logfiles/visual/N004_d-20240925,2023.2.3,harveyvisual,"Window(allowGUI=False, allowStencil=False, autoLog=True, backendConf=UNKNOWN, backgroundFit='cover', backgroundImage=None, bitsMode=UNKNOWN, blendMode='avg', bpc=(8, 8, 8), color=array([-1, -1, -1]), colorSpace='rgb', depthBits=8, fullscr=<method-wrapper '__getattribute__' of attributeSetter object at 0x7f693362d610>, gamma=None, gammaErrorPolicy='raise', lms=UNKNOWN, monitor=<psychopy.monitors.calibTools.Monitor object at 0x7f692c723bb0>, multiSample=False, name='stim_window', numSamples=2, pos=[0.0, 0.0], screen=0, size=array([1920, 1080]), stencilBits=0, stereo=False, title='PsychoPy', units='deg', useFBO=True, useRetina=False, viewOri=0.0, viewPos=None, viewScale=None, waitBlanking=True, winType='pyglet')","{'TR': 2.1, 'volumes': 5, 'sync': '5', 'skip': 0, 'sound': False}",<psychopy.clock.CountdownTimer object at 0x7f692c700550>,"Rect(__class__=<class 'psychopy.visual.rect.Rect'>, anchor=('center', 'center'), autoDraw=True, autoLog=True, closeShape=True, color=method-wrapper(...), colorSpace='rgb', contrast=None, depth=0, draggable=False, fillColor=array([0.00392157, 0.00392157, 0.00392157]), fillColorSpace='rgb', fillRGB=array([0.00392157, 0.00392157, 0.00392157]), interpolate=True, lineColor=array([0., 0., 0.]), lineColorSpace='rgb', lineRGB=array([0, 0, 0]), lineWidth=1.5, name='unnamed Rect', opacity=0.5, ori=0.0, pos=array([0., 0.]), size=array([2., 2.]), units='norm', vertices=ndarray(...), win=Window(...))",2.1,[],8,0.75,"[<psychopy.visual.line.Line object at 0x7f6929649df0>, <psychopy.visual.line.Line object at 0x7f692964f130>]",<psychopy.hardware.keyboard.Keyboard object at 0x7f690f4db880>,
3,dot,0.3,['dot'],['density'],black,0,30,30,30,,,12.611034870147705,12.91105580329895,dot,"[0.08, 0.08, 0.1]","[[0.2656832518280197, 0.0014864193765316018], [0.3503107158811183, -0.1826455867164705], [0.5188928509039705, -0.04177453376365527]]",density,black,true,correct,nan,N004,visual,1,"['1', '2']","['3', '4']",1,/NOBACKUP2/USER/Jeong/experiment2,/NOBACKUP2/USER/Jeong/experiment2/logfiles/visual/N004_d-20240925,2023.2.3,harveyvisual,"Window(allowGUI=False, allowStencil=False, autoLog=True, backendConf=UNKNOWN, backgroundFit='cover', backgroundImage=None, bitsMode=UNKNOWN, blendMode='avg', bpc=(8, 8, 8), color=array([-1, -1, -1]), colorSpace='rgb', depthBits=8, fullscr=<method-wrapper '__getattribute__' of attributeSetter object at 0x7f693362d610>, gamma=None, gammaErrorPolicy='raise', lms=UNKNOWN, monitor=<psychopy.monitors.calibTools.Monitor object at 0x7f692c723bb0>, multiSample=False, name='stim_window', numSamples=2, pos=[0.0, 0.0], screen=0, size=array([1920, 1080]), stencilBits=0, stereo=False, title='PsychoPy', units='deg', useFBO=True, useRetina=False, viewOri=0.0, viewPos=None, viewScale=None, waitBlanking=True, winType='pyglet')","{'TR': 2.1, 'volumes': 5, 'sync': '5', 'skip': 0, 'sound': False}",<psychopy.clock.CountdownTimer object at 0x7f692c700550>,"Rect(__class__=<class 'psychopy.visual.rect.Rect'>, anchor=('center', 'center'), autoDraw=True, autoLog=True, closeShape=True, color=method-wrapper(...), colorSpace='rgb', contrast=None, depth=0, draggable=False, fillColor=array([0.00392157, 0.00392157, 0.00392157]), fillColorSpace='rgb', fillRGB=array([0.00392157, 0.00392157, 0.00392157]), interpolate=True, lineColor=array([0., 0., 0.]), lineColorSpace='rgb', lineRGB=array([0, 0, 0]), lineWidth=1.5, name='unnamed Rect', opacity=0.5, ori=0.0, pos=array([0., 0.]), size=array([2., 2.]), units='norm', vertices=ndarray(...), win=Window(...))",2.1,[],8,0.75,"[<psychopy.visual.line.Line object at 0x7f6929649df0>, <psychopy.visual.line.Line object at 0x7f692964f130>]",<psychopy.hardware.keyboard.Keyboard object at 0x7f690f4db880>,
0,pause,0.4,None,None,None,0,31,31,31,,,,,,,,,,,,,N004,visual,1,"['1', '2']","['3', '4']",1,/NOBACKUP2/USER/Jeong/experiment2,/NOBACKUP2/USER/Jeong/experiment2/logfiles/visual/N004_d-20240925,2023.2.3,harveyvisual,"Window(allowGUI=False, allowStencil=False, autoLog=True, backendConf=UNKNOWN, backgroundFit='cover', backgroundImage=None, bitsMode=UNKNOWN, blendMode='avg', bpc=(8, 8, 8), color=array([-1, -1, -1]), colorSpace='rgb', depthBits=8, fullscr=<method-wrapper '__getattribute__' of attributeSetter object at 0x7f693362d610>, gamma=None, gammaErrorPolicy='raise', lms=UNKNOWN, monitor=<psychopy.monitors.calibTools.Monitor object at 0x7f692c723bb0>, multiSample=False, name='stim_window', numSamples=2, pos=[0.0, 0.0], screen=0, size=array([1920, 1080]), stencilBits=0, stereo=False, title='PsychoPy', units='deg', useFBO=True, useRetina=False, viewOri=0.0, viewPos=None, viewScale=None, waitBlanking=True, winType='pyglet')","{'TR': 2.1, 'volumes': 5, 'sync': '5', 'skip': 0, 'sound': False}",<psychopy.clock.CountdownTimer object at 0x7f692c700550>,"Rect(__class__=<class 'psychopy.visual.rect.Rect'>, anchor=('center', 'center'), autoDraw=True, autoLog=True, closeShape=True, color=method-wrapper(...), colorSpace='rgb', contrast=None, depth=0, draggable=False, fillColor=array([0.00392157, 0.00392157, 0.00392157]), fillColorSpace='rgb', fillRGB=array([0.00392157, 0.00392157, 0.00392157]), interpolate=True, lineColor=array([0., 0., 0.]), lineColorSpace='rgb', lineRGB=array([0, 0, 0]), lineWidth=1.5, name='unnamed Rect', opacity=0.5, ori=0.0, pos=array([0., 0.]), size=array([2., 2.]), units='norm', vertices=ndarray(...), win=Window(...))",2.1,[],8,0.75,"[<psychopy.visual.line.Line object at 0x7f6929649df0>, <psychopy.visual.line.Line object at 0x7f692964f130>]",<psychopy.hardware.keyboard.Keyboard object at 0x7f690f4db880>,
3,dot,0.3,['dot'],['density'],white,0,32,32,32,,,13.31104588508606,13.611044883728027,dot,"[0.08, 0.06, 0.06]","[[0.5383732683216915, 0.24050044654635605], [0.337973319445641, 0.36292363064724675], [0.3422154310588786, 0.14570949010333048]]",density,white,true,correct,nan,N004,visual,1,"['1', '2']","['3', '4']",1,/NOBACKUP2/USER/Jeong/experiment2,/NOBACKUP2/USER/Jeong/experiment2/logfiles/visual/N004_d-20240925,2023.2.3,harveyvisual,"Window(allowGUI=False, allowStencil=False, autoLog=True, backendConf=UNKNOWN, backgroundFit='cover', backgroundImage=None, bitsMode=UNKNOWN, blendMode='avg', bpc=(8, 8, 8), color=array([-1, -1, -1]), colorSpace='rgb', depthBits=8, fullscr=<method-wrapper '__getattribute__' of attributeSetter object at 0x7f693362d610>, gamma=None, gammaErrorPolicy='raise', lms=UNKNOWN, monitor=<psychopy.monitors.calibTools.Monitor object at 0x7f692c723bb0>, multiSample=False, name='stim_window', numSamples=2, pos=[0.0, 0.0], screen=0, size=array([1920, 1080]), stencilBits=0, stereo=False, title='PsychoPy', units='deg', useFBO=True, useRetina=False, viewOri=0.0, viewPos=None, viewScale=None, waitBlanking=True, winType='pyglet')","{'TR': 2.1, 'volumes': 5, 'sync': '5', 'skip': 0, 'sound': False}",<psychopy.clock.CountdownTimer object at 0x7f692c700550>,"Rect(__class__=<class 'psychopy.visual.rect.Rect'>, anchor=('center', 'center'), autoDraw=True, autoLog=True, closeShape=True, color=method-wrapper(...), colorSpace='rgb', contrast=None, depth=0, draggable=False, fillColor=array([0.00392157, 0.00392157, 0.00392157]), fillColorSpace='rgb', fillRGB=array([0.00392157, 0.00392157, 0.00392157]), interpolate=True, lineColor=array([0., 0., 0.]), lineColorSpace='rgb', lineRGB=array([0, 0, 0]), lineWidth=1.5, name='unnamed Rect', opacity=0.5, ori=0.0, pos=array([0., 0.]), size=array([2., 2.]), units='norm', vertices=ndarray(...), win=Window(...))",2.1,[],8,0.75,"[<psychopy.visual.line.Line object at 0x7f6929649df0>, <psychopy.visual.line.Line object at 0x7f692964f130>]",<psychopy.hardware.keyboard.Keyboard object at 0x7f690f4db880>,
0,pause,0.4,None,None,None,0,33,33,33,,,,,,,,,,,,,N004,visual,1,"['1', '2']","['3', '4']",1,/NOBACKUP2/USER/Jeong/experiment2,/NOBACKUP2/USER/Jeong/experiment2/logfiles/visual/N004_d-20240925,2023.2.3,harveyvisual,"Window(allowGUI=False, allowStencil=False, autoLog=True, backendConf=UNKNOWN, backgroundFit='cover', backgroundImage=None, bitsMode=UNKNOWN, blendMode='avg', bpc=(8, 8, 8), color=array([-1, -1, -1]), colorSpace='rgb', depthBits=8, fullscr=<method-wrapper '__getattribute__' of attributeSetter object at 0x7f693362d610>, gamma=None, gammaErrorPolicy='raise', lms=UNKNOWN, monitor=<psychopy.monitors.calibTools.Monitor object at 0x7f692c723bb0>, multiSample=False, name='stim_window', numSamples=2, pos=[0.0, 0.0], screen=0, size=array([1920, 1080]), stencilBits=0, stereo=False, title='PsychoPy', units='deg', useFBO=True, useRetina=False, viewOri=0.0, viewPos=None, viewScale=None, waitBlanking=True, winType='pyglet')","{'TR': 2.1, 'volumes': 5, 'sync': '5', 'skip': 0, 'sound': False}",<psychopy.clock.CountdownTimer object at 0x7f692c700550>,"Rect(__class__=<class 'psychopy.visual.rect.Rect'>, anchor=('center', 'center'), autoDraw=True, autoLog=True, closeShape=True, color=method-wrapper(...), colorSpace='rgb', contrast=None, depth=0, draggable=False, fillColor=array([0.00392157, 0.00392157, 0.00392157]), fillColorSpace='rgb', fillRGB=array([0.00392157, 0.00392157, 0.00392157]), interpolate=True, lineColor=array([0., 0., 0.]), lineColorSpace='rgb', lineRGB=array([0, 0, 0]), lineWidth=1.5, name='unnamed Rect', opacity=0.5, ori=0.0, pos=array([0., 0.]), size=array([2., 2.]), units='norm', vertices=ndarray(...), win=Window(...))",2.1,[],8,0.75,"[<psychopy.visual.line.Line object at 0x7f6929649df0>, <psychopy.visual.line.Line object at 0x7f692964f130>]",<psychopy.hardware.keyboard.Keyboard object at 0x7f690f4db880>,
3,dot,0.3,['dot'],['density'],black,0,34,34,34,,,14.011003971099854,14.310992956161499,dot,"[0.08, 0.06, 0.08]","[[-0.3082868261871679, -0.3137599619928766], [-0.14816041357862977, -0.19371393562593295], [-0.35304767783039576, -0.10610354059871957]]",density,black,true,correct,nan,N004,visual,1,"['1', '2']","['3', '4']",1,/NOBACKUP2/USER/Jeong/experiment2,/NOBACKUP2/USER/Jeong/experiment2/logfiles/visual/N004_d-20240925,2023.2.3,harveyvisual,"Window(allowGUI=False, allowStencil=False, autoLog=True, backendConf=UNKNOWN, backgroundFit='cover', backgroundImage=None, bitsMode=UNKNOWN, blendMode='avg', bpc=(8, 8, 8), color=array([-1, -1, -1]), colorSpace='rgb', depthBits=8, fullscr=<method-wrapper '__getattribute__' of attributeSetter object at 0x7f693362d610>, gamma=None, gammaErrorPolicy='raise', lms=UNKNOWN, monitor=<psychopy.monitors.calibTools.Monitor object at 0x7f692c723bb0>, multiSample=False, name='stim_window', numSamples=2, pos=[0.0, 0.0], screen=0, size=array([1920, 1080]), stencilBits=0, stereo=False, title='PsychoPy', units='deg', useFBO=True, useRetina=False, viewOri=0.0, viewPos=None, viewScale=None, waitBlanking=True, winType='pyglet')","{'TR': 2.1, 'volumes': 5, 'sync': '5', 'skip': 0, 'sound': False}",<psychopy.clock.CountdownTimer object at 0x7f692c700550>,"Rect(__class__=<class 'psychopy.visual.rect.Rect'>, anchor=('center', 'center'), autoDraw=True, autoLog=True, closeShape=True, color=method-wrapper(...), colorSpace='rgb', contrast=None, depth=0, draggable=False, fillColor=array([0.00392157, 0.00392157, 0.00392157]), fillColorSpace='rgb', fillRGB=array([0.00392157, 0.00392157, 0.00392157]), interpolate=True, lineColor=array([0., 0., 0.]), lineColorSpace='rgb', lineRGB=array([0, 0, 0]), lineWidth=1.5, name='unnamed Rect', opacity=0.5, ori=0.0, pos=array([0., 0.]), size=array([2., 2.]), units='norm', vertices=ndarray(...), win=Window(...))",2.1,[],8,0.75,"[<psychopy.visual.line.Line object at 0x7f6929649df0>, <psychopy.visual.line.Line object at 0x7f692964f130>]",<psychopy.hardware.keyboard.Keyboard object at 0x7f690f4db880>,
0,pause,0.4,None,None,None,0,35,35,35,,,,,,,,,,,,,N004,visual,1,"['1', '2']","['3', '4']",1,/NOBACKUP2/USER/Jeong/experiment2,/NOBACKUP2/USER/Jeong/experiment2/logfiles/visual/N004_d-20240925,2023.2.3,harveyvisual,"Window(allowGUI=False, allowStencil=False, autoLog=True, backendConf=UNKNOWN, backgroundFit='cover', backgroundImage=None, bitsMode=UNKNOWN, blendMode='avg', bpc=(8, 8, 8), color=array([-1, -1, -1]), colorSpace='rgb', depthBits=8, fullscr=<method-wrapper '__getattribute__' of attributeSetter object at 0x7f693362d610>, gamma=None, gammaErrorPolicy='raise', lms=UNKNOWN, monitor=<psychopy.monitors.calibTools.Monitor object at 0x7f692c723bb0>, multiSample=False, name='stim_window', numSamples=2, pos=[0.0, 0.0], screen=0, size=array([1920, 1080]), stencilBits=0, stereo=False, title='PsychoPy', units='deg', useFBO=True, useRetina=False, viewOri=0.0, viewPos=None, viewScale=None, waitBlanking=True, winType='pyglet')","{'TR': 2.1, 'volumes': 5, 'sync': '5', 'skip': 0, 'sound': False}",<psychopy.clock.CountdownTimer object at 0x7f692c700550>,"Rect(__class__=<class 'psychopy.visual.rect.Rect'>, anchor=('center', 'center'), autoDraw=True, autoLog=True, closeShape=True, color=method-wrapper(...), colorSpace='rgb', contrast=None, depth=0, draggable=False, fillColor=array([0.00392157, 0.00392157, 0.00392157]), fillColorSpace='rgb', fillRGB=array([0.00392157, 0.00392157, 0.00392157]), interpolate=True, lineColor=array([0., 0., 0.]), lineColorSpace='rgb', lineRGB=array([0, 0, 0]), lineWidth=1.5, name='unnamed Rect', opacity=0.5, ori=0.0, pos=array([0., 0.]), size=array([2., 2.]), units='norm', vertices=ndarray(...), win=Window(...))",2.1,[],8,0.75,"[<psychopy.visual.line.Line object at 0x7f6929649df0>, <psychopy.visual.line.Line object at 0x7f692964f130>]",<psychopy.hardware.keyboard.Keyboard object at 0x7f690f4db880>,
4,dot,0.3,['dot'],['density'],white,0,36,36,36,,,14.710976839065552,15.010968923568726,dot,"[0.1, 0.08, 0.06, 0.06]","[[-0.1807894278345534, -0.050693892368996955], [-0.03778933673514029, -0.29773510453537966], [0.0747201162679791, -0.1287424711559737], [-0.02241484737224569, 0.07404475448468936]]",density,white,false,wrong,nan,N004,visual,1,"['1', '2']","['3', '4']",1,/NOBACKUP2/USER/Jeong/experiment2,/NOBACKUP2/USER/Jeong/experiment2/logfiles/visual/N004_d-20240925,2023.2.3,harveyvisual,"Window(allowGUI=False, allowStencil=False, autoLog=True, backendConf=UNKNOWN, backgroundFit='cover', backgroundImage=None, bitsMode=UNKNOWN, blendMode='avg', bpc=(8, 8, 8), color=array([-1, -1, -1]), colorSpace='rgb', depthBits=8, fullscr=<method-wrapper '__getattribute__' of attributeSetter object at 0x7f693362d610>, gamma=None, gammaErrorPolicy='raise', lms=UNKNOWN, monitor=<psychopy.monitors.calibTools.Monitor object at 0x7f692c723bb0>, multiSample=False, name='stim_window', numSamples=2, pos=[0.0, 0.0], screen=0, size=array([1920, 1080]), stencilBits=0, stereo=False, title='PsychoPy', units='deg', useFBO=True, useRetina=False, viewOri=0.0, viewPos=None, viewScale=None, waitBlanking=True, winType='pyglet')","{'TR': 2.1, 'volumes': 5, 'sync': '5', 'skip': 0, 'sound': False}",<psychopy.clock.CountdownTimer object at 0x7f692c700550>,"Rect(__class__=<class 'psychopy.visual.rect.Rect'>, anchor=('center', 'center'), autoDraw=True, autoLog=True, closeShape=True, color=method-wrapper(...), colorSpace='rgb', contrast=None, depth=0, draggable=False, fillColor=array([0.00392157, 0.00392157, 0.00392157]), fillColorSpace='rgb', fillRGB=array([0.00392157, 0.00392157, 0.00392157]), interpolate=True, lineColor=array([0., 0., 0.]), lineColorSpace='rgb', lineRGB=array([0, 0, 0]), lineWidth=1.5, name='unnamed Rect', opacity=0.5, ori=0.0, pos=array([0., 0.]), size=array([2., 2.]), units='norm', vertices=ndarray(...), win=Window(...))",2.1,[],8,0.75,"[<psychopy.visual.line.Line object at 0x7f6929649df0>, <psychopy.visual.line.Line object at 0x7f692964f130>]",<psychopy.hardware.keyboard.Keyboard object at 0x7f690f4db880>,
0,pause,0.4,None,None,None,0,37,37,37,,,,,,,,,,,,,N004,visual,1,"['1', '2']","['3', '4']",1,/NOBACKUP2/USER/Jeong/experiment2,/NOBACKUP2/USER/Jeong/experiment2/logfiles/visual/N004_d-20240925,2023.2.3,harveyvisual,"Window(allowGUI=False, allowStencil=False, autoLog=True, backendConf=UNKNOWN, backgroundFit='cover', backgroundImage=None, bitsMode=UNKNOWN, blendMode='avg', bpc=(8, 8, 8), color=array([-1, -1, -1]), colorSpace='rgb', depthBits=8, fullscr=<method-wrapper '__getattribute__' of attributeSetter object at 0x7f693362d610>, gamma=None, gammaErrorPolicy='raise', lms=UNKNOWN, monitor=<psychopy.monitors.calibTools.Monitor object at 0x7f692c723bb0>, multiSample=False, name='stim_window', numSamples=2, pos=[0.0, 0.0], screen=0, size=array([1920, 1080]), stencilBits=0, stereo=False, title='PsychoPy', units='deg', useFBO=True, useRetina=False, viewOri=0.0, viewPos=None, viewScale=None, waitBlanking=True, winType='pyglet')","{'TR': 2.1, 'volumes': 5, 'sync': '5', 'skip': 0, 'sound': False}",<psychopy.clock.CountdownTimer object at 0x7f692c700550>,"Rect(__class__=<class 'psychopy.visual.rect.Rect'>, anchor=('center', 'center'), autoDraw=True, autoLog=True, closeShape=True, color=method-wrapper(...), colorSpace='rgb', contrast=None, depth=0, draggable=False, fillColor=array([0.00392157, 0.00392157, 0.00392157]), fillColorSpace='rgb', fillRGB=array([0.00392157, 0.00392157, 0.00392157]), interpolate=True, lineColor=array([0., 0., 0.]), lineColorSpace='rgb', lineRGB=array([0, 0, 0]), lineWidth=1.5, name='unnamed Rect', opacity=0.5, ori=0.0, pos=array([0., 0.]), size=array([2., 2.]), units='norm', vertices=ndarray(...), win=Window(...))",2.1,[],8,0.75,"[<psychopy.visual.line.Line object at 0x7f6929649df0>, <psychopy.visual.line.Line object at 0x7f692964f130>]",<psychopy.hardware.keyboard.Keyboard object at 0x7f690f4db880>,
4,dot,0.3,['dot'],['density'],black,0,38,38,38,,,15.410969018936157,15.710956811904907,dot,"[0.08, 0.06, 0.06, 0.1]","[[0.041567121943163726, -0.05225384285034155], [-0.0805660347394345, -0.3501797602382367], [-0.1695568067340664, -0.0700859275369407], [0.1361950610904954, -0.2628340353233457]]",density,black,true,correct,nan,N004,visual,1,"['1', '2']","['3', '4']",1,/NOBACKUP2/USER/Jeong/experiment2,/NOBACKUP2/USER/Jeong/experiment2/logfiles/visual/N004_d-20240925,2023.2.3,harveyvisual,"Window(allowGUI=False, allowStencil=False, autoLog=True, backendConf=UNKNOWN, backgroundFit='cover', backgroundImage=None, bitsMode=UNKNOWN, blendMode='avg', bpc=(8, 8, 8), color=array([-1, -1, -1]), colorSpace='rgb', depthBits=8, fullscr=<method-wrapper '__getattribute__' of attributeSetter object at 0x7f693362d610>, gamma=None, gammaErrorPolicy='raise', lms=UNKNOWN, monitor=<psychopy.monitors.calibTools.Monitor object at 0x7f692c723bb0>, multiSample=False, name='stim_window', numSamples=2, pos=[0.0, 0.0], screen=0, size=array([1920, 1080]), stencilBits=0, stereo=False, title='PsychoPy', units='deg', useFBO=True, useRetina=False, viewOri=0.0, viewPos=None, viewScale=None, waitBlanking=True, winType='pyglet')","{'TR': 2.1, 'volumes': 5, 'sync': '5', 'skip': 0, 'sound': False}",<psychopy.clock.CountdownTimer object at 0x7f692c700550>,"Rect(__class__=<class 'psychopy.visual.rect.Rect'>, anchor=('center', 'center'), autoDraw=True, autoLog=True, closeShape=True, color=method-wrapper(...), colorSpace='rgb', contrast=None, depth=0, draggable=False, fillColor=array([0.00392157, 0.00392157, 0.00392157]), fillColorSpace='rgb', fillRGB=array([0.00392157, 0.00392157, 0.00392157]), interpolate=True, lineColor=array([0., 0., 0.]), lineColorSpace='rgb', lineRGB=array([0, 0, 0]), lineWidth=1.5, name='unnamed Rect', opacity=0.5, ori=0.0, pos=array([0., 0.]), size=array([2., 2.]), units='norm', vertices=ndarray(...), win=Window(...))",2.1,[],8,0.75,"[<psychopy.visual.line.Line object at 0x7f6929649df0>, <psychopy.visual.line.Line object at 0x7f692964f130>]",<psychopy.hardware.keyboard.Keyboard object at 0x7f690f4db880>,
0,pause,0.4,None,None,None,0,39,39,39,,,,,,,,,,,,,N004,visual,1,"['1', '2']","['3', '4']",1,/NOBACKUP2/USER/Jeong/experiment2,/NOBACKUP2/USER/Jeong/experiment2/logfiles/visual/N004_d-20240925,2023.2.3,harveyvisual,"Window(allowGUI=False, allowStencil=False, autoLog=True, backendConf=UNKNOWN, backgroundFit='cover', backgroundImage=None, bitsMode=UNKNOWN, blendMode='avg', bpc=(8, 8, 8), color=array([-1, -1, -1]), colorSpace='rgb', depthBits=8, fullscr=<method-wrapper '__getattribute__' of attributeSetter object at 0x7f693362d610>, gamma=None, gammaErrorPolicy='raise', lms=UNKNOWN, monitor=<psychopy.monitors.calibTools.Monitor object at 0x7f692c723bb0>, multiSample=False, name='stim_window', numSamples=2, pos=[0.0, 0.0], screen=0, size=array([1920, 1080]), stencilBits=0, stereo=False, title='PsychoPy', units='deg', useFBO=True, useRetina=False, viewOri=0.0, viewPos=None, viewScale=None, waitBlanking=True, winType='pyglet')","{'TR': 2.1, 'volumes': 5, 'sync': '5', 'skip': 0, 'sound': False}",<psychopy.clock.CountdownTimer object at 0x7f692c700550>,"Rect(__class__=<class 'psychopy.visual.rect.Rect'>, anchor=('center', 'center'), autoDraw=True, autoLog=True, closeShape=True, color=method-wrapper(...), colorSpace='rgb', contrast=None, depth=0, draggable=False, fillColor=array([0.00392157, 0.00392157, 0.00392157]), fillColorSpace='rgb', fillRGB=array([0.00392157, 0.00392157, 0.00392157]), interpolate=True, lineColor=array([0., 0., 0.]), lineColorSpace='rgb', lineRGB=array([0, 0, 0]), lineWidth=1.5, name='unnamed Rect', opacity=0.5, ori=0.0, pos=array([0., 0.]), size=array([2., 2.]), units='norm', vertices=ndarray(...), win=Window(...))",2.1,[],8,0.75,"[<psychopy.visual.line.Line object at 0x7f6929649df0>, <psychopy.visual.line.Line object at 0x7f692964f130>]",<psychopy.hardware.keyboard.Keyboard object at 0x7f690f4db880>,
4,dot,0.3,['dot'],['density'],black,0,40,40,40,,,16.11107587814331,16.410951852798462,dot,"[0.08, 0.08, 0.1, 0.1]","[[-0.22375678750486633, 0.16938766720995918], [-0.03438308412182927, 0.2632029670309489], [0.15312837370161694, 0.1265605786946886], [-0.035433382102469414, 0.014828983441921377]]",density,black,true,correct,nan,N004,visual,1,"['1', '2']","['3', '4']",1,/NOBACKUP2/USER/Jeong/experiment2,/NOBACKUP2/USER/Jeong/experiment2/logfiles/visual/N004_d-20240925,2023.2.3,harveyvisual,"Window(allowGUI=False, allowStencil=False, autoLog=True, backendConf=UNKNOWN, backgroundFit='cover', backgroundImage=None, bitsMode=UNKNOWN, blendMode='avg', bpc=(8, 8, 8), color=array([-1, -1, -1]), colorSpace='rgb', depthBits=8, fullscr=<method-wrapper '__getattribute__' of attributeSetter object at 0x7f693362d610>, gamma=None, gammaErrorPolicy='raise', lms=UNKNOWN, monitor=<psychopy.monitors.calibTools.Monitor object at 0x7f692c723bb0>, multiSample=False, name='stim_window', numSamples=2, pos=[0.0, 0.0], screen=0, size=array([1920, 1080]), stencilBits=0, stereo=False, title='PsychoPy', units='deg', useFBO=True, useRetina=False, viewOri=0.0, viewPos=None, viewScale=None, waitBlanking=True, winType='pyglet')","{'TR': 2.1, 'volumes': 5, 'sync': '5', 'skip': 0, 'sound': False}",<psychopy.clock.CountdownTimer object at 0x7f692c700550>,"Rect(__class__=<class 'psychopy.visual.rect.Rect'>, anchor=('center', 'center'), autoDraw=True, autoLog=True, closeShape=True, color=method-wrapper(...), colorSpace='rgb', contrast=None, depth=0, draggable=False, fillColor=array([0.00392157, 0.00392157, 0.00392157]), fillColorSpace='rgb', fillRGB=array([0.00392157, 0.00392157, 0.00392157]), interpolate=True, lineColor=array([0., 0., 0.]), lineColorSpace='rgb', lineRGB=array([0, 0, 0]), lineWidth=1.5, name='unnamed Rect', opacity=0.5, ori=0.0, pos=array([0., 0.]), size=array([2., 2.]), units='norm', vertices=ndarray(...), win=Window(...))",2.1,[],8,0.75,"[<psychopy.visual.line.Line object at 0x7f6929649df0>, <psychopy.visual.line.Line object at 0x7f692964f130>]",<psychopy.hardware.keyboard.Keyboard object at 0x7f690f4db880>,
0,pause,0.4,None,None,None,0,41,41,41,,,,,,,,,,,,,N004,visual,1,"['1', '2']","['3', '4']",1,/NOBACKUP2/USER/Jeong/experiment2,/NOBACKUP2/USER/Jeong/experiment2/logfiles/visual/N004_d-20240925,2023.2.3,harveyvisual,"Window(allowGUI=False, allowStencil=False, autoLog=True, backendConf=UNKNOWN, backgroundFit='cover', backgroundImage=None, bitsMode=UNKNOWN, blendMode='avg', bpc=(8, 8, 8), color=array([-1, -1, -1]), colorSpace='rgb', depthBits=8, fullscr=<method-wrapper '__getattribute__' of attributeSetter object at 0x7f693362d610>, gamma=None, gammaErrorPolicy='raise', lms=UNKNOWN, monitor=<psychopy.monitors.calibTools.Monitor object at 0x7f692c723bb0>, multiSample=False, name='stim_window', numSamples=2, pos=[0.0, 0.0], screen=0, size=array([1920, 1080]), stencilBits=0, stereo=False, title='PsychoPy', units='deg', useFBO=True, useRetina=False, viewOri=0.0, viewPos=None, viewScale=None, waitBlanking=True, winType='pyglet')","{'TR': 2.1, 'volumes': 5, 'sync': '5', 'skip': 0, 'sound': False}",<psychopy.clock.CountdownTimer object at 0x7f692c700550>,"Rect(__class__=<class 'psychopy.visual.rect.Rect'>, anchor=('center', 'center'), autoDraw=True, autoLog=True, closeShape=True, color=method-wrapper(...), colorSpace='rgb', contrast=None, depth=0, draggable=False, fillColor=array([0.00392157, 0.00392157, 0.00392157]), fillColorSpace='rgb', fillRGB=array([0.00392157, 0.00392157, 0.00392157]), interpolate=True, lineColor=array([0., 0., 0.]), lineColorSpace='rgb', lineRGB=array([0, 0, 0]), lineWidth=1.5, name='unnamed Rect', opacity=0.5, ori=0.0, pos=array([0., 0.]), size=array([2., 2.]), units='norm', vertices=ndarray(...), win=Window(...))",2.1,[],8,0.75,"[<psychopy.visual.line.Line object at 0x7f6929649df0>, <psychopy.visual.line.Line object at 0x7f692964f130>]",<psychopy.hardware.keyboard.Keyboard object at 0x7f690f4db880>,
4,dot,0.3,['dot'],['density'],black,0,42,42,42,,,16.810937881469727,17.111066818237305,dot,"[0.1, 0.06, 0.08, 0.06]","[[0.010836700166572746, 0.3385055392368038], [-0.21755291078517647, 0.23172276430217797], [0.04881011250022837, 0.13413393103699342], [-0.16894730197854985, 0.4434327172909165]]",density,black,true,correct,nan,N004,visual,1,"['1', '2']","['3', '4']",1,/NOBACKUP2/USER/Jeong/experiment2,/NOBACKUP2/USER/Jeong/experiment2/logfiles/visual/N004_d-20240925,2023.2.3,harveyvisual,"Window(allowGUI=False, allowStencil=False, autoLog=True, backendConf=UNKNOWN, backgroundFit='cover', backgroundImage=None, bitsMode=UNKNOWN, blendMode='avg', bpc=(8, 8, 8), color=array([-1, -1, -1]), colorSpace='rgb', depthBits=8, fullscr=<method-wrapper '__getattribute__' of attributeSetter object at 0x7f693362d610>, gamma=None, gammaErrorPolicy='raise', lms=UNKNOWN, monitor=<psychopy.monitors.calibTools.Monitor object at 0x7f692c723bb0>, multiSample=False, name='stim_window', numSamples=2, pos=[0.0, 0.0], screen=0, size=array([1920, 1080]), stencilBits=0, stereo=False, title='PsychoPy', units='deg', useFBO=True, useRetina=False, viewOri=0.0, viewPos=None, viewScale=None, waitBlanking=True, winType='pyglet')","{'TR': 2.1, 'volumes': 5, 'sync': '5', 'skip': 0, 'sound': False}",<psychopy.clock.CountdownTimer object at 0x7f692c700550>,"Rect(__class__=<class 'psychopy.visual.rect.Rect'>, anchor=('center', 'center'), autoDraw=True, autoLog=True, closeShape=True, color=method-wrapper(...), colorSpace='rgb', contrast=None, depth=0, draggable=False, fillColor=array([0.00392157, 0.00392157, 0.00392157]), fillColorSpace='rgb', fillRGB=array([0.00392157, 0.00392157, 0.00392157]), interpolate=True, lineColor=array([0., 0., 0.]), lineColorSpace='rgb', lineRGB=array([0, 0, 0]), lineWidth=1.5, name='unnamed Rect', opacity=0.5, ori=0.0, pos=array([0., 0.]), size=array([2., 2.]), units='norm', vertices=ndarray(...), win=Window(...))",2.1,[],8,0.75,"[<psychopy.visual.line.Line object at 0x7f6929649df0>, <psychopy.visual.line.Line object at 0x7f692964f130>]",<psychopy.hardware.keyboard.Keyboard object at 0x7f690f4db880>,
0,pause,0.4,None,None,None,0,43,43,43,,,,,,,,,,,,,N004,visual,1,"['1', '2']","['3', '4']",1,/NOBACKUP2/USER/Jeong/experiment2,/NOBACKUP2/USER/Jeong/experiment2/logfiles/visual/N004_d-20240925,2023.2.3,harveyvisual,"Window(allowGUI=False, allowStencil=False, autoLog=True, backendConf=UNKNOWN, backgroundFit='cover', backgroundImage=None, bitsMode=UNKNOWN, blendMode='avg', bpc=(8, 8, 8), color=array([-1, -1, -1]), colorSpace='rgb', depthBits=8, fullscr=<method-wrapper '__getattribute__' of attributeSetter object at 0x7f693362d610>, gamma=None, gammaErrorPolicy='raise', lms=UNKNOWN, monitor=<psychopy.monitors.calibTools.Monitor object at 0x7f692c723bb0>, multiSample=False, name='stim_window', numSamples=2, pos=[0.0, 0.0], screen=0, size=array([1920, 1080]), stencilBits=0, stereo=False, title='PsychoPy', units='deg', useFBO=True, useRetina=False, viewOri=0.0, viewPos=None, viewScale=None, waitBlanking=True, winType='pyglet')","{'TR': 2.1, 'volumes': 5, 'sync': '5', 'skip': 0, 'sound': False}",<psychopy.clock.CountdownTimer object at 0x7f692c700550>,"Rect(__class__=<class 'psychopy.visual.rect.Rect'>, anchor=('center', 'center'), autoDraw=True, autoLog=True, closeShape=True, color=method-wrapper(...), colorSpace='rgb', contrast=None, depth=0, draggable=False, fillColor=array([0.00392157, 0.00392157, 0.00392157]), fillColorSpace='rgb', fillRGB=array([0.00392157, 0.00392157, 0.00392157]), interpolate=True, lineColor=array([0., 0., 0.]), lineColorSpace='rgb', lineRGB=array([0, 0, 0]), lineWidth=1.5, name='unnamed Rect', opacity=0.5, ori=0.0, pos=array([0., 0.]), size=array([2., 2.]), units='norm', vertices=ndarray(...), win=Window(...))",2.1,[],8,0.75,"[<psychopy.visual.line.Line object at 0x7f6929649df0>, <psychopy.visual.line.Line object at 0x7f692964f130>]",<psychopy.hardware.keyboard.Keyboard object at 0x7f690f4db880>,
4,dot,0.3,['dot'],['density'],black,0,44,44,44,,,17.510913848876953,17.810933828353882,dot,"[0.1, 0.06, 0.08, 0.06]","[[-0.24231220575667195, -0.22966258239168486], [-0.5136420973432148, -0.13696856920477488], [-0.4300726721285167, 0.13088957628356482], [-0.3148289313469241, -0.03851715211982174]]",density,black,true,correct,nan,N004,visual,1,"['1', '2']","['3', '4']",1,/NOBACKUP2/USER/Jeong/experiment2,/NOBACKUP2/USER/Jeong/experiment2/logfiles/visual/N004_d-20240925,2023.2.3,harveyvisual,"Window(allowGUI=False, allowStencil=False, autoLog=True, backendConf=UNKNOWN, backgroundFit='cover', backgroundImage=None, bitsMode=UNKNOWN, blendMode='avg', bpc=(8, 8, 8), color=array([-1, -1, -1]), colorSpace='rgb', depthBits=8, fullscr=<method-wrapper '__getattribute__' of attributeSetter object at 0x7f693362d610>, gamma=None, gammaErrorPolicy='raise', lms=UNKNOWN, monitor=<psychopy.monitors.calibTools.Monitor object at 0x7f692c723bb0>, multiSample=False, name='stim_window', numSamples=2, pos=[0.0, 0.0], screen=0, size=array([1920, 1080]), stencilBits=0, stereo=False, title='PsychoPy', units='deg', useFBO=True, useRetina=False, viewOri=0.0, viewPos=None, viewScale=None, waitBlanking=True, winType='pyglet')","{'TR': 2.1, 'volumes': 5, 'sync': '5', 'skip': 0, 'sound': False}",<psychopy.clock.CountdownTimer object at 0x7f692c700550>,"Rect(__class__=<class 'psychopy.visual.rect.Rect'>, anchor=('center', 'center'), autoDraw=True, autoLog=True, closeShape=True, color=method-wrapper(...), colorSpace='rgb', contrast=None, depth=0, draggable=False, fillColor=array([0.00392157, 0.00392157, 0.00392157]), fillColorSpace='rgb', fillRGB=array([0.00392157, 0.00392157, 0.00392157]), interpolate=True, lineColor=array([0., 0., 0.]), lineColorSpace='rgb', lineRGB=array([0, 0, 0]), lineWidth=1.5, name='unnamed Rect', opacity=0.5, ori=0.0, pos=array([0., 0.]), size=array([2., 2.]), units='norm', vertices=ndarray(...), win=Window(...))",2.1,[],8,0.75,"[<psychopy.visual.line.Line object at 0x7f6929649df0>, <psychopy.visual.line.Line object at 0x7f692964f130>]",<psychopy.hardware.keyboard.Keyboard object at 0x7f690f4db880>,
0,pause,0.4,None,None,None,0,45,45,45,,,,,,,,,,,,,N004,visual,1,"['1', '2']","['3', '4']",1,/NOBACKUP2/USER/Jeong/experiment2,/NOBACKUP2/USER/Jeong/experiment2/logfiles/visual/N004_d-20240925,2023.2.3,harveyvisual,"Window(allowGUI=False, allowStencil=False, autoLog=True, backendConf=UNKNOWN, backgroundFit='cover', backgroundImage=None, bitsMode=UNKNOWN, blendMode='avg', bpc=(8, 8, 8), color=array([-1, -1, -1]), colorSpace='rgb', depthBits=8, fullscr=<method-wrapper '__getattribute__' of attributeSetter object at 0x7f693362d610>, gamma=None, gammaErrorPolicy='raise', lms=UNKNOWN, monitor=<psychopy.monitors.calibTools.Monitor object at 0x7f692c723bb0>, multiSample=False, name='stim_window', numSamples=2, pos=[0.0, 0.0], screen=0, size=array([1920, 1080]), stencilBits=0, stereo=False, title='PsychoPy', units='deg', useFBO=True, useRetina=False, viewOri=0.0, viewPos=None, viewScale=None, waitBlanking=True, winType='pyglet')","{'TR': 2.1, 'volumes': 5, 'sync': '5', 'skip': 0, 'sound': False}",<psychopy.clock.CountdownTimer object at 0x7f692c700550>,"Rect(__class__=<class 'psychopy.visual.rect.Rect'>, anchor=('center', 'center'), autoDraw=True, autoLog=True, closeShape=True, color=method-wrapper(...), colorSpace='rgb', contrast=None, depth=0, draggable=False, fillColor=array([0.00392157, 0.00392157, 0.00392157]), fillColorSpace='rgb', fillRGB=array([0.00392157, 0.00392157, 0.00392157]), interpolate=True, lineColor=array([0., 0., 0.]), lineColorSpace='rgb', lineRGB=array([0, 0, 0]), lineWidth=1.5, name='unnamed Rect', opacity=0.5, ori=0.0, pos=array([0., 0.]), size=array([2., 2.]), units='norm', vertices=ndarray(...), win=Window(...))",2.1,[],8,0.75,"[<psychopy.visual.line.Line object at 0x7f6929649df0>, <psychopy.visual.line.Line object at 0x7f692964f130>]",<psychopy.hardware.keyboard.Keyboard object at 0x7f690f4db880>,
4,dot,0.3,['dot'],['density'],black,0,46,46,46,,,18.210937976837158,18.51101779937744,dot,"[0.06, 0.08, 0.06, 0.06]","[[0.2472118047986834, -0.10298318101898082], [0.5832669122255578, -0.0503561045998346], [0.411076479450662, -0.2641061246578253], [0.42907679660555237, 0.09101913809416001]]",density,black,true,correct,nan,N004,visual,1,"['1', '2']","['3', '4']",1,/NOBACKUP2/USER/Jeong/experiment2,/NOBACKUP2/USER/Jeong/experiment2/logfiles/visual/N004_d-20240925,2023.2.3,harveyvisual,"Window(allowGUI=False, allowStencil=False, autoLog=True, backendConf=UNKNOWN, backgroundFit='cover', backgroundImage=None, bitsMode=UNKNOWN, blendMode='avg', bpc=(8, 8, 8), color=array([-1, -1, -1]), colorSpace='rgb', depthBits=8, fullscr=<method-wrapper '__getattribute__' of attributeSetter object at 0x7f693362d610>, gamma=None, gammaErrorPolicy='raise', lms=UNKNOWN, monitor=<psychopy.monitors.calibTools.Monitor object at 0x7f692c723bb0>, multiSample=False, name='stim_window', numSamples=2, pos=[0.0, 0.0], screen=0, size=array([1920, 1080]), stencilBits=0, stereo=False, title='PsychoPy', units='deg', useFBO=True, useRetina=False, viewOri=0.0, viewPos=None, viewScale=None, waitBlanking=True, winType='pyglet')","{'TR': 2.1, 'volumes': 5, 'sync': '5', 'skip': 0, 'sound': False}",<psychopy.clock.CountdownTimer object at 0x7f692c700550>,"Rect(__class__=<class 'psychopy.visual.rect.Rect'>, anchor=('center', 'center'), autoDraw=True, autoLog=True, closeShape=True, color=method-wrapper(...), colorSpace='rgb', contrast=None, depth=0, draggable=False, fillColor=array([0.00392157, 0.00392157, 0.00392157]), fillColorSpace='rgb', fillRGB=array([0.00392157, 0.00392157, 0.00392157]), interpolate=True, lineColor=array([0., 0., 0.]), lineColorSpace='rgb', lineRGB=array([0, 0, 0]), lineWidth=1.5, name='unnamed Rect', opacity=0.5, ori=0.0, pos=array([0., 0.]), size=array([2., 2.]), units='norm', vertices=ndarray(...), win=Window(...))",2.1,[],8,0.75,"[<psychopy.visual.line.Line object at 0x7f6929649df0>, <psychopy.visual.line.Line object at 0x7f692964f130>]",<psychopy.hardware.keyboard.Keyboard object at 0x7f690f4db880>,
0,pause,0.4,None,None,None,0,47,47,47,,,,,,,,,,,,,N004,visual,1,"['1', '2']","['3', '4']",1,/NOBACKUP2/USER/Jeong/experiment2,/NOBACKUP2/USER/Jeong/experiment2/logfiles/visual/N004_d-20240925,2023.2.3,harveyvisual,"Window(allowGUI=False, allowStencil=False, autoLog=True, backendConf=UNKNOWN, backgroundFit='cover', backgroundImage=None, bitsMode=UNKNOWN, blendMode='avg', bpc=(8, 8, 8), color=array([-1, -1, -1]), colorSpace='rgb', depthBits=8, fullscr=<method-wrapper '__getattribute__' of attributeSetter object at 0x7f693362d610>, gamma=None, gammaErrorPolicy='raise', lms=UNKNOWN, monitor=<psychopy.monitors.calibTools.Monitor object at 0x7f692c723bb0>, multiSample=False, name='stim_window', numSamples=2, pos=[0.0, 0.0], screen=0, size=array([1920, 1080]), stencilBits=0, stereo=False, title='PsychoPy', units='deg', useFBO=True, useRetina=False, viewOri=0.0, viewPos=None, viewScale=None, waitBlanking=True, winType='pyglet')","{'TR': 2.1, 'volumes': 5, 'sync': '5', 'skip': 0, 'sound': False}",<psychopy.clock.CountdownTimer object at 0x7f692c700550>,"Rect(__class__=<class 'psychopy.visual.rect.Rect'>, anchor=('center', 'center'), autoDraw=True, autoLog=True, closeShape=True, color=method-wrapper(...), colorSpace='rgb', contrast=None, depth=0, draggable=False, fillColor=array([0.00392157, 0.00392157, 0.00392157]), fillColorSpace='rgb', fillRGB=array([0.00392157, 0.00392157, 0.00392157]), interpolate=True, lineColor=array([0., 0., 0.]), lineColorSpace='rgb', lineRGB=array([0, 0, 0]), lineWidth=1.5, name='unnamed Rect', opacity=0.5, ori=0.0, pos=array([0., 0.]), size=array([2., 2.]), units='norm', vertices=ndarray(...), win=Window(...))",2.1,[],8,0.75,"[<psychopy.visual.line.Line object at 0x7f6929649df0>, <psychopy.visual.line.Line object at 0x7f692964f130>]",<psychopy.hardware.keyboard.Keyboard object at 0x7f690f4db880>,
5,dot,0.3,['dot'],['density'],black,0,48,48,48,,,18.910883903503418,19.21087384223938,dot,"[0.1, 0.08, 0.06, 0.08, 0.08]","[[-0.07969108163070573, 0.258241044050758], [-0.3301768112222262, 0.22562982972330062], [-0.16453040906828167, -0.1622271318141552], [-0.21753854086321037, 0.04365873274764029], [0.030347216865940038, 0.07834852794011457]]",density,black,false,wrong,nan,N004,visual,1,"['1', '2']","['3', '4']",1,/NOBACKUP2/USER/Jeong/experiment2,/NOBACKUP2/USER/Jeong/experiment2/logfiles/visual/N004_d-20240925,2023.2.3,harveyvisual,"Window(allowGUI=False, allowStencil=False, autoLog=True, backendConf=UNKNOWN, backgroundFit='cover', backgroundImage=None, bitsMode=UNKNOWN, blendMode='avg', bpc=(8, 8, 8), color=array([-1, -1, -1]), colorSpace='rgb', depthBits=8, fullscr=<method-wrapper '__getattribute__' of attributeSetter object at 0x7f693362d610>, gamma=None, gammaErrorPolicy='raise', lms=UNKNOWN, monitor=<psychopy.monitors.calibTools.Monitor object at 0x7f692c723bb0>, multiSample=False, name='stim_window', numSamples=2, pos=[0.0, 0.0], screen=0, size=array([1920, 1080]), stencilBits=0, stereo=False, title='PsychoPy', units='deg', useFBO=True, useRetina=False, viewOri=0.0, viewPos=None, viewScale=None, waitBlanking=True, winType='pyglet')","{'TR': 2.1, 'volumes': 5, 'sync': '5', 'skip': 0, 'sound': False}",<psychopy.clock.CountdownTimer object at 0x7f692c700550>,"Rect(__class__=<class 'psychopy.visual.rect.Rect'>, anchor=('center', 'center'), autoDraw=True, autoLog=True, closeShape=True, color=method-wrapper(...), colorSpace='rgb', contrast=None, depth=0, draggable=False, fillColor=array([0.00392157, 0.00392157, 0.00392157]), fillColorSpace='rgb', fillRGB=array([0.00392157, 0.00392157, 0.00392157]), interpolate=True, lineColor=array([0., 0., 0.]), lineColorSpace='rgb', lineRGB=array([0, 0, 0]), lineWidth=1.5, name='unnamed Rect', opacity=0.5, ori=0.0, pos=array([0., 0.]), size=array([2., 2.]), units='norm', vertices=ndarray(...), win=Window(...))",2.1,[],8,0.75,"[<psychopy.visual.line.Line object at 0x7f6929649df0>, <psychopy.visual.line.Line object at 0x7f692964f130>]",<psychopy.hardware.keyboard.Keyboard object at 0x7f690f4db880>,
0,pause,0.4,None,None,None,0,49,49,49,,,,,,,,,,,,,N004,visual,1,"['1', '2']","['3', '4']",1,/NOBACKUP2/USER/Jeong/experiment2,/NOBACKUP2/USER/Jeong/experiment2/logfiles/visual/N004_d-20240925,2023.2.3,harveyvisual,"Window(allowGUI=False, allowStencil=False, autoLog=True, backendConf=UNKNOWN, backgroundFit='cover', backgroundImage=None, bitsMode=UNKNOWN, blendMode='avg', bpc=(8, 8, 8), color=array([-1, -1, -1]), colorSpace='rgb', depthBits=8, fullscr=<method-wrapper '__getattribute__' of attributeSetter object at 0x7f693362d610>, gamma=None, gammaErrorPolicy='raise', lms=UNKNOWN, monitor=<psychopy.monitors.calibTools.Monitor object at 0x7f692c723bb0>, multiSample=False, name='stim_window', numSamples=2, pos=[0.0, 0.0], screen=0, size=array([1920, 1080]), stencilBits=0, stereo=False, title='PsychoPy', units='deg', useFBO=True, useRetina=False, viewOri=0.0, viewPos=None, viewScale=None, waitBlanking=True, winType='pyglet')","{'TR': 2.1, 'volumes': 5, 'sync': '5', 'skip': 0, 'sound': False}",<psychopy.clock.CountdownTimer object at 0x7f692c700550>,"Rect(__class__=<class 'psychopy.visual.rect.Rect'>, anchor=('center', 'center'), autoDraw=True, autoLog=True, closeShape=True, color=method-wrapper(...), colorSpace='rgb', contrast=None, depth=0, draggable=False, fillColor=array([0.00392157, 0.00392157, 0.00392157]), fillColorSpace='rgb', fillRGB=array([0.00392157, 0.00392157, 0.00392157]), interpolate=True, lineColor=array([0., 0., 0.]), lineColorSpace='rgb', lineRGB=array([0, 0, 0]), lineWidth=1.5, name='unnamed Rect', opacity=0.5, ori=0.0, pos=array([0., 0.]), size=array([2., 2.]), units='norm', vertices=ndarray(...), win=Window(...))",2.1,[],8,0.75,"[<psychopy.visual.line.Line object at 0x7f6929649df0>, <psychopy.visual.line.Line object at 0x7f692964f130>]",<psychopy.hardware.keyboard.Keyboard object at 0x7f690f4db880>,
5,dot,0.3,['dot'],['density'],black,0,50,50,50,,,19.611006021499634,19.91086196899414,dot,"[0.1, 0.08, 0.06, 0.1, 0.06]","[[0.2447541601906441, 0.3086669061463178], [0.2085849672204031, -0.04267428248465989], [0.44393754570968663, -0.061602228714441105], [0.027125763574429876, 0.05764502161176834], [0.36879828001487897, 0.1310025380577708]]",density,black,true,correct,nan,N004,visual,1,"['1', '2']","['3', '4']",1,/NOBACKUP2/USER/Jeong/experiment2,/NOBACKUP2/USER/Jeong/experiment2/logfiles/visual/N004_d-20240925,2023.2.3,harveyvisual,"Window(allowGUI=False, allowStencil=False, autoLog=True, backendConf=UNKNOWN, backgroundFit='cover', backgroundImage=None, bitsMode=UNKNOWN, blendMode='avg', bpc=(8, 8, 8), color=array([-1, -1, -1]), colorSpace='rgb', depthBits=8, fullscr=<method-wrapper '__getattribute__' of attributeSetter object at 0x7f693362d610>, gamma=None, gammaErrorPolicy='raise', lms=UNKNOWN, monitor=<psychopy.monitors.calibTools.Monitor object at 0x7f692c723bb0>, multiSample=False, name='stim_window', numSamples=2, pos=[0.0, 0.0], screen=0, size=array([1920, 1080]), stencilBits=0, stereo=False, title='PsychoPy', units='deg', useFBO=True, useRetina=False, viewOri=0.0, viewPos=None, viewScale=None, waitBlanking=True, winType='pyglet')","{'TR': 2.1, 'volumes': 5, 'sync': '5', 'skip': 0, 'sound': False}",<psychopy.clock.CountdownTimer object at 0x7f692c700550>,"Rect(__class__=<class 'psychopy.visual.rect.Rect'>, anchor=('center', 'center'), autoDraw=True, autoLog=True, closeShape=True, color=method-wrapper(...), colorSpace='rgb', contrast=None, depth=0, draggable=False, fillColor=array([0.00392157, 0.00392157, 0.00392157]), fillColorSpace='rgb', fillRGB=array([0.00392157, 0.00392157, 0.00392157]), interpolate=True, lineColor=array([0., 0., 0.]), lineColorSpace='rgb', lineRGB=array([0, 0, 0]), lineWidth=1.5, name='unnamed Rect', opacity=0.5, ori=0.0, pos=array([0., 0.]), size=array([2., 2.]), units='norm', vertices=ndarray(...), win=Window(...))",2.1,[],8,0.75,"[<psychopy.visual.line.Line object at 0x7f6929649df0>, <psychopy.visual.line.Line object at 0x7f692964f130>]",<psychopy.hardware.keyboard.Keyboard object at 0x7f690f4db880>,
