num,mod,duration,shape,ll_cond,colors,.thisRepN,.thisTrialN,.thisN,.thisIndex,thisRow.t,notes,raw_global_time,t_start,t_stop,shapes,size,pos,cond,color,button,RT,participant,session,starting_run,left button (match/odd),right button (non-match/even),samples_per_block,psychopy version,expName,offset,audio,number_runs,radius,
1,dot,0.3,['dot'],['density'],black,0,0,0,0,,,2.4002249240875244,2.116022825241089,2.416116952896118,dot,[0.1],"[0.00661777001411412, 0.39634766145863237]",density,black,,,D004,visual,5,[],"['1', '2', '3', '4']",1,2023.2.3,harveyvisual,2.1,[],8,0.75,
0,pause,0.4,None,None,None,0,1,1,1,,,,,,,,,,,,,D004,visual,5,[],"['1', '2', '3', '4']",1,2023.2.3,harveyvisual,2.1,[],8,0.75,
1,dot,0.3,['dot'],['density'],black,0,2,2,2,,,3.100207805633545,2.799325942993164,3.11592698097229,dot,[0.06],"[0.25023401086931774, -0.3984124620602511]",density,black,,,D004,visual,5,[],"['1', '2', '3', '4']",1,2023.2.3,harveyvisual,2.1,[],8,0.75,
0,pause,0.4,None,None,None,0,3,3,3,,,,,,,,,,,,,D004,visual,5,[],"['1', '2', '3', '4']",1,2023.2.3,harveyvisual,2.1,[],8,0.75,
1,dot,0.3,['dot'],['density'],black,0,4,4,4,,,3.800226926803589,3.4992589950561523,3.815962791442871,dot,[0.1],"[0.1049869166116724, 0.1335000464341748]",density,black,,,D004,visual,5,[],"['1', '2', '3', '4']",1,2023.2.3,harveyvisual,2.1,[],8,0.75,
0,pause,0.4,None,None,None,0,5,5,5,,,,,,,,,,,,,D004,visual,5,[],"['1', '2', '3', '4']",1,2023.2.3,harveyvisual,2.1,[],8,0.75,
1,dot,0.3,['dot'],['density'],black,0,6,6,6,,,4.500225782394409,4.199282884597778,4.515966892242432,dot,[0.08],"[0.30758596680771827, -0.21275106234766314]",density,black,,,D004,visual,5,[],"['1', '2', '3', '4']",1,2023.2.3,harveyvisual,2.1,[],8,0.75,
0,pause,0.4,None,None,None,0,7,7,7,,,,,,,,,,,,,D004,visual,5,[],"['1', '2', '3', '4']",1,2023.2.3,harveyvisual,2.1,[],8,0.75,
1,dot,0.3,['dot'],['density'],black,0,8,8,8,,,5.200201988220215,4.899302959442139,5.215949773788452,dot,[0.1],"[-0.40242150741388927, 0.27329756427278695]",density,black,,,D004,visual,5,[],"['1', '2', '3', '4']",1,2023.2.3,harveyvisual,2.1,[],8,0.75,
0,pause,0.4,None,None,None,0,9,9,9,,,,,,,,,,,,,D004,visual,5,[],"['1', '2', '3', '4']",1,2023.2.3,harveyvisual,2.1,[],8,0.75,
1,dot,0.3,['dot'],['density'],black,0,10,10,10,,,5.900214910507202,5.599191904067993,5.915866851806641,dot,[0.08],"[0.2287398259034258, -0.3932960849464651]",density,black,,,D004,visual,5,[],"['1', '2', '3', '4']",1,2023.2.3,harveyvisual,2.1,[],8,0.75,
0,pause,0.4,None,None,None,0,11,11,11,,,,,,,,,,,,,D004,visual,5,[],"['1', '2', '3', '4']",1,2023.2.3,harveyvisual,2.1,[],8,0.75,
2,dot,0.3,['dot'],['density'],black,0,12,12,12,,,6.6002068519592285,6.299210786819458,6.615854978561401,dot,"[0.06, 0.1]","[[0.17083311991776792, -0.05558111512160733], [0.1461049568064877, -0.25438559320493304]]",density,black,,,D004,visual,5,[],"['1', '2', '3', '4']",1,2023.2.3,harveyvisual,2.1,[],8,0.75,
0,pause,0.4,None,None,None,0,13,13,13,,,,,,,,,,,,,D004,visual,5,[],"['1', '2', '3', '4']",1,2023.2.3,harveyvisual,2.1,[],8,0.75,
2,dot,0.3,['dot'],['density'],black,0,14,14,14,,,7.300220966339111,6.999177932739258,7.315838813781738,dot,"[0.1, 0.06]","[[-0.3970652553054307, 0.36151140161898554], [-0.22306532646831484, 0.26288994227005946]]",density,black,,,D004,visual,5,[],"['1', '2', '3', '4']",1,2023.2.3,harveyvisual,2.1,[],8,0.75,
0,pause,0.4,None,None,None,0,15,15,15,,,,,,,,,,,,,D004,visual,5,[],"['1', '2', '3', '4']",1,2023.2.3,harveyvisual,2.1,[],8,0.75,
2,dot,0.3,['dot'],['density'],black,0,16,16,16,,,8.000218868255615,7.6991589069366455,8.015806913375854,dot,"[0.1, 0.1]","[[-0.5356907773971091, -0.01454049690556478], [-0.3936553319468624, 0.1263392020735458]]",density,black,,,D004,visual,5,[],"['1', '2', '3', '4']",1,2023.2.3,harveyvisual,2.1,[],8,0.75,
0,pause,0.4,None,None,None,0,17,17,17,,,,,,,,,,,,,D004,visual,5,[],"['1', '2', '3', '4']",1,2023.2.3,harveyvisual,2.1,[],8,0.75,
2,dot,0.3,['dot'],['density'],black,0,18,18,18,,,8.700208902359009,8.399136781692505,8.715788841247559,dot,"[0.1, 0.1]","[[-0.22226122312079244, -0.00806926593831646], [-0.023245446524914906, -0.037240983575548024]]",density,black,,,D004,visual,5,[],"['1', '2', '3', '4']",1,2023.2.3,harveyvisual,2.1,[],8,0.75,
0,pause,0.4,None,None,None,0,19,19,19,,,,,,,,,,,,,D004,visual,5,[],"['1', '2', '3', '4']",1,2023.2.3,harveyvisual,2.1,[],8,0.75,
2,dot,0.3,['dot'],['density'],white,0,20,20,20,,,9.400202989578247,9.099121809005737,9.415846824645996,dot,"[0.08, 0.06]","[[0.24265818653156754, -0.3775895252336694], [0.4224299169789366, -0.289759305909148]]",density,white,,,D004,visual,5,[],"['1', '2', '3', '4']",1,2023.2.3,harveyvisual,2.1,[],8,0.75,
0,pause,0.4,None,None,None,0,21,21,21,,,,,,,,,,,1,9.015778064727783,D004,visual,5,[],"['1', '2', '3', '4']",1,2023.2.3,harveyvisual,2.1,[],8,0.75,
2,dot,0.3,['dot'],['density'],black,0,22,22,22,,,10.100212812423706,9.799101829528809,10.115763902664185,dot,"[0.06, 0.06]","[[0.500151128333041, 0.1656925720118866], [0.3771979967144504, 0.3235340638115745]]",density,black,,,D004,visual,5,[],"['1', '2', '3', '4']",1,2023.2.3,harveyvisual,2.1,[],8,0.75,
0,pause,0.4,None,None,None,0,23,23,23,,,,,,,,,,,,,D004,visual,5,[],"['1', '2', '3', '4']",1,2023.2.3,harveyvisual,2.1,[],8,0.75,
3,dot,0.3,['dot'],['density'],black,0,24,24,24,,,10.800221920013428,10.499087810516357,10.815744876861572,dot,"[0.08, 0.08, 0.06]","[[-0.04083818552357515, -0.522177599776496], [0.2241586230204485, -0.5188142294055383], [0.09506152973916207, -0.364648334381489]]",density,black,,,D004,visual,5,[],"['1', '2', '3', '4']",1,2023.2.3,harveyvisual,2.1,[],8,0.75,
0,pause,0.4,None,None,None,0,25,25,25,,,,,,,,,,,,,D004,visual,5,[],"['1', '2', '3', '4']",1,2023.2.3,harveyvisual,2.1,[],8,0.75,
3,dot,0.3,['dot'],['density'],white,0,26,26,26,,,11.500211954116821,11.199116945266724,11.515690803527832,dot,"[0.1, 0.06, 0.06]","[[-0.476501853024302, 0.3110516410681161], [-0.26865065753742645, 0.4732574608261889], [-0.2772428868380306, 0.2516539537451065]]",density,white,,,D004,visual,5,[],"['1', '2', '3', '4']",1,2023.2.3,harveyvisual,2.1,[],8,0.75,
0,pause,0.4,None,None,None,0,27,27,27,,,,,,,,,,,1,11.022014141082764,D004,visual,5,[],"['1', '2', '3', '4']",1,2023.2.3,harveyvisual,2.1,[],8,0.75,
3,dot,0.3,['dot'],['density'],black,0,28,28,28,,,12.200210809707642,11.899032831192017,12.215712785720825,dot,"[0.08, 0.08, 0.06]","[[-0.5649268285189266, -0.02945458741690218], [-0.36332336008090005, 0.05160617148840915], [-0.5004673786076542, 0.20230308468415367]]",density,black,,,D004,visual,5,[],"['1', '2', '3', '4']",1,2023.2.3,harveyvisual,2.1,[],8,0.75,
0,pause,0.4,None,None,None,0,29,29,29,,,,,,,,,,,,,D004,visual,5,[],"['1', '2', '3', '4']",1,2023.2.3,harveyvisual,2.1,[],8,0.75,
3,dot,0.3,['dot'],['density'],black,0,30,30,30,,,12.900226831436157,12.599027872085571,12.91568398475647,dot,"[0.08, 0.1, 0.1]","[[-0.42255820389626353, 0.35871945956833473], [-0.19896656331745483, 0.3032224324013186], [-0.25553590712368324, 0.5056038804507684]]",density,black,,,D004,visual,5,[],"['1', '2', '3', '4']",1,2023.2.3,harveyvisual,2.1,[],8,0.75,
0,pause,0.4,None,None,None,0,31,31,31,,,,,,,,,,,,,D004,visual,5,[],"['1', '2', '3', '4']",1,2023.2.3,harveyvisual,2.1,[],8,0.75,
3,dot,0.3,['dot'],['density'],black,0,32,32,32,,,13.60021686553955,13.299016952514648,13.61563491821289,dot,"[0.06, 0.08, 0.08]","[[-0.15674404860239688, -0.25078459247658497], [0.006578924124220241, -0.41324131210186005], [0.06959682433872849, -0.20549031443856539]]",density,black,,,D004,visual,5,[],"['1', '2', '3', '4']",1,2023.2.3,harveyvisual,2.1,[],8,0.75,
0,pause,0.4,None,None,None,0,33,33,33,,,,,,,,,,,,,D004,visual,5,[],"['1', '2', '3', '4']",1,2023.2.3,harveyvisual,2.1,[],8,0.75,
3,dot,0.3,['dot'],['density'],black,0,34,34,34,,,14.300211906433105,13.998981952667236,14.3157057762146,dot,"[0.1, 0.08, 0.06]","[[-0.32624451712468355, -0.43854848545497693], [-0.39409142490376414, -0.22516425170789148], [-0.152352104904091, -0.33204091051628687]]",density,black,,,D004,visual,5,[],"['1', '2', '3', '4']",1,2023.2.3,harveyvisual,2.1,[],8,0.75,
0,pause,0.4,None,None,None,0,35,35,35,,,,,,,,,,,,,D004,visual,5,[],"['1', '2', '3', '4']",1,2023.2.3,harveyvisual,2.1,[],8,0.75,
4,dot,0.3,['dot'],['density'],black,0,36,36,36,,,15.000221967697144,14.715774774551392,15.015635967254639,dot,"[0.06, 0.1, 0.06, 0.08]","[[0.06081986304483943, 0.35358512719402324], [0.4232304195196481, 0.14579533924648716], [0.12419639750553536, 0.133833625718984], [0.26609561976711055, 0.2970795792082364]]",density,black,,,D004,visual,5,[],"['1', '2', '3', '4']",1,2023.2.3,harveyvisual,2.1,[],8,0.75,
0,pause,0.4,None,None,None,0,37,37,37,,,,,,,,,,,,,D004,visual,5,[],"['1', '2', '3', '4']",1,2023.2.3,harveyvisual,2.1,[],8,0.75,
4,dot,0.3,['dot'],['density'],black,0,38,38,38,,,15.700243949890137,15.41567587852478,15.715747833251953,dot,"[0.08, 0.1, 0.1, 0.08]","[[0.107131415583101, 0.03171316484874249], [0.3330877778846877, 0.14211400081541528], [0.23058747141838212, -0.24340322486593785], [0.3173726134345681, -0.05921806988573682]]",density,black,,,D004,visual,5,[],"['1', '2', '3', '4']",1,2023.2.3,harveyvisual,2.1,[],8,0.75,
0,pause,0.4,None,None,None,0,39,39,39,,,,,,,,,,,,,D004,visual,5,[],"['1', '2', '3', '4']",1,2023.2.3,harveyvisual,2.1,[],8,0.75,
4,dot,0.3,['dot'],['density'],black,0,40,40,40,,,16.40020179748535,16.11561894416809,16.41559886932373,dot,"[0.1, 0.06, 0.08, 0.06]","[[0.3225849294362846, -0.13157286681700714], [0.2615083713376798, -0.38790318245483907], [0.48399895238698887, -0.2981397300552969], [0.514252162939949, -0.043630752066028525]]",density,black,,,D004,visual,5,[],"['1', '2', '3', '4']",1,2023.2.3,harveyvisual,2.1,[],8,0.75,
0,pause,0.4,None,None,None,0,41,41,41,,,,,,,,,,,,,D004,visual,5,[],"['1', '2', '3', '4']",1,2023.2.3,harveyvisual,2.1,[],8,0.75,
4,dot,0.3,['dot'],['density'],black,0,42,42,42,,,17.100215911865234,16.815597772598267,17.115587949752808,dot,"[0.06, 0.06, 0.06, 0.08]","[[-0.46485289602757673, 0.3603628353310837], [-0.30733625211232357, 0.21626236973196436], [-0.38991578213366157, 0.024479253410336757], [-0.570234662048439, 0.14093512067028166]]",density,black,,,D004,visual,5,[],"['1', '2', '3', '4']",1,2023.2.3,harveyvisual,2.1,[],8,0.75,
0,pause,0.4,None,None,None,0,43,43,43,,,,,,,,,,,,,D004,visual,5,[],"['1', '2', '3', '4']",1,2023.2.3,harveyvisual,2.1,[],8,0.75,
4,dot,0.3,['dot'],['density'],black,0,44,44,44,,,17.80022096633911,17.515581846237183,17.81557297706604,dot,"[0.06, 0.1, 0.06, 0.06]","[[-0.42715721775789556, -0.3806885655784049], [-0.5104054706627589, -0.18016651458941194], [-0.409412055521987, 0.008153849732111747], [-0.2456709064377862, -0.21492281530681134]]",density,black,,,D004,visual,5,[],"['1', '2', '3', '4']",1,2023.2.3,harveyvisual,2.1,[],8,0.75,
0,pause,0.4,None,None,None,0,45,45,45,,,,,,,,,,,,,D004,visual,5,[],"['1', '2', '3', '4']",1,2023.2.3,harveyvisual,2.1,[],8,0.75,
4,dot,0.3,['dot'],['density'],black,0,46,46,46,,,18.500202894210815,18.21555995941162,18.51552677154541,dot,"[0.06, 0.08, 0.06, 0.06]","[[0.06241226843583792, -0.3147100539198924], [0.2553405417111816, -0.24584579293690137], [0.0027514156828475403, -0.09786489187307437], [0.1660279615748852, 0.026007470517245626]]",density,black,,,D004,visual,5,[],"['1', '2', '3', '4']",1,2023.2.3,harveyvisual,2.1,[],8,0.75,
0,pause,0.4,None,None,None,0,47,47,47,,,,,,,,,,,,,D004,visual,5,[],"['1', '2', '3', '4']",1,2023.2.3,harveyvisual,2.1,[],8,0.75,
5,dot,0.3,['dot'],['density'],black,0,48,48,48,,,19.200212955474854,18.91554284095764,19.215537786483765,dot,"[0.08, 0.08, 0.1, 0.1, 0.1]","[[0.10558973120531606, -0.20428866875977839], [-0.0893225412758366, 0.16524926947551877], [-0.05793580974794309, -0.07826743033729393], [0.11130747138107101, 0.10875249109580729], [0.28035132100960686, -0.09064984251937742]]",density,black,,,D004,visual,5,[],"['1', '2', '3', '4']",1,2023.2.3,harveyvisual,2.1,[],8,0.75,
0,pause,0.4,None,None,None,0,49,49,49,,,,,,,,,,,,,D004,visual,5,[],"['1', '2', '3', '4']",1,2023.2.3,harveyvisual,2.1,[],8,0.75,
5,dot,0.3,['dot'],['density'],black,0,50,50,50,,,19.900207996368408,19.615550994873047,19.915517807006836,dot,"[0.1, 0.06, 0.1, 0.06, 0.08]","[[0.45108699871130137, 0.12052648913612102], [0.3120839015871755, -0.055344110322042436], [0.5361186937318446, -0.08608482415671545], [0.24926945818158194, 0.15209517992691748], [0.3855135356736719, -0.25840400127360613]]",density,black,,,D004,visual,5,[],"['1', '2', '3', '4']",1,2023.2.3,harveyvisual,2.1,[],8,0.75,
0,pause,0.4,None,None,None,0,51,51,51,,,,,,,,,,,,,D004,visual,5,[],"['1', '2', '3', '4']",1,2023.2.3,harveyvisual,2.1,[],8,0.75,
5,dot,0.3,['dot'],['density'],black,0,52,52,52,,,20.60020899772644,20.31549382209778,20.61547088623047,dot,"[0.08, 0.1, 0.1, 0.1, 0.06]","[[0.4409169755572007, 0.017856988789309493], [0.10933872532765951, -0.20637645515835812], [0.27728831588229885, 0.198954967346464], [0.3100556643305453, -0.16532657838491105], [0.11148968869271939, 0.006469487304542018]]",density,black,,,D004,visual,5,[],"['1', '2', '3', '4']",1,2023.2.3,harveyvisual,2.1,[],8,0.75,
0,pause,0.4,None,None,None,0,53,53,53,,,,,,,,,,,,,D004,visual,5,[],"['1', '2', '3', '4']",1,2023.2.3,harveyvisual,2.1,[],8,0.75,
5,dot,0.3,['dot'],['density'],black,0,54,54,54,,,21.30020785331726,21.015495777130127,21.315470933914185,dot,"[0.08, 0.06, 0.08, 0.1, 0.1]","[[-0.28680504698685855, -0.37141287089520275], [-0.07941991320777259, -0.3100284666993168], [0.1333965094747872, -0.32231728701695306], [-0.16725551142864267, -0.07802884766317453], [0.04399369704041987, -0.09756099317031844]]",density,black,,,D004,visual,5,[],"['1', '2', '3', '4']",1,2023.2.3,harveyvisual,2.1,[],8,0.75,
0,pause,0.4,None,None,None,0,55,55,55,,,,,,,,,,,,,D004,visual,5,[],"['1', '2', '3', '4']",1,2023.2.3,harveyvisual,2.1,[],8,0.75,
5,dot,0.3,['dot'],['density'],black,0,56,56,56,,,22.000224828720093,21.71549391746521,22.015466928482056,dot,"[0.06, 0.06, 0.08, 0.08, 0.1]","[[-0.15120343604734773, 0.13880483605515373], [-0.27543704003083597, 0.3074941448909677], [-0.47853302670601033, 0.30949922786165307], [-0.3682774975032249, -0.13900280599659498], [-0.34692227301900613, 0.0889564565184539]]",density,black,,,D004,visual,5,[],"['1', '2', '3', '4']",1,2023.2.3,harveyvisual,2.1,[],8,0.75,
0,pause,0.4,None,None,None,0,57,57,57,,,,,,,,,,,,,D004,visual,5,[],"['1', '2', '3', '4']",1,2023.2.3,harveyvisual,2.1,[],8,0.75,
5,dot,0.3,['dot'],['density'],white,0,58,58,58,,,22.700220823287964,22.41552186012268,22.71541976928711,dot,"[0.1, 0.06, 0.1, 0.08, 0.08]","[[-0.416197921377668, -0.28619329865683824], [-0.20866628843358032, -0.3460647126262422], [-0.5570429559765239, -0.05989317214741584], [-0.28028983240144106, -0.12146425093182346], [-0.3531870384577651, 0.07845006904085886]]",density,white,,,D004,visual,5,[],"['1', '2', '3', '4']",1,2023.2.3,harveyvisual,2.1,[],8,0.75,
0,pause,0.4,None,None,None,0,59,59,59,,,,,,,,,,,1,22.4204421043396,D004,visual,5,[],"['1', '2', '3', '4']",1,2023.2.3,harveyvisual,2.1,[],8,0.75,
6,dot,0.3,['dot'],['density'],black,0,60,60,60,,,23.400235891342163,23.115442991256714,23.41543984413147,dot,"[0.1, 0.1, 0.1, 0.06, 0.1, 0.06]","[[0.4249538099490167, -0.025354946498656116], [0.305005901383002, 0.397829445973664], [0.04954868862097969, 0.09819418046919175], [0.452299537631068, 0.2574679639516015], [0.21081936584905453, -0.08903757916275208], [0.27954488569289765, 0.14103100078867375]]",density,black,,,D004,visual,5,[],"['1', '2', '3', '4']",1,2023.2.3,harveyvisual,2.1,[],8,0.75,
0,pause,0.4,None,None,None,0,61,61,61,,,,,,,,,,,,,D004,visual,5,[],"['1', '2', '3', '4']",1,2023.2.3,harveyvisual,2.1,[],8,0.75,
6,dot,0.3,['dot'],['density'],black,0,62,62,62,,,24.100218772888184,23.81553292274475,24.115418910980225,dot,"[0.1, 0.08, 0.1, 0.1, 0.08, 0.06]","[[-0.36874454135919904, -0.07559312273534534], [-0.010504004432700158, -0.20559114413973084], [-0.17044584652251332, 0.17221059634863578], [-0.26251446752681207, -0.3074850979938877], [0.06633568674208327, -0.020893677029436595], [-0.1538914639536258, -0.02772778393149798]]",density,black,,,D004,visual,5,[],"['1', '2', '3', '4']",1,2023.2.3,harveyvisual,2.1,[],8,0.75,
0,pause,0.4,None,None,None,0,63,63,63,,,,,,,,,,,,,D004,visual,5,[],"['1', '2', '3', '4']",1,2023.2.3,harveyvisual,2.1,[],8,0.75,
6,dot,0.3,['dot'],['density'],black,0,64,64,64,,,24.800206899642944,24.51541781425476,24.81540584564209,dot,"[0.08, 0.06, 0.06, 0.1, 0.06, 0.1]","[[-0.36874454135919904, -0.07559312273534534], [-0.010504004432700158, -0.20559114413973084], [-0.17044584652251332, 0.17221059634863578], [-0.26251446752681207, -0.3074850979938877], [0.06633568674208327, -0.020893677029436595], [-0.1538914639536258, -0.02772778393149798]]",density,black,,,D004,visual,5,[],"['1', '2', '3', '4']",1,2023.2.3,harveyvisual,2.1,[],8,0.75,
0,pause,0.4,None,None,None,0,65,65,65,,,,,,,,,,,,,D004,visual,5,[],"['1', '2', '3', '4']",1,2023.2.3,harveyvisual,2.1,[],8,0.75,
6,dot,0.3,['dot'],['density'],black,0,66,66,66,,,25.500229835510254,25.215397834777832,25.5153489112854,dot,"[0.1, 0.08, 0.06, 0.06, 0.08, 0.1]","[[0.4838288853419304, 0.012393783640839304], [0.3357737587390128, 0.3939464288632381], [0.48781910936274964, 0.21484656822060386], [0.038497076365425514, 0.2266532147795764], [0.13074852606734502, 0.009493629341700475], [0.2855531954453259, 0.1811044151544938]]",density,black,,,D004,visual,5,[],"['1', '2', '3', '4']",1,2023.2.3,harveyvisual,2.1,[],8,0.75,
0,pause,0.4,None,None,None,0,67,67,67,,,,,,,,,,,,,D004,visual,5,[],"['1', '2', '3', '4']",1,2023.2.3,harveyvisual,2.1,[],8,0.75,
6,dot,0.3,['dot'],['density'],black,0,68,68,68,,,26.20022177696228,25.91537880897522,26.215357780456543,dot,"[0.08, 0.1, 0.08, 0.06, 0.1, 0.1]","[[0.1344939073868, 0.11682503965153783], [0.2622842826516073, -0.1576809643807538], [0.491422654665352, 0.2653315688189552], [0.5669231994484553, 0.0667155191364867], [0.2299276458131091, 0.29835232047215776], [0.3356420801536577, 0.10517090915368521]]",density,black,,,D004,visual,5,[],"['1', '2', '3', '4']",1,2023.2.3,harveyvisual,2.1,[],8,0.75,
0,pause,0.4,None,None,None,0,69,69,69,,,,,,,,,,,,,D004,visual,5,[],"['1', '2', '3', '4']",1,2023.2.3,harveyvisual,2.1,[],8,0.75,
6,dot,0.3,['dot'],['density'],black,0,70,70,70,,,26.90020990371704,26.61533284187317,26.915313959121704,dot,"[0.08, 0.06, 0.1, 0.1, 0.1, 0.06]","[[-0.362545063880459, -0.421860962952156], [-0.24010638466002518, -0.0327569241266412], [-0.22622339336134992, -0.23590116153186103], [-0.41823503972227205, -0.14060420183103206], [-0.028992295722001654, -0.1293578273409096], [-0.1459617666416116, -0.4591052827033254]]",density,black,,,D004,visual,5,[],"['1', '2', '3', '4']",1,2023.2.3,harveyvisual,2.1,[],8,0.75,
0,pause,0.4,None,None,None,0,71,71,71,,,,,,,,,,,,,D004,visual,5,[],"['1', '2', '3', '4']",1,2023.2.3,harveyvisual,2.1,[],8,0.75,
7,dot,0.3,['dot'],['density'],black,0,72,72,72,,,27.600220918655396,27.315319776535034,27.615417957305908,dot,"[0.06, 0.08, 0.08, 0.06, 0.08, 0.06, 0.06]","[[0.27964692832129656, -0.15500474148311624], [0.48019533028943556, 0.09933774746227163], [0.08203545767143021, 0.28019381302663365], [0.05572057582720619, -0.1426303369841539], [0.31711281236335803, 0.2944831276535668], [-0.041479771322150735, 0.11885700406191958], [0.21045310206912196, 0.07075003364957701]]",density,black,,,D004,visual,5,[],"['1', '2', '3', '4']",1,2023.2.3,harveyvisual,2.1,[],8,0.75,
0,pause,0.4,None,None,None,0,73,73,73,,,,,,,,,,,,,D004,visual,5,[],"['1', '2', '3', '4']",1,2023.2.3,harveyvisual,2.1,[],8,0.75,
7,dot,0.3,['dot'],['density'],white,0,74,74,74,,,28.300227880477905,28.01529288291931,28.31550097465515,dot,"[0.06, 0.08, 0.08, 0.08, 0.08, 0.1, 0.08]","[[-0.137089699111686, -0.0603537150230737], [-0.5113647139476066, -0.13847335204066147], [-0.15813839015967857, -0.36469710156031643], [-0.2936616210719107, -0.2141411575526577], [-0.32787652212665946, 0.04250548396893007], [0.004093135922799089, -0.22788394746255153], [-0.17456170860443615, 0.20133573380951708]]",density,white,,,D004,visual,5,[],"['1', '2', '3', '4']",1,2023.2.3,harveyvisual,2.1,[],8,0.75,
0,pause,0.4,None,None,None,0,75,75,75,,,,,,,,,,,1,28.095975160598755,D004,visual,5,[],"['1', '2', '3', '4']",1,2023.2.3,harveyvisual,2.1,[],8,0.75,
7,dot,0.3,['dot'],['density'],black,0,76,76,76,,,29.000228881835938,28.715308904647827,29.015297889709473,dot,"[0.06, 0.08, 0.08, 0.1, 0.06, 0.06, 0.06]","[[-0.08751196138777266, -0.40239331021683095], [-0.1389983634140625, -0.1821537091642013], [-0.5212097088452917, -0.15879536445288125], [-0.24197016774290594, 0.025691971861017886], [-0.324083892787021, -0.3083678109532634], [0.06465625853811506, -0.19815494036826437], [-0.2569867334647868, -0.5155038850209747]]",density,black,,,D004,visual,5,[],"['1', '2', '3', '4']",1,2023.2.3,harveyvisual,2.1,[],8,0.75,
0,pause,0.4,None,None,None,0,77,77,77,,,,,,,,,,,,,D004,visual,5,[],"['1', '2', '3', '4']",1,2023.2.3,harveyvisual,2.1,[],8,0.75,
7,dot,0.3,['dot'],['density'],black,0,78,78,78,,,29.700214862823486,29.415286779403687,29.71546196937561,dot,"[0.06, 0.1, 0.08, 0.06, 0.06, 0.1, 0.06]","[[-0.1635229753841098, 0.12186382262109141], [0.03437657187081179, 0.5178389267683822], [0.324184412335695, 0.17931743601205324], [0.08929018524031027, 0.11005745596178185], [-0.1318259817332877, 0.4026967659136047], [-0.053046683696667, -0.06058584598870606], [0.042745683665752716, 0.304616966822181]]",density,black,,,D004,visual,5,[],"['1', '2', '3', '4']",1,2023.2.3,harveyvisual,2.1,[],8,0.75,
0,pause,0.4,None,None,None,0,79,79,79,,,,,,,,,,,,,D004,visual,5,[],"['1', '2', '3', '4']",1,2023.2.3,harveyvisual,2.1,[],8,0.75,
7,dot,0.3,['dot'],['density'],black,0,80,80,80,,,30.400218963623047,30.11526894569397,30.415401935577393,dot,"[0.08, 0.1, 0.06, 0.08, 0.08, 0.08, 0.06]","[[-0.137089699111686, -0.0603537150230737], [-0.5113647139476066, -0.13847335204066147], [-0.15813839015967857, -0.36469710156031643], [-0.2936616210719107, -0.2141411575526577], [-0.32787652212665946, 0.04250548396893007], [0.004093135922799089, -0.22788394746255153], [-0.17456170860443615, 0.20133573380951708]]",density,black,,,D004,visual,5,[],"['1', '2', '3', '4']",1,2023.2.3,harveyvisual,2.1,[],8,0.75,
0,pause,0.4,None,None,None,0,81,81,81,,,,,,,,,,,,,D004,visual,5,[],"['1', '2', '3', '4']",1,2023.2.3,harveyvisual,2.1,[],8,0.75,
7,dot,0.3,['dot'],['density'],black,0,82,82,82,,,31.100214958190918,30.815448999404907,31.115238904953003,dot,"[0.08, 0.06, 0.06, 0.1, 0.06, 0.1, 0.06]","[[0.12902113605384963, -0.35167066519854956], [0.3838909825822851, -0.05572740120406059], [-0.02857767273637445, 0.1549795872955612], [0.19333287999408408, 0.10698923431715611], [-0.08146847087507005, -0.06064403559207536], [0.18020694687254563, -0.15550905334431223], [-0.07225335190945896, -0.28606481362007624]]",density,black,,,D004,visual,5,[],"['1', '2', '3', '4']",1,2023.2.3,harveyvisual,2.1,[],8,0.75,
0,pause,0.4,None,None,None,0,83,83,83,,,,,,,,,,,,,D004,visual,5,[],"['1', '2', '3', '4']",1,2023.2.3,harveyvisual,2.1,[],8,0.75,
8,dot,0.3,['dot'],['density'],black,0,84,84,84,,,31.800229787826538,31.515260934829712,31.815226793289185,dot,"[0.1, 0.06, 0.08, 0.08, 0.08, 0.1, 0.1, 0.08]","[[-0.258715538922871, 0.3828151050353194], [-0.4384035523576633, -0.18689856672911037], [-0.5586779833045601, 0.15056420889708766], [-0.1699372658897842, -0.04883432605429875], [-0.36053016753151684, 0.02858569738219561], [-0.199221799186684, 0.1876786431210615], [0.004458053620249285, 0.1240038339062716], [0.019420137312414813, -0.16023679021787893]]",density,black,,,D004,visual,5,[],"['1', '2', '3', '4']",1,2023.2.3,harveyvisual,2.1,[],8,0.75,
0,pause,0.4,None,None,None,0,85,85,85,,,,,,,,,,,,,D004,visual,5,[],"['1', '2', '3', '4']",1,2023.2.3,harveyvisual,2.1,[],8,0.75,
8,dot,0.3,['dot'],['density'],black,0,86,86,86,,,32.50020885467529,32.21526885032654,32.51528191566467,dot,"[0.06, 0.08, 0.1, 0.06, 0.06, 0.06, 0.1, 0.1]","[[-0.43120034012996816, -0.3965796075128045], [0.1478983624034229, -0.46770986256388064], [-0.23058307999139557, -0.3238539366063682], [-0.07988642296593639, -0.13993938361429092], [-0.08664795903044427, -0.5418074813242995], [0.11879255589163208, -0.1637425359681226], [-0.09873641234556067, 0.08705286872936738], [-0.025120016651009644, -0.34045580780112095]]",density,black,,,D004,visual,5,[],"['1', '2', '3', '4']",1,2023.2.3,harveyvisual,2.1,[],8,0.75,
0,pause,0.4,None,None,None,0,87,87,87,,,,,,,,,,,,,D004,visual,5,[],"['1', '2', '3', '4']",1,2023.2.3,harveyvisual,2.1,[],8,0.75,
8,dot,0.3,['dot'],['density'],black,0,88,88,88,,,33.20021677017212,32.915198802948,33.215192794799805,dot,"[0.06, 0.06, 0.08, 0.08, 0.06, 0.08, 0.06, 0.06]","[[0.34834348934164344, -0.28812382596974456], [-0.10329597477015798, -0.5243874580500916], [0.11080732975293575, -0.39067626210733153], [-0.006800183936578442, -0.10390350920236302], [0.17453264242573352, -0.004648084789036161], [-0.11839138898177409, -0.2765800857961495], [-0.2122949223397977, -0.08354151726817095], [0.0010823045536620208, 0.09995244087301837]]",density,black,,,D004,visual,5,[],"['1', '2', '3', '4']",1,2023.2.3,harveyvisual,2.1,[],8,0.75,
0,pause,0.4,None,None,None,0,89,89,89,,,,,,,,,,,,,D004,visual,5,[],"['1', '2', '3', '4']",1,2023.2.3,harveyvisual,2.1,[],8,0.75,
8,dot,0.3,['dot'],['density'],black,0,90,90,90,,,33.90022397041321,33.6152229309082,33.915207862854004,dot,"[0.06, 0.06, 0.08, 0.06, 0.06, 0.08, 0.08, 0.06]","[[0.4578461037593053, -0.0425280984807614], [0.3105081462658962, -0.253400778181943], [0.5107466611240274, 0.18303335057259504], [0.05013881804369301, 0.21472050036076742], [0.11913774150617627, -0.046477809882714556], [0.3069987493408211, 0.11186211070896974], [0.10261508471656716, -0.25482825738733483], [-0.08881417545548334, 0.035709595317019026]]",density,black,,,D004,visual,5,[],"['1', '2', '3', '4']",1,2023.2.3,harveyvisual,2.1,[],8,0.75,
0,pause,0.4,None,None,None,0,91,91,91,,,,,,,,,,,,,D004,visual,5,[],"['1', '2', '3', '4']",1,2023.2.3,harveyvisual,2.1,[],8,0.75,
8,dot,0.3,['dot'],['density'],black,0,92,92,92,,,34.60022592544556,34.315205812454224,34.6151978969574,dot,"[0.06, 0.08, 0.08, 0.1, 0.08, 0.06, 0.1, 0.06]","[[-0.2875956673588428, -0.37608972473646446], [0.1738442798715151, -0.5418380206356169], [-0.005791994605287101, -0.36400925298789194], [0.15381919852689818, -0.2106776783026027], [-0.02243369038452208, -0.11017027562433494], [-0.1375601387891928, -0.5383184991665005], [0.3481619806761259, -0.4256719133417836], [-0.2437856683810358, -0.16373273019932677]]",density,black,,,D004,visual,5,[],"['1', '2', '3', '4']",1,2023.2.3,harveyvisual,2.1,[],8,0.75,
0,pause,0.4,None,None,None,0,93,93,93,,,,,,,,,,,,,D004,visual,5,[],"['1', '2', '3', '4']",1,2023.2.3,harveyvisual,2.1,[],8,0.75,
8,dot,0.3,['dot'],['density'],black,0,94,94,94,,,35.30021095275879,35.01515078544617,35.31513500213623,dot,"[0.08, 0.06, 0.1, 0.08, 0.1, 0.06, 0.06, 0.08]","[[0.2695774744445919, -0.006239189610034271], [0.562582848369008, 0.10338967896652898], [0.24075709842543627, 0.2415297589697605], [0.16944247952526825, 0.43473569867318385], [0.009973801462114143, 0.2622623098226203], [0.4378981685404615, 0.30984992123658367], [0.345623627049791, -0.19390063473497438], [0.01218861403819752, 6.35764658527089e-05]]",density,black,,,D004,visual,5,[],"['1', '2', '3', '4']",1,2023.2.3,harveyvisual,2.1,[],8,0.75,
0,pause,0.4,None,None,None,0,95,95,95,,,,,,,,,,,,,D004,visual,5,[],"['1', '2', '3', '4']",1,2023.2.3,harveyvisual,2.1,[],8,0.75,
9,dot,0.3,['dot'],['density'],black,0,96,96,96,,,36.000231981277466,35.71511793136597,36.01516795158386,dot,"[0.1, 0.06, 0.06, 0.1, 0.06, 0.1, 0.08, 0.1, 0.1]","[[0.21556792455118703, 0.37642033042102185], [0.14366510572844648, -0.18651452926789283], [0.49642287684820396, -0.0794158383055628], [-0.04770628609247857, -0.12519201939426747], [0.20310136493979325, 0.154094551714378], [-0.004065485174475974, 0.09100382633055243], [-0.018053901421587658, 0.34918523294118026], [0.29624623666919286, -0.053344657000752645], [-0.2018857737562037, 0.01971770186205045]]",density,black,,,D004,visual,5,[],"['1', '2', '3', '4']",1,2023.2.3,harveyvisual,2.1,[],8,0.75,
0,pause,0.4,None,None,None,0,97,97,97,,,,,,,,,,,,,D004,visual,5,[],"['1', '2', '3', '4']",1,2023.2.3,harveyvisual,2.1,[],8,0.75,
9,dot,0.3,['dot'],['density'],black,0,98,98,98,,,36.700206995010376,36.41527581214905,36.71523690223694,dot,"[0.06, 0.06, 0.1, 0.1, 0.1, 0.08, 0.06, 0.08, 0.06]","[[-0.3974741157875733, -0.3691322615124248], [0.01813275331019438, -0.041305186939584786], [-0.297817964195003, 0.1404435238036691], [-0.24996212712231053, -0.10674501212047392], [-0.45607543705465475, -0.10954340680539053], [-0.5097726394514722, 0.08872958744943038], [-0.16376728557074105, -0.3354799619734228], [-0.07115584905184995, 0.17737469530672276], [-0.4529869372404742, 0.29851616761646654]]",density,black,,,D004,visual,5,[],"['1', '2', '3', '4']",1,2023.2.3,harveyvisual,2.1,[],8,0.75,
0,pause,0.4,None,None,None,0,99,99,99,,,,,,,,,,,,,D004,visual,5,[],"['1', '2', '3', '4']",1,2023.2.3,harveyvisual,2.1,[],8,0.75,
9,dot,0.3,['dot'],['density'],black,0,100,100,100,,,37.40023183822632,37.11509990692139,37.41523098945618,dot,"[0.06, 0.06, 0.06, 0.08, 0.1, 0.06, 0.08, 0.08, 0.1]","[[0.12352761201622256, -0.5468572532837559], [0.3269537579821693, -0.14821727133703638], [-0.17374906020363926, -0.07190913605219341], [-0.07646026346349713, -0.5341566642345157], [0.06446752128858728, 0.011530587655488696], [0.17734850627899523, -0.32847254707869106], [-0.01015131191695844, -0.24065236825376074], [-0.3732824370369478, -0.21519922319826376], [-0.23017550258214428, -0.35747389881463476]]",density,black,,,D004,visual,5,[],"['1', '2', '3', '4']",1,2023.2.3,harveyvisual,2.1,[],8,0.75,
0,pause,0.4,None,None,None,0,101,101,101,,,,,,,,,,,,,D004,visual,5,[],"['1', '2', '3', '4']",1,2023.2.3,harveyvisual,2.1,[],8,0.75,
9,dot,0.3,['dot'],['density'],black,0,102,102,102,,,38.10020899772644,37.81505084037781,38.11504077911377,dot,"[0.08, 0.1, 0.08, 0.08, 0.1, 0.1, 0.06, 0.08, 0.1]","[[0.34043128493099817, 0.2271075800100716], [0.2702764120171402, -0.10456749967376819], [-0.1274635928921129, -0.04210317806044915], [-0.03460273614387521, 0.1795356259369138], [0.14470969472881007, 0.3391925298523705], [0.06761060508642219, 0.0060094309834155335], [0.5117869412029185, -0.12050585585317111], [0.07404675892906432, -0.22660478390602867], [0.35723900661310204, -0.3185591288757]]",density,black,,,D004,visual,5,[],"['1', '2', '3', '4']",1,2023.2.3,harveyvisual,2.1,[],8,0.75,
0,pause,0.4,None,None,None,0,103,103,103,,,,,,,,,,,,,D004,visual,5,[],"['1', '2', '3', '4']",1,2023.2.3,harveyvisual,2.1,[],8,0.75,
9,dot,0.3,['dot'],['density'],black,0,104,104,104,,,38.8002188205719,38.51557183265686,38.815555810928345,dot,"[0.06, 0.08, 0.1, 0.06, 0.08, 0.06, 0.06, 0.06, 0.08]","[[0.16751238249231654, 0.5577961240465925], [-0.27296145406993233, 0.4862198967380745], [-0.029185467938656964, 0.15062746822878756], [-0.0646201772689005, 0.5687739076077192], [0.1739328392933146, 0.3418730943321047], [-0.141244529573345, 0.32572795328380527], [-0.5161698704605421, 0.1834233825743511], [0.21727962056556488, 0.12903401361548372], [-0.23724269532595021, 0.10991409904419316]]",density,black,,,D004,visual,5,[],"['1', '2', '3', '4']",1,2023.2.3,harveyvisual,2.1,[],8,0.75,
0,pause,0.4,None,None,None,0,105,105,105,,,,,,,,,,,,,D004,visual,5,[],"['1', '2', '3', '4']",1,2023.2.3,harveyvisual,2.1,[],8,0.75,
9,dot,0.3,['dot'],['density'],black,0,106,106,106,,,39.50020790100098,39.215555906295776,39.51554083824158,dot,"[0.08, 0.06, 0.06, 0.08, 0.1, 0.06, 0.06, 0.1, 0.1]","[[-0.08351644510687262, 0.021707353155035948], [0.11173555070370329, 0.3931220271068859], [-0.15396522232717408, 0.3423719725559184], [0.23829169989725132, 0.186218803300476], [-0.29008049122260166, 0.17395274189193027], [0.2491440638781109, -0.04662568063892593], [-0.2854023508218629, -0.06307984259985559], [0.003596708871689959, 0.21717875760955796], [-0.47489413548496523, 0.030788186259843496]]",density,black,,,D004,visual,5,[],"['1', '2', '3', '4']",1,2023.2.3,harveyvisual,2.1,[],8,0.75,
0,pause,0.4,None,None,None,0,107,107,107,,,,,,,,,,,,,D004,visual,5,[],"['1', '2', '3', '4']",1,2023.2.3,harveyvisual,2.1,[],8,0.75,
20,dot,0.3,['dot'],['density'],black,0,108,108,108,,,40.20022678375244,39.91592597961426,40.21552491188049,dot,"[0.08, 0.06, 0.06, 0.1, 0.1, 0.1, 0.1, 0.08, 0.06, 0.06, 0.1, 0.06, 0.06, 0.06, 0.06, 0.06, 0.06, 0.1, 0.06, 0.08]","[[-0.16488719838285915, 0.520753640053955], [-0.36517009037695836, -0.4387016917998136], [-0.5627954624411335, 0.11420768107047688], [0.2880290802592478, -0.15596194986225487], [0.2843367591682199, -0.4903869734037227], [-0.12005303388294619, -0.4979174552312926], [0.06817154452175056, 0.11444728126084192], [0.3303509788270662, 0.1585165998172785], [0.04745116713497366, -0.2880857452495426], [-0.589516902264554, -0.13307201574870964], [0.18757249396492937, 0.3133085205523104], [-0.0806284286038913, 0.2594276998591757], [0.5543060159682046, 0.18829110142669236], [-0.45900522779741115, 0.3199966727393102], [0.028643585529519178, -0.07955677461539634], [-0.35546394198703557, -0.19326157371238822], [0.4651184897781514, -0.3500881751197335], [-0.17074615074898247, -0.28297415140038307], [0.3171089819286741, 0.46765031197481377], [0.47654608502074025, -0.0832133691731522]]",density,black,,,D004,visual,5,[],"['1', '2', '3', '4']",1,2023.2.3,harveyvisual,2.1,[],8,0.75,
0,pause,0.4,None,None,None,0,109,109,109,,,,,,,,,,,,,D004,visual,5,[],"['1', '2', '3', '4']",1,2023.2.3,harveyvisual,2.1,[],8,0.75,
20,dot,0.3,['dot'],['density'],black,0,110,110,110,,,40.90022277832031,40.615516901016235,40.91781497001648,dot,"[0.1, 0.08, 0.06, 0.06, 0.1, 0.08, 0.1, 0.08, 0.06, 0.06, 0.06, 0.1, 0.06, 0.06, 0.06, 0.08, 0.06, 0.1, 0.08, 0.1]","[[0.11460833979815532, 0.038443353493600396], [0.08927350134191747, 0.4666880420192896], [-0.04957472042955069, -0.11777917735238203], [-0.28619732042687046, -0.18868437023592505], [0.3089304765946884, -0.3464873710818367], [-0.16006861374710196, -0.38418411749731984], [-0.5094815594634367, 0.06989221525023165], [0.13592937678600248, -0.5746308629200033], [-0.06533892330821522, 0.18312371627284807], [0.5124647474183678, -0.13378575066849774], [0.10258084682942925, -0.3266781857182929], [-0.16689353788680494, 0.4211551630869026], [-0.5769207436380143, -0.11647395270854823], [0.3446700138848797, -0.0016282595039661674], [0.2926663351774308, 0.3412403420865303], [-0.3302902320674921, 0.17691033843632964], [0.564103187888363, 0.130021554433072], [-0.14117381171644666, -0.5823107592457694], [-0.4308289467590921, 0.408033644091039], [-0.06459215658679773, 0.5883796046830208]]",density,black,,,D004,visual,5,[],"['1', '2', '3', '4']",1,2023.2.3,harveyvisual,2.1,[],8,0.75,
0,pause,0.4,None,None,None,0,111,111,111,,,,,,,,,,,,,D004,visual,5,[],"['1', '2', '3', '4']",1,2023.2.3,harveyvisual,2.1,[],8,0.75,
20,dot,0.3,['dot'],['density'],white,0,112,112,112,,,41.60020589828491,41.31783890724182,41.617793798446655,dot,"[0.1, 0.06, 0.1, 0.1, 0.1, 0.06, 0.1, 0.06, 0.08, 0.08, 0.1, 0.06, 0.08, 0.06, 0.1, 0.08, 0.06, 0.06, 0.06, 0.06]","[[0.4678970661948, -0.14512983077229025], [0.4944520276875687, 0.16389308170987676], [-0.4047824776126405, -0.36954284249731506], [0.29436878724527593, -0.3924531958792119], [-0.4474949528192119, -0.11808048030420909], [0.3082172827576989, 0.30265474681398385], [0.13709894224095842, -0.1459827479083341], [-0.24676434419109683, -0.14203776465252216], [-0.0738337055756999, 0.00948760253997838], [-0.13845062113022827, 0.44457834029275667], [-0.042015198315877744, -0.37061614531986836], [-0.32124339144747693, 0.14009816049190593], [-0.5232186627757218, 0.15459353818042948], [0.13465542409292774, 0.48956382447444835], [-0.03867486276647858, 0.25287861617190155], [-0.45244572191694526, 0.3497219780018993], [0.1546592925507847, 0.05297065785783328], [-0.14717395475298745, -0.584647572386157], [0.09971589126742153, -0.540080817168154], [-0.3227637069186635, 0.4950384560242985]]",density,white,,,D004,visual,5,[],"['1', '2', '3', '4']",1,2023.2.3,harveyvisual,2.1,[],8,0.75,
0,pause,0.4,None,None,None,0,113,113,113,,,,,,,,,,,1,41.3968071937561,D004,visual,5,[],"['1', '2', '3', '4']",1,2023.2.3,harveyvisual,2.1,[],8,0.75,
20,dot,0.3,['dot'],['density'],black,0,114,114,114,,,42.3002188205719,42.01780295372009,42.31779980659485,dot,"[0.08, 0.06, 0.08, 0.08, 0.1, 0.08, 0.06, 0.08, 0.06, 0.06, 0.06, 0.06, 0.1, 0.08, 0.08, 0.08, 0.08, 0.1, 0.06, 0.08]","[[-0.5555915191388665, 0.11813185447235769], [-0.07172149552726315, -0.35986840681483534], [-0.03569953774251766, 0.23347263378563332], [0.47644093009375166, 0.22654318955645614], [0.25963480569739794, 0.41043114106221057], [-0.5295639365834148, -0.09038563060354055], [0.5769291309717693, 0.03202919255580694], [-0.14287127972054775, 0.5305784092587926], [0.33929204138176305, -0.4638565211033265], [0.15615265610855855, -0.15181653810211704], [0.412674206298865, -0.22025682624278733], [-0.3743468270568504, 0.04202578516544092], [-0.2824761676430262, -0.39918616421769654], [0.14133679095189067, -0.40221180606117646], [-0.4334129625756751, 0.39293915152081443], [0.17303920415251073, 0.10143017900432816], [-0.16169147804429418, -0.1766508024083946], [0.38602642143070653, -0.0282250002309703], [-0.046017330547219015, -0.5558353962766315], [-0.12616800221153884, 0.011221035689777836]]",density,black,,,D004,visual,5,[],"['1', '2', '3', '4']",1,2023.2.3,harveyvisual,2.1,[],8,0.75,
0,pause,0.4,None,None,None,0,115,115,115,,,,,,,,,,,,,D004,visual,5,[],"['1', '2', '3', '4']",1,2023.2.3,harveyvisual,2.1,[],8,0.75,
20,dot,0.3,['dot'],['density'],black,0,116,116,116,,,43.000213861465454,42.717782974243164,43.01777195930481,dot,"[0.06, 0.08, 0.06, 0.06, 0.08, 0.08, 0.08, 0.08, 0.08, 0.06, 0.06, 0.08, 0.1, 0.1, 0.1, 0.06, 0.08, 0.1, 0.1, 0.1]","[[-0.5600972807373412, -0.1080116662129755], [-0.5014020634612213, 0.3166358316464979], [0.3063167859090903, -0.2426755343872713], [0.5648383993585281, -0.10979914932496865], [0.30615311031372505, 0.1499644862392603], [-0.37561228807576097, -0.29260085137322356], [0.2604783614983416, 0.5014864112683609], [-0.3120798620819464, 0.11795648594162156], [-0.0008642027041423361, -0.5859782588208775], [-0.0578576295651938, 0.4679592336624908], [-0.01872416310055003, -0.14625344644130384], [0.03545700060488732, 0.29841741239251585], [-0.21479821181096892, -0.1019896759409688], [0.4940822659209164, 0.25087743831849946], [-0.05186364124456755, 0.0756184540256698], [-0.5869237236049861, 0.14246966557120944], [-0.20917447680277163, -0.40373576408498635], [-0.22270794176042324, 0.33247092504769604], [0.28328188399586884, -0.46035867465546015], [0.4589332443745623, -0.3636487582952417]]",density,black,,,D004,visual,5,[],"['1', '2', '3', '4']",1,2023.2.3,harveyvisual,2.1,[],8,0.75,
0,pause,0.4,None,None,None,0,117,117,117,,,,,,,,,,,,,D004,visual,5,[],"['1', '2', '3', '4']",1,2023.2.3,harveyvisual,2.1,[],8,0.75,
20,dot,0.3,['dot'],['density'],black,0,118,118,118,,,43.70022177696228,43.417757987976074,43.7177619934082,dot,"[0.06, 0.08, 0.06, 0.08, 0.06, 0.06, 0.1, 0.08, 0.06, 0.1, 0.08, 0.1, 0.06, 0.08, 0.08, 0.08, 0.1, 0.06, 0.1, 0.1]","[[0.03315581643338872, -0.5884567845268757], [-0.37381742685810465, 0.14433060465761183], [0.48738877622523236, 0.17562942932766407], [0.19562665115555666, 0.48204496943755304], [-0.4965130392865701, 0.3008900290363353], [-0.15692042876648626, 0.03249003788380278], [0.3910799244416251, -0.24375622455201265], [-0.5998901970300329, 0.013406181585562088], [0.058652256513464396, -0.00661582093655555], [0.5663685611813495, -0.12917292233162164], [-0.3601118092179887, 0.44506870572025653], [-0.4625487493474988, -0.17593252264605477], [-0.42420150231486636, -0.37542167673680993], [-0.17233122757696046, -0.18758815856648092], [0.19261809582050293, -0.17238415876533342], [0.005941143176776964, 0.44210180625264894], [0.3864010104129231, 0.0110261707426339], [0.26185666554101494, 0.24412592487797768], [0.32609864590229865, -0.4581071190260911], [-0.049448497431496485, 0.24417852510556526]]",density,black,,,D004,visual,5,[],"['1', '2', '3', '4']",1,2023.2.3,harveyvisual,2.1,[],8,0.75,
0,pause,0.4,None,None,None,0,119,119,119,,,,,,,,,,,,,D004,visual,5,[],"['1', '2', '3', '4']",1,2023.2.3,harveyvisual,2.1,[],8,0.75,
20,dot,0.3,['dot'],['density'],black,0,120,120,120,,,44.400205850601196,44.11773681640625,44.41772794723511,dot,"[0.08, 0.08, 0.1, 0.1, 0.1, 0.08, 0.1, 0.06, 0.08, 0.06, 0.06, 0.1, 0.08, 0.08, 0.06, 0.06, 0.06, 0.06, 0.1, 0.06]","[[-0.1163832516648029, -0.20475720667791647], [-0.5427467651618387, -0.02920059390519475], [-0.4052127896056953, 0.35046606081563053], [-0.4893037005554502, -0.22955890396774753], [0.5402882217450634, -0.21913713986324393], [-0.2646262505446186, -0.07127745429101995], [0.2865001555820249, 0.14143537374981208], [0.5933375528115926, 0.09427986931081256], [0.05944394196750147, 0.3577558951649802], [-0.25518322639542174, 0.20110780509931914], [0.27329333387938337, -0.45472961852117055], [-0.1872624231725915, 0.5390506153122838], [0.09439987938900762, -0.5936881435151034], [0.13881396627074127, -0.20325269826122144], [-0.035796163478358345, 0.1334039619751033], [0.4702579539703352, 0.3465441874828147], [-0.16598269677324667, -0.5167006356346092], [-0.5333045411839312, 0.16583251127979937], [0.2580855360362976, 0.5169820103615185], [-0.2664637928008456, -0.33903870699242034]]",density,black,,,D004,visual,5,[],"['1', '2', '3', '4']",1,2023.2.3,harveyvisual,2.1,[],8,0.75,
0,pause,0.4,None,None,None,0,121,121,121,,,,,,,,,,,,,D004,visual,5,[],"['1', '2', '3', '4']",1,2023.2.3,harveyvisual,2.1,[],8,0.75,
20,dot,0.3,['dot'],['density'],white,0,122,122,122,,,45.100215911865234,44.817728996276855,45.11770486831665,dot,"[0.06, 0.08, 0.08, 0.1, 0.08, 0.1, 0.1, 0.06, 0.06, 0.06, 0.06, 0.1, 0.1, 0.08, 0.06, 0.1, 0.06, 0.06, 0.06, 0.06]","[[-0.1521909015785306, -0.4675783446242008], [-0.1985328552379531, -0.1034280444042231], [0.5112828467206897, -0.14890973627417073], [0.2957171270251411, -0.19313253585112022], [0.2569527661980914, 0.44918892788629927], [-0.10800369247526626, 0.14590589410255783], [0.5659510939614935, 0.0865177025909803], [-0.037471354000017, 0.5922708578849164], [-0.37876470848955135, 0.027359848595588043], [0.015624275531911258, -0.13334081572424478], [0.14929522036155574, 0.00965212061171905], [-0.5653978657906854, -0.10266030759310599], [-0.41753945729654246, -0.25101380528579037], [0.01619292849097309, -0.5896973865294011], [-0.2824581987865904, 0.38161295730283473], [-0.5768845419246224, 0.1805969908621593], [0.36123930868499154, 0.03939362420763043], [0.47139807080161955, 0.31753756245635306], [0.08517193377088872, 0.3643043251867646], [0.0727675802023503, -0.3299105346659678]]",density,white,,,D004,visual,5,[],"['1', '2', '3', '4']",1,2023.2.3,harveyvisual,2.1,[],8,0.75,
0,pause,0.4,None,None,None,0,123,123,123,,,,,,,,,,,1,44.80403709411621,D004,visual,5,[],"['1', '2', '3', '4']",1,2023.2.3,harveyvisual,2.1,[],8,0.75,
20,dot,0.3,['dot'],['density'],white,0,124,124,124,,,45.80020785331726,45.518842935562134,45.81769394874573,dot,"[0.1, 0.1, 0.1, 0.08, 0.06, 0.06, 0.1, 0.06, 0.06, 0.1, 0.06, 0.06, 0.06, 0.1, 0.06, 0.1, 0.1, 0.08, 0.08, 0.06]","[[0.5858143783585011, -0.12143121503793365], [-0.1476262416762783, 0.026828482870763226], [-0.32122688775605923, 0.47928213062319525], [0.5038983253424126, 0.21425526791569732], [0.17448889322627537, 0.0634864678982997], [-0.507875877480324, 0.3059522631349566], [-0.2958934557642985, -0.4314154344416324], [0.09243622501565452, 0.2638555997159654], [-0.5831598105581837, 0.09437868928623533], [-0.5376252521400198, -0.24302954249468442], [-0.12189384431609074, -0.5114172976473305], [0.1040203498975314, -0.560650382569226], [-0.1088210147471737, 0.5323413996004249], [0.31609080480117324, -0.28147485229268876], [-0.27345745872150334, -0.22792610135557712], [0.21888827379266174, 0.5173312099732368], [0.3195771621568091, 0.2655837564092919], [0.02078560262782647, -0.21979152635568355], [-0.41367117114937385, -0.02356682060759685], [0.3493123183999459, -0.08337615031876788]]",density,white,,,D004,visual,5,[],"['1', '2', '3', '4']",1,2023.2.3,harveyvisual,2.1,[],8,0.75,
0,pause,0.4,None,None,None,0,125,125,125,,,,,,,,,,,1,45.35410809516907,D004,visual,5,[],"['1', '2', '3', '4']",1,2023.2.3,harveyvisual,2.1,[],8,0.75,
20,dot,0.3,['dot'],['density'],black,0,126,126,126,,,46.50022482872009,46.21767783164978,46.51768183708191,dot,"[0.06, 0.06, 0.08, 0.08, 0.08, 0.06, 0.06, 0.1, 0.08, 0.06, 0.08, 0.1, 0.06, 0.08, 0.08, 0.1, 0.08, 0.1, 0.1, 0.08]","[[0.09167201717758566, -0.44907593150837316], [0.499629996952366, 0.15705840903213564], [-0.34117382113752714, -0.29045911695262305], [0.19019554617967005, 0.16817664864903037], [0.4262620020240103, 0.4073951535842274], [-0.2281189564610251, 0.4461300074794392], [-0.48796844407387385, 0.29116676715843787], [-0.3985568054376599, -0.06122968208469132], [-0.11325024168332559, -0.2909422373280844], [-0.17051352951805399, -0.08047592283727889], [-0.2187881366048987, -0.5125812704866816], [0.06721357444144394, 0.31470736433650603], [0.057755425984893805, 0.5524918034884199], [0.243360571998546, -0.11573967026300053], [0.4253006146776318, -0.025708779767819934], [0.5533214755320285, -0.20059083640972375], [0.3961198061758021, -0.35805382550424003], [-0.2882007860405745, 0.18013450438158296], [-0.5816078670533779, -0.16189036495060058], [0.005204346838576179, 0.006483955904330374]]",density,black,,,D004,visual,5,[],"['1', '2', '3', '4']",1,2023.2.3,harveyvisual,2.1,[],8,0.75,
0,pause,0.4,None,None,None,0,127,127,127,,,,,,,,,,,,,D004,visual,5,[],"['1', '2', '3', '4']",1,2023.2.3,harveyvisual,2.1,[],8,0.75,
20,dot,0.3,['dot'],['density'],white,0,128,128,128,,,47.20021986961365,46.917672872543335,47.21766686439514,dot,"[0.1, 0.06, 0.06, 0.08, 0.06, 0.1, 0.06, 0.1, 0.08, 0.1, 0.08, 0.08, 0.1, 0.06, 0.06, 0.06, 0.06, 0.1, 0.08, 0.1]","[[-0.0235275409562562, -0.08213237520214145], [-0.5584989738173393, 0.09932885412889897], [0.5748073899916338, -0.006287225130115898], [0.06365091185531535, 0.2192754315487676], [0.38334245046514925, -0.05490115725018485], [-0.14730030043016823, 0.19030948746031506], [-0.3282328666444203, -0.17511341931339502], [0.22031028698262378, 0.4588530522152392], [-0.3425777852974519, 0.33348841641529486], [0.528211841150111, -0.2596356604835328], [-0.30343537625505135, -0.46651367035971103], [-0.48533963709190736, -0.3020498435422906], [0.4007160054801856, 0.2558764335257906], [-0.0112980904864588, -0.4203507305432034], [-0.0677170457714612, 0.47454180820676917], [0.22073962575677486, -0.26371447402566417], [0.22718969026523905, -0.5389521088855999], [0.20090064141260677, 0.021337234798338267], [-0.5514828744853879, -0.11066960233087311], [-0.10289715110022046, -0.5929678328096538]]",density,white,,,D004,visual,5,[],"['1', '2', '3', '4']",1,2023.2.3,harveyvisual,2.1,[],8,0.75,
0,pause,0.4,None,None,None,0,129,129,129,,,,,,,,,,,1,46.719343185424805,D004,visual,5,[],"['1', '2', '3', '4']",1,2023.2.3,harveyvisual,2.1,[],8,0.75,
20,dot,0.3,['dot'],['density'],black,0,130,130,130,,,47.900230884552,47.61767792701721,47.91766691207886,dot,"[0.06, 0.06, 0.08, 0.06, 0.06, 0.06, 0.1, 0.08, 0.08, 0.08, 0.1, 0.06, 0.08, 0.1, 0.1, 0.1, 0.1, 0.08, 0.08, 0.1]","[[0.4820650477267535, 0.1752161379832014], [-0.5104199974294406, -0.010303422943344132], [0.09090502093976638, -0.40501927096327917], [0.049484019270985224, -0.06946613678065983], [-0.41515888491959996, -0.3234020823845334], [0.08058798385610355, 0.32889093313584017], [0.49596704101891376, -0.030381588720766683], [0.49903025563219583, -0.3177103412744651], [0.14973708227860394, 0.12435203968663477], [-0.2817708101060924, 0.22902542106819523], [-0.16860248503109798, -0.3752345005065263], [0.2469991441397228, -0.06644715570166787], [-0.014580244679837318, 0.5064162367576822], [-0.4730761095531134, 0.19942772465697306], [-0.24069810042070316, 0.04197143518914237], [-0.11613220419199377, -0.1660648399862319], [0.3006238818982897, 0.3709473890258004], [-0.12641524468535037, 0.34107013515266493], [-0.3316592103853097, -0.13023286245854176], [0.25954887143950645, -0.31477417554300413]]",density,black,,,D004,visual,5,[],"['1', '2', '3', '4']",1,2023.2.3,harveyvisual,2.1,[],8,0.75,
0,pause,0.4,None,None,None,0,131,131,131,,,,,,,,,,,,,D004,visual,5,[],"['1', '2', '3', '4']",1,2023.2.3,harveyvisual,2.1,[],8,0.75,
20,dot,0.3,['dot'],['density'],white,0,132,132,132,,,48.60023283958435,48.31762981414795,48.61761689186096,dot,"[0.06, 0.1, 0.1, 0.1, 0.1, 0.08, 0.08, 0.1, 0.1, 0.1, 0.06, 0.08, 0.08, 0.08, 0.06, 0.1, 0.08, 0.06, 0.1, 0.06]","[[-0.4107449362241462, 0.10096509502823053], [0.37691723486665163, 0.4158732923046688], [0.16520263962819537, 0.5148637605515045], [-0.0029745346219653968, 0.20165297199165333], [-0.4568801369625247, -0.39386490855879686], [0.19253439248795734, -0.20855235303836217], [-0.09368605838355659, -0.32463358544220516], [0.5368573105406037, 0.22357326572233682], [0.28807046496805777, -0.3804335604842592], [-0.14760578401754865, -0.5579458677310623], [-0.21302344481934882, 0.2238689986715341], [0.4743775410787757, -0.03874478176997559], [0.13078641427008764, 0.05353777133327209], [-0.04230199043439031, 0.5684534908163129], [-0.4739718667963064, 0.3523477037249708], [-0.2410056860476254, -0.11072329232106931], [-0.5022534024895643, -0.16720975758971027], [0.3240455284832334, 0.13572850157745397], [-0.6030154510666239, 0.04549487168781639], [-0.3334531306581169, 0.5050161457632116]]",density,white,,,D004,visual,5,[],"['1', '2', '3', '4']",1,2023.2.3,harveyvisual,2.1,[],8,0.75,
0,pause,0.4,None,None,None,0,133,133,133,,,,,,,,,,,1,48.13448214530945,D004,visual,5,[],"['1', '2', '3', '4']",1,2023.2.3,harveyvisual,2.1,[],8,0.75,
20,dot,0.3,['dot'],['density'],black,0,134,134,134,,,49.300214767456055,49.01761293411255,49.31759977340698,dot,"[0.08, 0.06, 0.06, 0.08, 0.08, 0.1, 0.06, 0.1, 0.08, 0.06, 0.1, 0.08, 0.06, 0.06, 0.08, 0.08, 0.08, 0.06, 0.08, 0.06]","[[0.28297499879929555, -0.4168396100868327], [-0.2786292094289477, -0.4707944787937601], [-0.36875821036848766, 0.08166718817632335], [-0.20582556138102875, 0.3568593266110006], [0.025150099673654558, 0.2878377675384646], [0.38391341534102563, 0.4512282966585249], [-0.02546616989869732, -0.15153607781908057], [-0.5747720156358128, 0.07972140552484114], [0.27616443300924554, -0.0999600797236353], [0.2522972699337255, 0.27549695372905925], [0.4926239373376876, 0.15142083082701374], [0.0303582150504621, -0.35032512540456995], [-0.3638137180153953, -0.13556751115682025], [0.09789111084441227, 0.06493975873417901], [-0.39785537961697426, 0.4195091325099784], [0.11711033758911737, 0.5632065082134483], [-0.5799460717267946, -0.1259957623900235], [-0.07120873647059722, 0.5170568041245636], [0.5573495165976822, -0.2342075658474964], [-0.21930237405720376, -0.2845543614633207]]",density,black,,,D004,visual,5,[],"['1', '2', '3', '4']",1,2023.2.3,harveyvisual,2.1,[],8,0.75,
0,pause,0.4,None,None,None,0,135,135,135,,,,,,,,,,,,,D004,visual,5,[],"['1', '2', '3', '4']",1,2023.2.3,harveyvisual,2.1,[],8,0.75,
20,dot,0.3,['dot'],['density'],black,0,136,136,136,,,50.000211000442505,49.71760678291321,50.017579793930054,dot,"[0.08, 0.1, 0.06, 0.1, 0.08, 0.06, 0.1, 0.06, 0.06, 0.1, 0.08, 0.08, 0.1, 0.08, 0.1, 0.06, 0.1, 0.06, 0.08, 0.1]","[[0.5784707083240977, 0.04758636276606623], [0.28800632799342696, 0.016259417400239173], [-0.32167284038061816, 0.27103760230760576], [-0.38174924084389295, -0.3758306203769321], [-0.0936313475748426, 0.42040228156500026], [-0.27576504749031744, 0.002830941533350506], [0.24415650625812657, -0.44840575574216085], [-0.42531914922461606, -0.19015285061158896], [-0.546395888393799, 0.09526123389379748], [0.38280393295472714, 0.41068194607319175], [0.25866343908861245, 0.2520426056787134], [0.10712252699525537, -0.22193426313129527], [-0.16877642166396378, -0.264385300762579], [-0.11348202587947098, -0.585911222052941], [-0.1340533471576434, 0.17638983223477755], [0.05278743260451224, -0.4893971753814486], [0.4426634521254694, 0.19031753252806077], [0.4446403128605979, -0.28151571021432303], [0.15703234517204967, 0.5026642931958332], [0.029829050194544515, 0.06121584324030771]]",density,black,,,D004,visual,5,[],"['1', '2', '3', '4']",1,2023.2.3,harveyvisual,2.1,[],8,0.75,
0,pause,0.4,None,None,None,0,137,137,137,,,,,,,,,,,,,D004,visual,5,[],"['1', '2', '3', '4']",1,2023.2.3,harveyvisual,2.1,[],8,0.75,
20,dot,0.3,['dot'],['density'],black,0,138,138,138,,,50.70022177696228,50.41758394241333,50.71757197380066,dot,"[0.08, 0.08, 0.08, 0.06, 0.1, 0.1, 0.06, 0.06, 0.1, 0.1, 0.1, 0.08, 0.06, 0.06, 0.08, 0.06, 0.1, 0.06, 0.08, 0.1]","[[0.6018478582740535, 0.020997036422677237], [-0.4968788466227845, 0.03953471599780933], [-0.33948161686867506, -0.35085580942042144], [0.3259891261479081, 0.004895620827734315], [0.5464153503771497, -0.2587319212423627], [-0.31235994831312597, 0.12935889722588667], [-0.053676433014358094, 0.5994946146235834], [-0.1397890863236737, -0.5424631450743294], [0.4760812126589148, 0.30666213400276016], [-0.5391586144324727, -0.1881238585654042], [0.25541171469040835, -0.29923212548622], [-0.2712556117475723, 0.3889253090819439], [0.11814247280290169, 0.24049122727284022], [0.2627215110173319, 0.44351780829134624], [-0.052091525843081965, 0.40615691408987353], [0.030525487212765823, -0.07050502858146424], [-0.03349813296028248, -0.36682429549450124], [0.16980254746175916, -0.554796002763605], [-0.5365654961323988, 0.23269209702211535], [-0.11561851942759194, 0.11916625356990385]]",density,black,,,D004,visual,5,[],"['1', '2', '3', '4']",1,2023.2.3,harveyvisual,2.1,[],8,0.75,
0,pause,0.4,None,None,None,0,139,139,139,,,,,,,,,,,,,D004,visual,5,[],"['1', '2', '3', '4']",1,2023.2.3,harveyvisual,2.1,[],8,0.75,
20,dot,0.3,['dot'],['density'],white,0,140,140,140,,,51.40021896362305,51.117558002471924,51.417547941207886,dot,"[0.08, 0.1, 0.06, 0.08, 0.08, 0.1, 0.06, 0.08, 0.1, 0.1, 0.06, 0.06, 0.08, 0.1, 0.08, 0.06, 0.1, 0.1, 0.08, 0.08]","[[0.14120481146784358, -0.4475824954820203], [-0.48621772282008646, -0.2295727345730591], [-0.44998566368387805, 0.016177713128302296], [0.46119773154238175, 0.060638870076867246], [-0.0765542306305057, -0.31990730945263857], [-0.353532278147214, 0.314688996305908], [0.33200283473459136, -0.42019842367603644], [0.4392208696797891, -0.25541205250935994], [-0.21096782236344935, 0.07811153656155756], [-0.3247690791151, -0.3934343213597029], [-0.07462306271330743, 0.4033173368748587], [-0.16953507316866617, -0.5136300071368181], [0.16232986436747554, -0.051580643263783865], [0.2117842081013468, 0.2981951387410223], [0.4401252581716987, 0.3423197838350501], [0.022065006482905103, -0.6047944431648511], [0.19379186558413297, 0.5573932455182355], [-0.2574369962613895, 0.4953950435768033], [0.09879500563940169, -0.2438918844368621], [0.03630366503697158, 0.13178972523262222]]",density,white,,,D004,visual,5,[],"['1', '2', '3', '4']",1,2023.2.3,harveyvisual,2.1,[],8,0.75,
0,pause,0.4,None,None,None,0,141,141,141,,,,,,,,,,,1,51.122820138931274,D004,visual,5,[],"['1', '2', '3', '4']",1,2023.2.3,harveyvisual,2.1,[],8,0.75,
20,dot,0.3,['dot'],['density'],black,0,142,142,142,,,52.100223779678345,51.81952977180481,52.11752390861511,dot,"[0.06, 0.1, 0.06, 0.06, 0.06, 0.08, 0.08, 0.08, 0.1, 0.1, 0.08, 0.08, 0.08, 0.08, 0.06, 0.1, 0.06, 0.1, 0.1, 0.1]","[[-0.40075815148580396, 0.35521470386986], [0.3647725537221673, -0.2641152057057473], [-0.2982835596981129, -0.46965183518765974], [0.09082260899969041, -0.07302934738362088], [0.006040247334861193, 0.18993533637119087], [-0.5537208658674666, -0.10170887301499329], [0.43843695535258387, -0.07414845524506336], [0.2611204863548847, 0.46965725398653313], [-0.42613040519995105, 0.1068088235271441], [-0.4998852262726817, -0.30356467734877446], [-0.14751459624932323, -0.28397499196916154], [-0.18626216368724996, 0.3748358084511618], [0.5507085904364347, 0.15295215234965326], [0.24060533941122952, 0.055216012315079], [-0.19863231096807576, -0.08436101751135955], [0.0185070082238179, 0.5238647769357645], [0.026027240087758585, -0.5137590762957541], [0.23706692359148607, 0.27860747314039924], [0.29856072203557393, -0.4736269807763147], [0.4194986570917697, 0.3475400709727307]]",density,black,,,D004,visual,5,[],"['1', '2', '3', '4']",1,2023.2.3,harveyvisual,2.1,[],8,0.75,
0,pause,0.4,None,None,None,0,143,143,143,,,,,,,,,,,,,D004,visual,5,[],"['1', '2', '3', '4']",1,2023.2.3,harveyvisual,2.1,[],8,0.75,
20,dot,0.3,['dot'],['density'],black,0,144,144,144,,,52.8002347946167,52.51753497123718,52.81843090057373,dot,"[0.08, 0.08, 0.06, 0.06, 0.06, 0.06, 0.1, 0.06, 0.08, 0.08, 0.08, 0.08, 0.06, 0.1, 0.1, 0.06, 0.1, 0.08, 0.08, 0.08]","[[0.5062266119404949, -0.11920032747715284], [-0.41916627658191563, -0.08111370322450939], [0.2692461854559095, -0.10443631378371099], [0.5423957536826097, 0.15489735984414393], [-0.2837805232716942, -0.2663344756656791], [-0.1630884384185386, 0.29822323143170737], [-0.506972588289785, 0.3264969028150481], [0.3058300262312904, -0.29471096356291515], [0.12903178244838653, 0.5060399368964458], [-0.3454671590103952, 0.4452505570623315], [0.37971629779443505, 0.46488450729954583], [0.09374937972732844, 0.11291527523583733], [-0.44398810132698385, 0.12089996788745033], [0.12365722409775581, -0.5198224919604004], [-0.1127544217490612, 0.5142539493654824], [-0.18146315156652892, -0.46479937567349733], [-0.03930794773084001, -0.2961331764522725], [-0.1756413524010665, -0.08408506657865494], [0.08749389472329328, 0.3094531641248218], [0.3033580998734857, 0.24619396611823052]]",density,black,,,D004,visual,5,[],"['1', '2', '3', '4']",1,2023.2.3,harveyvisual,2.1,[],8,0.75,
0,pause,0.4,None,None,None,0,145,145,145,,,,,,,,,,,,,D004,visual,5,[],"['1', '2', '3', '4']",1,2023.2.3,harveyvisual,2.1,[],8,0.75,
20,dot,0.3,['dot'],['density'],black,0,146,146,146,,,53.50023698806763,53.2175657749176,53.51750588417053,dot,"[0.08, 0.06, 0.06, 0.1, 0.06, 0.1, 0.08, 0.08, 0.1, 0.06, 0.08, 0.06, 0.06, 0.06, 0.1, 0.1, 0.08, 0.1, 0.08, 0.06]","[[0.21986826829101125, 0.008822538144639291], [-0.3653435126561826, -0.12950373146984362], [0.458781353894144, 0.2648022097372536], [0.025753115217171385, -0.5228996146639384], [-0.19474698083800118, -0.5063185679947517], [-0.2349342718794954, -0.311084471381365], [0.5697526264767191, -0.05605870340622024], [0.41356095443810903, -0.4116490970443476], [-0.3356295006519067, 0.3908798877333224], [0.09612076267822389, 0.46908211515905385], [-0.5841843323624419, -0.15684304733005638], [-0.1796017016014142, 0.5251709299237256], [-0.02150250989786573, -0.050247568475718984], [-0.4225354522838329, 0.16738396176572967], [-0.17879415505780727, 0.23841213656927174], [0.04985870563407313, 0.20961640448576946], [0.18696512640922258, -0.4168916884867335], [0.23964953047189774, -0.22054343262063575], [-0.5024905290191661, -0.3344263227119887], [0.2610821496409378, 0.19449197141113506]]",density,black,,,D004,visual,5,[],"['1', '2', '3', '4']",1,2023.2.3,harveyvisual,2.1,[],8,0.75,
0,pause,0.4,None,None,None,0,147,147,147,,,,,,,,,,,,,D004,visual,5,[],"['1', '2', '3', '4']",1,2023.2.3,harveyvisual,2.1,[],8,0.75,
20,dot,0.3,['dot'],['density'],black,0,148,148,148,,,54.20021677017212,53.91749596595764,54.217482805252075,dot,"[0.08, 0.1, 0.1, 0.08, 0.06, 0.1, 0.08, 0.1, 0.08, 0.1, 0.06, 0.06, 0.1, 0.08, 0.06, 0.1, 0.1, 0.1, 0.08, 0.08]","[[0.36591735750638965, 0.25758698311533995], [0.28341526189663935, 0.4799333032325438], [0.3131916637591047, -0.008714879140127252], [0.20179917730001506, -0.4471631347668356], [-0.19758309385904832, -0.4767113611970492], [-0.41775271203597647, 0.13336399257268616], [-0.15397294128133582, -0.0848541703295227], [0.04618675153566654, -0.24497704677483106], [-0.44443442107601155, 0.36414907919019956], [-0.1555546825404417, 0.40506280472767286], [-0.5974764457309913, -0.06407281946910792], [0.5864875688885675, 0.14650595798422494], [0.09389883400674304, 0.1918779824945137], [0.50624982071887, -0.29763655970926495], [0.2520535827040511, -0.22786348287003882], [-0.22481690582837466, -0.2848470365111058], [-0.016243320542287942, -0.5649414471532385], [-0.4526981528419138, -0.24670831088022793], [-0.09528636932335144, 0.21468667565843913], [0.5126857159950279, -0.102933890361882]]",density,black,,,D004,visual,5,[],"['1', '2', '3', '4']",1,2023.2.3,harveyvisual,2.1,[],8,0.75,
0,pause,0.4,None,None,None,0,149,149,149,,,,,,,,,,,,,D004,visual,5,[],"['1', '2', '3', '4']",1,2023.2.3,harveyvisual,2.1,[],8,0.75,
20,dot,0.3,['dot'],['density'],black,0,150,150,150,,,54.90021586418152,54.61750292778015,54.917635917663574,dot,"[0.1, 0.1, 0.1, 0.06, 0.08, 0.06, 0.08, 0.06, 0.08, 0.08, 0.08, 0.06, 0.08, 0.1, 0.06, 0.08, 0.06, 0.08, 0.06, 0.08]","[[-0.37940555497831907, -0.23814222673225025], [0.1054568302588923, -0.3146653507934303], [0.33645844589775875, 0.11057476120429488], [0.575061719317911, 0.04959804533986634], [-0.13362390992652146, 0.14380890437493132], [0.3736317216285222, -0.27532269647685054], [0.14721031400589313, 0.015397636124686698], [0.44172089313877405, 0.27490567861651033], [-0.5128349899489664, -0.0637876628191344], [0.22963591987997978, 0.28667347796197484], [-0.18165740419021276, -0.1332433988202088], [-0.34997749946626905, 0.35598706607206837], [-0.1644938907086892, -0.5666660711370746], [0.36094639858791744, -0.4765222770158208], [-0.5521680056203832, 0.16441138454301615], [0.5522812792172059, -0.19899771780991532], [-0.3327792919626443, 0.1630542942782156], [-0.12883556427223924, 0.4738490314818097], [0.16892481786068003, -0.5628344317276402], [-0.00973798419930838, 0.3254278343258088]]",density,black,,,D004,visual,5,[],"['1', '2', '3', '4']",1,2023.2.3,harveyvisual,2.1,[],8,0.75,
0,pause,0.4,None,None,None,0,151,151,151,,,,,,,,,,,,,D004,visual,5,[],"['1', '2', '3', '4']",1,2023.2.3,harveyvisual,2.1,[],8,0.75,
20,dot,0.3,['dot'],['density'],black,0,152,152,152,,,55.600212812423706,55.31745386123657,55.6174418926239,dot,"[0.06, 0.1, 0.1, 0.06, 0.1, 0.1, 0.08, 0.08, 0.06, 0.06, 0.08, 0.08, 0.1, 0.08, 0.08, 0.1, 0.08, 0.1, 0.1, 0.1]","[[-0.17415399885861216, 0.24430662456481], [0.2984599897074611, -0.3438703056847916], [0.5666921996872204, 0.21264298854258423], [0.12087654891944632, 0.22627044109338257], [-0.400258495415897, 0.15555804382731636], [0.11039247808579211, -0.0817464014474859], [0.5127002339778687, -0.2973058550157423], [0.23440987923608037, 0.5001791147148962], [-0.2886134052619352, -0.16577444051924567], [-0.32973522620933327, 0.4450518129018005], [0.022192288255193815, 0.5022156475404909], [-0.6046036863332858, 0.016133324213753773], [0.0363101739225451, -0.4617118634899189], [-0.39430093924050746, -0.3693701924955397], [0.34754488584927656, 0.12446339445748134], [0.5815410115888878, -0.11959546800319124], [-0.1671638763230629, -0.5733097385593694], [-0.06613204116503546, -0.2709085336157748], [-0.48192214201734174, -0.1709852203461005], [-0.14889794821190966, 0.030513115159257476]]",density,black,,,D004,visual,5,[],"['1', '2', '3', '4']",1,2023.2.3,harveyvisual,2.1,[],8,0.75,
0,pause,0.4,None,None,None,0,153,153,153,,,,,,,,,,,,,D004,visual,5,[],"['1', '2', '3', '4']",1,2023.2.3,harveyvisual,2.1,[],8,0.75,
20,dot,0.3,['dot'],['density'],black,0,154,154,154,,,56.30021095275879,56.017430782318115,56.317434787750244,dot,"[0.1, 0.06, 0.1, 0.06, 0.1, 0.1, 0.08, 0.1, 0.06, 0.1, 0.06, 0.1, 0.06, 0.1, 0.1, 0.06, 0.06, 0.1, 0.06, 0.08]","[[0.47837061298127626, -0.06757994888906549], [-0.36473245965857504, 0.24446305738154284], [0.32074759504195327, 0.07441911842969395], [0.06980065096478816, 0.14371217632756605], [-0.5847790968674009, -0.10249766615077902], [-0.18514328374376027, 0.3777389081630377], [-0.38428269209261773, -0.21359996978354862], [-0.18110334730461075, 0.08759492893551735], [0.2622045192866843, -0.18435397263934888], [0.3543953341290421, -0.40293355701349365], [0.16988844986508056, -0.4628869056965381], [0.5846714465219583, 0.14310169594304456], [-0.07657000367022981, -0.525193187781068], [0.030813896771759608, 0.49031720906980636], [-0.3728866800848667, -0.46271102082505683], [-0.055622445342756954, -0.07443769677619505], [0.2704683455214446, 0.272952847851083], [0.40494312456494075, 0.425656807675429], [0.49242146162951983, -0.2599243842236103], [-0.1548855247159488, -0.3168697881793488]]",density,black,,,D004,visual,5,[],"['1', '2', '3', '4']",1,2023.2.3,harveyvisual,2.1,[],8,0.75,
0,pause,0.4,None,None,None,0,155,155,155,,,,,,,,,,,,,D004,visual,5,[],"['1', '2', '3', '4']",1,2023.2.3,harveyvisual,2.1,[],8,0.75,
9,dot,0.3,['dot'],['density'],black,0,156,156,156,,,57.00022578239441,56.71741700172424,57.01744794845581,dot,"[0.06, 0.08, 0.06, 0.1, 0.06, 0.08, 0.08, 0.08, 0.1]","[[-0.08351644510687262, 0.021707353155035948], [0.11173555070370329, 0.3931220271068859], [-0.15396522232717408, 0.3423719725559184], [0.23829169989725132, 0.186218803300476], [-0.29008049122260166, 0.17395274189193027], [0.2491440638781109, -0.04662568063892593], [-0.2854023508218629, -0.06307984259985559], [0.003596708871689959, 0.21717875760955796], [-0.47489413548496523, 0.030788186259843496]]",density,black,,,D004,visual,5,[],"['1', '2', '3', '4']",1,2023.2.3,harveyvisual,2.1,[],8,0.75,
0,pause,0.4,None,None,None,0,157,157,157,,,,,,,,,,,,,D004,visual,5,[],"['1', '2', '3', '4']",1,2023.2.3,harveyvisual,2.1,[],8,0.75,
9,dot,0.3,['dot'],['density'],black,0,158,158,158,,,57.700220823287964,57.417418003082275,57.7174289226532,dot,"[0.1, 0.06, 0.08, 0.06, 0.1, 0.1, 0.06, 0.1, 0.1]","[[0.17250841666444466, -0.5173949811024123], [-0.03744062107829021, -0.3895067986023326], [0.30010350549611725, -0.35742528465303014], [0.33064876224298684, -0.08057424749072183], [-0.16743636965090838, -0.09291053242622109], [0.1226827020066543, -0.24711763375004436], [0.047527772487498496, -0.037432207059122605], [0.20928928941955194, 0.09999474740890861], [-0.30040876562534896, -0.42726910911839744]]",density,black,,,D004,visual,5,[],"['1', '2', '3', '4']",1,2023.2.3,harveyvisual,2.1,[],8,0.75,
0,pause,0.4,None,None,None,0,159,159,159,,,,,,,,,,,,,D004,visual,5,[],"['1', '2', '3', '4']",1,2023.2.3,harveyvisual,2.1,[],8,0.75,
9,dot,0.3,['dot'],['density'],black,0,160,160,160,,,58.400224924087524,58.11744785308838,58.418516874313354,dot,"[0.06, 0.1, 0.06, 0.06, 0.08, 0.1, 0.1, 0.08, 0.08]","[[0.21556792455118703, 0.37642033042102185], [0.14366510572844648, -0.18651452926789283], [0.49642287684820396, -0.0794158383055628], [-0.04770628609247857, -0.12519201939426747], [0.20310136493979325, 0.154094551714378], [-0.004065485174475974, 0.09100382633055243], [-0.018053901421587658, 0.34918523294118026], [0.29624623666919286, -0.053344657000752645], [-0.2018857737562037, 0.01971770186205045]]",density,black,,,D004,visual,5,[],"['1', '2', '3', '4']",1,2023.2.3,harveyvisual,2.1,[],8,0.75,
0,pause,0.4,None,None,None,0,161,161,161,,,,,,,,,,,,,D004,visual,5,[],"['1', '2', '3', '4']",1,2023.2.3,harveyvisual,2.1,[],8,0.75,
9,dot,0.3,['dot'],['density'],black,0,162,162,162,,,59.10021996498108,58.8173828125,59.11736178398132,dot,"[0.06, 0.1, 0.1, 0.1, 0.06, 0.06, 0.1, 0.06, 0.08]","[[-0.08351644510687262, 0.021707353155035948], [0.11173555070370329, 0.3931220271068859], [-0.15396522232717408, 0.3423719725559184], [0.23829169989725132, 0.186218803300476], [-0.29008049122260166, 0.17395274189193027], [0.2491440638781109, -0.04662568063892593], [-0.2854023508218629, -0.06307984259985559], [0.003596708871689959, 0.21717875760955796], [-0.47489413548496523, 0.030788186259843496]]",density,black,,,D004,visual,5,[],"['1', '2', '3', '4']",1,2023.2.3,harveyvisual,2.1,[],8,0.75,
0,pause,0.4,None,None,None,0,163,163,163,,,,,,,,,,,,,D004,visual,5,[],"['1', '2', '3', '4']",1,2023.2.3,harveyvisual,2.1,[],8,0.75,
9,dot,0.3,['dot'],['density'],black,0,164,164,164,,,59.80023193359375,59.51893091201782,59.81735277175903,dot,"[0.1, 0.06, 0.1, 0.08, 0.1, 0.06, 0.08, 0.1, 0.06]","[[-0.4007656520072294, -0.25517300445391483], [-0.002534053661406415, -0.03841937385778563], [0.03867088550537559, -0.37109058839216275], [0.14298263539714814, -0.19121790068267305], [-0.18592892280395246, 0.09800459324165622], [-0.17114407793371844, -0.47763389460370764], [0.20594417137152282, 0.033112046987541804], [-0.3669302527083935, -0.010624696365658668], [-0.20182203610849478, -0.19970173151634407]]",density,black,,,D004,visual,5,[],"['1', '2', '3', '4']",1,2023.2.3,harveyvisual,2.1,[],8,0.75,
0,pause,0.4,None,None,None,0,165,165,165,,,,,,,,,,,,,D004,visual,5,[],"['1', '2', '3', '4']",1,2023.2.3,harveyvisual,2.1,[],8,0.75,
9,dot,0.3,['dot'],['density'],black,0,166,166,166,,,60.500234842300415,60.21734690666199,60.51733589172363,dot,"[0.08, 0.1, 0.08, 0.1, 0.08, 0.06, 0.06, 0.1, 0.1]","[[0.5633060189111645, -0.020447411670609934], [0.24486306384976717, 0.44476630120442473], [0.18428866344346043, -0.051083701103786204], [0.30165572131442664, 0.2239114093385097], [-0.0017431279865323516, 0.11759053127645673], [0.36864926730470376, 0.029118730319846676], [0.08307425003498874, 0.31712463906399285], [0.26393370779995823, -0.24286541122091637], [0.5109425385251136, 0.2557989077594731]]",density,black,,,D004,visual,5,[],"['1', '2', '3', '4']",1,2023.2.3,harveyvisual,2.1,[],8,0.75,
0,pause,0.4,None,None,None,0,167,167,167,,,,,,,,,,,,,D004,visual,5,[],"['1', '2', '3', '4']",1,2023.2.3,harveyvisual,2.1,[],8,0.75,
8,dot,0.3,['dot'],['density'],white,0,168,168,168,,,61.20022392272949,60.91733384132385,61.21731877326965,dot,"[0.08, 0.08, 0.1, 0.06, 0.06, 0.1, 0.06, 0.1]","[[-0.3306282708070712, -0.09459634407206743], [0.17708038186302957, -0.36794437316098305], [-0.34368294577136044, -0.39688855169369486], [-0.16397220561896333, 0.03033928826277653], [-0.08476975953586025, -0.41834960305423746], [-0.16765121495786453, -0.2265743681515788], [0.0449590487082352, -0.10546915507075137], [-0.5574709661459258, -0.15664368712912546]]",density,white,,,D004,visual,5,[],"['1', '2', '3', '4']",1,2023.2.3,harveyvisual,2.1,[],8,0.75,
0,pause,0.4,None,None,None,0,169,169,169,,,,,,,,,,,1,60.93804907798767,D004,visual,5,[],"['1', '2', '3', '4']",1,2023.2.3,harveyvisual,2.1,[],8,0.75,
8,dot,0.3,['dot'],['density'],black,0,170,170,170,,,61.900213956832886,61.61729192733765,61.91843891143799,dot,"[0.06, 0.08, 0.08, 0.1, 0.06, 0.08, 0.08, 0.08]","[[-0.2395708272612018, -0.3613018167456044], [-0.39529086986423073, -0.13116056396528103], [0.016143118738118, -0.3000453801144436], [-0.10247857353615338, 0.12176090555598315], [0.11784264820349834, -0.12422453235794288], [-0.1468533202112338, -0.18280007972172757], [-0.31504288856899026, 0.06147683711297207], [0.2614313121475242, -0.33215718180641224]]",density,black,,,D004,visual,5,[],"['1', '2', '3', '4']",1,2023.2.3,harveyvisual,2.1,[],8,0.75,
0,pause,0.4,None,None,None,0,171,171,171,,,,,,,,,,,,,D004,visual,5,[],"['1', '2', '3', '4']",1,2023.2.3,harveyvisual,2.1,[],8,0.75,
8,dot,0.3,['dot'],['density'],black,0,172,172,172,,,62.60021185874939,62.3182327747345,62.61734080314636,dot,"[0.1, 0.1, 0.08, 0.1, 0.1, 0.06, 0.1, 0.08]","[[0.48529715144174124, -0.2697678579736521], [0.37309741842769656, 0.0699077870123373], [0.051182379473491794, 0.02141531407813483], [0.5234917469593858, 0.26578075419350655], [0.558201411832675, -0.037120345964853765], [0.22738215197141995, 0.24608732841731215], [0.3038957292845804, -0.12934366054116395], [0.024689158081869923, 0.25216756052328354]]",density,black,,,D004,visual,5,[],"['1', '2', '3', '4']",1,2023.2.3,harveyvisual,2.1,[],8,0.75,
0,pause,0.4,None,None,None,0,173,173,173,,,,,,,,,,,,,D004,visual,5,[],"['1', '2', '3', '4']",1,2023.2.3,harveyvisual,2.1,[],8,0.75,
8,dot,0.3,['dot'],['density'],black,0,174,174,174,,,63.300227880477905,63.017324924468994,63.31732678413391,dot,"[0.1, 0.08, 0.08, 0.08, 0.06, 0.1, 0.06, 0.08]","[[-0.012034279999911439, 0.06556808781241986], [-0.3446774290598954, 0.11122635080299646], [0.22428040003470762, 0.1796687910302273], [-0.037221971777983635, 0.5300244249381355], [-0.1456717336157172, 0.2672263832914442], [0.040508406505222534, 0.3412803201140432], [-0.26975617824218623, 0.48628578621654683], [0.24128509790231628, 0.4122343446782376]]",density,black,,,D004,visual,5,[],"['1', '2', '3', '4']",1,2023.2.3,harveyvisual,2.1,[],8,0.75,
0,pause,0.4,None,None,None,0,175,175,175,,,,,,,,,,,,,D004,visual,5,[],"['1', '2', '3', '4']",1,2023.2.3,harveyvisual,2.1,[],8,0.75,
8,dot,0.3,['dot'],['density'],black,0,176,176,176,,,64.00023984909058,63.717315912246704,64.01730394363403,dot,"[0.06, 0.08, 0.06, 0.1, 0.06, 0.08, 0.06, 0.06]","[[-0.17382250058115215, 0.008030820220576582], [-0.5561520679887834, 0.09064024109159684], [-0.2322770524578434, -0.18818443710846813], [-0.41357291590276396, -0.2905316508268561], [-0.37423053416790164, -0.04064357687765813], [-0.014699175284411378, 0.15059198662288528], [-0.015485985535575739, -0.1348843831724925], [-0.36639977644872057, 0.228205681233079]]",density,black,,,D004,visual,5,[],"['1', '2', '3', '4']",1,2023.2.3,harveyvisual,2.1,[],8,0.75,
0,pause,0.4,None,None,None,0,177,177,177,,,,,,,,,,,,,D004,visual,5,[],"['1', '2', '3', '4']",1,2023.2.3,harveyvisual,2.1,[],8,0.75,
8,dot,0.3,['dot'],['density'],black,0,178,178,178,,,64.70023083686829,64.41732382774353,64.7183268070221,dot,"[0.08, 0.08, 0.08, 0.06, 0.06, 0.08, 0.1, 0.06]","[[0.32983457944800887, -0.09988122376634187], [0.002544499336209532, 0.05447162498302279], [0.49322357980250997, 0.04173156098678792], [0.3398992085464782, -0.3241559212022164], [0.12656458423521935, -0.36323236959635974], [0.5072737450674915, -0.19500703868861743], [0.06482113683766944, -0.1422911224505784], [0.25865538318477954, 0.20042726536108785]]",density,black,,,D004,visual,5,[],"['1', '2', '3', '4']",1,2023.2.3,harveyvisual,2.1,[],8,0.75,
0,pause,0.4,None,None,None,0,179,179,179,,,,,,,,,,,,,D004,visual,5,[],"['1', '2', '3', '4']",1,2023.2.3,harveyvisual,2.1,[],8,0.75,
7,dot,0.3,['dot'],['density'],black,0,180,180,180,,,65.40023183822632,65.1172468662262,65.41727900505066,dot,"[0.06, 0.08, 0.06, 0.1, 0.08, 0.1, 0.1]","[[0.12902113605384963, -0.35167066519854956], [0.3838909825822851, -0.05572740120406059], [-0.02857767273637445, 0.1549795872955612], [0.19333287999408408, 0.10698923431715611], [-0.08146847087507005, -0.06064403559207536], [0.18020694687254563, -0.15550905334431223], [-0.07225335190945896, -0.28606481362007624]]",density,black,,,D004,visual,5,[],"['1', '2', '3', '4']",1,2023.2.3,harveyvisual,2.1,[],8,0.75,
0,pause,0.4,None,None,None,0,181,181,181,,,,,,,,,,,,,D004,visual,5,[],"['1', '2', '3', '4']",1,2023.2.3,harveyvisual,2.1,[],8,0.75,
7,dot,0.3,['dot'],['density'],black,0,182,182,182,,,66.10021686553955,65.81721591949463,66.11719679832458,dot,"[0.06, 0.06, 0.06, 0.08, 0.1, 0.06, 0.1]","[[-0.23895008888738212, 0.05027357720500052], [0.04847041368780161, 0.3376116924566045], [0.007425979130163878, -0.07582657330311053], [-0.16109724709992976, 0.33554312732420544], [-0.17199436159673825, -0.1887904434853683], [0.1858169564317131, 0.14031933770952934], [-0.038655615351801086, 0.15226176997737048]]",density,black,,,D004,visual,5,[],"['1', '2', '3', '4']",1,2023.2.3,harveyvisual,2.1,[],8,0.75,
0,pause,0.4,None,None,None,0,183,183,183,,,,,,,,,,,,,D004,visual,5,[],"['1', '2', '3', '4']",1,2023.2.3,harveyvisual,2.1,[],8,0.75,
7,dot,0.3,['dot'],['density'],white,0,184,184,184,,,66.80022096633911,66.51718091964722,66.81723189353943,dot,"[0.08, 0.06, 0.1, 0.08, 0.1, 0.08, 0.06]","[[0.27964692832129656, -0.15500474148311624], [0.48019533028943556, 0.09933774746227163], [0.08203545767143021, 0.28019381302663365], [0.05572057582720619, -0.1426303369841539], [0.31711281236335803, 0.2944831276535668], [-0.041479771322150735, 0.11885700406191958], [0.21045310206912196, 0.07075003364957701]]",density,white,,,D004,visual,5,[],"['1', '2', '3', '4']",1,2023.2.3,harveyvisual,2.1,[],8,0.75,
0,pause,0.4,None,None,None,0,185,185,185,,,,,,,,,,,1,66.59973001480103,D004,visual,5,[],"['1', '2', '3', '4']",1,2023.2.3,harveyvisual,2.1,[],8,0.75,
7,dot,0.3,['dot'],['density'],black,0,186,186,186,,,67.50022387504578,67.2172179222107,67.51722693443298,dot,"[0.1, 0.06, 0.06, 0.1, 0.1, 0.06, 0.08]","[[0.3032073476866497, 0.39528308644852606], [0.12977480624643314, 0.5338553612741447], [-0.07830532742558233, 0.5277294273979773], [0.000705909343175084, 0.04538848857330666], [-0.11442247498636825, 0.3203087976624053], [0.11424952152856681, 0.31372813630522095], [0.2743618672110132, 0.19233036806743029]]",density,black,,,D004,visual,5,[],"['1', '2', '3', '4']",1,2023.2.3,harveyvisual,2.1,[],8,0.75,
0,pause,0.4,None,None,None,0,187,187,187,,,,,,,,,,,,,D004,visual,5,[],"['1', '2', '3', '4']",1,2023.2.3,harveyvisual,2.1,[],8,0.75,
7,dot,0.3,['dot'],['density'],black,0,188,188,188,,,68.20023083686829,67.91719579696655,68.2171618938446,dot,"[0.06, 0.06, 0.1, 0.08, 0.06, 0.1, 0.08]","[[-0.03978284138183809, -0.43963729991580147], [0.2770736023028816, -0.4460091285183096], [0.4264240077257641, -0.26124456405115876], [0.04351789842027954, -0.004572294527936195], [0.08491707485555088, -0.26540219852266356], [0.2274622265833728, -0.10044916879814345], [0.4232844185721205, -0.050742783717769746]]",density,black,,,D004,visual,5,[],"['1', '2', '3', '4']",1,2023.2.3,harveyvisual,2.1,[],8,0.75,
0,pause,0.4,None,None,None,0,189,189,189,,,,,,,,,,,,,D004,visual,5,[],"['1', '2', '3', '4']",1,2023.2.3,harveyvisual,2.1,[],8,0.75,
7,dot,0.3,['dot'],['density'],white,0,190,190,190,,,68.90022587776184,68.617182970047,68.91713500022888,dot,"[0.08, 0.06, 0.06, 0.08, 0.08, 0.06, 0.06]","[[-0.08751196138777266, -0.40239331021683095], [-0.1389983634140625, -0.1821537091642013], [-0.5212097088452917, -0.15879536445288125], [-0.24197016774290594, 0.025691971861017886], [-0.324083892787021, -0.3083678109532634], [0.06465625853811506, -0.19815494036826437], [-0.2569867334647868, -0.5155038850209747]]",density,white,,,D004,visual,5,[],"['1', '2', '3', '4']",1,2023.2.3,harveyvisual,2.1,[],8,0.75,
0,pause,0.4,None,None,None,0,191,191,191,,,,,,,,,,,1,68.59797501564026,D004,visual,5,[],"['1', '2', '3', '4']",1,2023.2.3,harveyvisual,2.1,[],8,0.75,
6,dot,0.3,['dot'],['density'],black,0,192,192,192,,,69.6002140045166,69.31712985038757,69.61709690093994,dot,"[0.08, 0.1, 0.08, 0.06, 0.1, 0.08]","[[-0.3075905201299059, -0.4396409988488083], [-0.19740249700094745, -0.17714391351551703], [0.053731853964380204, -0.5240815929277938], [0.045148855841778586, -0.17580561296456876], [0.17596231810730836, -0.3386358025171148], [-0.08995737585576556, -0.36423659604885134]]",density,black,,,D004,visual,5,[],"['1', '2', '3', '4']",1,2023.2.3,harveyvisual,2.1,[],8,0.75,
0,pause,0.4,None,None,None,0,193,193,193,,,,,,,,,,,,,D004,visual,5,[],"['1', '2', '3', '4']",1,2023.2.3,harveyvisual,2.1,[],8,0.75,
6,dot,0.3,['dot'],['density'],black,0,194,194,194,,,70.30022096633911,70.01710796356201,70.31710195541382,dot,"[0.06, 0.08, 0.06, 0.06, 0.08, 0.08]","[[-0.5379788740814003, -0.011730333491669416], [-0.1820890739253136, -0.27973544868684425], [-0.07809457889047756, -0.09124846264896269], [-0.30616251401069866, -0.45101817852416426], [-0.44200878281119743, -0.26991620184617166], [-0.3315938551005316, -0.08696624632848979]]",density,black,,,D004,visual,5,[],"['1', '2', '3', '4']",1,2023.2.3,harveyvisual,2.1,[],8,0.75,
0,pause,0.4,None,None,None,0,195,195,195,,,,,,,,,,,,,D004,visual,5,[],"['1', '2', '3', '4']",1,2023.2.3,harveyvisual,2.1,[],8,0.75,
6,dot,0.3,['dot'],['density'],black,0,196,196,196,,,71.00024080276489,70.71710395812988,71.01705694198608,dot,"[0.08, 0.08, 0.06, 0.06, 0.1, 0.06]","[[0.1643264729387965, -0.2471077239796436], [-0.22534804549937193, -0.4918728234310363], [-0.026166131246113146, -0.09278119687647148], [-0.24451989516519138, -0.21339523607155425], [0.11868454116144263, -0.4574197693624388], [-0.058907778787058426, -0.30919141315076737]]",density,black,,,D004,visual,5,[],"['1', '2', '3', '4']",1,2023.2.3,harveyvisual,2.1,[],8,0.75,
0,pause,0.4,None,None,None,0,197,197,197,,,,,,,,,,,,,D004,visual,5,[],"['1', '2', '3', '4']",1,2023.2.3,harveyvisual,2.1,[],8,0.75,
6,dot,0.3,['dot'],['density'],black,0,198,198,198,,,71.70021390914917,71.41722583770752,71.71705198287964,dot,"[0.06, 0.08, 0.1, 0.06, 0.08, 0.06]","[[0.23041567882598732, 0.45619944218456715], [0.5278859611842325, 0.18245830030246968], [0.08738225171760033, 0.1578384040678088], [0.20561463112105705, -0.03996865664556224], [0.3021721310554224, 0.21718230064421146], [0.4273755636869532, 0.38341374408431883]]",density,black,,,D004,visual,5,[],"['1', '2', '3', '4']",1,2023.2.3,harveyvisual,2.1,[],8,0.75,
0,pause,0.4,None,None,None,0,199,199,199,,,,,,,,,,,,,D004,visual,5,[],"['1', '2', '3', '4']",1,2023.2.3,harveyvisual,2.1,[],8,0.75,
6,dot,0.3,['dot'],['density'],black,0,200,200,200,,,72.40022897720337,72.11704993247986,72.4170548915863,dot,"[0.06, 0.08, 0.1, 0.1, 0.06, 0.1]","[[-0.5379788740814003, -0.011730333491669416], [-0.1820890739253136, -0.27973544868684425], [-0.07809457889047756, -0.09124846264896269], [-0.30616251401069866, -0.45101817852416426], [-0.44200878281119743, -0.26991620184617166], [-0.3315938551005316, -0.08696624632848979]]",density,black,,,D004,visual,5,[],"['1', '2', '3', '4']",1,2023.2.3,harveyvisual,2.1,[],8,0.75,
0,pause,0.4,None,None,None,0,201,201,201,,,,,,,,,,,,,D004,visual,5,[],"['1', '2', '3', '4']",1,2023.2.3,harveyvisual,2.1,[],8,0.75,
6,dot,0.3,['dot'],['density'],black,0,202,202,202,,,73.10021996498108,72.81705284118652,73.11700892448425,dot,"[0.06, 0.1, 0.08, 0.08, 0.1, 0.08]","[[0.0015484977009578463, -0.37153509484940705], [-0.24631791352898516, -0.16063896847060222], [-0.21037316856202723, -0.37491302730087106], [-0.14520134419833938, 0.05228402714841561], [-0.41979900021501537, -0.27073368115662844], [-0.020720382871846178, -0.14076137757070492]]",density,black,,,D004,visual,5,[],"['1', '2', '3', '4']",1,2023.2.3,harveyvisual,2.1,[],8,0.75,
0,pause,0.4,None,None,None,0,203,203,203,,,,,,,,,,,,,D004,visual,5,[],"['1', '2', '3', '4']",1,2023.2.3,harveyvisual,2.1,[],8,0.75,
5,dot,0.3,['dot'],['density'],black,0,204,204,204,,,73.80021381378174,73.51701092720032,73.81814694404602,dot,"[0.08, 0.06, 0.08, 0.06, 0.08]","[[-0.16893136043895146, -0.20127892763881453], [-0.5727216740452047, -0.07682091551650742], [-0.343702592036276, -0.060533526953518955], [-0.5038383983260774, 0.15268268748871192], [-0.379488354443274, -0.2704310218069364]]",density,black,,,D004,visual,5,[],"['1', '2', '3', '4']",1,2023.2.3,harveyvisual,2.1,[],8,0.75,
0,pause,0.4,None,None,None,0,205,205,205,,,,,,,,,,,,,D004,visual,5,[],"['1', '2', '3', '4']",1,2023.2.3,harveyvisual,2.1,[],8,0.75,
5,dot,0.3,['dot'],['density'],black,0,206,206,206,,,74.50021195411682,74.21699500083923,74.5169939994812,dot,"[0.06, 0.06, 0.1, 0.1, 0.1]","[[-0.4709100701083565, 0.02189337908226187], [-0.29145525575644754, 0.3795081276742083], [-0.23690205020139254, 0.016868774910060797], [-0.4278442329265702, 0.22919645259494104], [-0.09991604659712162, 0.23043195716445664]]",density,black,,,D004,visual,5,[],"['1', '2', '3', '4']",1,2023.2.3,harveyvisual,2.1,[],8,0.75,
0,pause,0.4,None,None,None,0,207,207,207,,,,,,,,,,,,,D004,visual,5,[],"['1', '2', '3', '4']",1,2023.2.3,harveyvisual,2.1,[],8,0.75,
5,dot,0.3,['dot'],['density'],black,0,208,208,208,,,75.20021200180054,74.91698598861694,75.21697282791138,dot,"[0.08, 0.08, 0.1, 0.1, 0.08]","[[0.10558973120531606, -0.20428866875977839], [-0.0893225412758366, 0.16524926947551877], [-0.05793580974794309, -0.07826743033729393], [0.11130747138107101, 0.10875249109580729], [0.28035132100960686, -0.09064984251937742]]",density,black,,,D004,visual,5,[],"['1', '2', '3', '4']",1,2023.2.3,harveyvisual,2.1,[],8,0.75,
0,pause,0.4,None,None,None,0,209,209,209,,,,,,,,,,,,,D004,visual,5,[],"['1', '2', '3', '4']",1,2023.2.3,harveyvisual,2.1,[],8,0.75,
5,dot,0.3,['dot'],['density'],white,0,210,210,210,,,75.90022683143616,75.6169548034668,75.91697788238525,dot,"[0.06, 0.06, 0.06, 0.06, 0.06]","[[0.14370466841446422, -0.4636309982806098], [0.2961807471193908, -0.30487684838795487], [-0.08083516471444438, -0.49823911181902014], [0.057429843216129074, -0.22123310288296744], [-0.1653320673045236, -0.3160671692815837]]",density,white,,,D004,visual,5,[],"['1', '2', '3', '4']",1,2023.2.3,harveyvisual,2.1,[],8,0.75,
0,pause,0.4,None,None,None,0,211,211,211,,,,,,,,,,,1,75.62297797203064,D004,visual,5,[],"['1', '2', '3', '4']",1,2023.2.3,harveyvisual,2.1,[],8,0.75,
5,dot,0.3,['dot'],['density'],black,0,212,212,212,,,76.60023593902588,76.31712293624878,76.61800599098206,dot,"[0.1, 0.06, 0.06, 0.1, 0.06]","[[-0.26965218803342234, -0.06061691990321757], [-0.44412238708790114, -0.1605793459593267], [-0.2738608688716076, -0.33598391440877745], [-0.06160694910013377, -0.19463283807086704], [-0.16469008497891707, 0.13324638745272324]]",density,black,,,D004,visual,5,[],"['1', '2', '3', '4']",1,2023.2.3,harveyvisual,2.1,[],8,0.75,
0,pause,0.4,None,None,None,0,213,213,213,,,,,,,,,,,,,D004,visual,5,[],"['1', '2', '3', '4']",1,2023.2.3,harveyvisual,2.1,[],8,0.75,
5,dot,0.3,['dot'],['density'],black,0,214,214,214,,,77.30022287368774,77.0169689655304,77.31694293022156,dot,"[0.08, 0.08, 0.06, 0.08, 0.1]","[[0.029171133319913545, -0.11913068329317353], [-0.2981845944788078, -0.46624640290839614], [-0.1844599491613969, -0.04126455345730423], [-0.2900988597239497, -0.2493716418714862], [-0.0791391532727178, -0.3057260733699829]]",density,black,,,D004,visual,5,[],"['1', '2', '3', '4']",1,2023.2.3,harveyvisual,2.1,[],8,0.75,
0,pause,0.4,None,None,None,0,215,215,215,,,,,,,,,,,,,D004,visual,5,[],"['1', '2', '3', '4']",1,2023.2.3,harveyvisual,2.1,[],8,0.75,
4,dot,0.3,['dot'],['density'],white,0,216,216,216,,,78.00021481513977,77.71690082550049,78.01693081855774,dot,"[0.06, 0.06, 0.1, 0.08]","[[0.17852470546651972, -0.2012438881607824], [-0.031034799765910746, -0.12466087783573923], [0.008996399474264666, -0.3229379719524122], [0.15114343287780646, 0.03986859122442722]]",density,white,,,D004,visual,5,[],"['1', '2', '3', '4']",1,2023.2.3,harveyvisual,2.1,[],8,0.75,
0,pause,0.4,None,None,None,0,217,217,217,,,,,,,,,,,1,77.78613209724426,D004,visual,5,[],"['1', '2', '3', '4']",1,2023.2.3,harveyvisual,2.1,[],8,0.75,
4,dot,0.3,['dot'],['density'],black,0,218,218,218,,,78.70023083686829,78.41692090034485,78.71694278717041,dot,"[0.08, 0.06, 0.08, 0.06]","[[0.14909032788103166, -0.4768554918693636], [0.26071220381864263, -0.20018841858473793], [0.02634252458519163, -0.30967292471165575], [0.3541358554053611, -0.43808560323820217]]",density,black,,,D004,visual,5,[],"['1', '2', '3', '4']",1,2023.2.3,harveyvisual,2.1,[],8,0.75,
0,pause,0.4,None,None,None,0,219,219,219,,,,,,,,,,,,,D004,visual,5,[],"['1', '2', '3', '4']",1,2023.2.3,harveyvisual,2.1,[],8,0.75,
4,dot,0.3,['dot'],['density'],black,0,220,220,220,,,79.40021181106567,79.11692595481873,79.41691279411316,dot,"[0.08, 0.1, 0.06, 0.06]","[[-0.42715721775789556, -0.3806885655784049], [-0.5104054706627589, -0.18016651458941194], [-0.409412055521987, 0.008153849732111747], [-0.2456709064377862, -0.21492281530681134]]",density,black,,,D004,visual,5,[],"['1', '2', '3', '4']",1,2023.2.3,harveyvisual,2.1,[],8,0.75,
0,pause,0.4,None,None,None,0,221,221,221,,,,,,,,,,,,,D004,visual,5,[],"['1', '2', '3', '4']",1,2023.2.3,harveyvisual,2.1,[],8,0.75,
4,dot,0.3,['dot'],['density'],black,0,222,222,222,,,80.10022592544556,79.81684994697571,80.11868095397949,dot,"[0.08, 0.08, 0.1, 0.08]","[[0.010836700166572746, 0.3385055392368038], [-0.21755291078517647, 0.23172276430217797], [0.04881011250022837, 0.13413393103699342], [-0.16894730197854985, 0.4434327172909165]]",density,black,,,D004,visual,5,[],"['1', '2', '3', '4']",1,2023.2.3,harveyvisual,2.1,[],8,0.75,
0,pause,0.4,None,None,None,0,223,223,223,,,,,,,,,,,,,D004,visual,5,[],"['1', '2', '3', '4']",1,2023.2.3,harveyvisual,2.1,[],8,0.75,
4,dot,0.3,['dot'],['density'],black,0,224,224,224,,,80.80023884773254,80.5168387889862,80.81682896614075,dot,"[0.1, 0.08, 0.1, 0.1]","[[0.5195678262777355, 0.06634869171649047], [0.11508779247300271, 0.04459464887784077], [0.27862218446352316, 0.18290230777407274], [0.28701832247091064, -0.08209332131291468]]",density,black,,,D004,visual,5,[],"['1', '2', '3', '4']",1,2023.2.3,harveyvisual,2.1,[],8,0.75,
0,pause,0.4,None,None,None,0,225,225,225,,,,,,,,,,,,,D004,visual,5,[],"['1', '2', '3', '4']",1,2023.2.3,harveyvisual,2.1,[],8,0.75,
4,dot,0.3,['dot'],['density'],black,0,226,226,226,,,81.50022292137146,81.21682286262512,81.5167989730835,dot,"[0.08, 0.1, 0.06, 0.06]","[[0.14909032788103166, -0.4768554918693636], [0.26071220381864263, -0.20018841858473793], [0.02634252458519163, -0.30967292471165575], [0.3541358554053611, -0.43808560323820217]]",density,black,,,D004,visual,5,[],"['1', '2', '3', '4']",1,2023.2.3,harveyvisual,2.1,[],8,0.75,
0,pause,0.4,None,None,None,0,227,227,227,,,,,,,,,,,,,D004,visual,5,[],"['1', '2', '3', '4']",1,2023.2.3,harveyvisual,2.1,[],8,0.75,
3,dot,0.3,['dot'],['density'],black,0,228,228,228,,,82.20022392272949,81.91854190826416,82.21679186820984,dot,"[0.08, 0.06, 0.1]","[[-0.10589639487257244, 0.35295021258352427], [0.12780035046084517, 0.3479378296372768], [0.013663645537612555, 0.51889388118174]]",density,black,,,D004,visual,5,[],"['1', '2', '3', '4']",1,2023.2.3,harveyvisual,2.1,[],8,0.75,
0,pause,0.4,None,None,None,0,229,229,229,,,,,,,,,,,,,D004,visual,5,[],"['1', '2', '3', '4']",1,2023.2.3,harveyvisual,2.1,[],8,0.75,
3,dot,0.3,['dot'],['density'],black,0,230,230,230,,,82.90023493766785,82.61679196357727,82.91676688194275,dot,"[0.1, 0.08, 0.1]","[[0.48628142840140876, 0.1515230430224543], [0.28796188866220057, 0.19625725416133796], [0.3371406364253883, -0.002661880310138811]]",density,black,,,D004,visual,5,[],"['1', '2', '3', '4']",1,2023.2.3,harveyvisual,2.1,[],8,0.75,
0,pause,0.4,None,None,None,0,231,231,231,,,,,,,,,,,,,D004,visual,5,[],"['1', '2', '3', '4']",1,2023.2.3,harveyvisual,2.1,[],8,0.75,
3,dot,0.3,['dot'],['density'],black,0,232,232,232,,,83.60024189949036,83.31680989265442,83.61676096916199,dot,"[0.1, 0.1, 0.08]","[[-0.27441186418729774, -0.31428620701652393], [-0.10438281902574013, -0.2032379983598837], [-0.31523395761825285, -0.08768035506307631]]",density,black,,,D004,visual,5,[],"['1', '2', '3', '4']",1,2023.2.3,harveyvisual,2.1,[],8,0.75,
0,pause,0.4,None,None,None,0,233,233,233,,,,,,,,,,,,,D004,visual,5,[],"['1', '2', '3', '4']",1,2023.2.3,harveyvisual,2.1,[],8,0.75,
3,dot,0.3,['dot'],['density'],black,0,234,234,234,,,84.30023288726807,84.016756772995,84.31680393218994,dot,"[0.1, 0.06, 0.1]","[[0.315495050057846, 0.10724904305018564], [0.5180852452909619, 0.013799590611742229], [0.3819545826159732, -0.1334380777916547]]",density,black,,,D004,visual,5,[],"['1', '2', '3', '4']",1,2023.2.3,harveyvisual,2.1,[],8,0.75,
0,pause,0.4,None,None,None,0,235,235,235,,,,,,,,,,,,,D004,visual,5,[],"['1', '2', '3', '4']",1,2023.2.3,harveyvisual,2.1,[],8,0.75,
3,dot,0.3,['dot'],['density'],black,0,236,236,236,,,85.00022983551025,84.71678590774536,85.0178689956665,dot,"[0.06, 0.1, 0.08]","[[-0.27441186418729774, -0.31428620701652393], [-0.10438281902574013, -0.2032379983598837], [-0.31523395761825285, -0.08768035506307631]]",density,black,,,D004,visual,5,[],"['1', '2', '3', '4']",1,2023.2.3,harveyvisual,2.1,[],8,0.75,
0,pause,0.4,None,None,None,0,237,237,237,,,,,,,,,,,,,D004,visual,5,[],"['1', '2', '3', '4']",1,2023.2.3,harveyvisual,2.1,[],8,0.75,
3,dot,0.3,['dot'],['density'],black,0,238,238,238,,,85.70022797584534,85.4167709350586,85.7167558670044,dot,"[0.08, 0.06, 0.06]","[[0.13574725429899362, -0.5423283227425341], [-0.036793286563257144, -0.3768814925557267], [0.16175487704753985, -0.3348017255345844]]",density,black,,,D004,visual,5,[],"['1', '2', '3', '4']",1,2023.2.3,harveyvisual,2.1,[],8,0.75,
0,pause,0.4,None,None,None,0,239,239,239,,,,,,,,,,,,,D004,visual,5,[],"['1', '2', '3', '4']",1,2023.2.3,harveyvisual,2.1,[],8,0.75,
2,dot,0.3,['dot'],['density'],black,0,240,240,240,,,86.40022587776184,86.11669397354126,86.41671395301819,dot,"[0.08, 0.1]","[[0.07059805578258149, -0.2458188734665979], [0.058763118304238846, -0.4455693812784497]]",density,black,,,D004,visual,5,[],"['1', '2', '3', '4']",1,2023.2.3,harveyvisual,2.1,[],8,0.75,
0,pause,0.4,None,None,None,0,241,241,241,,,,,,,,,,,,,D004,visual,5,[],"['1', '2', '3', '4']",1,2023.2.3,harveyvisual,2.1,[],8,0.75,
2,dot,0.3,['dot'],['density'],black,0,242,242,242,,,87.10023593902588,86.81670594215393,87.11781978607178,dot,"[0.1, 0.06]","[[-0.22226122312079244, -0.00806926593831646], [-0.023245446524914906, -0.037240983575548024]]",density,black,,,D004,visual,5,[],"['1', '2', '3', '4']",1,2023.2.3,harveyvisual,2.1,[],8,0.75,
0,pause,0.4,None,None,None,0,243,243,243,,,,,,,,,,,,,D004,visual,5,[],"['1', '2', '3', '4']",1,2023.2.3,harveyvisual,2.1,[],8,0.75,
2,dot,0.3,['dot'],['density'],black,0,244,244,244,,,87.8002359867096,87.51664996147156,87.81668996810913,dot,"[0.06, 0.08]","[[0.1652621768884792, -0.40183218801656556], [-0.03337249546828684, -0.4281924369736378]]",density,black,,,D004,visual,5,[],"['1', '2', '3', '4']",1,2023.2.3,harveyvisual,2.1,[],8,0.75,
0,pause,0.4,None,None,None,0,245,245,245,,,,,,,,,,,,,D004,visual,5,[],"['1', '2', '3', '4']",1,2023.2.3,harveyvisual,2.1,[],8,0.75,
2,dot,0.3,['dot'],['density'],black,0,246,246,246,,,88.50022792816162,88.21667981147766,88.5166687965393,dot,"[0.1, 0.08]","[[0.1734117655345296, 0.46860731914486053], [-0.01847566562869785, 0.52581935004857]]",density,black,,,D004,visual,5,[],"['1', '2', '3', '4']",1,2023.2.3,harveyvisual,2.1,[],8,0.75,
0,pause,0.4,None,None,None,0,247,247,247,,,,,,,,,,,,,D004,visual,5,[],"['1', '2', '3', '4']",1,2023.2.3,harveyvisual,2.1,[],8,0.75,
2,dot,0.3,['dot'],['density'],black,0,248,248,248,,,89.20022392272949,88.91665887832642,89.21773982048035,dot,"[0.08, 0.08]","[[-0.03288134563171543, -0.4238564918242606], [-0.10611641736664675, -0.2370354775439666]]",density,black,,,D004,visual,5,[],"['1', '2', '3', '4']",1,2023.2.3,harveyvisual,2.1,[],8,0.75,
0,pause,0.4,None,None,None,0,249,249,249,,,,,,,,,,,,,D004,visual,5,[],"['1', '2', '3', '4']",1,2023.2.3,harveyvisual,2.1,[],8,0.75,
2,dot,0.3,['dot'],['density'],black,0,250,250,250,,,89.90021300315857,89.61664986610413,89.91663885116577,dot,"[0.08, 0.08]","[[0.2713647219188039, -0.029235290058335472], [0.46697437826705046, 0.014145112521712659]]",density,black,,,D004,visual,5,[],"['1', '2', '3', '4']",1,2023.2.3,harveyvisual,2.1,[],8,0.75,
0,pause,0.4,None,None,None,0,251,251,251,,,,,,,,,,,,,D004,visual,5,[],"['1', '2', '3', '4']",1,2023.2.3,harveyvisual,2.1,[],8,0.75,
1,dot,0.3,['dot'],['density'],black,0,252,252,252,,,90.60023498535156,90.32057094573975,90.61660885810852,dot,[0.06],"[0.5286010678554951, -0.2554598500704326]",density,black,,,D004,visual,5,[],"['1', '2', '3', '4']",1,2023.2.3,harveyvisual,2.1,[],8,0.75,
0,pause,0.4,None,None,None,0,253,253,253,,,,,,,,,,,,,D004,visual,5,[],"['1', '2', '3', '4']",1,2023.2.3,harveyvisual,2.1,[],8,0.75,
1,dot,0.3,['dot'],['density'],black,0,254,254,254,,,91.30022883415222,91.01659393310547,91.31657600402832,dot,[0.1],"[0.25023401086931774, -0.3984124620602511]",density,black,,,D004,visual,5,[],"['1', '2', '3', '4']",1,2023.2.3,harveyvisual,2.1,[],8,0.75,
0,pause,0.4,None,None,None,0,255,255,255,,,,,,,,,,,,,D004,visual,5,[],"['1', '2', '3', '4']",1,2023.2.3,harveyvisual,2.1,[],8,0.75,
1,dot,0.3,['dot'],['density'],black,0,256,256,256,,,92.0002179145813,91.716561794281,92.01658082008362,dot,[0.1],"[0.5286010678554951, -0.2554598500704326]",density,black,,,D004,visual,5,[],"['1', '2', '3', '4']",1,2023.2.3,harveyvisual,2.1,[],8,0.75,
0,pause,0.4,None,None,None,0,257,257,257,,,,,,,,,,,,,D004,visual,5,[],"['1', '2', '3', '4']",1,2023.2.3,harveyvisual,2.1,[],8,0.75,
1,dot,0.3,['dot'],['density'],black,0,258,258,258,,,92.70024180412292,92.41657495498657,92.71655178070068,dot,[0.08],"[-0.4519365434524677, 0.22287683068434597]",density,black,,,D004,visual,5,[],"['1', '2', '3', '4']",1,2023.2.3,harveyvisual,2.1,[],8,0.75,
0,pause,0.4,None,None,None,0,259,259,259,,,,,,,,,,,,,D004,visual,5,[],"['1', '2', '3', '4']",1,2023.2.3,harveyvisual,2.1,[],8,0.75,
1,dot,0.3,['dot'],['density'],black,0,260,260,260,,,93.40022778511047,93.11653995513916,93.4165198802948,dot,[0.06],"[-0.4913090862596544, 0.31587628757091063]",density,black,,,D004,visual,5,[],"['1', '2', '3', '4']",1,2023.2.3,harveyvisual,2.1,[],8,0.75,
0,pause,0.4,None,None,None,0,261,261,261,,,,,,,,,,,,,D004,visual,5,[],"['1', '2', '3', '4']",1,2023.2.3,harveyvisual,2.1,[],8,0.75,
1,dot,0.3,['dot'],['density'],white,0,262,262,262,,,94.10022497177124,93.8165168762207,94.11650896072388,dot,[0.08],"[0.39967490259390637, -0.2576437183111264]",density,white,,,D004,visual,5,[],"['1', '2', '3', '4']",1,2023.2.3,harveyvisual,2.1,[],8,0.75,
0,pause,0.4,None,None,None,0,263,263,263,,,,,,,,,,,1,93.88613820075989,D004,visual,5,[],"['1', '2', '3', '4']",1,2023.2.3,harveyvisual,2.1,[],8,0.75,
20,dot,0.3,['dot'],['density'],white,0,264,264,264,,,94.80024480819702,94.51652789115906,94.8164689540863,dot,"[0.08, 0.06, 0.1, 0.1, 0.06, 0.06, 0.08, 0.06, 0.08, 0.1, 0.1, 0.06, 0.1, 0.06, 0.08, 0.06, 0.08, 0.08, 0.08, 0.1]","[[-0.003792653290322079, -0.4163368778084836], [0.32841526025777423, 0.29542648437866226], [-0.4484147906405027, 0.36143075800941205], [0.5905658174211709, 0.0026622853341121966], [0.1956240211778153, -0.11368191086014878], [-0.2848951059724165, 0.10952342053219388], [-0.5390410161980705, -0.1863372992655477], [-0.33319264248984, -0.3200326416220485], [0.019134601138020457, 0.43681458015765184], [0.3860660388597389, -0.4017875484120453], [-0.45500136836405874, 0.018353841950876193], [0.4803368404896452, -0.2183001033476179], [-0.166868026375605, 0.34935361133596776], [-0.2264668121366305, -0.0774231304034036], [0.19026566719845128, 0.13894590580314703], [-0.20949288529047305, 0.5546736201616385], [0.3024812245907075, 0.5150237120176944], [0.555687400956188, 0.22318699724016017], [0.18395171067234528, -0.5294997002779995], [-0.023314813271353874, 0.15576648227887135]]",density,white,,,D004,visual,5,[],"['1', '2', '3', '4']",1,2023.2.3,harveyvisual,2.1,[],8,0.75,
0,pause,0.4,None,None,None,0,265,265,265,,,,,,,,,,,1,94.39516997337341,D004,visual,5,[],"['1', '2', '3', '4']",1,2023.2.3,harveyvisual,2.1,[],8,0.75,
20,dot,0.3,['dot'],['density'],black,0,266,266,266,,,95.5002338886261,95.21653699874878,95.51651287078857,dot,"[0.1, 0.08, 0.1, 0.06, 0.08, 0.06, 0.06, 0.1, 0.1, 0.1, 0.06, 0.06, 0.08, 0.06, 0.08, 0.08, 0.08, 0.06, 0.06, 0.08]","[[-0.1755817221697883, 0.13451299418678453], [0.5318703439871025, 0.25304498979005524], [0.07304459284559073, 0.19999858299357987], [-0.24987964035724725, -0.38806346329843516], [0.18367687124907184, -0.28367834669252573], [0.4931316340842501, -0.3239358326943553], [0.014530738485484584, -0.4980822818236662], [-0.3835308713680472, 0.3173970144052685], [0.2425029640274896, -0.49263928210995755], [-0.2699830803369913, 0.4747292196870666], [0.37989024186365306, 0.3942708291066154], [0.024247852010891302, 0.593190676318722], [0.5284097981212642, -0.03224530178200413], [0.2917116876338437, 0.13248122721964517], [-0.3355613504590088, -0.20471576085385507], [-0.5999997467669723, 0.06430931297152555], [-0.05892743026053615, -0.14315217754138226], [0.11832603975999778, -0.01738292267044672], [-0.5628585499251989, -0.22001785628052561], [-0.3771105696559941, -0.004194412432114936]]",density,black,,,D004,visual,5,[],"['1', '2', '3', '4']",1,2023.2.3,harveyvisual,2.1,[],8,0.75,
0,pause,0.4,None,None,None,0,267,267,267,,,,,,,,,,,,,D004,visual,5,[],"['1', '2', '3', '4']",1,2023.2.3,harveyvisual,2.1,[],8,0.75,
