num,mod,duration,shape,ll_cond,colors,.thisRepN,.thisTrialN,.thisN,.thisIndex,thisRow.t,notes,raw_global_time,t_start,t_stop,shapes,size,pos,cond,color,button,RT,participant,session,starting_run,left button (match/odd),right button (non-match/even),samples_per_block,psychopy version,expName,offset,audio,number_runs,radius,
1,dot,0.3,['dot'],['density'],black,0,0,0,0,,,2.4001920223236084,2.101973056793213,2.4185750484466553,dot,[0.08],"[-0.48958603946102763, 0.32731293615049173]",density,black,,,D004,visual,5,[],"['1', '2', '3', '4']",1,2023.2.3,harveyvisual,2.1,[],8,0.75,
0,pause,0.4,None,None,None,0,1,1,1,,,,,,,,,,,,,D004,visual,5,[],"['1', '2', '3', '4']",1,2023.2.3,harveyvisual,2.1,[],8,0.75,
1,dot,0.3,['dot'],['density'],black,0,2,2,2,,,3.100196123123169,2.801898956298828,3.1191909313201904,dot,[0.1],"[0.15956500649880873, 0.2640393008039057]",density,black,,,D004,visual,5,[],"['1', '2', '3', '4']",1,2023.2.3,harveyvisual,2.1,[],8,0.75,
0,pause,0.4,None,None,None,0,3,3,3,,,,,,,,,,,,,D004,visual,5,[],"['1', '2', '3', '4']",1,2023.2.3,harveyvisual,2.1,[],8,0.75,
1,dot,0.3,['dot'],['density'],black,0,4,4,4,,,3.80019211769104,3.502552032470703,3.819183111190796,dot,[0.08],"[-0.2532192430475575, -0.5275431624831907]",density,black,,,D004,visual,5,[],"['1', '2', '3', '4']",1,2023.2.3,harveyvisual,2.1,[],8,0.75,
0,pause,0.4,None,None,None,0,5,5,5,,,,,,,,,,,,,D004,visual,5,[],"['1', '2', '3', '4']",1,2023.2.3,harveyvisual,2.1,[],8,0.75,
1,dot,0.3,['dot'],['density'],black,0,6,6,6,,,4.500201940536499,4.2024009227752686,4.519032955169678,dot,[0.06],"[0.39967490259390637, -0.2576437183111264]",density,black,,,D004,visual,5,[],"['1', '2', '3', '4']",1,2023.2.3,harveyvisual,2.1,[],8,0.75,
0,pause,0.4,None,None,None,0,7,7,7,,,,,,,,,,,,,D004,visual,5,[],"['1', '2', '3', '4']",1,2023.2.3,harveyvisual,2.1,[],8,0.75,
1,dot,0.3,['dot'],['density'],black,0,8,8,8,,,5.200216054916382,4.903079032897949,5.218976020812988,dot,[0.06],"[-0.22356924330877379, 0.41145231278245986]",density,black,,,D004,visual,5,[],"['1', '2', '3', '4']",1,2023.2.3,harveyvisual,2.1,[],8,0.75,
0,pause,0.4,None,None,None,0,9,9,9,,,,,,,,,,,,,D004,visual,5,[],"['1', '2', '3', '4']",1,2023.2.3,harveyvisual,2.1,[],8,0.75,
1,dot,0.3,['dot'],['density'],black,0,10,10,10,,,5.900212049484253,5.602607011795044,5.921268939971924,dot,[0.1],"[0.1049869166116724, 0.1335000464341748]",density,black,,,D004,visual,5,[],"['1', '2', '3', '4']",1,2023.2.3,harveyvisual,2.1,[],8,0.75,
0,pause,0.4,None,None,None,0,11,11,11,,,,,,,,,,,,,D004,visual,5,[],"['1', '2', '3', '4']",1,2023.2.3,harveyvisual,2.1,[],8,0.75,
2,dot,0.3,['dot'],['density'],black,0,12,12,12,,,6.600193023681641,6.304626941680908,6.621267080307007,dot,"[0.06, 0.1]","[[0.29932439847351855, -0.2783039550742582], [0.14276117392638485, -0.15345139110726028]]",density,black,,,D004,visual,5,[],"['1', '2', '3', '4']",1,2023.2.3,harveyvisual,2.1,[],8,0.75,
0,pause,0.4,None,None,None,0,13,13,13,,,,,,,,,,,,,D004,visual,5,[],"['1', '2', '3', '4']",1,2023.2.3,harveyvisual,2.1,[],8,0.75,
2,dot,0.3,['dot'],['density'],black,0,14,14,14,,,7.300204038619995,7.0045740604400635,7.3212950229644775,dot,"[0.1, 0.08]","[[-0.020654750029313704, 0.3891656546739414], [-0.0007759068931318763, 0.19000611836641118]]",density,black,,,D004,visual,5,[],"['1', '2', '3', '4']",1,2023.2.3,harveyvisual,2.1,[],8,0.75,
0,pause,0.4,None,None,None,0,15,15,15,,,,,,,,,,,,,D004,visual,5,[],"['1', '2', '3', '4']",1,2023.2.3,harveyvisual,2.1,[],8,0.75,
2,dot,0.3,['dot'],['density'],black,0,16,16,16,,,8.000198125839233,7.704607009887695,8.021398067474365,dot,"[0.1, 0.06]","[[-0.4149324818804315, 0.28007444048998836], [-0.5260390884397633, 0.11347960973083408]]",density,black,,,D004,visual,5,[],"['1', '2', '3', '4']",1,2023.2.3,harveyvisual,2.1,[],8,0.75,
0,pause,0.4,None,None,None,0,17,17,17,,,,,,,,,,,,,D004,visual,5,[],"['1', '2', '3', '4']",1,2023.2.3,harveyvisual,2.1,[],8,0.75,
2,dot,0.3,['dot'],['density'],black,0,18,18,18,,,8.700195074081421,8.404583930969238,8.721254110336304,dot,"[0.1, 0.06]","[[0.24818458179829028, -0.5230613829255512], [0.05315527151035717, -0.47711981276458415]]",density,black,,,D004,visual,5,[],"['1', '2', '3', '4']",1,2023.2.3,harveyvisual,2.1,[],8,0.75,
0,pause,0.4,None,None,None,0,19,19,19,,,,,,,,,,,,,D004,visual,5,[],"['1', '2', '3', '4']",1,2023.2.3,harveyvisual,2.1,[],8,0.75,
2,dot,0.3,['dot'],['density'],black,0,20,20,20,,,9.40021300315857,9.10457706451416,9.421184062957764,dot,"[0.06, 0.08]","[[0.11437717294043931, -0.408092871188616], [0.012734947149558614, -0.23578585574018435]]",density,black,,,D004,visual,5,[],"['1', '2', '3', '4']",1,2023.2.3,harveyvisual,2.1,[],8,0.75,
0,pause,0.4,None,None,None,0,21,21,21,,,,,,,,,,,,,D004,visual,5,[],"['1', '2', '3', '4']",1,2023.2.3,harveyvisual,2.1,[],8,0.75,
2,dot,0.3,['dot'],['density'],white,0,22,22,22,,,10.100205898284912,9.804516077041626,10.121181964874268,dot,"[0.1, 0.1]","[[0.1652621768884792, -0.40183218801656556], [-0.03337249546828684, -0.4281924369736378]]",density,white,,,D004,visual,5,[],"['1', '2', '3', '4']",1,2023.2.3,harveyvisual,2.1,[],8,0.75,
0,pause,0.4,None,None,None,0,23,23,23,,,,,,,,,,,1,10.27820086479187,D004,visual,5,[],"['1', '2', '3', '4']",1,2023.2.3,harveyvisual,2.1,[],8,0.75,
3,dot,0.3,['dot'],['density'],black,0,24,24,24,,,10.800216913223267,10.504430055618286,10.821301937103271,dot,"[0.08, 0.06, 0.06]","[[-0.18534860244577742, 0.5145019772121514], [0.05660586421610542, 0.42456432010350276], [-0.11463700911578348, 0.31489985189225056]]",density,black,,,D004,visual,5,[],"['1', '2', '3', '4']",1,2023.2.3,harveyvisual,2.1,[],8,0.75,
0,pause,0.4,None,None,None,0,25,25,25,,,,,,,,,,,,,D004,visual,5,[],"['1', '2', '3', '4']",1,2023.2.3,harveyvisual,2.1,[],8,0.75,
3,dot,0.3,['dot'],['density'],white,0,26,26,26,,,11.500216007232666,11.204620122909546,11.521163940429688,dot,"[0.08, 0.08, 0.06]","[[0.348550694073714, -0.26372109460002424], [0.5073713069625243, -0.14206826334288786], [0.3419709386041379, 0.005891602819957491]]",density,white,,,D004,visual,5,[],"['1', '2', '3', '4']",1,2023.2.3,harveyvisual,2.1,[],8,0.75,
0,pause,0.4,None,None,None,0,27,27,27,,,,,,,,,,,1,11.604381799697876,D004,visual,5,[],"['1', '2', '3', '4']",1,2023.2.3,harveyvisual,2.1,[],8,0.75,
3,dot,0.3,['dot'],['density'],black,0,28,28,28,,,12.200191974639893,11.90439510345459,12.221118927001953,dot,"[0.1, 0.06, 0.08]","[[0.3835821938049364, -0.20766469641190155], [0.321707527308891, -0.4175939354614905], [0.1897943789354585, -0.2642367600490923]]",density,black,,,D004,visual,5,[],"['1', '2', '3', '4']",1,2023.2.3,harveyvisual,2.1,[],8,0.75,
0,pause,0.4,None,None,None,0,29,29,29,,,,,,,,,,,,,D004,visual,5,[],"['1', '2', '3', '4']",1,2023.2.3,harveyvisual,2.1,[],8,0.75,
3,dot,0.3,['dot'],['density'],black,0,30,30,30,,,12.900209903717041,12.604375123977661,12.921113967895508,dot,"[0.08, 0.06, 0.06]","[[-0.3082868261871679, -0.3137599619928766], [-0.14816041357862977, -0.19371393562593295], [-0.35304767783039576, -0.10610354059871957]]",density,black,,,D004,visual,5,[],"['1', '2', '3', '4']",1,2023.2.3,harveyvisual,2.1,[],8,0.75,
0,pause,0.4,None,None,None,0,31,31,31,,,,,,,,,,,,,D004,visual,5,[],"['1', '2', '3', '4']",1,2023.2.3,harveyvisual,2.1,[],8,0.75,
3,dot,0.3,['dot'],['density'],black,0,32,32,32,,,13.600202083587646,13.30442500114441,13.621115922927856,dot,"[0.1, 0.06, 0.08]","[[-0.18534860244577742, 0.5145019772121514], [0.05660586421610542, 0.42456432010350276], [-0.11463700911578348, 0.31489985189225056]]",density,black,,,D004,visual,5,[],"['1', '2', '3', '4']",1,2023.2.3,harveyvisual,2.1,[],8,0.75,
0,pause,0.4,None,None,None,0,33,33,33,,,,,,,,,,,,,D004,visual,5,[],"['1', '2', '3', '4']",1,2023.2.3,harveyvisual,2.1,[],8,0.75,
3,dot,0.3,['dot'],['density'],black,0,34,34,34,,,14.300198078155518,14.004444122314453,14.321213006973267,dot,"[0.08, 0.1, 0.06]","[[-0.42255820389626353, 0.35871945956833473], [-0.19896656331745483, 0.3032224324013186], [-0.25553590712368324, 0.5056038804507684]]",density,black,,,D004,visual,5,[],"['1', '2', '3', '4']",1,2023.2.3,harveyvisual,2.1,[],8,0.75,
0,pause,0.4,None,None,None,0,35,35,35,,,,,,,,,,,,,D004,visual,5,[],"['1', '2', '3', '4']",1,2023.2.3,harveyvisual,2.1,[],8,0.75,
4,dot,0.3,['dot'],['density'],black,0,36,36,36,,,15.000211954116821,14.721112966537476,15.021081924438477,dot,"[0.06, 0.1, 0.1, 0.08]","[[0.14909032788103166, -0.4768554918693636], [0.26071220381864263, -0.20018841858473793], [0.02634252458519163, -0.30967292471165575], [0.3541358554053611, -0.43808560323820217]]",density,black,,,D004,visual,5,[],"['1', '2', '3', '4']",1,2023.2.3,harveyvisual,2.1,[],8,0.75,
0,pause,0.4,None,None,None,0,37,37,37,,,,,,,,,,,,,D004,visual,5,[],"['1', '2', '3', '4']",1,2023.2.3,harveyvisual,2.1,[],8,0.75,
4,dot,0.3,['dot'],['density'],black,0,38,38,38,,,15.700198888778687,15.421073913574219,15.721060037612915,dot,"[0.1, 0.1, 0.08, 0.08]","[[-0.041173875632770134, -0.46498671258652186], [-0.2993670243960792, -0.1306311282158324], [-0.23343206187288035, -0.39905635110522214], [-0.1242366033797093, -0.2299834244258363]]",density,black,,,D004,visual,5,[],"['1', '2', '3', '4']",1,2023.2.3,harveyvisual,2.1,[],8,0.75,
0,pause,0.4,None,None,None,0,39,39,39,,,,,,,,,,,,,D004,visual,5,[],"['1', '2', '3', '4']",1,2023.2.3,harveyvisual,2.1,[],8,0.75,
4,dot,0.3,['dot'],['density'],white,0,40,40,40,,,16.40020990371704,16.121022939682007,16.42099905014038,dot,"[0.1, 0.1, 0.1, 0.1]","[[0.107131415583101, 0.03171316484874249], [0.3330877778846877, 0.14211400081541528], [0.23058747141838212, -0.24340322486593785], [0.3173726134345681, -0.05921806988573682]]",density,white,,,D004,visual,5,[],"['1', '2', '3', '4']",1,2023.2.3,harveyvisual,2.1,[],8,0.75,
0,pause,0.4,None,None,None,0,41,41,41,,,,,,,,,,,1,16.55597686767578,D004,visual,5,[],"['1', '2', '3', '4']",1,2023.2.3,harveyvisual,2.1,[],8,0.75,
4,dot,0.3,['dot'],['density'],black,0,42,42,42,,,17.10021710395813,16.82103705406189,17.120959043502808,dot,"[0.1, 0.06, 0.08, 0.08]","[[-0.1266132934267609, -0.4419116806690939], [0.09906976576587005, -0.33923851916676484], [0.1053941350115203, -0.5768907290059295], [0.29145715672269834, -0.49787884973145785]]",density,black,,,D004,visual,5,[],"['1', '2', '3', '4']",1,2023.2.3,harveyvisual,2.1,[],8,0.75,
0,pause,0.4,None,None,None,0,43,43,43,,,,,,,,,,,,,D004,visual,5,[],"['1', '2', '3', '4']",1,2023.2.3,harveyvisual,2.1,[],8,0.75,
4,dot,0.3,['dot'],['density'],white,0,44,44,44,,,17.80020499229431,17.521191120147705,17.820982933044434,dot,"[0.08, 0.06, 0.08, 0.08]","[[-0.46485289602757673, 0.3603628353310837], [-0.30733625211232357, 0.21626236973196436], [-0.38991578213366157, 0.024479253410336757], [-0.570234662048439, 0.14093512067028166]]",density,white,,,D004,visual,5,[],"['1', '2', '3', '4']",1,2023.2.3,harveyvisual,2.1,[],8,0.75,
0,pause,0.4,None,None,None,0,45,45,45,,,,,,,,,,,1,17.94116997718811,D004,visual,5,[],"['1', '2', '3', '4']",1,2023.2.3,harveyvisual,2.1,[],8,0.75,
4,dot,0.3,['dot'],['density'],black,0,46,46,46,,,18.500216960906982,18.22096610069275,18.520999908447266,dot,"[0.1, 0.1, 0.08, 0.1]","[[0.15462156444594843, 0.0379601134824338], [-0.046642739949193296, 0.06510400621286498], [0.12320708371464141, 0.2499967514902957], [-0.13279798436850673, 0.2624558601457805]]",density,black,,,D004,visual,5,[],"['1', '2', '3', '4']",1,2023.2.3,harveyvisual,2.1,[],8,0.75,
0,pause,0.4,None,None,None,0,47,47,47,,,,,,,,,,,,,D004,visual,5,[],"['1', '2', '3', '4']",1,2023.2.3,harveyvisual,2.1,[],8,0.75,
5,dot,0.3,['dot'],['density'],black,0,48,48,48,,,19.20021390914917,18.92098903656006,19.22095799446106,dot,"[0.1, 0.08, 0.08, 0.06, 0.1]","[[-0.26965218803342234, -0.06061691990321757], [-0.44412238708790114, -0.1605793459593267], [-0.2738608688716076, -0.33598391440877745], [-0.06160694910013377, -0.19463283807086704], [-0.16469008497891707, 0.13324638745272324]]",density,black,,,D004,visual,5,[],"['1', '2', '3', '4']",1,2023.2.3,harveyvisual,2.1,[],8,0.75,
0,pause,0.4,None,None,None,0,49,49,49,,,,,,,,,,,,,D004,visual,5,[],"['1', '2', '3', '4']",1,2023.2.3,harveyvisual,2.1,[],8,0.75,
5,dot,0.3,['dot'],['density'],black,0,50,50,50,,,19.900216102600098,19.620903968811035,19.920959949493408,dot,"[0.08, 0.1, 0.06, 0.06, 0.06]","[[-0.006164932418690097, -0.4528126201229341], [-0.1681524682570009, -0.11721653268637569], [-0.1959903964051736, -0.3710708837277218], [0.03544926667602863, -0.1302589477940128], [0.16830580561999814, -0.32298356607012285]]",density,black,,,D004,visual,5,[],"['1', '2', '3', '4']",1,2023.2.3,harveyvisual,2.1,[],8,0.75,
0,pause,0.4,None,None,None,0,51,51,51,,,,,,,,,,,,,D004,visual,5,[],"['1', '2', '3', '4']",1,2023.2.3,harveyvisual,2.1,[],8,0.75,
5,dot,0.3,['dot'],['density'],black,0,52,52,52,,,20.600198984146118,20.32094407081604,20.621031045913696,dot,"[0.1, 0.08, 0.06, 0.08, 0.08]","[[0.26736814946294957, 0.039639821311179], [0.3007085492035367, 0.3262250213434343], [0.4353907115448318, -0.11778011175670104], [0.4521497692138949, 0.1289853794543976], [0.1485908728023605, -0.12275462689891227]]",density,black,,,D004,visual,5,[],"['1', '2', '3', '4']",1,2023.2.3,harveyvisual,2.1,[],8,0.75,
0,pause,0.4,None,None,None,0,53,53,53,,,,,,,,,,,,,D004,visual,5,[],"['1', '2', '3', '4']",1,2023.2.3,harveyvisual,2.1,[],8,0.75,
5,dot,0.3,['dot'],['density'],black,0,54,54,54,,,21.300195932388306,21.020896911621094,21.32091498374939,dot,"[0.08, 0.08, 0.08, 0.08, 0.1]","[[-0.26965218803342234, -0.06061691990321757], [-0.44412238708790114, -0.1605793459593267], [-0.2738608688716076, -0.33598391440877745], [-0.06160694910013377, -0.19463283807086704], [-0.16469008497891707, 0.13324638745272324]]",density,black,,,D004,visual,5,[],"['1', '2', '3', '4']",1,2023.2.3,harveyvisual,2.1,[],8,0.75,
0,pause,0.4,None,None,None,0,55,55,55,,,,,,,,,,,,,D004,visual,5,[],"['1', '2', '3', '4']",1,2023.2.3,harveyvisual,2.1,[],8,0.75,
5,dot,0.3,['dot'],['density'],black,0,56,56,56,,,22.000216007232666,21.720854997634888,22.020828008651733,dot,"[0.08, 0.08, 0.08, 0.1, 0.08]","[[0.33660852042816714, -0.448935078303268], [0.16237328695183198, -0.028906365321866932], [0.003149504206933677, -0.1844463225559013], [0.4065340125681681, -0.22407981263326276], [0.20027486954239768, -0.2346061295568129]]",density,black,,,D004,visual,5,[],"['1', '2', '3', '4']",1,2023.2.3,harveyvisual,2.1,[],8,0.75,
0,pause,0.4,None,None,None,0,57,57,57,,,,,,,,,,,,,D004,visual,5,[],"['1', '2', '3', '4']",1,2023.2.3,harveyvisual,2.1,[],8,0.75,
5,dot,0.3,['dot'],['density'],black,0,58,58,58,,,22.7002170085907,22.42084002494812,22.720855951309204,dot,"[0.1, 0.06, 0.1, 0.06, 0.1]","[[-0.26965218803342234, -0.06061691990321757], [-0.44412238708790114, -0.1605793459593267], [-0.2738608688716076, -0.33598391440877745], [-0.06160694910013377, -0.19463283807086704], [-0.16469008497891707, 0.13324638745272324]]",density,black,,,D004,visual,5,[],"['1', '2', '3', '4']",1,2023.2.3,harveyvisual,2.1,[],8,0.75,
0,pause,0.4,None,None,None,0,59,59,59,,,,,,,,,,,,,D004,visual,5,[],"['1', '2', '3', '4']",1,2023.2.3,harveyvisual,2.1,[],8,0.75,
6,dot,0.3,['dot'],['density'],black,0,60,60,60,,,23.400197982788086,23.120909929275513,23.420825004577637,dot,"[0.06, 0.08, 0.1, 0.1, 0.06, 0.1]","[[0.4838288853419304, 0.012393783640839304], [0.3357737587390128, 0.3939464288632381], [0.48781910936274964, 0.21484656822060386], [0.038497076365425514, 0.2266532147795764], [0.13074852606734502, 0.009493629341700475], [0.2855531954453259, 0.1811044151544938]]",density,black,,,D004,visual,5,[],"['1', '2', '3', '4']",1,2023.2.3,harveyvisual,2.1,[],8,0.75,
0,pause,0.4,None,None,None,0,61,61,61,,,,,,,,,,,,,D004,visual,5,[],"['1', '2', '3', '4']",1,2023.2.3,harveyvisual,2.1,[],8,0.75,
6,dot,0.3,['dot'],['density'],black,0,62,62,62,,,24.10020899772644,23.820836067199707,24.120968103408813,dot,"[0.1, 0.1, 0.1, 0.06, 0.06, 0.08]","[[0.404576257273406, 0.0700140295133255], [0.16236872381874318, -0.0021128728600973284], [0.5529541989122894, -0.15659614737169442], [0.13702497511457395, -0.2589057080071786], [0.36740063964394665, -0.3636528069500345], [0.3132750905084481, -0.159771579268986]]",density,black,,,D004,visual,5,[],"['1', '2', '3', '4']",1,2023.2.3,harveyvisual,2.1,[],8,0.75,
0,pause,0.4,None,None,None,0,63,63,63,,,,,,,,,,,,,D004,visual,5,[],"['1', '2', '3', '4']",1,2023.2.3,harveyvisual,2.1,[],8,0.75,
6,dot,0.3,['dot'],['density'],black,0,64,64,64,,,24.800201892852783,24.520952939987183,24.820823907852173,dot,"[0.1, 0.1, 0.06, 0.1, 0.06, 0.1]","[[-0.521575560759306, -0.09896409503936293], [-0.11005055439098525, 0.007412765662050641], [-0.2691644509192311, -0.32034241736757013], [-0.33082776037640693, 0.11579187391948328], [-0.031037041641207554, -0.21820435357846482], [-0.2943013415457968, -0.09543215727460275]]",density,black,,,D004,visual,5,[],"['1', '2', '3', '4']",1,2023.2.3,harveyvisual,2.1,[],8,0.75,
0,pause,0.4,None,None,None,0,65,65,65,,,,,,,,,,,,,D004,visual,5,[],"['1', '2', '3', '4']",1,2023.2.3,harveyvisual,2.1,[],8,0.75,
6,dot,0.3,['dot'],['density'],black,0,66,66,66,,,25.500205039978027,25.220797061920166,25.5207679271698,dot,"[0.1, 0.06, 0.08, 0.1, 0.1, 0.1]","[[0.2333794889108542, 0.5108688068097712], [0.17720399199515413, 0.06488002481085814], [0.3526024925964592, 0.16961020277143707], [0.1596713132306006, 0.321837067503818], [0.0007438407140586783, 0.18344495120876914], [0.42757463853404776, 0.37786691715169374]]",density,black,,,D004,visual,5,[],"['1', '2', '3', '4']",1,2023.2.3,harveyvisual,2.1,[],8,0.75,
0,pause,0.4,None,None,None,0,67,67,67,,,,,,,,,,,,,D004,visual,5,[],"['1', '2', '3', '4']",1,2023.2.3,harveyvisual,2.1,[],8,0.75,
6,dot,0.3,['dot'],['density'],black,0,68,68,68,,,26.20019793510437,25.92081594467163,26.22075390815735,dot,"[0.08, 0.06, 0.06, 0.06, 0.08, 0.1]","[[-0.5379788740814003, -0.011730333491669416], [-0.1820890739253136, -0.27973544868684425], [-0.07809457889047756, -0.09124846264896269], [-0.30616251401069866, -0.45101817852416426], [-0.44200878281119743, -0.26991620184617166], [-0.3315938551005316, -0.08696624632848979]]",density,black,,,D004,visual,5,[],"['1', '2', '3', '4']",1,2023.2.3,harveyvisual,2.1,[],8,0.75,
0,pause,0.4,None,None,None,0,69,69,69,,,,,,,,,,,,,D004,visual,5,[],"['1', '2', '3', '4']",1,2023.2.3,harveyvisual,2.1,[],8,0.75,
6,dot,0.3,['dot'],['density'],black,0,70,70,70,,,26.90019989013672,26.620755910873413,26.92074489593506,dot,"[0.08, 0.08, 0.1, 0.06, 0.06, 0.08]","[[-0.3622751979984162, 0.41275935807220604], [-0.5464806003183257, 0.06358334875023645], [-0.15518785678585886, 0.34969079698534317], [-0.3231370338359737, -0.02193421190541931], [-0.3473470749510941, 0.19885557425221048], [-0.12382976466594668, 0.04156566071734393]]",density,black,,,D004,visual,5,[],"['1', '2', '3', '4']",1,2023.2.3,harveyvisual,2.1,[],8,0.75,
0,pause,0.4,None,None,None,0,71,71,71,,,,,,,,,,,,,D004,visual,5,[],"['1', '2', '3', '4']",1,2023.2.3,harveyvisual,2.1,[],8,0.75,
7,dot,0.3,['dot'],['density'],black,0,72,72,72,,,27.60020399093628,27.321813106536865,27.620733976364136,dot,"[0.06, 0.08, 0.08, 0.08, 0.06, 0.1, 0.06]","[[-0.4069355390488937, 0.37207368581823036], [-0.24593577727054447, 0.19917396778247878], [-0.42360727833657225, -0.08003411738888748], [-0.22269992972584096, -0.007913174381400552], [-0.5458110461780458, 0.2006057762678532], [-0.12767295506375728, 0.3689678629588407], [-0.26313434255033313, 0.5223746060296944]]",density,black,,,D004,visual,5,[],"['1', '2', '3', '4']",1,2023.2.3,harveyvisual,2.1,[],8,0.75,
0,pause,0.4,None,None,None,0,73,73,73,,,,,,,,,,,,,D004,visual,5,[],"['1', '2', '3', '4']",1,2023.2.3,harveyvisual,2.1,[],8,0.75,
7,dot,0.3,['dot'],['density'],black,0,74,74,74,,,28.30020809173584,28.02072501182556,28.320720911026,dot,"[0.08, 0.08, 0.1, 0.08, 0.06, 0.08, 0.08]","[[-0.1635229753841098, 0.12186382262109141], [0.03437657187081179, 0.5178389267683822], [0.324184412335695, 0.17931743601205324], [0.08929018524031027, 0.11005745596178185], [-0.1318259817332877, 0.4026967659136047], [-0.053046683696667, -0.06058584598870606], [0.042745683665752716, 0.304616966822181]]",density,black,,,D004,visual,5,[],"['1', '2', '3', '4']",1,2023.2.3,harveyvisual,2.1,[],8,0.75,
0,pause,0.4,None,None,None,0,75,75,75,,,,,,,,,,,,,D004,visual,5,[],"['1', '2', '3', '4']",1,2023.2.3,harveyvisual,2.1,[],8,0.75,
7,dot,0.3,['dot'],['density'],black,0,76,76,76,,,29.000205039978027,28.720701932907104,29.020719051361084,dot,"[0.08, 0.08, 0.08, 0.08, 0.1, 0.1, 0.08]","[[-0.3423230189937584, -0.41219609722212536], [-0.1182323968952694, -0.35552357509158045], [-0.4111032443031386, -0.006313161275750597], [-0.5095560862941229, -0.2529410328503813], [-0.2588176969072235, -0.18091026219072012], [-0.0026253510642934245, -0.12197054074907589], [-0.16586784627322051, 0.0941069694468023]]",density,black,,,D004,visual,5,[],"['1', '2', '3', '4']",1,2023.2.3,harveyvisual,2.1,[],8,0.75,
0,pause,0.4,None,None,None,0,77,77,77,,,,,,,,,,,,,D004,visual,5,[],"['1', '2', '3', '4']",1,2023.2.3,harveyvisual,2.1,[],8,0.75,
7,dot,0.3,['dot'],['density'],black,0,78,78,78,,,29.700220108032227,29.420706033706665,29.720703125,dot,"[0.06, 0.06, 0.1, 0.08, 0.08, 0.08, 0.08]","[[0.06935229908748385, 0.4911641494940837], [-0.19266199922505295, 0.07836852906048222], [0.055274369019684175, 0.020452523162812593], [0.26239471350362015, 0.1001529216481179], [-0.06036973858781391, 0.3360513952533211], [-0.2638544135394649, 0.29089327984911306], [0.14813816713374972, 0.28344041791591096]]",density,black,,,D004,visual,5,[],"['1', '2', '3', '4']",1,2023.2.3,harveyvisual,2.1,[],8,0.75,
0,pause,0.4,None,None,None,0,79,79,79,,,,,,,,,,,,,D004,visual,5,[],"['1', '2', '3', '4']",1,2023.2.3,harveyvisual,2.1,[],8,0.75,
7,dot,0.3,['dot'],['density'],white,0,80,80,80,,,30.400211095809937,30.12069797515869,30.4206759929657,dot,"[0.08, 0.1, 0.1, 0.1, 0.08, 0.1, 0.08]","[[0.12430361198122393, -0.484697593056103], [0.0493599320108737, -0.036540600477799993], [0.2536650008125765, -0.05314613827093128], [-0.10908149692518246, -0.38401305955505927], [0.3510411480849886, -0.3949608705840701], [0.16732256025271752, -0.2817377092689904], [0.4277002215428168, -0.1937739732965619]]",density,white,,,D004,visual,5,[],"['1', '2', '3', '4']",1,2023.2.3,harveyvisual,2.1,[],8,0.75,
0,pause,0.4,None,None,None,0,81,81,81,,,,,,,,,,,1,30.623705863952637,D004,visual,5,[],"['1', '2', '3', '4']",1,2023.2.3,harveyvisual,2.1,[],8,0.75,
7,dot,0.3,['dot'],['density'],black,0,82,82,82,,,31.100198984146118,30.82068395614624,31.120774030685425,dot,"[0.08, 0.06, 0.1, 0.06, 0.08, 0.08, 0.1]","[[-0.23867826801906328, -0.4967507610264224], [-0.008572732368673055, -0.07934474412745643], [-0.2066881937132076, -0.2790710878612567], [0.21709551483580575, -0.47507177834902015], [0.2058411173229685, -0.17553172422760346], [-0.015438952742397984, -0.3568653319460787], [-0.011603255668745115, -0.5749057065343526]]",density,black,,,D004,visual,5,[],"['1', '2', '3', '4']",1,2023.2.3,harveyvisual,2.1,[],8,0.75,
0,pause,0.4,None,None,None,0,83,83,83,,,,,,,,,,,,,D004,visual,5,[],"['1', '2', '3', '4']",1,2023.2.3,harveyvisual,2.1,[],8,0.75,
8,dot,0.3,['dot'],['density'],black,0,84,84,84,,,31.80022406578064,31.520766019821167,31.82064199447632,dot,"[0.08, 0.08, 0.1, 0.1, 0.08, 0.1, 0.08, 0.08]","[[-0.08486713456805763, -0.4233549652310786], [-0.34121661687321897, 0.009931669871959016], [0.06179899905610707, -0.01287726204627424], [-0.01080387642187049, -0.20774715314808884], [-0.2259787915635077, -0.2257096572683263], [-0.31087639520469923, -0.4457762681120083], [-0.07938707884489006, 0.17996906985975966], [-0.13919465900414296, -0.03133413505419433]]",density,black,,,D004,visual,5,[],"['1', '2', '3', '4']",1,2023.2.3,harveyvisual,2.1,[],8,0.75,
0,pause,0.4,None,None,None,0,85,85,85,,,,,,,,,,,,,D004,visual,5,[],"['1', '2', '3', '4']",1,2023.2.3,harveyvisual,2.1,[],8,0.75,
8,dot,0.3,['dot'],['density'],black,0,86,86,86,,,32.5002179145813,32.220640897750854,32.52062201499939,dot,"[0.06, 0.1, 0.08, 0.08, 0.06, 0.06, 0.08, 0.08]","[[-0.13470540342303577, 0.06408260861786476], [-0.32633744656496655, 0.15045505181492372], [-0.2908673593763413, -0.0762007135190446], [-0.5368971138264618, 0.18470905249118252], [0.055331558945424124, 0.1732254888039505], [-0.30909967543404826, 0.3845911877556102], [-0.0777863596696305, 0.41921053595603236], [0.03181857584637903, -0.08967320215721851]]",density,black,,,D004,visual,5,[],"['1', '2', '3', '4']",1,2023.2.3,harveyvisual,2.1,[],8,0.75,
0,pause,0.4,None,None,None,0,87,87,87,,,,,,,,,,,,,D004,visual,5,[],"['1', '2', '3', '4']",1,2023.2.3,harveyvisual,2.1,[],8,0.75,
8,dot,0.3,['dot'],['density'],black,0,88,88,88,,,33.200217962265015,32.920632123947144,33.22060704231262,dot,"[0.06, 0.1, 0.06, 0.1, 0.08, 0.06, 0.08, 0.1]","[[-0.19469543066458847, -0.326291241472255], [0.30343637985980976, -0.10925869102227477], [-0.1969922581528186, -0.11664339975312436], [0.2570255161168456, -0.3247060146943647], [0.10684135558856425, -0.18174565546534566], [0.03482742583321104, -0.4893606045609451], [-0.015658395544436696, -0.0001692298399926468], [0.11980560642279467, 0.15585563517441894]]",density,black,,,D004,visual,5,[],"['1', '2', '3', '4']",1,2023.2.3,harveyvisual,2.1,[],8,0.75,
0,pause,0.4,None,None,None,0,89,89,89,,,,,,,,,,,,,D004,visual,5,[],"['1', '2', '3', '4']",1,2023.2.3,harveyvisual,2.1,[],8,0.75,
8,dot,0.3,['dot'],['density'],black,0,90,90,90,,,33.900201082229614,33.6205620765686,33.920560121536255,dot,"[0.06, 0.1, 0.1, 0.08, 0.06, 0.1, 0.08, 0.06]","[[-0.21605400050023119, -0.36806604112140096], [-0.4331556331222778, 0.1336594927324191], [-0.3157474098875971, -0.1371073420352747], [-0.10064365538588134, -0.10053754910436148], [0.10862445751928086, -0.04115753002163663], [-0.19663983546434133, 0.09424647547905109], [-0.5379272585723496, -0.06117038891009633], [0.023355790718173546, -0.2955553217846553]]",density,black,,,D004,visual,5,[],"['1', '2', '3', '4']",1,2023.2.3,harveyvisual,2.1,[],8,0.75,
0,pause,0.4,None,None,None,0,91,91,91,,,,,,,,,,,,,D004,visual,5,[],"['1', '2', '3', '4']",1,2023.2.3,harveyvisual,2.1,[],8,0.75,
8,dot,0.3,['dot'],['density'],black,0,92,92,92,,,34.60021090507507,34.320560932159424,34.6206738948822,dot,"[0.08, 0.1, 0.08, 0.08, 0.06, 0.06, 0.1, 0.08]","[[0.3364035831170529, 0.12390393923093283], [0.4336864367158133, 0.35981147627037974], [0.06743640335689947, 0.0759148581953004], [-0.079559988999742, 0.39531058321326396], [0.21309668101319243, 0.48855257098982907], [0.23478258025928536, -0.08446837776908474], [-0.12854716397353463, 0.17339976512773136], [0.14965136140762586, 0.26897313353206964]]",density,black,,,D004,visual,5,[],"['1', '2', '3', '4']",1,2023.2.3,harveyvisual,2.1,[],8,0.75,
0,pause,0.4,None,None,None,0,93,93,93,,,,,,,,,,,,,D004,visual,5,[],"['1', '2', '3', '4']",1,2023.2.3,harveyvisual,2.1,[],8,0.75,
8,dot,0.3,['dot'],['density'],black,0,94,94,94,,,35.300220012664795,35.020517110824585,35.320499897003174,dot,"[0.08, 0.06, 0.06, 0.1, 0.08, 0.08, 0.06, 0.06]","[[-0.13214754069031825, -0.5402677255150703], [0.1288984478000013, -0.5519726475135984], [0.27401725229332, -0.34994268047279037], [-0.052680844420756816, 0.006786609240531098], [0.03557367748195712, -0.3699094958310016], [-0.23170140006741713, -0.18198058676873416], [-0.33504621301322857, -0.3611685350886627], [0.0760940577115827, -0.14857148175569432]]",density,black,,,D004,visual,5,[],"['1', '2', '3', '4']",1,2023.2.3,harveyvisual,2.1,[],8,0.75,
0,pause,0.4,None,None,None,0,95,95,95,,,,,,,,,,,,,D004,visual,5,[],"['1', '2', '3', '4']",1,2023.2.3,harveyvisual,2.1,[],8,0.75,
9,dot,0.3,['dot'],['density'],black,0,96,96,96,,,36.00021505355835,35.72046995162964,36.020512104034424,dot,"[0.1, 0.08, 0.08, 0.06, 0.1, 0.1, 0.1, 0.06, 0.08]","[[-0.06218673389315922, -0.4689115343027075], [0.3660477402554353, -0.15396192139437054], [0.1401329754895462, -0.14262156541192547], [0.12293598154832706, -0.38779640022673934], [0.42645158233284447, -0.3607859009111275], [-0.06238477126329685, -0.2564764349502154], [-0.2584688277182379, -0.29964401945706215], [-0.11312192996032899, -0.05439345917292958], [0.19096873654163896, 0.1321853744035435]]",density,black,,,D004,visual,5,[],"['1', '2', '3', '4']",1,2023.2.3,harveyvisual,2.1,[],8,0.75,
0,pause,0.4,None,None,None,0,97,97,97,,,,,,,,,,,,,D004,visual,5,[],"['1', '2', '3', '4']",1,2023.2.3,harveyvisual,2.1,[],8,0.75,
9,dot,0.3,['dot'],['density'],black,0,98,98,98,,,36.70020294189453,36.42046904563904,36.72051405906677,dot,"[0.08, 0.06, 0.08, 0.1, 0.06, 0.1, 0.1, 0.06, 0.1]","[[0.17250841666444466, -0.5173949811024123], [-0.03744062107829021, -0.3895067986023326], [0.30010350549611725, -0.35742528465303014], [0.33064876224298684, -0.08057424749072183], [-0.16743636965090838, -0.09291053242622109], [0.1226827020066543, -0.24711763375004436], [0.047527772487498496, -0.037432207059122605], [0.20928928941955194, 0.09999474740890861], [-0.30040876562534896, -0.42726910911839744]]",density,black,,,D004,visual,5,[],"['1', '2', '3', '4']",1,2023.2.3,harveyvisual,2.1,[],8,0.75,
0,pause,0.4,None,None,None,0,99,99,99,,,,,,,,,,,,,D004,visual,5,[],"['1', '2', '3', '4']",1,2023.2.3,harveyvisual,2.1,[],8,0.75,
9,dot,0.3,['dot'],['density'],black,0,100,100,100,,,37.40019989013672,37.120465993881226,37.42151689529419,dot,"[0.06, 0.08, 0.08, 0.06, 0.1, 0.06, 0.06, 0.06, 0.08]","[[-0.01550530976013749, -0.4685693709261764], [-0.18673980358629047, -0.03677939788938074], [-0.492500386343057, -0.31631588298646995], [-0.31211872613566405, -0.49615226168915794], [-0.29213402726227655, -0.2779210730957987], [-0.48141959868665407, -0.11483975315711048], [0.2805727548720413, -0.20550850813502752], [-0.0662162642732561, -0.2200496541038322], [0.06776853683421198, -0.046300179137656175]]",density,black,,,D004,visual,5,[],"['1', '2', '3', '4']",1,2023.2.3,harveyvisual,2.1,[],8,0.75,
0,pause,0.4,None,None,None,0,101,101,101,,,,,,,,,,,,,D004,visual,5,[],"['1', '2', '3', '4']",1,2023.2.3,harveyvisual,2.1,[],8,0.75,
9,dot,0.3,['dot'],['density'],white,0,102,102,102,,,38.10022306442261,37.82043194770813,38.120415925979614,dot,"[0.08, 0.1, 0.06, 0.08, 0.1, 0.1, 0.08, 0.1, 0.08]","[[0.4907720478217397, -0.04420899316542184], [0.34945142516086164, 0.15252383324094793], [0.5574461082468273, 0.19132091369540322], [0.27860246559707486, -0.040271372914082004], [0.05137088633600719, 0.3166781443626957], [0.3859483744724672, 0.35594746641407654], [0.08124150308634055, -0.11830714188255424], [-0.07254784919135501, 0.1430213671552253], [0.33979531306265204, -0.26214422422440126]]",density,white,,,D004,visual,5,[],"['1', '2', '3', '4']",1,2023.2.3,harveyvisual,2.1,[],8,0.75,
0,pause,0.4,None,None,None,0,103,103,103,,,,,,,,,,,1,38.417683839797974,D004,visual,5,[],"['1', '2', '3', '4']",1,2023.2.3,harveyvisual,2.1,[],8,0.75,
9,dot,0.3,['dot'],['density'],black,0,104,104,104,,,38.80020308494568,38.52042293548584,38.82038903236389,dot,"[0.06, 0.08, 0.06, 0.06, 0.06, 0.08, 0.06, 0.1, 0.1]","[[-0.05049485011715354, 0.3013521193238899], [0.15354596755057998, 0.36785015051376163], [0.22995749783639982, 0.07309138415424772], [0.13460311710395165, -0.18603378415368982], [0.33097739113381164, -0.13822260855557728], [-0.16464148731134703, 0.07190493829483618], [0.521154897315396, -0.007803673430992942], [0.02684304494395013, 0.0018704401699241912], [-0.15545279255173522, -0.15329938800760382]]",density,black,,,D004,visual,5,[],"['1', '2', '3', '4']",1,2023.2.3,harveyvisual,2.1,[],8,0.75,
0,pause,0.4,None,None,None,0,105,105,105,,,,,,,,,,,,,D004,visual,5,[],"['1', '2', '3', '4']",1,2023.2.3,harveyvisual,2.1,[],8,0.75,
9,dot,0.3,['dot'],['density'],black,0,106,106,106,,,39.50020408630371,39.22039008140564,39.52038502693176,dot,"[0.06, 0.1, 0.1, 0.06, 0.08, 0.08, 0.06, 0.08, 0.06]","[[0.27429149071172837, 0.34251676390746333], [0.46797507249945486, 0.005491811463162166], [0.21235580877939833, 0.08757146436558581], [0.046223583492975936, 0.2932249054251131], [0.07051592556679111, -0.0704922843318231], [0.30438918969270623, -0.13028831600800136], [0.11534598117609637, 0.5236829685630697], [-0.06673610159464062, 0.12515255452502297], [-0.14439101605953233, -0.1332028051536465]]",density,black,,,D004,visual,5,[],"['1', '2', '3', '4']",1,2023.2.3,harveyvisual,2.1,[],8,0.75,
0,pause,0.4,None,None,None,0,107,107,107,,,,,,,,,,,,,D004,visual,5,[],"['1', '2', '3', '4']",1,2023.2.3,harveyvisual,2.1,[],8,0.75,
20,dot,0.3,['dot'],['density'],black,0,108,108,108,,,40.20020604133606,39.92037105560303,40.22036790847778,dot,"[0.06, 0.1, 0.1, 0.08, 0.08, 0.08, 0.1, 0.08, 0.06, 0.1, 0.08, 0.08, 0.06, 0.06, 0.08, 0.1, 0.1, 0.06, 0.08, 0.06]","[[-0.007400597916629281, -0.2359702063480626], [0.2642027172499716, -0.39626404009659166], [-0.4579232778554939, -0.11578952336525555], [-0.2575991661083611, -0.08040911322971095], [0.5074833294772673, -0.0822058247642726], [-0.17668191920088716, 0.1413336607656609], [0.040084555631493046, 0.33522294024446175], [-0.43562706122835937, 0.31741204970022047], [0.4117418552861799, 0.32050859258287306], [0.05279333691763455, -0.49122563406889436], [-0.27622831727790625, 0.4354071251284255], [-0.20607890487955544, -0.47925551121760374], [0.507810405452321, -0.3131936893845681], [0.526631232675654, 0.14022788047872592], [0.1368511931220313, 0.0583407738500501], [0.149417619374682, 0.4907669691862191], [-0.06621232888169215, 0.5332518421657827], [-0.39161314415470055, -0.3245496087816566], [-0.5589366001296725, 0.1537956893498486], [0.31321618552997865, -0.08421213098958402]]",density,black,,,D004,visual,5,[],"['1', '2', '3', '4']",1,2023.2.3,harveyvisual,2.1,[],8,0.75,
0,pause,0.4,None,None,None,0,109,109,109,,,,,,,,,,,,,D004,visual,5,[],"['1', '2', '3', '4']",1,2023.2.3,harveyvisual,2.1,[],8,0.75,
20,dot,0.3,['dot'],['density'],black,0,110,110,110,,,40.900217056274414,40.62035799026489,40.92033791542053,dot,"[0.1, 0.1, 0.08, 0.1, 0.1, 0.06, 0.1, 0.06, 0.06, 0.06, 0.08, 0.06, 0.06, 0.08, 0.06, 0.1, 0.1, 0.08, 0.06, 0.06]","[[-0.422649604343477, 0.26239412109790805], [-0.057504439297008325, 0.3198062167950201], [-0.47966424855501966, -0.3209112279827445], [-0.5092108755188437, -0.07517300804257965], [0.48788844257550534, -0.08021599939615831], [0.021241362921881057, 0.5124363306553753], [0.23661915098246566, 0.4370521799794497], [-0.32521244903644364, 0.45489546946852144], [0.14664297754139977, -0.05634971134103872], [-0.259240210745051, 0.15764128241218334], [0.40560471150559796, 0.1558636792328062], [0.06830013852038808, 0.15791544896417709], [-0.31237382801278857, -0.038608739367328615], [0.21819872215852143, -0.34251576971585884], [-0.05649770360363371, -0.047184169614274185], [0.41721378512352325, 0.37973446689573576], [-0.24063205848558966, -0.5024948099060786], [0.17547225653250376, -0.5549981105076626], [-0.06860942271072556, -0.5912451200545107], [-0.029660150397739726, -0.31114458498599123]]",density,black,,,D004,visual,5,[],"['1', '2', '3', '4']",1,2023.2.3,harveyvisual,2.1,[],8,0.75,
0,pause,0.4,None,None,None,0,111,111,111,,,,,,,,,,,,,D004,visual,5,[],"['1', '2', '3', '4']",1,2023.2.3,harveyvisual,2.1,[],8,0.75,
20,dot,0.3,['dot'],['density'],black,0,112,112,112,,,41.600197076797485,41.320590019226074,41.620567083358765,dot,"[0.08, 0.08, 0.08, 0.08, 0.1, 0.08, 0.08, 0.08, 0.06, 0.06, 0.06, 0.1, 0.08, 0.06, 0.1, 0.06, 0.06, 0.06, 0.08, 0.08]","[[0.0961710746579143, 0.36811837912064116], [-0.09580454805591254, -0.16570488578582732], [0.115559616438343, -0.10235722246517492], [0.47805294900391104, -0.31556803788554155], [-0.473927998193952, 0.14396808863552563], [-0.27622639736724586, 0.18456508953469397], [-0.13099743337902275, 0.362954822825724], [-0.2954625620420422, -0.3215063656107807], [0.49193898211586806, 0.07494287430857588], [-0.28523783258393925, -0.03201534907754355], [0.4411184616494107, 0.3045242377188075], [-0.501436106611584, -0.046429255811997416], [0.31277575321084006, -0.03170177391877582], [0.001268030389757424, 0.556431784565417], [0.3142756436587473, 0.5083785505399626], [0.21335561097690303, -0.38216033862787757], [-0.30109244754103814, 0.5032433745053178], [0.10479008885035512, 0.1208048095456129], [0.0054105015011980395, -0.5618503189607684], [-0.10929018028902143, 0.08595910422041997]]",density,black,,,D004,visual,5,[],"['1', '2', '3', '4']",1,2023.2.3,harveyvisual,2.1,[],8,0.75,
0,pause,0.4,None,None,None,0,113,113,113,,,,,,,,,,,,,D004,visual,5,[],"['1', '2', '3', '4']",1,2023.2.3,harveyvisual,2.1,[],8,0.75,
20,dot,0.3,['dot'],['density'],black,0,114,114,114,,,42.30021905899048,42.02037191390991,42.32036995887756,dot,"[0.1, 0.1, 0.1, 0.1, 0.06, 0.08, 0.06, 0.06, 0.1, 0.06, 0.08, 0.06, 0.08, 0.08, 0.06, 0.06, 0.1, 0.08, 0.08, 0.06]","[[-0.13644419493305454, -0.5463344732710813], [-0.010499379295765943, -0.14244286106359483], [-0.3710627047130749, -0.30478433171540764], [-0.41946089655417773, 0.17038716085484973], [0.40968681874529056, -0.05025617375364999], [-0.2661721213679407, 0.3611664812590324], [-0.04626642446718843, 0.5695263886662537], [0.18932919477001764, -0.2245376165498894], [0.13359376428744518, 0.34284432558753797], [0.5410447916081226, -0.2688683946670359], [-0.24702061165686134, -0.07252052976256801], [0.5348831711760477, 0.14609658903404338], [-0.5901454748488839, 0.08393138463106628], [0.19914856224054012, -0.5016094903271153], [0.27821248815826694, 0.21074513931781425], [-0.05553905358939237, 0.354523073219439], [-0.1567242002849501, 0.14980222957867984], [0.031977960991832144, -0.3894903059962536], [0.08543571611187117, 0.11584310708273615], [0.3840034063553315, 0.4208638543149834]]",density,black,,,D004,visual,5,[],"['1', '2', '3', '4']",1,2023.2.3,harveyvisual,2.1,[],8,0.75,
0,pause,0.4,None,None,None,0,115,115,115,,,,,,,,,,,,,D004,visual,5,[],"['1', '2', '3', '4']",1,2023.2.3,harveyvisual,2.1,[],8,0.75,
20,dot,0.3,['dot'],['density'],white,0,116,116,116,,,43.00020909309387,42.72034692764282,43.02033591270447,dot,"[0.1, 0.1, 0.1, 0.1, 0.06, 0.1, 0.08, 0.08, 0.1, 0.08, 0.08, 0.06, 0.08, 0.06, 0.06, 0.1, 0.06, 0.06, 0.06, 0.08]","[[-0.40075815148580396, 0.35521470386986], [0.3647725537221673, -0.2641152057057473], [-0.2982835596981129, -0.46965183518765974], [0.09082260899969041, -0.07302934738362088], [0.006040247334861193, 0.18993533637119087], [-0.5537208658674666, -0.10170887301499329], [0.43843695535258387, -0.07414845524506336], [0.2611204863548847, 0.46965725398653313], [-0.42613040519995105, 0.1068088235271441], [-0.4998852262726817, -0.30356467734877446], [-0.14751459624932323, -0.28397499196916154], [-0.18626216368724996, 0.3748358084511618], [0.5507085904364347, 0.15295215234965326], [0.24060533941122952, 0.055216012315079], [-0.19863231096807576, -0.08436101751135955], [0.0185070082238179, 0.5238647769357645], [0.026027240087758585, -0.5137590762957541], [0.23706692359148607, 0.27860747314039924], [0.29856072203557393, -0.4736269807763147], [0.4194986570917697, 0.3475400709727307]]",density,white,,,D004,visual,5,[],"['1', '2', '3', '4']",1,2023.2.3,harveyvisual,2.1,[],8,0.75,
0,pause,0.4,None,None,None,0,117,117,117,,,,,,,,,,,,,D004,visual,5,[],"['1', '2', '3', '4']",1,2023.2.3,harveyvisual,2.1,[],8,0.75,
20,dot,0.3,['dot'],['density'],black,0,118,118,118,,,43.70022106170654,43.420313119888306,43.720309019088745,dot,"[0.1, 0.1, 0.06, 0.06, 0.08, 0.1, 0.06, 0.08, 0.1, 0.1, 0.1, 0.08, 0.06, 0.1, 0.06, 0.06, 0.08, 0.08, 0.06, 0.06]","[[0.18408122589264375, -0.5616337677595029], [0.24413741760090124, 0.3384473000449083], [-0.22962174374738437, -0.058647785210321546], [0.22577555115487602, 0.09995832302884777], [0.5984951138153959, 0.03082402210606136], [-0.35895012091541967, 0.42543677865870944], [-0.46712412838063677, 0.18647091179886566], [0.03240119427729471, -0.07515816204855486], [0.570406972123629, -0.15948444113677301], [-0.5313371960791591, -0.10120202870423528], [-0.01305591956058727, -0.5434000082755419], [-0.1666463212865914, 0.3154083399263634], [-0.11100242103213692, -0.24502141885666956], [0.3487553001746737, -0.31417488982936476], [-0.4765946144426665, -0.3672817960425614], [0.05134789085154445, 0.48616881666569767], [-0.21381704146679908, -0.4693331165917667], [0.025791153328761585, 0.11510259104204312], [0.44706590085792774, 0.32628089135065536], [-0.26904252816137253, 0.15560079624641143]]",density,black,1,43.45721793174744,D004,visual,5,[],"['1', '2', '3', '4']",1,2023.2.3,harveyvisual,2.1,[],8,0.75,
0,pause,0.4,None,None,None,0,119,119,119,,,,,,,,,,,,,D004,visual,5,[],"['1', '2', '3', '4']",1,2023.2.3,harveyvisual,2.1,[],8,0.75,
20,dot,0.3,['dot'],['density'],black,0,120,120,120,,,44.400201082229614,44.12029409408569,44.42028093338013,dot,"[0.1, 0.06, 0.08, 0.08, 0.1, 0.06, 0.1, 0.1, 0.08, 0.08, 0.1, 0.06, 0.08, 0.1, 0.1, 0.06, 0.1, 0.08, 0.08, 0.1]","[[-0.08441754549361402, -0.3316919914011841], [0.3606663516731592, 0.1367166506499352], [0.42980695728633667, -0.3852070738385426], [-0.3542243099217854, 0.3866573779968649], [-0.3268686155567853, -0.22062328231321404], [-0.5420012644848494, 0.0933603889986161], [0.0350492734622172, -0.014117033259318568], [0.09193353830591633, -0.4034686628006924], [0.14760366014971382, 0.3624076568396999], [-0.18105265094915296, 0.2387592470142449], [0.560579147430165, 0.03928409266143493], [0.18367842875750595, -0.18313627085520823], [-0.0021848904089042387, -0.5680193621759076], [0.4136018978296664, -0.09281493403462154], [0.5067095757111403, 0.2894473801176806], [-0.35170738279688757, -0.42957242923506045], [0.13318749162419363, 0.5658587973028674], [-0.1050731408116089, 0.4388140142921447], [0.2963751611089166, -0.5276598182821218], [-0.5270333778904399, -0.10965210581982837]]",density,black,,,D004,visual,5,[],"['1', '2', '3', '4']",1,2023.2.3,harveyvisual,2.1,[],8,0.75,
0,pause,0.4,None,None,None,0,121,121,121,,,,,,,,,,,,,D004,visual,5,[],"['1', '2', '3', '4']",1,2023.2.3,harveyvisual,2.1,[],8,0.75,
20,dot,0.3,['dot'],['density'],black,0,122,122,122,,,45.100215911865234,44.82138109207153,45.12046408653259,dot,"[0.1, 0.08, 0.08, 0.1, 0.1, 0.06, 0.08, 0.08, 0.08, 0.1, 0.1, 0.1, 0.06, 0.08, 0.08, 0.1, 0.06, 0.1, 0.1, 0.08]","[[-0.47633700332469175, -0.03303287386075904], [0.23536259276075977, 0.04055129701706184], [0.18526543279850738, 0.3682475263581789], [0.46626201045241966, 0.1384031511438243], [0.11133788335122197, -0.2652193967504064], [-0.00950847870518401, -0.5928972376222151], [0.24947776666162624, -0.4864769951528446], [-0.5068628006029983, -0.23670534874685234], [-0.18052642249995093, 0.5520492012854084], [-0.09342170337304334, 0.20010866441615704], [-0.4087498076552837, 0.21910029683422066], [0.46749731166454966, -0.09536706601882478], [0.43726163169320464, 0.366593363235654], [-0.1583596506723291, -0.13207823298833404], [-0.2273084271517159, -0.5191950319201543], [-0.3019799115042085, -0.32534675960185466], [0.12779254850764954, 0.5666098531427348], [0.31902044650054384, -0.2239133295819662], [0.4771988884951729, -0.3343359743089647], [-0.002499947121233914, -3.2238519388938514e-05]]",density,black,,,D004,visual,5,[],"['1', '2', '3', '4']",1,2023.2.3,harveyvisual,2.1,[],8,0.75,
0,pause,0.4,None,None,None,0,123,123,123,,,,,,,,,,,,,D004,visual,5,[],"['1', '2', '3', '4']",1,2023.2.3,harveyvisual,2.1,[],8,0.75,
20,dot,0.3,['dot'],['density'],white,0,124,124,124,,,45.800211906433105,45.520456075668335,45.8202850818634,dot,"[0.08, 0.06, 0.06, 0.06, 0.1, 0.06, 0.06, 0.1, 0.06, 0.06, 0.1, 0.06, 0.1, 0.06, 0.06, 0.1, 0.06, 0.06, 0.06, 0.08]","[[-0.33628850640784047, -0.05989277108862179], [-0.2558081832974723, 0.1298268337218882], [-0.5537350311471658, -0.05299433056962577], [-0.10566906849367985, 0.3363161045381199], [0.5924606963547004, -0.023525354763790307], [0.17761397296767722, 0.40296234088013394], [0.03101234172418721, 0.026453232494672796], [0.01028416455666925, -0.5345236116713562], [0.3130990759134411, -0.18096632511731459], [-0.5422918152041275, -0.24711640734748894], [-0.32764721961238646, -0.38219352910285465], [-0.508707943767688, 0.21734469929048472], [0.3104420302011217, -0.4374705084786567], [-0.25625014921394834, 0.464806752601049], [-0.16222135758619805, -0.22207185286834208], [0.3654763918795022, 0.2637252760791757], [-0.20548281770372429, -0.5386350190512631], [0.5611360288661559, 0.2043885938148113], [0.10695114771500613, -0.2510289865260486], [0.29545633715642283, 0.031003572750259445]]",density,white,,,D004,visual,5,[],"['1', '2', '3', '4']",1,2023.2.3,harveyvisual,2.1,[],8,0.75,
0,pause,0.4,None,None,None,0,125,125,125,,,,,,,,,,,1,45.92261981964111,D004,visual,5,[],"['1', '2', '3', '4']",1,2023.2.3,harveyvisual,2.1,[],8,0.75,
20,dot,0.3,['dot'],['density'],black,0,126,126,126,,,46.5002179145813,46.22025394439697,46.52021408081055,dot,"[0.06, 0.08, 0.08, 0.06, 0.06, 0.08, 0.06, 0.06, 0.08, 0.08, 0.08, 0.08, 0.08, 0.1, 0.06, 0.1, 0.1, 0.06, 0.08, 0.06]","[[-0.17715092892556483, -0.5296178999396712], [-0.34356627183152294, 0.04546495863352973], [-0.4593795449588274, 0.2557408176765836], [0.273114068491911, 0.44429577773530116], [0.0218783442565873, -0.06850101387692442], [0.4691755960141474, -0.1271776533976497], [-0.243984527126674, -0.331299737740239], [-0.10872683758776186, 0.17039490763051157], [0.5040498103298615, 0.1322522125766632], [0.26947374788436174, -0.51393285084421], [0.06488180812576305, -0.48529109243057406], [0.1752641656958417, -0.28754749575686456], [-0.025018300579927488, 0.4291831194875503], [-0.5528415863705765, 0.08046106410801585], [0.19728001688243102, 0.1453263552574081], [-0.16169319900457874, -0.013928449513927577], [-0.5605444140441319, -0.1937727406305379], [0.44867410783289274, -0.37501340771267383], [-0.04090494558838542, -0.2722622811744228], [-0.28648204153221823, 0.36303487879026375]]",density,black,,,D004,visual,5,[],"['1', '2', '3', '4']",1,2023.2.3,harveyvisual,2.1,[],8,0.75,
0,pause,0.4,None,None,None,0,127,127,127,,,,,,,,,,,,,D004,visual,5,[],"['1', '2', '3', '4']",1,2023.2.3,harveyvisual,2.1,[],8,0.75,
20,dot,0.3,['dot'],['density'],black,0,128,128,128,,,47.200217962265015,46.92020106315613,47.22019910812378,dot,"[0.08, 0.08, 0.06, 0.1, 0.08, 0.08, 0.1, 0.1, 0.1, 0.06, 0.08, 0.08, 0.1, 0.06, 0.1, 0.06, 0.08, 0.1, 0.08, 0.08]","[[0.39456763184626265, -0.3119780092422176], [0.2393971841665633, 0.24357480381585583], [0.10533633799299458, -0.18102524428629319], [-0.11237398949680599, 0.35640737698454295], [0.04934290691589083, 0.04772493194256666], [0.49598458880459295, 0.17455770981233448], [-0.5946890806448102, 0.10983788855263736], [-0.22428124024675927, 0.5417549110441655], [-0.01833546992288304, -0.5871096845731439], [-0.3034788185935699, 0.06438879705618394], [-0.255088436382475, -0.24006654193091198], [-0.5439592050797437, -0.18967624280259943], [-0.1260226897302409, -0.39534156329091064], [0.15587282657903412, 0.47605923168582753], [0.5204989444569524, -0.10186950563622507], [0.30346952909383906, -0.5119434620960597], [0.11777599962519691, -0.4229615843966673], [-0.5085349762128889, 0.3113956929048206], [0.36106188622961044, 0.47315970227776166], [-0.35540067811161474, -0.4796723210181846]]",density,black,,,D004,visual,5,[],"['1', '2', '3', '4']",1,2023.2.3,harveyvisual,2.1,[],8,0.75,
0,pause,0.4,None,None,None,0,129,129,129,,,,,,,,,,,,,D004,visual,5,[],"['1', '2', '3', '4']",1,2023.2.3,harveyvisual,2.1,[],8,0.75,
20,dot,0.3,['dot'],['density'],black,0,130,130,130,,,47.900206089019775,47.620282888412476,47.92016410827637,dot,"[0.08, 0.1, 0.1, 0.06, 0.06, 0.1, 0.1, 0.08, 0.08, 0.1, 0.1, 0.06, 0.08, 0.06, 0.08, 0.06, 0.06, 0.1, 0.1, 0.06]","[[0.5968944544406368, -0.0029700653010603095], [-0.5141361549206751, 0.2850212647854504], [0.10744118334398012, -0.2872006594816049], [-0.5724630896041379, 0.044325881939203116], [0.1421263900706814, 0.0953718732415606], [0.4004079326839788, -0.2480593284246864], [0.33524592108993356, -0.44336999501742747], [-0.005085501184259988, 0.31226443942001336], [-0.4954345137750382, -0.3025425753593935], [0.3556783435368114, 0.2058353834107468], [0.24236886281825099, 0.3739790957285547], [0.3941173127666927, -0.01988689685681616], [-0.01754219008438551, -0.060530659872223946], [-0.18383928599848665, -0.3441214202826094], [-0.07764694609036382, 0.5454628646762946], [-0.31444129136720284, 0.4257889440952298], [-0.28775958582074723, -0.5030616653986142], [-0.2622446077539686, -0.14303526757260926], [-0.22467596661543004, 0.12519155541648852], [0.22069301979079026, -0.13307134928191416]]",density,black,,,D004,visual,5,[],"['1', '2', '3', '4']",1,2023.2.3,harveyvisual,2.1,[],8,0.75,
0,pause,0.4,None,None,None,0,131,131,131,,,,,,,,,,,,,D004,visual,5,[],"['1', '2', '3', '4']",1,2023.2.3,harveyvisual,2.1,[],8,0.75,
20,dot,0.3,['dot'],['density'],black,0,132,132,132,,,48.60020399093628,48.32014608383179,48.62018299102783,dot,"[0.08, 0.06, 0.06, 0.08, 0.1, 0.08, 0.1, 0.1, 0.06, 0.08, 0.1, 0.06, 0.08, 0.1, 0.08, 0.1, 0.06, 0.1, 0.1, 0.08]","[[-0.3831093713419137, -0.07410138115680653], [-0.11551237251952112, -0.4082545313577155], [0.15992914277821102, -0.35559678030001574], [-0.42895396609740777, 0.19859487963983147], [0.34944929648781875, 0.31215901967366266], [0.08282565406433162, -0.12378622429626346], [0.1427410347685245, 0.3553460422900615], [0.3601482162509966, -0.33868803988712703], [0.5389868869647391, -0.27357887449133933], [0.25135105811745917, -0.017989514493610637], [0.006085334184679492, 0.05686455536701851], [-0.2992545584321997, 0.4095190141874939], [0.5903743775177196, -0.008073998259496534], [-0.39236003929842134, -0.3947994779653921], [0.0155674468874617, 0.5549945490254189], [-0.5015338869521362, -0.23947566128408126], [-0.6044938779543877, -0.01510907886878457], [-0.18438932800767938, 0.01446212696892879], [0.412558299460693, 0.08988313922125202], [-0.21369299299756905, 0.20374733779657295]]",density,black,,,D004,visual,5,[],"['1', '2', '3', '4']",1,2023.2.3,harveyvisual,2.1,[],8,0.75,
0,pause,0.4,None,None,None,0,133,133,133,,,,,,,,,,,,,D004,visual,5,[],"['1', '2', '3', '4']",1,2023.2.3,harveyvisual,2.1,[],8,0.75,
20,dot,0.3,['dot'],['density'],black,0,134,134,134,,,49.30022311210632,49.02029895782471,49.32016706466675,dot,"[0.1, 0.06, 0.06, 0.08, 0.1, 0.08, 0.08, 0.06, 0.1, 0.06, 0.08, 0.1, 0.08, 0.06, 0.06, 0.1, 0.1, 0.1, 0.08, 0.1]","[[0.36931263445327245, 0.37748070560716984], [-0.294710669648212, 0.06392877707875011], [-0.014894437223748613, -0.1029258848182758], [0.1708339657811081, 0.2759091881890626], [0.16523412410469474, 0.5599844226402022], [-0.17984163802321712, 0.24004941178243544], [-0.1431150313228472, -0.4618660378324856], [0.4766242057697584, -0.08674274959352157], [-0.5132742925109407, -0.20074698429267557], [0.36369432353360764, 0.1432394570938909], [0.4764289108140741, -0.33429880976503223], [-0.012983505133301376, 0.34370690880227417], [0.3098374849841583, -0.2208135833367625], [-0.5455899891313759, 0.16296716940172318], [0.06796060110745394, -0.5554596833724804], [0.12282468264061874, 0.08024416397167489], [0.2617830254393346, -0.4577921595237512], [-0.2551509387860821, -0.1906853291856328], [-0.3713817672618823, 0.31418644713447386], [-0.405390614846303, -0.44225061326048337]]",density,black,,,D004,visual,5,[],"['1', '2', '3', '4']",1,2023.2.3,harveyvisual,2.1,[],8,0.75,
0,pause,0.4,None,None,None,0,135,135,135,,,,,,,,,,,,,D004,visual,5,[],"['1', '2', '3', '4']",1,2023.2.3,harveyvisual,2.1,[],8,0.75,
20,dot,0.3,['dot'],['density'],black,0,136,136,136,,,50.00021290779114,49.72022891044617,50.020143032073975,dot,"[0.08, 0.1, 0.1, 0.1, 0.06, 0.06, 0.08, 0.08, 0.06, 0.08, 0.1, 0.1, 0.1, 0.08, 0.06, 0.08, 0.1, 0.06, 0.06, 0.06]","[[-0.37839437483127647, 0.1858713521809951], [-0.06099496389588377, -0.055350869356420196], [-0.44675439581223036, -0.35436874508767036], [-0.5791686311256217, 0.08572443527560347], [0.5267191917401418, 0.20651787466640525], [0.3632655790659002, 0.3481319827936375], [-0.2513960307023406, 0.026795786154143242], [0.07301096290466702, 0.5471714570880637], [0.09243558488309322, -0.3473624121945607], [0.4055918479315418, -0.0008113883477324779], [0.5260904658649838, -0.1917582482787709], [0.04960648286421143, -0.5930233223847383], [-0.18353186409982153, 0.3358943285223478], [-0.1045082974086905, -0.34722661987590087], [0.21331903182161982, -0.06157339865031519], [-0.37361602249190956, 0.39665844991775084], [0.33353717646657555, -0.4920745275677058], [0.27275719775924356, 0.1638423453291027], [-0.571005504502827, -0.11812513505812053], [-0.2127380063626913, 0.5650776562562158]]",density,black,,,D004,visual,5,[],"['1', '2', '3', '4']",1,2023.2.3,harveyvisual,2.1,[],8,0.75,
0,pause,0.4,None,None,None,0,137,137,137,,,,,,,,,,,,,D004,visual,5,[],"['1', '2', '3', '4']",1,2023.2.3,harveyvisual,2.1,[],8,0.75,
20,dot,0.3,['dot'],['density'],black,0,138,138,138,,,50.700201988220215,50.420154094696045,50.72013211250305,dot,"[0.06, 0.1, 0.1, 0.06, 0.06, 0.1, 0.1, 0.1, 0.06, 0.1, 0.1, 0.1, 0.06, 0.1, 0.08, 0.06, 0.08, 0.06, 0.1, 0.1]","[[0.4704680563620388, 0.09019646832579836], [0.04530565495866534, 0.5573733596040245], [-0.006321998674657325, 0.2290152726443866], [-0.525798490497939, 0.18126078445949573], [0.2875824892295774, 0.012750468048319807], [0.31130490243638564, 0.209153751554639], [-0.4520820535278525, -0.051902390077487204], [0.27708882120933676, 0.49398079017152485], [0.5858971742443441, -0.07043789918983089], [-0.17690565238668365, -0.38938935481053294], [0.02009133119911044, -0.23163052815979007], [-0.16406654909247298, -0.5824159669163098], [0.49112845584240084, -0.2401489801674697], [-0.16975066447069942, 0.1112955311742192], [-0.3009021897297448, 0.39701244262410407], [-0.388045401914269, -0.24195669936993616], [0.21181738182016985, -0.3364318710607629], [0.09215644850280957, -0.5060653084024561], [0.5138307484276637, 0.29849900638844745], [-0.10962735338600538, 0.38812948116278234]]",density,black,,,D004,visual,5,[],"['1', '2', '3', '4']",1,2023.2.3,harveyvisual,2.1,[],8,0.75,
0,pause,0.4,None,None,None,0,139,139,139,,,,,,,,,,,,,D004,visual,5,[],"['1', '2', '3', '4']",1,2023.2.3,harveyvisual,2.1,[],8,0.75,
20,dot,0.3,['dot'],['density'],black,0,140,140,140,,,51.4001989364624,51.12012696266174,51.42008900642395,dot,"[0.1, 0.1, 0.1, 0.1, 0.1, 0.1, 0.06, 0.1, 0.1, 0.1, 0.1, 0.1, 0.1, 0.06, 0.06, 0.1, 0.06, 0.1, 0.06, 0.06]","[[-0.42224353758494093, 0.3982273791908205], [-0.04451858710563983, 0.21762990773664292], [-0.19513150195739076, -0.11602654402052909], [0.47924560033706876, -0.06699703960151693], [0.28681986037001717, 0.25043988426456687], [-0.3926440241595546, -0.20051550961637965], [-0.0019301422454891526, -0.1456225897448739], [-0.09135622499681706, -0.48928177905545067], [-0.5032111267859448, 0.04656296640126584], [-0.10858231483735936, 0.5420324277802734], [0.27050998025607775, 0.47390059515282434], [0.2762026839955136, 0.048537611659233204], [0.20950869607277156, -0.5440075097512163], [0.4577269238713205, -0.3800836227997688], [0.2430157564353237, -0.2101964732911818], [0.0948502244047188, 0.38285628877643685], [0.48130773692363216, 0.16070632948584895], [-0.3198457688624497, -0.4017686331521715], [-0.3203989856167663, 0.2028962293124429], [0.09893518548843716, -0.35390231359653984]]",density,black,,,D004,visual,5,[],"['1', '2', '3', '4']",1,2023.2.3,harveyvisual,2.1,[],8,0.75,
0,pause,0.4,None,None,None,0,141,141,141,,,,,,,,,,,,,D004,visual,5,[],"['1', '2', '3', '4']",1,2023.2.3,harveyvisual,2.1,[],8,0.75,
20,dot,0.3,['dot'],['density'],black,0,142,142,142,,,52.100213050842285,51.82006502151489,52.12228012084961,dot,"[0.08, 0.1, 0.06, 0.06, 0.06, 0.08, 0.08, 0.08, 0.06, 0.1, 0.1, 0.06, 0.08, 0.06, 0.06, 0.06, 0.06, 0.06, 0.08, 0.1]","[[-0.4146484377165627, 0.16817235239013117], [0.3832880284915602, -0.28529147363920876], [0.5748773415546015, -0.15909466522693672], [-0.2785968773230936, -0.12507551768667774], [-0.22459830649534662, 0.2085463485838126], [0.06060464581108704, 0.5834133073138067], [-0.560358130152412, -0.2139568248041788], [0.5137030966789297, 0.10027570786227424], [-0.13117366408692926, -0.3985698591064275], [0.27790795218723985, 0.10498206333543902], [-0.5973181117575995, 0.06800821431943212], [0.09289423943935082, -0.2162900440190073], [-0.23661712866101198, 0.5111778233863552], [-0.4393681517145803, 0.3953329271410252], [0.11595531555867022, -0.5754934924440214], [0.21467374899370384, 0.3204356258940606], [0.03342567879664371, 0.1078186754066176], [0.4766431789346216, 0.3257214857873812], [-0.10248453951640835, 0.35339222718226626], [-0.38349634018019285, -0.38245923849330166]]",density,black,,,D004,visual,5,[],"['1', '2', '3', '4']",1,2023.2.3,harveyvisual,2.1,[],8,0.75,
0,pause,0.4,None,None,None,0,143,143,143,,,,,,,,,,,,,D004,visual,5,[],"['1', '2', '3', '4']",1,2023.2.3,harveyvisual,2.1,[],8,0.75,
20,dot,0.3,['dot'],['density'],black,0,144,144,144,,,52.800213098526,52.52019691467285,52.82019901275635,dot,"[0.08, 0.1, 0.06, 0.06, 0.1, 0.06, 0.06, 0.1, 0.1, 0.06, 0.06, 0.06, 0.1, 0.06, 0.08, 0.1, 0.06, 0.06, 0.08, 0.1]","[[-0.2756579028104695, -0.29483614251461954], [0.5533653122304666, 0.1000040440268812], [0.16984878088411315, 0.156185310193533], [-0.3464191613143711, -0.49488203610307735], [0.41516644335844155, -0.17153973051930133], [0.38003935774721265, -0.4336740129303885], [0.07085184531712019, -0.21598154677204606], [-0.051709625757761835, -0.47866879336783646], [-0.058686992259908144, 0.46334483773046975], [-0.27122996122602905, 0.11881593269241297], [-0.5072633885568795, 0.2627429388679512], [-0.5064844878215446, -0.2707873467102544], [0.36011936877001305, 0.2773398131325461], [0.195019062467632, 0.5510913613310707], [-0.5215221626152655, -0.07395383009797762], [-0.35292206423640843, 0.44313903421741985], [-0.2414692856185478, -0.10355204566391835], [-0.04897625464476685, 0.2411964933904015], [0.18848852692357065, -0.5437594395260482], [0.2259943890286119, -0.07419708652780854]]",density,black,,,D004,visual,5,[],"['1', '2', '3', '4']",1,2023.2.3,harveyvisual,2.1,[],8,0.75,
0,pause,0.4,None,None,None,0,145,145,145,,,,,,,,,,,,,D004,visual,5,[],"['1', '2', '3', '4']",1,2023.2.3,harveyvisual,2.1,[],8,0.75,
20,dot,0.3,['dot'],['density'],black,0,146,146,146,,,53.500211000442505,53.22007489204407,53.52006411552429,dot,"[0.08, 0.08, 0.1, 0.06, 0.06, 0.1, 0.1, 0.1, 0.06, 0.06, 0.06, 0.06, 0.1, 0.06, 0.1, 0.1, 0.06, 0.1, 0.06, 0.06]","[[-0.47405485513253054, 0.05430505877098524], [-0.12964579893071687, -0.2349721843453874], [0.5223229738192402, 0.15535699209675535], [-0.3623880632447276, -0.26093030434956016], [0.36039863075039524, 0.04009107612468604], [0.3454526364875259, -0.2500141045141372], [0.12816527139203282, -0.02320082877819296], [-0.13426582483191912, 0.4981160406360391], [0.5497913918850826, -0.16022887300313143], [-0.49939381910219666, 0.2581130788353535], [0.2070686992141867, 0.2929231007601081], [-0.018924863024997518, -0.5308905390985447], [0.4148351669981235, 0.3281435318308447], [0.19541255480439923, -0.5494836794090474], [0.23082136551986843, 0.5295041427814422], [-0.41979311292621047, 0.4350860486386349], [-0.24055446790239743, -0.46192416028165256], [-0.08204187516998274, -0.003787799494656241], [0.1420747600049097, -0.31143955490729797], [-0.052131899969204865, 0.27992180581723647]]",density,black,,,D004,visual,5,[],"['1', '2', '3', '4']",1,2023.2.3,harveyvisual,2.1,[],8,0.75,
0,pause,0.4,None,None,None,0,147,147,147,,,,,,,,,,,,,D004,visual,5,[],"['1', '2', '3', '4']",1,2023.2.3,harveyvisual,2.1,[],8,0.75,
20,dot,0.3,['dot'],['density'],black,0,148,148,148,,,54.200215101242065,53.920023918151855,54.22001099586487,dot,"[0.08, 0.08, 0.06, 0.06, 0.1, 0.1, 0.06, 0.08, 0.08, 0.08, 0.08, 0.1, 0.06, 0.08, 0.08, 0.06, 0.08, 0.08, 0.08, 0.08]","[[-0.4973104785560749, 0.12229344649697715], [-0.33777765506120194, -0.06141816541403594], [0.04648571794035061, 0.44105214029906703], [-0.2772196753818892, 0.15788986505010483], [-0.025607626007810635, -0.348976038824907], [0.4374634054733285, -0.22553751773649516], [0.5922033383353645, 0.10342097393889604], [-0.38329366544754495, -0.2591455770113762], [0.045526978746977864, -0.5471889619120356], [-0.24177196908919146, -0.38992389581704967], [0.4264569845224403, 0.2120592341451838], [0.09993097751541002, 0.027887987625668798], [-0.41609839196537624, 0.3174327376767379], [-0.1050865438014178, 0.5664417313373372], [0.28282887362102827, -0.02284322969774988], [0.2728809570638788, 0.5356855274737924], [0.26768084393040803, -0.49734015102248164], [0.1430271570314806, 0.21826356539025904], [-0.5976975164083129, -0.06252271180847407], [-0.08612929619706322, -0.03644704292488832]]",density,black,,,D004,visual,5,[],"['1', '2', '3', '4']",1,2023.2.3,harveyvisual,2.1,[],8,0.75,
0,pause,0.4,None,None,None,0,149,149,149,,,,,,,,,,,,,D004,visual,5,[],"['1', '2', '3', '4']",1,2023.2.3,harveyvisual,2.1,[],8,0.75,
20,dot,0.3,['dot'],['density'],black,0,150,150,150,,,54.90021991729736,54.619982957839966,54.919975996017456,dot,"[0.06, 0.08, 0.1, 0.06, 0.06, 0.06, 0.06, 0.08, 0.1, 0.08, 0.06, 0.1, 0.06, 0.08, 0.1, 0.06, 0.1, 0.08, 0.08, 0.1]","[[0.017631085802790936, -0.06241277320857652], [0.0020249986184529556, -0.3176375472975093], [-0.12101059630291588, 0.13418536157074756], [-0.28345811538866467, -0.4892352887023197], [0.4550138211005422, 0.26140264592171053], [0.04582896998404995, -0.5706435321248914], [-0.2032123936171752, -0.07881618047017996], [-0.5297329727458756, 0.01538840461307639], [0.22161510752788538, -0.19417980599511364], [-0.41844261024293383, -0.2451104020627867], [-0.3321809383256514, 0.08973697368109146], [0.5900482566420738, -0.030482118507167824], [0.36088795147937547, -0.005957056921439219], [0.13432793091320783, 0.43283985212399334], [0.1395434636314251, 0.20875950663795229], [-0.18604574388655926, -0.27342099360897115], [-0.11372938572388835, 0.5484744202657784], [-0.36361608323762196, 0.4013026449441666], [0.4797058980575103, -0.2799009564773376], [-0.5584958132060256, 0.2110442821409212]]",density,black,,,D004,visual,5,[],"['1', '2', '3', '4']",1,2023.2.3,harveyvisual,2.1,[],8,0.75,
0,pause,0.4,None,None,None,0,151,151,151,,,,,,,,,,,,,D004,visual,5,[],"['1', '2', '3', '4']",1,2023.2.3,harveyvisual,2.1,[],8,0.75,
20,dot,0.3,['dot'],['density'],black,0,152,152,152,,,55.600204944610596,55.319977045059204,55.61999797821045,dot,"[0.08, 0.06, 0.1, 0.06, 0.08, 0.06, 0.08, 0.08, 0.1, 0.06, 0.06, 0.06, 0.06, 0.06, 0.06, 0.08, 0.06, 0.1, 0.1, 0.08]","[[-0.2717634077935789, 0.4590800880123651], [0.487721014500465, 0.2692065933083129], [-0.11982580899642448, 0.014585749361289646], [-0.4136634261863571, -0.11563909375517162], [0.13378857934838895, 0.4130589319991046], [0.012155654164850205, -0.13819275953503246], [0.26692759422605483, -0.3392830358336659], [-0.18923774930983678, -0.4814751404826587], [0.2659111442382428, 0.10006931062658031], [-0.5590596556488506, 0.041362148279466715], [-0.08350357169592393, -0.30763060924085794], [0.5903288756999384, 0.0011392236548961043], [-0.36715467602534835, 0.21119634264314713], [0.022710372840729964, -0.4796614110955959], [0.2132295345473748, -0.10283279010222962], [-0.446463809855378, -0.32238398596905643], [0.09486441521932354, 0.20800562129525557], [-0.15993720240409298, 0.27436244719588687], [0.5123664348287561, -0.20064837074601138], [-0.05555850863659251, 0.48066001438946804]]",density,black,,,D004,visual,5,[],"['1', '2', '3', '4']",1,2023.2.3,harveyvisual,2.1,[],8,0.75,
0,pause,0.4,None,None,None,0,153,153,153,,,,,,,,,,,,,D004,visual,5,[],"['1', '2', '3', '4']",1,2023.2.3,harveyvisual,2.1,[],8,0.75,
20,dot,0.3,['dot'],['density'],white,0,154,154,154,,,56.300211906433105,56.02003598213196,56.32010293006897,dot,"[0.08, 0.06, 0.1, 0.1, 0.08, 0.08, 0.08, 0.08, 0.08, 0.06, 0.06, 0.1, 0.1, 0.08, 0.1, 0.1, 0.1, 0.08, 0.08, 0.1]","[[-0.047276946230672356, 0.5201825813645118], [0.18011519664519682, 0.46974402756143707], [-0.01981023661127479, -0.5482122279964585], [0.42884419466264323, -0.40157992072450177], [-0.2118187139765157, 0.41409621934414387], [0.14032177038198212, -0.32547514037773867], [-0.2542147598359832, -0.008951609857037135], [-0.43694109902882017, 0.2478540701379192], [-0.47894379019801825, -0.3568885073315296], [0.15054286183191812, -0.09733057180240112], [0.32504973575783613, 0.3385022005525872], [0.04136365081256366, 0.14639782781373367], [-0.07358545963350227, -0.23127896605783377], [0.5619482104473678, -0.03395271243555731], [-0.161762815031679, 0.17051831498812375], [-0.5331124543432612, 0.05657338291737868], [-0.3970676775934875, -0.18328947824701064], [-0.2228394723328655, -0.39269286315279595], [0.3551158993373591, -0.19169305129656627], [0.34963161152201316, 0.08983195587078241]]",density,white,,,D004,visual,5,[],"['1', '2', '3', '4']",1,2023.2.3,harveyvisual,2.1,[],8,0.75,
0,pause,0.4,None,None,None,0,155,155,155,,,,,,,,,,,1,56.53014779090881,D004,visual,5,[],"['1', '2', '3', '4']",1,2023.2.3,harveyvisual,2.1,[],8,0.75,
9,dot,0.3,['dot'],['density'],black,0,156,156,156,,,57.00021505355835,56.71999192237854,57.01998710632324,dot,"[0.08, 0.1, 0.06, 0.08, 0.1, 0.06, 0.08, 0.1, 0.08]","[[-0.06218673389315922, -0.4689115343027075], [0.3660477402554353, -0.15396192139437054], [0.1401329754895462, -0.14262156541192547], [0.12293598154832706, -0.38779640022673934], [0.42645158233284447, -0.3607859009111275], [-0.06238477126329685, -0.2564764349502154], [-0.2584688277182379, -0.29964401945706215], [-0.11312192996032899, -0.05439345917292958], [0.19096873654163896, 0.1321853744035435]]",density,black,,,D004,visual,5,[],"['1', '2', '3', '4']",1,2023.2.3,harveyvisual,2.1,[],8,0.75,
0,pause,0.4,None,None,None,0,157,157,157,,,,,,,,,,,,,D004,visual,5,[],"['1', '2', '3', '4']",1,2023.2.3,harveyvisual,2.1,[],8,0.75,
9,dot,0.3,['dot'],['density'],black,0,158,158,158,,,57.700226068496704,57.4199481010437,57.719897985458374,dot,"[0.08, 0.1, 0.06, 0.1, 0.08, 0.06, 0.1, 0.06, 0.08]","[[-0.08351644510687262, 0.021707353155035948], [0.11173555070370329, 0.3931220271068859], [-0.15396522232717408, 0.3423719725559184], [0.23829169989725132, 0.186218803300476], [-0.29008049122260166, 0.17395274189193027], [0.2491440638781109, -0.04662568063892593], [-0.2854023508218629, -0.06307984259985559], [0.003596708871689959, 0.21717875760955796], [-0.47489413548496523, 0.030788186259843496]]",density,black,,,D004,visual,5,[],"['1', '2', '3', '4']",1,2023.2.3,harveyvisual,2.1,[],8,0.75,
0,pause,0.4,None,None,None,0,159,159,159,,,,,,,,,,,,,D004,visual,5,[],"['1', '2', '3', '4']",1,2023.2.3,harveyvisual,2.1,[],8,0.75,
9,dot,0.3,['dot'],['density'],black,0,160,160,160,,,58.40022397041321,58.11993598937988,58.4198899269104,dot,"[0.06, 0.1, 0.1, 0.1, 0.06, 0.1, 0.08, 0.06, 0.06]","[[0.16751238249231654, 0.5577961240465925], [-0.27296145406993233, 0.4862198967380745], [-0.029185467938656964, 0.15062746822878756], [-0.0646201772689005, 0.5687739076077192], [0.1739328392933146, 0.3418730943321047], [-0.141244529573345, 0.32572795328380527], [-0.5161698704605421, 0.1834233825743511], [0.21727962056556488, 0.12903401361548372], [-0.23724269532595021, 0.10991409904419316]]",density,black,,,D004,visual,5,[],"['1', '2', '3', '4']",1,2023.2.3,harveyvisual,2.1,[],8,0.75,
0,pause,0.4,None,None,None,0,161,161,161,,,,,,,,,,,,,D004,visual,5,[],"['1', '2', '3', '4']",1,2023.2.3,harveyvisual,2.1,[],8,0.75,
9,dot,0.3,['dot'],['density'],black,0,162,162,162,,,59.10020089149475,58.819891929626465,59.119909048080444,dot,"[0.1, 0.08, 0.08, 0.06, 0.08, 0.06, 0.08, 0.1, 0.06]","[[-0.25982930089867384, 0.41046177320377714], [0.2391912210628672, 0.4152301159030731], [-0.011899047454085643, 0.5103750441914148], [0.15826907621474634, 0.20577518054892585], [-0.29033424199965224, 0.2058356795488901], [-0.056026696670660174, 0.08152775180209879], [-0.32571421803823364, -0.002973879155612714], [0.39820859476685, 0.29236875228581105], [-0.06367065787951752, 0.28966088639372295]]",density,black,,,D004,visual,5,[],"['1', '2', '3', '4']",1,2023.2.3,harveyvisual,2.1,[],8,0.75,
0,pause,0.4,None,None,None,0,163,163,163,,,,,,,,,,,,,D004,visual,5,[],"['1', '2', '3', '4']",1,2023.2.3,harveyvisual,2.1,[],8,0.75,
9,dot,0.3,['dot'],['density'],black,0,164,164,164,,,59.800213098526,59.51987600326538,59.81984996795654,dot,"[0.06, 0.1, 0.1, 0.06, 0.1, 0.06, 0.08, 0.08, 0.06]","[[0.5571797577834091, 0.07732674165650813], [0.16332656704353227, -0.09331314560094064], [0.4138178119161903, 0.3925230053806507], [0.28711316854655766, 0.07147022394212545], [0.052100496024031176, 0.3810199549023822], [0.2172039135420496, 0.26337040755706287], [-0.2646845915772586, 0.12849707234668142], [0.21844181080216274, 0.4926952285236599], [0.0761275456309072, 0.11718001140956479]]",density,black,,,D004,visual,5,[],"['1', '2', '3', '4']",1,2023.2.3,harveyvisual,2.1,[],8,0.75,
0,pause,0.4,None,None,None,0,165,165,165,,,,,,,,,,,,,D004,visual,5,[],"['1', '2', '3', '4']",1,2023.2.3,harveyvisual,2.1,[],8,0.75,
9,dot,0.3,['dot'],['density'],black,0,166,166,166,,,60.50020408630371,60.219839096069336,60.519882917404175,dot,"[0.1, 0.1, 0.08, 0.1, 0.08, 0.1, 0.1, 0.06, 0.08]","[[0.31750259908069645, 0.09103062301409195], [-0.10814993995151222, -0.14883262012051235], [0.2615101699546999, -0.13245952524223892], [0.014531427323725789, 0.3887544696515085], [-0.1117096847062306, 0.09593752649312724], [0.07810272484559946, -0.019955638642360052], [-0.26173373106631487, 0.2840804484106463], [0.4370020372247476, 0.2669512546191977], [0.11115841416421544, 0.18722161068425575]]",density,black,,,D004,visual,5,[],"['1', '2', '3', '4']",1,2023.2.3,harveyvisual,2.1,[],8,0.75,
0,pause,0.4,None,None,None,0,167,167,167,,,,,,,,,,,,,D004,visual,5,[],"['1', '2', '3', '4']",1,2023.2.3,harveyvisual,2.1,[],8,0.75,
8,dot,0.3,['dot'],['density'],black,0,168,168,168,,,61.20020389556885,60.919825077056885,61.21981191635132,dot,"[0.1, 0.1, 0.06, 0.08, 0.08, 0.1, 0.1, 0.1]","[[0.43039348711459674, -0.2176132953198537], [0.11499515674856413, 0.2899266495440316], [0.12808102003139596, -0.009244067984354065], [-0.030386771168905473, -0.2551920291624523], [0.3118809155168881, 0.2081403981228026], [-0.06282563634610334, 0.11114412413027695], [0.22944900542930163, -0.23921835558115082], [0.33219925311336224, 0.0035410395788749187]]",density,black,,,D004,visual,5,[],"['1', '2', '3', '4']",1,2023.2.3,harveyvisual,2.1,[],8,0.75,
0,pause,0.4,None,None,None,0,169,169,169,,,,,,,,,,,,,D004,visual,5,[],"['1', '2', '3', '4']",1,2023.2.3,harveyvisual,2.1,[],8,0.75,
8,dot,0.3,['dot'],['density'],white,0,170,170,170,,,61.900213956832886,61.619807958602905,61.919776916503906,dot,"[0.1, 0.06, 0.06, 0.1, 0.1, 0.08, 0.08, 0.1]","[[-0.08486713456805763, -0.4233549652310786], [-0.34121661687321897, 0.009931669871959016], [0.06179899905610707, -0.01287726204627424], [-0.01080387642187049, -0.20774715314808884], [-0.2259787915635077, -0.2257096572683263], [-0.31087639520469923, -0.4457762681120083], [-0.07938707884489006, 0.17996906985975966], [-0.13919465900414296, -0.03133413505419433]]",density,white,,,D004,visual,5,[],"['1', '2', '3', '4']",1,2023.2.3,harveyvisual,2.1,[],8,0.75,
0,pause,0.4,None,None,None,0,171,171,171,,,,,,,,,,,,,D004,visual,5,[],"['1', '2', '3', '4']",1,2023.2.3,harveyvisual,2.1,[],8,0.75,
8,dot,0.3,['dot'],['density'],black,0,172,172,172,,,62.60023212432861,62.319791078567505,62.619779109954834,dot,"[0.06, 0.08, 0.06, 0.08, 0.1, 0.06, 0.06, 0.08]","[[0.2715518471235014, -0.4245138665073026], [0.03602391524707561, -0.40638782213015096], [0.4828297141312073, -0.09119901312376678], [0.02835794216237903, 0.028275321652194735], [-0.0895445032969687, -0.19822740391127236], [0.3178997883629752, 0.08245100984997318], [0.21920060966397442, -0.22342839817001514], [0.46807969757011175, -0.32427319705723295]]",density,black,1,62.524635791778564,D004,visual,5,[],"['1', '2', '3', '4']",1,2023.2.3,harveyvisual,2.1,[],8,0.75,
0,pause,0.4,None,None,None,0,173,173,173,,,,,,,,,,,,,D004,visual,5,[],"['1', '2', '3', '4']",1,2023.2.3,harveyvisual,2.1,[],8,0.75,
8,dot,0.3,['dot'],['density'],black,0,174,174,174,,,63.30020093917847,63.019782066345215,63.31977200508118,dot,"[0.08, 0.1, 0.1, 0.08, 0.1, 0.08, 0.08, 0.06]","[[-0.503192831713878, 0.2818759502405315], [-0.1851508851951268, 0.5121570681976513], [-0.3428391331654375, 0.06336275884690255], [-0.2620893383019587, 0.2653373399092269], [-0.09201493982796581, 0.138249408295409], [-0.14188251758679749, -0.08598668861617832], [-0.5391716430792404, 0.01870596234549803], [-0.2779852747659758, -0.23950462846526258]]",density,black,,,D004,visual,5,[],"['1', '2', '3', '4']",1,2023.2.3,harveyvisual,2.1,[],8,0.75,
0,pause,0.4,None,None,None,0,175,175,175,,,,,,,,,,,,,D004,visual,5,[],"['1', '2', '3', '4']",1,2023.2.3,harveyvisual,2.1,[],8,0.75,
8,dot,0.3,['dot'],['density'],black,0,176,176,176,,,64.0002019405365,63.71977090835571,64.01975512504578,dot,"[0.06, 0.08, 0.06, 0.08, 0.06, 0.06, 0.06, 0.1]","[[-0.24177141476747963, 0.37227001522147646], [0.022885153928237218, 0.26973630011126315], [-0.028424808126663318, 0.474031493095366], [-0.14677856605916886, 0.1510981622513803], [-0.33541894344674456, 0.07730913931898181], [0.10840621230513336, 0.04997884008138209], [0.30094222783758756, 0.17024461371702543], [-0.056701880949321645, -0.08542646800774611]]",density,black,,,D004,visual,5,[],"['1', '2', '3', '4']",1,2023.2.3,harveyvisual,2.1,[],8,0.75,
0,pause,0.4,None,None,None,0,177,177,177,,,,,,,,,,,,,D004,visual,5,[],"['1', '2', '3', '4']",1,2023.2.3,harveyvisual,2.1,[],8,0.75,
8,dot,0.3,['dot'],['density'],black,0,178,178,178,,,64.70020890235901,64.41975092887878,64.71973395347595,dot,"[0.08, 0.08, 0.1, 0.08, 0.06, 0.1, 0.06, 0.1]","[[-0.21605400050023119, -0.36806604112140096], [-0.4331556331222778, 0.1336594927324191], [-0.3157474098875971, -0.1371073420352747], [-0.10064365538588134, -0.10053754910436148], [0.10862445751928086, -0.04115753002163663], [-0.19663983546434133, 0.09424647547905109], [-0.5379272585723496, -0.06117038891009633], [0.023355790718173546, -0.2955553217846553]]",density,black,,,D004,visual,5,[],"['1', '2', '3', '4']",1,2023.2.3,harveyvisual,2.1,[],8,0.75,
0,pause,0.4,None,None,None,0,179,179,179,,,,,,,,,,,,,D004,visual,5,[],"['1', '2', '3', '4']",1,2023.2.3,harveyvisual,2.1,[],8,0.75,
7,dot,0.3,['dot'],['density'],black,0,180,180,180,,,65.40022301673889,65.11973690986633,65.41970705986023,dot,"[0.08, 0.1, 0.08, 0.08, 0.1, 0.1, 0.08]","[[-0.0840690222646118, 0.326581156863932], [0.2873095043411744, 0.40733497502034743], [0.3312644566818162, -0.06338498518608723], [-0.0506181805300269, 0.10889297565070959], [0.1236891467835978, 0.25045991881734525], [0.122473450616654, -0.061936092255746894], [0.3019459967494134, 0.15241064997072415]]",density,black,,,D004,visual,5,[],"['1', '2', '3', '4']",1,2023.2.3,harveyvisual,2.1,[],8,0.75,
0,pause,0.4,None,None,None,0,181,181,181,,,,,,,,,,,,,D004,visual,5,[],"['1', '2', '3', '4']",1,2023.2.3,harveyvisual,2.1,[],8,0.75,
7,dot,0.3,['dot'],['density'],white,0,182,182,182,,,66.10020089149475,65.8197181224823,66.11969494819641,dot,"[0.1, 0.1, 0.08, 0.06, 0.08, 0.1, 0.08]","[[0.06935229908748385, 0.4911641494940837], [-0.19266199922505295, 0.07836852906048222], [0.055274369019684175, 0.020452523162812593], [0.26239471350362015, 0.1001529216481179], [-0.06036973858781391, 0.3360513952533211], [-0.2638544135394649, 0.29089327984911306], [0.14813816713374972, 0.28344041791591096]]",density,white,,,D004,visual,5,[],"['1', '2', '3', '4']",1,2023.2.3,harveyvisual,2.1,[],8,0.75,
0,pause,0.4,None,None,None,0,183,183,183,,,,,,,,,,,,,D004,visual,5,[],"['1', '2', '3', '4']",1,2023.2.3,harveyvisual,2.1,[],8,0.75,
7,dot,0.3,['dot'],['density'],black,0,184,184,184,,,66.80024194717407,66.51968598365784,66.81967496871948,dot,"[0.08, 0.06, 0.08, 0.06, 0.1, 0.08, 0.06]","[[0.3032073476866497, 0.39528308644852606], [0.12977480624643314, 0.5338553612741447], [-0.07830532742558233, 0.5277294273979773], [0.000705909343175084, 0.04538848857330666], [-0.11442247498636825, 0.3203087976624053], [0.11424952152856681, 0.31372813630522095], [0.2743618672110132, 0.19233036806743029]]",density,black,1,66.72012996673584,D004,visual,5,[],"['1', '2', '3', '4']",1,2023.2.3,harveyvisual,2.1,[],8,0.75,
0,pause,0.4,None,None,None,0,185,185,185,,,,,,,,,,,,,D004,visual,5,[],"['1', '2', '3', '4']",1,2023.2.3,harveyvisual,2.1,[],8,0.75,
7,dot,0.3,['dot'],['density'],black,0,186,186,186,,,67.50021004676819,67.21966910362244,67.51967096328735,dot,"[0.06, 0.1, 0.06, 0.06, 0.1, 0.06, 0.08]","[[-0.4069355390488937, 0.37207368581823036], [-0.24593577727054447, 0.19917396778247878], [-0.42360727833657225, -0.08003411738888748], [-0.22269992972584096, -0.007913174381400552], [-0.5458110461780458, 0.2006057762678532], [-0.12767295506375728, 0.3689678629588407], [-0.26313434255033313, 0.5223746060296944]]",density,black,,,D004,visual,5,[],"['1', '2', '3', '4']",1,2023.2.3,harveyvisual,2.1,[],8,0.75,
0,pause,0.4,None,None,None,0,187,187,187,,,,,,,,,,,,,D004,visual,5,[],"['1', '2', '3', '4']",1,2023.2.3,harveyvisual,2.1,[],8,0.75,
7,dot,0.3,['dot'],['density'],white,0,188,188,188,,,68.20020389556885,67.91969299316406,68.21969389915466,dot,"[0.08, 0.06, 0.06, 0.08, 0.08, 0.06, 0.1]","[[0.3032073476866497, 0.39528308644852606], [0.12977480624643314, 0.5338553612741447], [-0.07830532742558233, 0.5277294273979773], [0.000705909343175084, 0.04538848857330666], [-0.11442247498636825, 0.3203087976624053], [0.11424952152856681, 0.31372813630522095], [0.2743618672110132, 0.19233036806743029]]",density,white,,,D004,visual,5,[],"['1', '2', '3', '4']",1,2023.2.3,harveyvisual,2.1,[],8,0.75,
0,pause,0.4,None,None,None,0,189,189,189,,,,,,,,,,,1,68.3123528957367,D004,visual,5,[],"['1', '2', '3', '4']",1,2023.2.3,harveyvisual,2.1,[],8,0.75,
7,dot,0.3,['dot'],['density'],black,0,190,190,190,,,68.90022206306458,68.61963510513306,68.91962194442749,dot,"[0.08, 0.06, 0.06, 0.06, 0.08, 0.08, 0.08]","[[0.373835093542847, 0.13553027784675922], [0.025265531087721685, -0.15487691700731251], [0.38086488534306906, -0.0720131222026176], [0.4315741710459581, -0.28075472739566504], [0.18097069018870113, 0.01647246612045595], [0.1962900518120967, -0.2624101628120604], [0.08955660480178401, 0.2127528718980948]]",density,black,,,D004,visual,5,[],"['1', '2', '3', '4']",1,2023.2.3,harveyvisual,2.1,[],8,0.75,
0,pause,0.4,None,None,None,0,191,191,191,,,,,,,,,,,,,D004,visual,5,[],"['1', '2', '3', '4']",1,2023.2.3,harveyvisual,2.1,[],8,0.75,
6,dot,0.3,['dot'],['density'],white,0,192,192,192,,,69.60020709037781,69.31961798667908,69.61968302726746,dot,"[0.06, 0.1, 0.08, 0.08, 0.08, 0.06]","[[-0.4836161913484198, -0.3187453071493452], [-0.26471688047626735, -0.2860523134109648], [-0.41762950244179403, 0.08668289631298715], [-0.3878484475239729, -0.1200129628316565], [-0.19654931186518254, -0.017200237521102193], [-0.07523945320955261, -0.19429752312200124]]",density,white,,,D004,visual,5,[],"['1', '2', '3', '4']",1,2023.2.3,harveyvisual,2.1,[],8,0.75,
0,pause,0.4,None,None,None,0,193,193,193,,,,,,,,,,,1,69.75452399253845,D004,visual,5,[],"['1', '2', '3', '4']",1,2023.2.3,harveyvisual,2.1,[],8,0.75,
6,dot,0.3,['dot'],['density'],black,0,194,194,194,,,70.30020999908447,70.01959896087646,70.31959295272827,dot,"[0.06, 0.1, 0.06, 0.1, 0.1, 0.06]","[[0.5108460974500976, 0.10904555526594768], [0.5033362887342737, -0.29902707163897635], [0.3062164979741722, 0.05793810054487639], [0.22849736264613016, -0.28041776899433873], [0.12909977445373055, -0.06500178518750158], [0.41889526300287094, -0.11616960582105396]]",density,black,,,D004,visual,5,[],"['1', '2', '3', '4']",1,2023.2.3,harveyvisual,2.1,[],8,0.75,
0,pause,0.4,None,None,None,0,195,195,195,,,,,,,,,,,,,D004,visual,5,[],"['1', '2', '3', '4']",1,2023.2.3,harveyvisual,2.1,[],8,0.75,
6,dot,0.3,['dot'],['density'],black,0,196,196,196,,,71.00020790100098,70.71961212158203,71.01959490776062,dot,"[0.1, 0.08, 0.08, 0.06, 0.08, 0.08]","[[0.1442800129286608, -0.025670240792647715], [-0.253335145558221, 0.06312541807928282], [0.15340240856287354, 0.2410349392962658], [-0.1639657784688781, 0.25075335361279655], [-0.07910231793701084, -0.12784096878077061], [-0.011661193723423325, 0.11361106492824657]]",density,black,,,D004,visual,5,[],"['1', '2', '3', '4']",1,2023.2.3,harveyvisual,2.1,[],8,0.75,
0,pause,0.4,None,None,None,0,197,197,197,,,,,,,,,,,,,D004,visual,5,[],"['1', '2', '3', '4']",1,2023.2.3,harveyvisual,2.1,[],8,0.75,
6,dot,0.3,['dot'],['density'],white,0,198,198,198,,,71.70022511482239,71.41957092285156,71.71957397460938,dot,"[0.06, 0.1, 0.06, 0.06, 0.08, 0.08]","[[-0.11553075830627273, 0.47698778124428043], [-0.1112787518129194, 0.10456141670764223], [-0.48855705683845824, 0.21494657582805063], [-0.2538299919008863, 0.2532006538804931], [-0.3271837865365474, 0.4662148945367939], [0.006792750312598743, 0.27345996435494924]]",density,white,,,D004,visual,5,[],"['1', '2', '3', '4']",1,2023.2.3,harveyvisual,2.1,[],8,0.75,
0,pause,0.4,None,None,None,0,199,199,199,,,,,,,,,,,1,71.7687509059906,D004,visual,5,[],"['1', '2', '3', '4']",1,2023.2.3,harveyvisual,2.1,[],8,0.75,
6,dot,0.3,['dot'],['density'],black,0,200,200,200,,,72.40021800994873,72.11962509155273,72.41953992843628,dot,"[0.1, 0.08, 0.1, 0.06, 0.1, 0.08]","[[0.26568550625605564, -0.48823100126060537], [0.030589778490880962, -0.34307155488476027], [0.2920158589989485, -0.005481777194348812], [0.4969139129819881, -0.3034402107212153], [0.2924968692334099, -0.2393606426967254], [0.09404279540557291, -0.1505005030192783]]",density,black,,,D004,visual,5,[],"['1', '2', '3', '4']",1,2023.2.3,harveyvisual,2.1,[],8,0.75,
0,pause,0.4,None,None,None,0,201,201,201,,,,,,,,,,,,,D004,visual,5,[],"['1', '2', '3', '4']",1,2023.2.3,harveyvisual,2.1,[],8,0.75,
6,dot,0.3,['dot'],['density'],black,0,202,202,202,,,73.10021805763245,72.81955909729004,73.1195421218872,dot,"[0.1, 0.06, 0.06, 0.1, 0.1, 0.06]","[[-0.37443702985748106, 0.32648296684105377], [-0.5461381080049402, 0.20900463425646473], [-0.03667792491240075, 0.12745261621840673], [-0.13670974087354773, 0.4115775839407936], [-0.3800981804337871, 0.05314619565530939], [-0.23016292349935943, 0.18714801531232822]]",density,black,,,D004,visual,5,[],"['1', '2', '3', '4']",1,2023.2.3,harveyvisual,2.1,[],8,0.75,
0,pause,0.4,None,None,None,0,203,203,203,,,,,,,,,,,,,D004,visual,5,[],"['1', '2', '3', '4']",1,2023.2.3,harveyvisual,2.1,[],8,0.75,
5,dot,0.3,['dot'],['density'],black,0,204,204,204,,,73.80020689964294,73.51950597763062,73.8194990158081,dot,"[0.08, 0.1, 0.06, 0.08, 0.08]","[[0.34746533592570195, 0.16118282603596082], [0.14457128296481445, 0.28865621170929245], [0.4549189851861922, 0.34228556952890804], [0.008483415068308318, 0.44103246018778014], [0.27150044131742485, 0.4621652121832405]]",density,black,,,D004,visual,5,[],"['1', '2', '3', '4']",1,2023.2.3,harveyvisual,2.1,[],8,0.75,
0,pause,0.4,None,None,None,0,205,205,205,,,,,,,,,,,,,D004,visual,5,[],"['1', '2', '3', '4']",1,2023.2.3,harveyvisual,2.1,[],8,0.75,
5,dot,0.3,['dot'],['density'],white,0,206,206,206,,,74.5002019405365,74.2195520401001,74.51955103874207,dot,"[0.06, 0.06, 0.1, 0.06, 0.08]","[[-0.47409275164437775, -0.17842554437930905], [-0.28800513042966097, -0.4059597382025641], [-0.20075697267214665, 0.008887320625593834], [-0.2708677629513771, -0.1868162154653106], [-0.0886924353013077, -0.2820475711339636]]",density,white,,,D004,visual,5,[],"['1', '2', '3', '4']",1,2023.2.3,harveyvisual,2.1,[],8,0.75,
0,pause,0.4,None,None,None,0,207,207,207,,,,,,,,,,,1,74.75033783912659,D004,visual,5,[],"['1', '2', '3', '4']",1,2023.2.3,harveyvisual,2.1,[],8,0.75,
5,dot,0.3,['dot'],['density'],black,0,208,208,208,,,75.20022892951965,74.9196228981018,75.21961212158203,dot,"[0.1, 0.08, 0.06, 0.1, 0.06]","[[-0.28680504698685855, -0.37141287089520275], [-0.07941991320777259, -0.3100284666993168], [0.1333965094747872, -0.32231728701695306], [-0.16725551142864267, -0.07802884766317453], [0.04399369704041987, -0.09756099317031844]]",density,black,,,D004,visual,5,[],"['1', '2', '3', '4']",1,2023.2.3,harveyvisual,2.1,[],8,0.75,
0,pause,0.4,None,None,None,0,209,209,209,,,,,,,,,,,,,D004,visual,5,[],"['1', '2', '3', '4']",1,2023.2.3,harveyvisual,2.1,[],8,0.75,
5,dot,0.3,['dot'],['density'],black,0,210,210,210,,,75.90021991729736,75.61961102485657,75.9194929599762,dot,"[0.1, 0.1, 0.08, 0.08, 0.1]","[[-0.13667773294397823, -0.4810836359727921], [0.22435054442879343, -0.38211739689247126], [0.18745946747878278, -0.17039478388844306], [0.024239655080151325, -0.29759851870815907], [0.08919077751561523, -0.5300131723353856]]",density,black,,,D004,visual,5,[],"['1', '2', '3', '4']",1,2023.2.3,harveyvisual,2.1,[],8,0.75,
0,pause,0.4,None,None,None,0,211,211,211,,,,,,,,,,,,,D004,visual,5,[],"['1', '2', '3', '4']",1,2023.2.3,harveyvisual,2.1,[],8,0.75,
5,dot,0.3,['dot'],['density'],black,0,212,212,212,,,76.6002140045166,76.31945490837097,76.61945295333862,dot,"[0.06, 0.08, 0.06, 0.08, 0.1]","[[0.45108699871130137, 0.12052648913612102], [0.3120839015871755, -0.055344110322042436], [0.5361186937318446, -0.08608482415671545], [0.24926945818158194, 0.15209517992691748], [0.3855135356736719, -0.25840400127360613]]",density,black,,,D004,visual,5,[],"['1', '2', '3', '4']",1,2023.2.3,harveyvisual,2.1,[],8,0.75,
0,pause,0.4,None,None,None,0,213,213,213,,,,,,,,,,,,,D004,visual,5,[],"['1', '2', '3', '4']",1,2023.2.3,harveyvisual,2.1,[],8,0.75,
5,dot,0.3,['dot'],['density'],black,0,214,214,214,,,77.30022192001343,77.01944994926453,77.31943106651306,dot,"[0.08, 0.1, 0.06, 0.06, 0.1]","[[0.11182935554897071, 0.3084500478813638], [0.20284409002608467, 0.5199666233992849], [0.31882748915707354, 0.1252782162051447], [0.39083404861423326, 0.3494221689807338], [0.1196046891632849, 0.10173499350566408]]",density,black,,,D004,visual,5,[],"['1', '2', '3', '4']",1,2023.2.3,harveyvisual,2.1,[],8,0.75,
0,pause,0.4,None,None,None,0,215,215,215,,,,,,,,,,,,,D004,visual,5,[],"['1', '2', '3', '4']",1,2023.2.3,harveyvisual,2.1,[],8,0.75,
4,dot,0.3,['dot'],['density'],black,0,216,216,216,,,78.00022196769714,77.71942496299744,78.01940894126892,dot,"[0.1, 0.08, 0.08, 0.08]","[[0.13421512820946938, -0.5336194340609706], [0.2622623892029083, -0.3575253733063478], [0.024533045116508903, -0.3376850530006363], [0.166924465117498, -0.0963569090623874]]",density,black,,,D004,visual,5,[],"['1', '2', '3', '4']",1,2023.2.3,harveyvisual,2.1,[],8,0.75,
0,pause,0.4,None,None,None,0,217,217,217,,,,,,,,,,,,,D004,visual,5,[],"['1', '2', '3', '4']",1,2023.2.3,harveyvisual,2.1,[],8,0.75,
4,dot,0.3,['dot'],['density'],black,0,218,218,218,,,78.70022106170654,78.41939210891724,78.71955990791321,dot,"[0.1, 0.1, 0.06, 0.06]","[[0.5195678262777355, 0.06634869171649047], [0.11508779247300271, 0.04459464887784077], [0.27862218446352316, 0.18290230777407274], [0.28701832247091064, -0.08209332131291468]]",density,black,,,D004,visual,5,[],"['1', '2', '3', '4']",1,2023.2.3,harveyvisual,2.1,[],8,0.75,
0,pause,0.4,None,None,None,0,219,219,219,,,,,,,,,,,,,D004,visual,5,[],"['1', '2', '3', '4']",1,2023.2.3,harveyvisual,2.1,[],8,0.75,
4,dot,0.3,['dot'],['density'],black,0,220,220,220,,,79.40022897720337,79.11951398849487,79.41951489448547,dot,"[0.06, 0.06, 0.08, 0.08]","[[0.37520814465037905, -0.4432880181017862], [0.4692830223283075, -0.19655799526205012], [0.3063896805601884, -0.036788685454167226], [0.2471196723673293, -0.2344474043623998]]",density,black,,,D004,visual,5,[],"['1', '2', '3', '4']",1,2023.2.3,harveyvisual,2.1,[],8,0.75,
0,pause,0.4,None,None,None,0,221,221,221,,,,,,,,,,,,,D004,visual,5,[],"['1', '2', '3', '4']",1,2023.2.3,harveyvisual,2.1,[],8,0.75,
4,dot,0.3,['dot'],['density'],black,0,222,222,222,,,80.10020303726196,79.81951999664307,80.11934804916382,dot,"[0.08, 0.08, 0.06, 0.1]","[[0.37520814465037905, -0.4432880181017862], [0.4692830223283075, -0.19655799526205012], [0.3063896805601884, -0.036788685454167226], [0.2471196723673293, -0.2344474043623998]]",density,black,,,D004,visual,5,[],"['1', '2', '3', '4']",1,2023.2.3,harveyvisual,2.1,[],8,0.75,
0,pause,0.4,None,None,None,0,223,223,223,,,,,,,,,,,,,D004,visual,5,[],"['1', '2', '3', '4']",1,2023.2.3,harveyvisual,2.1,[],8,0.75,
4,dot,0.3,['dot'],['density'],black,0,224,224,224,,,80.80020999908447,80.51937103271484,80.81934809684753,dot,"[0.08, 0.06, 0.06, 0.06]","[[-0.045256114861740894, 0.2798656300268403], [-0.02131053084637037, 0.4849425601475732], [0.17666180860848907, 0.34430389164600056], [0.0747630441556118, 0.10387908342824508]]",density,black,,,D004,visual,5,[],"['1', '2', '3', '4']",1,2023.2.3,harveyvisual,2.1,[],8,0.75,
0,pause,0.4,None,None,None,0,225,225,225,,,,,,,,,,,,,D004,visual,5,[],"['1', '2', '3', '4']",1,2023.2.3,harveyvisual,2.1,[],8,0.75,
4,dot,0.3,['dot'],['density'],black,0,226,226,226,,,81.5002019405365,81.21935892105103,81.51934599876404,dot,"[0.08, 0.08, 0.1, 0.06]","[[-0.041173875632770134, -0.46498671258652186], [-0.2993670243960792, -0.1306311282158324], [-0.23343206187288035, -0.39905635110522214], [-0.1242366033797093, -0.2299834244258363]]",density,black,,,D004,visual,5,[],"['1', '2', '3', '4']",1,2023.2.3,harveyvisual,2.1,[],8,0.75,
0,pause,0.4,None,None,None,0,227,227,227,,,,,,,,,,,,,D004,visual,5,[],"['1', '2', '3', '4']",1,2023.2.3,harveyvisual,2.1,[],8,0.75,
3,dot,0.3,['dot'],['density'],black,0,228,228,228,,,82.20023107528687,81.91933107376099,82.21931791305542,dot,"[0.1, 0.08, 0.1]","[[0.4995185571857965, 0.14229679706320136], [0.2944600495073675, 0.23335097983198633], [0.330752226915583, 0.0299241169750933]]",density,black,,,D004,visual,5,[],"['1', '2', '3', '4']",1,2023.2.3,harveyvisual,2.1,[],8,0.75,
0,pause,0.4,None,None,None,0,229,229,229,,,,,,,,,,,,,D004,visual,5,[],"['1', '2', '3', '4']",1,2023.2.3,harveyvisual,2.1,[],8,0.75,
3,dot,0.3,['dot'],['density'],black,0,230,230,230,,,82.9002161026001,82.61942601203918,82.91941690444946,dot,"[0.08, 0.06, 0.1]","[[0.13507679288784277, 0.012189921546254917], [0.31506600046810584, 0.10578898906948993], [0.12756957777796288, 0.2513869495778075]]",density,black,,,D004,visual,5,[],"['1', '2', '3', '4']",1,2023.2.3,harveyvisual,2.1,[],8,0.75,
0,pause,0.4,None,None,None,0,231,231,231,,,,,,,,,,,,,D004,visual,5,[],"['1', '2', '3', '4']",1,2023.2.3,harveyvisual,2.1,[],8,0.75,
3,dot,0.3,['dot'],['density'],white,0,232,232,232,,,83.60020899772644,83.31939697265625,83.61928510665894,dot,"[0.08, 0.1, 0.1]","[[0.4290032298944087, 0.1407520187648592], [0.22848299553954127, 0.06362144779139585], [0.3595680574788582, -0.09433362503040832]]",density,white,,,D004,visual,5,[],"['1', '2', '3', '4']",1,2023.2.3,harveyvisual,2.1,[],8,0.75,
0,pause,0.4,None,None,None,0,233,233,233,,,,,,,,,,,1,83.93925285339355,D004,visual,5,[],"['1', '2', '3', '4']",1,2023.2.3,harveyvisual,2.1,[],8,0.75,
3,dot,0.3,['dot'],['density'],black,0,234,234,234,,,84.30021810531616,84.0192449092865,84.31924510002136,dot,"[0.08, 0.08, 0.06]","[[0.03752440580708033, 0.5298990797186869], [-0.14535247226304113, 0.44143535861080874], [0.07857889528852925, 0.30774558950641073]]",density,black,,,D004,visual,5,[],"['1', '2', '3', '4']",1,2023.2.3,harveyvisual,2.1,[],8,0.75,
0,pause,0.4,None,None,None,0,235,235,235,,,,,,,,,,,,,D004,visual,5,[],"['1', '2', '3', '4']",1,2023.2.3,harveyvisual,2.1,[],8,0.75,
3,dot,0.3,['dot'],['density'],white,0,236,236,236,,,85.00020503997803,84.71922612190247,85.01925492286682,dot,"[0.06, 0.06, 0.08]","[[0.4290032298944087, 0.1407520187648592], [0.22848299553954127, 0.06362144779139585], [0.3595680574788582, -0.09433362503040832]]",density,white,,,D004,visual,5,[],"['1', '2', '3', '4']",1,2023.2.3,harveyvisual,2.1,[],8,0.75,
0,pause,0.4,None,None,None,0,237,237,237,,,,,,,,,,,1,85.18640279769897,D004,visual,5,[],"['1', '2', '3', '4']",1,2023.2.3,harveyvisual,2.1,[],8,0.75,
3,dot,0.3,['dot'],['density'],black,0,238,238,238,,,85.70020794868469,85.41917991638184,85.71916699409485,dot,"[0.1, 0.1, 0.08]","[[0.1555504186016049, 0.15532406847092056], [-0.0680535881648269, 0.26220909641571793], [0.08533315121688807, 0.39122308779032533]]",density,black,,,D004,visual,5,[],"['1', '2', '3', '4']",1,2023.2.3,harveyvisual,2.1,[],8,0.75,
0,pause,0.4,None,None,None,0,239,239,239,,,,,,,,,,,,,D004,visual,5,[],"['1', '2', '3', '4']",1,2023.2.3,harveyvisual,2.1,[],8,0.75,
2,dot,0.3,['dot'],['density'],black,0,240,240,240,,,86.40021204948425,86.11922907829285,86.41933107376099,dot,"[0.06, 0.06]","[[0.2713647219188039, -0.029235290058335472], [0.46697437826705046, 0.014145112521712659]]",density,black,,,D004,visual,5,[],"['1', '2', '3', '4']",1,2023.2.3,harveyvisual,2.1,[],8,0.75,
0,pause,0.4,None,None,None,0,241,241,241,,,,,,,,,,,,,D004,visual,5,[],"['1', '2', '3', '4']",1,2023.2.3,harveyvisual,2.1,[],8,0.75,
2,dot,0.3,['dot'],['density'],black,0,242,242,242,,,87.10020303726196,86.81917595863342,87.11931800842285,dot,"[0.08, 0.08]","[[0.075840462383643, -0.21806900392302264], [0.2761252679018853, -0.22101292055433702]]",density,black,,,D004,visual,5,[],"['1', '2', '3', '4']",1,2023.2.3,harveyvisual,2.1,[],8,0.75,
0,pause,0.4,None,None,None,0,243,243,243,,,,,,,,,,,,,D004,visual,5,[],"['1', '2', '3', '4']",1,2023.2.3,harveyvisual,2.1,[],8,0.75,
2,dot,0.3,['dot'],['density'],black,0,244,244,244,,,87.8002200126648,87.51929807662964,87.81913208961487,dot,"[0.06, 0.06]","[[0.24818458179829028, -0.5230613829255512], [0.05315527151035717, -0.47711981276458415]]",density,black,,,D004,visual,5,[],"['1', '2', '3', '4']",1,2023.2.3,harveyvisual,2.1,[],8,0.75,
0,pause,0.4,None,None,None,0,245,245,245,,,,,,,,,,,,,D004,visual,5,[],"['1', '2', '3', '4']",1,2023.2.3,harveyvisual,2.1,[],8,0.75,
2,dot,0.3,['dot'],['density'],black,0,246,246,246,,,88.50021505355835,88.21914505958557,88.51914095878601,dot,"[0.1, 0.1]","[[-0.16440981108753766, 0.5378091218652469], [-0.08422838651173449, 0.35445914222875186]]",density,black,,,D004,visual,5,[],"['1', '2', '3', '4']",1,2023.2.3,harveyvisual,2.1,[],8,0.75,
0,pause,0.4,None,None,None,0,247,247,247,,,,,,,,,,,,,D004,visual,5,[],"['1', '2', '3', '4']",1,2023.2.3,harveyvisual,2.1,[],8,0.75,
2,dot,0.3,['dot'],['density'],black,0,248,248,248,,,89.20020508766174,88.91912198066711,89.21914005279541,dot,"[0.06, 0.06]","[[0.06661886780735636, -0.3109770134588511], [-0.03502229105109153, -0.4833380692870097]]",density,black,,,D004,visual,5,[],"['1', '2', '3', '4']",1,2023.2.3,harveyvisual,2.1,[],8,0.75,
0,pause,0.4,None,None,None,0,249,249,249,,,,,,,,,,,,,D004,visual,5,[],"['1', '2', '3', '4']",1,2023.2.3,harveyvisual,2.1,[],8,0.75,
2,dot,0.3,['dot'],['density'],black,0,250,250,250,,,89.90022110939026,89.61906695365906,89.9190731048584,dot,"[0.08, 0.1]","[[0.21918454152848227, -0.10588244801595839], [0.1860161616926718, 0.09155890801726524]]",density,black,,,D004,visual,5,[],"['1', '2', '3', '4']",1,2023.2.3,harveyvisual,2.1,[],8,0.75,
0,pause,0.4,None,None,None,0,251,251,251,,,,,,,,,,,,,D004,visual,5,[],"['1', '2', '3', '4']",1,2023.2.3,harveyvisual,2.1,[],8,0.75,
1,dot,0.3,['dot'],['density'],white,0,252,252,252,,,90.60021710395813,90.3192241191864,90.61920309066772,dot,[0.08],"[0.43730911014729085, 0.38068286015665653]",density,white,,,D004,visual,5,[],"['1', '2', '3', '4']",1,2023.2.3,harveyvisual,2.1,[],8,0.75,
0,pause,0.4,None,None,None,0,253,253,253,,,,,,,,,,,1,90.90530490875244,D004,visual,5,[],"['1', '2', '3', '4']",1,2023.2.3,harveyvisual,2.1,[],8,0.75,
1,dot,0.3,['dot'],['density'],black,0,254,254,254,,,91.3002200126648,91.01920294761658,91.31905698776245,dot,[0.06],"[-0.2532192430475575, -0.5275431624831907]",density,black,,,D004,visual,5,[],"['1', '2', '3', '4']",1,2023.2.3,harveyvisual,2.1,[],8,0.75,
0,pause,0.4,None,None,None,0,255,255,255,,,,,,,,,,,,,D004,visual,5,[],"['1', '2', '3', '4']",1,2023.2.3,harveyvisual,2.1,[],8,0.75,
1,dot,0.3,['dot'],['density'],black,0,256,256,256,,,92.0002191066742,91.71903395652771,92.0190269947052,dot,[0.06],"[-0.30422713965878023, 0.0739284850406325]",density,black,,,D004,visual,5,[],"['1', '2', '3', '4']",1,2023.2.3,harveyvisual,2.1,[],8,0.75,
0,pause,0.4,None,None,None,0,257,257,257,,,,,,,,,,,,,D004,visual,5,[],"['1', '2', '3', '4']",1,2023.2.3,harveyvisual,2.1,[],8,0.75,
1,dot,0.3,['dot'],['density'],black,0,258,258,258,,,92.7002170085907,92.41903805732727,92.71900010108948,dot,[0.08],"[-0.40242150741388927, 0.27329756427278695]",density,black,,,D004,visual,5,[],"['1', '2', '3', '4']",1,2023.2.3,harveyvisual,2.1,[],8,0.75,
0,pause,0.4,None,None,None,0,259,259,259,,,,,,,,,,,,,D004,visual,5,[],"['1', '2', '3', '4']",1,2023.2.3,harveyvisual,2.1,[],8,0.75,
1,dot,0.3,['dot'],['density'],black,0,260,260,260,,,93.40021800994873,93.11898589134216,93.41897702217102,dot,[0.1],"[0.4765699730395091, 0.34560502551113614]",density,black,,,D004,visual,5,[],"['1', '2', '3', '4']",1,2023.2.3,harveyvisual,2.1,[],8,0.75,
0,pause,0.4,None,None,None,0,261,261,261,,,,,,,,,,,,,D004,visual,5,[],"['1', '2', '3', '4']",1,2023.2.3,harveyvisual,2.1,[],8,0.75,
1,dot,0.3,['dot'],['density'],black,0,262,262,262,,,94.10021090507507,93.81897211074829,94.12008905410767,dot,[0.08],"[0.1771264825789444, 0.012298414170669998]",density,black,,,D004,visual,5,[],"['1', '2', '3', '4']",1,2023.2.3,harveyvisual,2.1,[],8,0.75,
0,pause,0.4,None,None,None,0,263,263,263,,,,,,,,,,,,,D004,visual,5,[],"['1', '2', '3', '4']",1,2023.2.3,harveyvisual,2.1,[],8,0.75,
20,dot,0.3,['dot'],['density'],black,0,264,264,264,,,94.80022406578064,94.51902890205383,94.81895399093628,dot,"[0.08, 0.08, 0.08, 0.06, 0.08, 0.06, 0.06, 0.06, 0.1, 0.1, 0.1, 0.08, 0.06, 0.08, 0.08, 0.08, 0.1, 0.06, 0.06, 0.06]","[[-0.24463768474333564, 0.41809646976874515], [0.4209834221049592, -0.07806725826783589], [-0.38824654032066397, -0.41736275607882023], [-0.1818170984897996, -0.19813602748186332], [0.23718013005650196, 0.020155887132828343], [-0.4912611144038163, -0.1893682826686482], [0.039848451836949184, 0.29338034533814317], [-0.41596735261644024, 0.31689599375662014], [0.37130521041043185, 0.3992543795151644], [-0.40692699011743033, 0.04432607462662452], [-0.00599959864782007, -0.5071347746501854], [0.32281353846853, -0.3112711234516764], [0.06620647203513463, 0.4850551035241203], [0.36104660553379164, 0.1795615414486354], [-0.05846162992344839, -0.034570939238448894], [-0.6005866615609221, 0.02737295772991405], [0.07537642567645886, -0.3335165717630272], [0.5659504438120863, 0.10308966641389014], [0.5333448778554432, -0.2672027663921011], [-0.1660706204064648, 0.1615454895759536]]",density,black,,,D004,visual,5,[],"['1', '2', '3', '4']",1,2023.2.3,harveyvisual,2.1,[],8,0.75,
0,pause,0.4,None,None,None,0,265,265,265,,,,,,,,,,,,,D004,visual,5,[],"['1', '2', '3', '4']",1,2023.2.3,harveyvisual,2.1,[],8,0.75,
20,dot,0.3,['dot'],['density'],black,0,266,266,266,,,95.50022292137146,95.21894311904907,95.51897501945496,dot,"[0.08, 0.06, 0.06, 0.08, 0.08, 0.06, 0.08, 0.1, 0.06, 0.1, 0.1, 0.1, 0.1, 0.06, 0.08, 0.1, 0.08, 0.1, 0.1, 0.06]","[[-0.2928492718381931, 0.05006159270962751], [0.33221626759455125, 0.02430524281080937], [0.42081836352755164, 0.24720338113836726], [0.005903404280571012, 0.5324140899704766], [0.601187328886818, 0.025555363087167604], [0.5211693408734505, -0.3071114445112735], [0.3350389180547074, -0.18751022590712269], [0.10472626611701874, -0.01128291515337787], [-0.15401685336444926, -0.3718582832263098], [0.038193180937783566, -0.21000370860256057], [-0.5228679588859491, -0.17280769176496463], [0.3175398755047356, -0.4334372841587105], [-0.37269917468051905, -0.45150403006752976], [-0.05435484983922101, 0.09626087949841045], [-0.2647826202001717, -0.14682698277312972], [-0.1476414286768697, -0.5818068655715063], [-0.48125867992956795, 0.23106564280279768], [0.13828463977209704, 0.2768619769801208], [-0.2199605645243255, 0.38386023517147116], [0.34280753868111546, 0.46297838825192883]]",density,black,,,D004,visual,5,[],"['1', '2', '3', '4']",1,2023.2.3,harveyvisual,2.1,[],8,0.75,
0,pause,0.4,None,None,None,0,267,267,267,,,,,,,,,,,,,D004,visual,5,[],"['1', '2', '3', '4']",1,2023.2.3,harveyvisual,2.1,[],8,0.75,
