num,mod,duration,shape,ll_cond,colors,.thisRepN,.thisTrialN,.thisN,.thisIndex,thisRow.t,notes,raw_global_time,t_start,t_stop,shapes,size,pos,cond,color,button,RT,participant,session,starting_run,left button (match/odd),right button (non-match/even),samples_per_block,psychopy version,expName,offset,audio,number_runs,radius,
1,dot,0.3,['dot'],['density'],black,0,0,0,0,,,2.4002139568328857,2.116128921508789,2.415998935699463,dot,[0.1],"[0.5363314188299194, -0.14809861569100125]",density,black,,,D004,visual,5,[],"['1', '2', '3', '4']",1,2023.2.3,harveyvisual,2.1,[],8,0.75,
0,pause,0.4,None,None,None,0,1,1,1,,,,,,,,,,,,,D004,visual,5,[],"['1', '2', '3', '4']",1,2023.2.3,harveyvisual,2.1,[],8,0.75,
1,dot,0.3,['dot'],['density'],black,0,2,2,2,,,3.1002089977264404,2.7991960048675537,3.1169509887695312,dot,[0.08],"[0.4420174282329864, -0.3383815273201445]",density,black,,,D004,visual,5,[],"['1', '2', '3', '4']",1,2023.2.3,harveyvisual,2.1,[],8,0.75,
0,pause,0.4,None,None,None,0,3,3,3,,,,,,,,,,,,,D004,visual,5,[],"['1', '2', '3', '4']",1,2023.2.3,harveyvisual,2.1,[],8,0.75,
1,dot,0.3,['dot'],['density'],black,0,4,4,4,,,3.8001959323883057,3.5168941020965576,3.816946029663086,dot,[0.1],"[0.21839164384074103, 0.06179923858190914]",density,black,,,D004,visual,5,[],"['1', '2', '3', '4']",1,2023.2.3,harveyvisual,2.1,[],8,0.75,
0,pause,0.4,None,None,None,0,5,5,5,,,,,,,,,,,,,D004,visual,5,[],"['1', '2', '3', '4']",1,2023.2.3,harveyvisual,2.1,[],8,0.75,
1,dot,0.3,['dot'],['density'],black,0,6,6,6,,,4.500196933746338,4.216907024383545,4.5168750286102295,dot,[0.06],"[0.2830289625583117, -0.03026882548871228]",density,black,,,D004,visual,5,[],"['1', '2', '3', '4']",1,2023.2.3,harveyvisual,2.1,[],8,0.75,
0,pause,0.4,None,None,None,0,7,7,7,,,,,,,,,,,,,D004,visual,5,[],"['1', '2', '3', '4']",1,2023.2.3,harveyvisual,2.1,[],8,0.75,
1,dot,0.3,['dot'],['density'],black,0,8,8,8,,,5.2002129554748535,4.916879892349243,5.216878890991211,dot,[0.08],"[0.00661777001411412, 0.39634766145863237]",density,black,,,D004,visual,5,[],"['1', '2', '3', '4']",1,2023.2.3,harveyvisual,2.1,[],8,0.75,
0,pause,0.4,None,None,None,0,9,9,9,,,,,,,,,,,,,D004,visual,5,[],"['1', '2', '3', '4']",1,2023.2.3,harveyvisual,2.1,[],8,0.75,
1,dot,0.3,['dot'],['density'],black,0,10,10,10,,,5.900219917297363,5.618757009506226,5.918781042098999,dot,[0.06],"[0.2287398259034258, -0.3932960849464651]",density,black,,,D004,visual,5,[],"['1', '2', '3', '4']",1,2023.2.3,harveyvisual,2.1,[],8,0.75,
0,pause,0.4,None,None,None,0,11,11,11,,,,,,,,,,,,,D004,visual,5,[],"['1', '2', '3', '4']",1,2023.2.3,harveyvisual,2.1,[],8,0.75,
2,dot,0.3,['dot'],['density'],black,0,12,12,12,,,6.600199937820435,6.3185858726501465,6.61859393119812,dot,"[0.06, 0.1]","[[-0.21141336561075566, 0.4273762957479495], [-0.1407142259739198, 0.23984948612333498]]",density,black,,,D004,visual,5,[],"['1', '2', '3', '4']",1,2023.2.3,harveyvisual,2.1,[],8,0.75,
0,pause,0.4,None,None,None,0,13,13,13,,,,,,,,,,,,,D004,visual,5,[],"['1', '2', '3', '4']",1,2023.2.3,harveyvisual,2.1,[],8,0.75,
2,dot,0.3,['dot'],['density'],black,0,14,14,14,,,7.30021595954895,7.018593072891235,7.318563938140869,dot,"[0.1, 0.1]","[[0.11825467712572878, -0.39617910972508336], [0.05459236086910312, -0.5860717982025758]]",density,black,,,D004,visual,5,[],"['1', '2', '3', '4']",1,2023.2.3,harveyvisual,2.1,[],8,0.75,
0,pause,0.4,None,None,None,0,15,15,15,,,,,,,,,,,,,D004,visual,5,[],"['1', '2', '3', '4']",1,2023.2.3,harveyvisual,2.1,[],8,0.75,
2,dot,0.3,['dot'],['density'],black,0,16,16,16,,,8.00022006034851,7.718575954437256,8.018564939498901,dot,"[0.1, 0.1]","[[-0.16440981108753766, 0.5378091218652469], [-0.08422838651173449, 0.35445914222875186]]",density,black,,,D004,visual,5,[],"['1', '2', '3', '4']",1,2023.2.3,harveyvisual,2.1,[],8,0.75,
0,pause,0.4,None,None,None,0,17,17,17,,,,,,,,,,,,,D004,visual,5,[],"['1', '2', '3', '4']",1,2023.2.3,harveyvisual,2.1,[],8,0.75,
2,dot,0.3,['dot'],['density'],black,0,18,18,18,,,8.700212955474854,8.418549060821533,8.718551874160767,dot,"[0.08, 0.06]","[[-0.4149324818804315, 0.28007444048998836], [-0.5260390884397633, 0.11347960973083408]]",density,black,,,D004,visual,5,[],"['1', '2', '3', '4']",1,2023.2.3,harveyvisual,2.1,[],8,0.75,
0,pause,0.4,None,None,None,0,19,19,19,,,,,,,,,,,,,D004,visual,5,[],"['1', '2', '3', '4']",1,2023.2.3,harveyvisual,2.1,[],8,0.75,
2,dot,0.3,['dot'],['density'],black,0,20,20,20,,,9.400199890136719,9.118669033050537,9.418646097183228,dot,"[0.08, 0.1]","[[-0.15489633838679245, 0.20775043904852977], [-0.02477214636975436, 0.05468251249351026]]",density,black,,,D004,visual,5,[],"['1', '2', '3', '4']",1,2023.2.3,harveyvisual,2.1,[],8,0.75,
0,pause,0.4,None,None,None,0,21,21,21,,,,,,,,,,,,,D004,visual,5,[],"['1', '2', '3', '4']",1,2023.2.3,harveyvisual,2.1,[],8,0.75,
2,dot,0.3,['dot'],['density'],black,0,22,22,22,,,10.100220918655396,9.81851601600647,10.118506908416748,dot,"[0.1, 0.1]","[[0.17083311991776792, -0.05558111512160733], [0.1461049568064877, -0.25438559320493304]]",density,black,,,D004,visual,5,[],"['1', '2', '3', '4']",1,2023.2.3,harveyvisual,2.1,[],8,0.75,
0,pause,0.4,None,None,None,0,23,23,23,,,,,,,,,,,,,D004,visual,5,[],"['1', '2', '3', '4']",1,2023.2.3,harveyvisual,2.1,[],8,0.75,
3,dot,0.3,['dot'],['density'],black,0,24,24,24,,,10.800196886062622,10.518543004989624,10.818504095077515,dot,"[0.08, 0.1, 0.1]","[[-0.32034981165049564, 0.18083778238314796], [-0.3344619052850136, -0.04022521570367012], [-0.13485517643248812, 0.10330846540140716]]",density,black,,,D004,visual,5,[],"['1', '2', '3', '4']",1,2023.2.3,harveyvisual,2.1,[],8,0.75,
0,pause,0.4,None,None,None,0,25,25,25,,,,,,,,,,,,,D004,visual,5,[],"['1', '2', '3', '4']",1,2023.2.3,harveyvisual,2.1,[],8,0.75,
3,dot,0.3,['dot'],['density'],black,0,26,26,26,,,11.50019907951355,11.218504905700684,11.518480062484741,dot,"[0.1, 0.08, 0.08]","[[-0.5649268285189266, -0.02945458741690218], [-0.36332336008090005, 0.05160617148840915], [-0.5004673786076542, 0.20230308468415367]]",density,black,,,D004,visual,5,[],"['1', '2', '3', '4']",1,2023.2.3,harveyvisual,2.1,[],8,0.75,
0,pause,0.4,None,None,None,0,27,27,27,,,,,,,,,,,,,D004,visual,5,[],"['1', '2', '3', '4']",1,2023.2.3,harveyvisual,2.1,[],8,0.75,
3,dot,0.3,['dot'],['density'],black,0,28,28,28,,,12.200218915939331,11.918478965759277,12.218458890914917,dot,"[0.06, 0.1, 0.08]","[[-0.36641147837046456, 0.28339849123565264], [-0.19108570342652328, 0.4628134959899303], [-0.16564092668537764, 0.24926372681875647]]",density,black,,,D004,visual,5,[],"['1', '2', '3', '4']",1,2023.2.3,harveyvisual,2.1,[],8,0.75,
0,pause,0.4,None,None,None,0,29,29,29,,,,,,,,,,,,,D004,visual,5,[],"['1', '2', '3', '4']",1,2023.2.3,harveyvisual,2.1,[],8,0.75,
3,dot,0.3,['dot'],['density'],black,0,30,30,30,,,12.900207042694092,12.618453025817871,12.91866397857666,dot,"[0.06, 0.1, 0.1]","[[-0.31319101668702665, 0.019781348947723338], [-0.5473895760332308, 0.024991247927059115], [-0.4494119348059314, -0.1602141851013313]]",density,black,,,D004,visual,5,[],"['1', '2', '3', '4']",1,2023.2.3,harveyvisual,2.1,[],8,0.75,
0,pause,0.4,None,None,None,0,31,31,31,,,,,,,,,,,,,D004,visual,5,[],"['1', '2', '3', '4']",1,2023.2.3,harveyvisual,2.1,[],8,0.75,
3,dot,0.3,['dot'],['density'],black,0,32,32,32,,,13.600200891494751,13.318418025970459,13.618659973144531,dot,"[0.1, 0.08, 0.1]","[[-0.18534860244577742, 0.5145019772121514], [0.05660586421610542, 0.42456432010350276], [-0.11463700911578348, 0.31489985189225056]]",density,black,,,D004,visual,5,[],"['1', '2', '3', '4']",1,2023.2.3,harveyvisual,2.1,[],8,0.75,
0,pause,0.4,None,None,None,0,33,33,33,,,,,,,,,,,,,D004,visual,5,[],"['1', '2', '3', '4']",1,2023.2.3,harveyvisual,2.1,[],8,0.75,
3,dot,0.3,['dot'],['density'],white,0,34,34,34,,,14.30019497871399,14.01853609085083,14.318392038345337,dot,"[0.06, 0.1, 0.06]","[[0.4995185571857965, 0.14229679706320136], [0.2944600495073675, 0.23335097983198633], [0.330752226915583, 0.0299241169750933]]",density,white,,,D004,visual,5,[],"['1', '2', '3', '4']",1,2023.2.3,harveyvisual,2.1,[],8,0.75,
0,pause,0.4,None,None,None,0,35,35,35,,,,,,,,,,,1,14.55320692062378,D004,visual,5,[],"['1', '2', '3', '4']",1,2023.2.3,harveyvisual,2.1,[],8,0.75,
4,dot,0.3,['dot'],['density'],black,0,36,36,36,,,15.000205993652344,14.718401908874512,15.018524885177612,dot,"[0.1, 0.1, 0.06, 0.08]","[[-0.1807894278345534, -0.050693892368996955], [-0.03778933673514029, -0.29773510453537966], [0.0747201162679791, -0.1287424711559737], [-0.02241484737224569, 0.07404475448468936]]",density,black,,,D004,visual,5,[],"['1', '2', '3', '4']",1,2023.2.3,harveyvisual,2.1,[],8,0.75,
0,pause,0.4,None,None,None,0,37,37,37,,,,,,,,,,,,,D004,visual,5,[],"['1', '2', '3', '4']",1,2023.2.3,harveyvisual,2.1,[],8,0.75,
4,dot,0.3,['dot'],['density'],black,0,38,38,38,,,15.700202941894531,15.41851806640625,15.718508958816528,dot,"[0.06, 0.1, 0.08, 0.06]","[[-0.03907102058372138, -0.1723346686752248], [0.13255167928633116, -0.03782047714335622], [0.2720101467217329, -0.23443565690461937], [0.07080951743106016, -0.35239766365090747]]",density,black,,,D004,visual,5,[],"['1', '2', '3', '4']",1,2023.2.3,harveyvisual,2.1,[],8,0.75,
0,pause,0.4,None,None,None,0,39,39,39,,,,,,,,,,,,,D004,visual,5,[],"['1', '2', '3', '4']",1,2023.2.3,harveyvisual,2.1,[],8,0.75,
4,dot,0.3,['dot'],['density'],black,0,40,40,40,,,16.400218963623047,16.11852502822876,16.418351888656616,dot,"[0.1, 0.06, 0.1, 0.1]","[[0.37520814465037905, -0.4432880181017862], [0.4692830223283075, -0.19655799526205012], [0.3063896805601884, -0.036788685454167226], [0.2471196723673293, -0.2344474043623998]]",density,black,,,D004,visual,5,[],"['1', '2', '3', '4']",1,2023.2.3,harveyvisual,2.1,[],8,0.75,
0,pause,0.4,None,None,None,0,41,41,41,,,,,,,,,,,,,D004,visual,5,[],"['1', '2', '3', '4']",1,2023.2.3,harveyvisual,2.1,[],8,0.75,
4,dot,0.3,['dot'],['density'],black,0,42,42,42,,,17.100214958190918,16.818532943725586,17.118354082107544,dot,"[0.1, 0.1, 0.06, 0.06]","[[-0.24231220575667195, -0.22966258239168486], [-0.5136420973432148, -0.13696856920477488], [-0.4300726721285167, 0.13088957628356482], [-0.3148289313469241, -0.03851715211982174]]",density,black,,,D004,visual,5,[],"['1', '2', '3', '4']",1,2023.2.3,harveyvisual,2.1,[],8,0.75,
0,pause,0.4,None,None,None,0,43,43,43,,,,,,,,,,,,,D004,visual,5,[],"['1', '2', '3', '4']",1,2023.2.3,harveyvisual,2.1,[],8,0.75,
4,dot,0.3,['dot'],['density'],black,0,44,44,44,,,17.80020809173584,17.51831293106079,17.81853699684143,dot,"[0.08, 0.1, 0.08, 0.1]","[[0.06081986304483943, 0.35358512719402324], [0.4232304195196481, 0.14579533924648716], [0.12419639750553536, 0.133833625718984], [0.26609561976711055, 0.2970795792082364]]",density,black,,,D004,visual,5,[],"['1', '2', '3', '4']",1,2023.2.3,harveyvisual,2.1,[],8,0.75,
0,pause,0.4,None,None,None,0,45,45,45,,,,,,,,,,,,,D004,visual,5,[],"['1', '2', '3', '4']",1,2023.2.3,harveyvisual,2.1,[],8,0.75,
4,dot,0.3,['dot'],['density'],white,0,46,46,46,,,18.500221967697144,18.218427896499634,18.518430948257446,dot,"[0.08, 0.1, 0.1, 0.1]","[[-0.22711054503220823, -0.5144049053218714], [-0.016307770745122817, -0.5558659767831347], [-0.26432457165568224, -0.2824025039497699], [-0.026303944553407815, -0.34464361634901186]]",density,white,,,D004,visual,5,[],"['1', '2', '3', '4']",1,2023.2.3,harveyvisual,2.1,[],8,0.75,
0,pause,0.4,None,None,None,0,47,47,47,,,,,,,,,,,1,18.595519065856934,D004,visual,5,[],"['1', '2', '3', '4']",1,2023.2.3,harveyvisual,2.1,[],8,0.75,
5,dot,0.3,['dot'],['density'],black,0,48,48,48,,,19.20021390914917,18.91828203201294,19.21840000152588,dot,"[0.1, 0.1, 0.1, 0.1, 0.08]","[[-0.18510638544872327, 0.41559840932892733], [-0.057175862535637494, 0.18304904272057057], [0.24003340414173915, 0.43371676657957026], [0.006490958465160464, 0.4770521622163581], [0.13658455045585424, 0.2476502540597336]]",density,black,,,D004,visual,5,[],"['1', '2', '3', '4']",1,2023.2.3,harveyvisual,2.1,[],8,0.75,
0,pause,0.4,None,None,None,0,49,49,49,,,,,,,,,,,,,D004,visual,5,[],"['1', '2', '3', '4']",1,2023.2.3,harveyvisual,2.1,[],8,0.75,
5,dot,0.3,['dot'],['density'],black,0,50,50,50,,,19.900218963623047,19.618270874023438,19.918232917785645,dot,"[0.1, 0.08, 0.1, 0.06, 0.08]","[[-0.07969108163070573, 0.258241044050758], [-0.3301768112222262, 0.22562982972330062], [-0.16453040906828167, -0.1622271318141552], [-0.21753854086321037, 0.04365873274764029], [0.030347216865940038, 0.07834852794011457]]",density,black,,,D004,visual,5,[],"['1', '2', '3', '4']",1,2023.2.3,harveyvisual,2.1,[],8,0.75,
0,pause,0.4,None,None,None,0,51,51,51,,,,,,,,,,,,,D004,visual,5,[],"['1', '2', '3', '4']",1,2023.2.3,harveyvisual,2.1,[],8,0.75,
5,dot,0.3,['dot'],['density'],black,0,52,52,52,,,20.6001980304718,20.318226099014282,20.618226051330566,dot,"[0.1, 0.08, 0.08, 0.1, 0.06]","[[-0.15120343604734773, 0.13880483605515373], [-0.27543704003083597, 0.3074941448909677], [-0.47853302670601033, 0.30949922786165307], [-0.3682774975032249, -0.13900280599659498], [-0.34692227301900613, 0.0889564565184539]]",density,black,,,D004,visual,5,[],"['1', '2', '3', '4']",1,2023.2.3,harveyvisual,2.1,[],8,0.75,
0,pause,0.4,None,None,None,0,53,53,53,,,,,,,,,,,,,D004,visual,5,[],"['1', '2', '3', '4']",1,2023.2.3,harveyvisual,2.1,[],8,0.75,
5,dot,0.3,['dot'],['density'],black,0,54,54,54,,,21.300205945968628,21.018220901489258,21.318193912506104,dot,"[0.06, 0.1, 0.08, 0.1, 0.06]","[[-0.2338402938730933, 0.15846616122991625], [-0.3229678957369872, -0.0901175890533356], [-0.5034912146055804, 0.021834460539281654], [-0.23914892391179104, -0.28496604153387733], [-0.10132718886958789, -0.1172648190903725]]",density,black,,,D004,visual,5,[],"['1', '2', '3', '4']",1,2023.2.3,harveyvisual,2.1,[],8,0.75,
0,pause,0.4,None,None,None,0,55,55,55,,,,,,,,,,,,,D004,visual,5,[],"['1', '2', '3', '4']",1,2023.2.3,harveyvisual,2.1,[],8,0.75,
5,dot,0.3,['dot'],['density'],black,0,56,56,56,,,22.000216960906982,21.71821904182434,22.018189907073975,dot,"[0.06, 0.06, 0.08, 0.08, 0.08]","[[-0.4709100701083565, 0.02189337908226187], [-0.29145525575644754, 0.3795081276742083], [-0.23690205020139254, 0.016868774910060797], [-0.4278442329265702, 0.22919645259494104], [-0.09991604659712162, 0.23043195716445664]]",density,black,,,D004,visual,5,[],"['1', '2', '3', '4']",1,2023.2.3,harveyvisual,2.1,[],8,0.75,
0,pause,0.4,None,None,None,0,57,57,57,,,,,,,,,,,,,D004,visual,5,[],"['1', '2', '3', '4']",1,2023.2.3,harveyvisual,2.1,[],8,0.75,
5,dot,0.3,['dot'],['density'],black,0,58,58,58,,,22.70021104812622,22.418195962905884,22.718192100524902,dot,"[0.08, 0.08, 0.06, 0.1, 0.06]","[[-0.4709100701083565, 0.02189337908226187], [-0.29145525575644754, 0.3795081276742083], [-0.23690205020139254, 0.016868774910060797], [-0.4278442329265702, 0.22919645259494104], [-0.09991604659712162, 0.23043195716445664]]",density,black,,,D004,visual,5,[],"['1', '2', '3', '4']",1,2023.2.3,harveyvisual,2.1,[],8,0.75,
0,pause,0.4,None,None,None,0,59,59,59,,,,,,,,,,,,,D004,visual,5,[],"['1', '2', '3', '4']",1,2023.2.3,harveyvisual,2.1,[],8,0.75,
6,dot,0.3,['dot'],['density'],black,0,60,60,60,,,23.400213956832886,23.118181943893433,23.418155908584595,dot,"[0.06, 0.1, 0.06, 0.1, 0.06, 0.06]","[[-0.560843418842529, -0.11752527585456686], [-0.31277608783648175, 0.04003545118838376], [-0.18207900664359264, -0.3652956678781814], [-0.41442909117718774, -0.4038021739217259], [-0.14446849917993246, -0.07035639226176245], [-0.3420415871796019, -0.1631057353810994]]",density,black,,,D004,visual,5,[],"['1', '2', '3', '4']",1,2023.2.3,harveyvisual,2.1,[],8,0.75,
0,pause,0.4,None,None,None,0,61,61,61,,,,,,,,,,,,,D004,visual,5,[],"['1', '2', '3', '4']",1,2023.2.3,harveyvisual,2.1,[],8,0.75,
6,dot,0.3,['dot'],['density'],black,0,62,62,62,,,24.100204944610596,23.818154096603394,24.118139028549194,dot,"[0.1, 0.1, 0.08, 0.1, 0.1, 0.1]","[[0.1382403832049451, 0.0462086450304607], [-0.07534018949214154, -0.3274433807795599], [0.3332171610134826, -0.14895102818546319], [0.22614943412716124, -0.3322834867125916], [-0.0756450994425101, -0.005640117700353421], [0.0938048843888254, -0.16909843217532775]]",density,black,,,D004,visual,5,[],"['1', '2', '3', '4']",1,2023.2.3,harveyvisual,2.1,[],8,0.75,
0,pause,0.4,None,None,None,0,63,63,63,,,,,,,,,,,,,D004,visual,5,[],"['1', '2', '3', '4']",1,2023.2.3,harveyvisual,2.1,[],8,0.75,
6,dot,0.3,['dot'],['density'],black,0,64,64,64,,,24.800215005874634,24.518136978149414,24.818111896514893,dot,"[0.06, 0.1, 0.06, 0.1, 0.1, 0.06]","[[-0.36904347190091025, 0.2789229011504548], [-0.01038079434194998, 0.053649704929766846], [-0.08735338951653393, 0.578282782753283], [5.153534382930422e-05, 0.38446941554394387], [-0.22753401468201206, 0.43210907521897474], [-0.14647282530567177, 0.24517240432070728]]",density,black,,,D004,visual,5,[],"['1', '2', '3', '4']",1,2023.2.3,harveyvisual,2.1,[],8,0.75,
0,pause,0.4,None,None,None,0,65,65,65,,,,,,,,,,,,,D004,visual,5,[],"['1', '2', '3', '4']",1,2023.2.3,harveyvisual,2.1,[],8,0.75,
6,dot,0.3,['dot'],['density'],black,0,66,66,66,,,25.500209093093872,25.21811008453369,25.518253087997437,dot,"[0.06, 0.1, 0.1, 0.1, 0.06, 0.1]","[[-0.3078382271761739, 0.4361778186671046], [-0.059169983783578364, 0.44796520308269433], [-0.3209935464877752, 0.22545519901795916], [-0.10826469778565927, 0.24929594343002343], [-0.016554185736113114, 0.06783813438016018], [-0.29360476626160575, 0.00756342739423081]]",density,black,,,D004,visual,5,[],"['1', '2', '3', '4']",1,2023.2.3,harveyvisual,2.1,[],8,0.75,
0,pause,0.4,None,None,None,0,67,67,67,,,,,,,,,,,,,D004,visual,5,[],"['1', '2', '3', '4']",1,2023.2.3,harveyvisual,2.1,[],8,0.75,
6,dot,0.3,['dot'],['density'],white,0,68,68,68,,,26.200207948684692,25.918222904205322,26.218211889266968,dot,"[0.1, 0.08, 0.08, 0.06, 0.06, 0.06]","[[-0.060066269329224556, -0.3459973645598818], [-0.2267112282887438, -0.46433083725857055], [-0.03368736353914721, -0.0592740518520544], [0.1129416353875032, -0.20466059509733167], [0.13908697530976044, -0.42386339769443276], [-0.2931789080149146, -0.2669036372638095]]",density,white,,,D004,visual,5,[],"['1', '2', '3', '4']",1,2023.2.3,harveyvisual,2.1,[],8,0.75,
0,pause,0.4,None,None,None,0,69,69,69,,,,,,,,,,,1,26.27876091003418,D004,visual,5,[],"['1', '2', '3', '4']",1,2023.2.3,harveyvisual,2.1,[],8,0.75,
6,dot,0.3,['dot'],['density'],black,0,70,70,70,,,26.900202989578247,26.61819887161255,26.91807794570923,dot,"[0.06, 0.08, 0.06, 0.06, 0.08, 0.08]","[[0.1643264729387965, -0.2471077239796436], [-0.22534804549937193, -0.4918728234310363], [-0.026166131246113146, -0.09278119687647148], [-0.24451989516519138, -0.21339523607155425], [0.11868454116144263, -0.4574197693624388], [-0.058907778787058426, -0.30919141315076737]]",density,black,,,D004,visual,5,[],"['1', '2', '3', '4']",1,2023.2.3,harveyvisual,2.1,[],8,0.75,
0,pause,0.4,None,None,None,0,71,71,71,,,,,,,,,,,,,D004,visual,5,[],"['1', '2', '3', '4']",1,2023.2.3,harveyvisual,2.1,[],8,0.75,
7,dot,0.3,['dot'],['density'],black,0,72,72,72,,,27.600220918655396,27.318198919296265,27.61818504333496,dot,"[0.1, 0.06, 0.06, 0.06, 0.08, 0.1, 0.1]","[[-0.27819289690075527, 0.2483046813246476], [-0.5592260237138849, -0.07980801324287977], [-0.026637344717372308, -0.10521889364121585], [-0.16909952645659185, 0.05101222878256789], [-0.21868546305501066, -0.16482274839932262], [-0.3689572500107929, 0.03738969849335829], [-0.49227831811218986, 0.2063327632277477]]",density,black,,,D004,visual,5,[],"['1', '2', '3', '4']",1,2023.2.3,harveyvisual,2.1,[],8,0.75,
0,pause,0.4,None,None,None,0,73,73,73,,,,,,,,,,,,,D004,visual,5,[],"['1', '2', '3', '4']",1,2023.2.3,harveyvisual,2.1,[],8,0.75,
7,dot,0.3,['dot'],['density'],white,0,74,74,74,,,28.30021095275879,28.01816701889038,28.318159103393555,dot,"[0.06, 0.08, 0.06, 0.08, 0.1, 0.08, 0.06]","[[0.3899189512010899, -0.40728696153528776], [0.20392863561369634, -0.3305625840210526], [0.31626985815109576, 0.13567824844623666], [0.5017338684339655, -0.028549680114735937], [0.11648855723187378, -0.1078833072829627], [0.07041138378868489, 0.08730219371944997], [0.32910598476010167, -0.13660711058181768]]",density,white,,,D004,visual,5,[],"['1', '2', '3', '4']",1,2023.2.3,harveyvisual,2.1,[],8,0.75,
0,pause,0.4,None,None,None,0,75,75,75,,,,,,,,,,,1,28.41794991493225,D004,visual,5,[],"['1', '2', '3', '4']",1,2023.2.3,harveyvisual,2.1,[],8,0.75,
7,dot,0.3,['dot'],['density'],black,0,76,76,76,,,29.000214099884033,28.71815800666809,29.018030881881714,dot,"[0.1, 0.06, 0.1, 0.1, 0.08, 0.1, 0.08]","[[-0.3616029487054454, 0.4456424486886853], [-0.1496406170718537, 0.08450683720449656], [-0.4229793897960434, 0.19545916586121675], [-0.050735401720141765, 0.4582308035931027], [-0.23416009772798219, 0.28880413379285297], [0.00916417092529717, 0.20866532064640267], [0.0895043828575618, 0.020292244516940467]]",density,black,,,D004,visual,5,[],"['1', '2', '3', '4']",1,2023.2.3,harveyvisual,2.1,[],8,0.75,
0,pause,0.4,None,None,None,0,77,77,77,,,,,,,,,,,,,D004,visual,5,[],"['1', '2', '3', '4']",1,2023.2.3,harveyvisual,2.1,[],8,0.75,
7,dot,0.3,['dot'],['density'],black,0,78,78,78,,,29.700212001800537,29.41800093650818,29.71800398826599,dot,"[0.08, 0.1, 0.06, 0.08, 0.1, 0.1, 0.06]","[[0.2037857981676222, -0.1815971672986122], [0.4890839798603071, 0.25295445478885614], [0.1294833597440532, 0.050421522491765555], [0.5249724357971474, 0.014331621614536631], [0.4084294087299191, -0.1546943519977724], [0.31356179590401956, 0.13415696527685209], [-0.016262925640377804, -0.1588315022511765]]",density,black,,,D004,visual,5,[],"['1', '2', '3', '4']",1,2023.2.3,harveyvisual,2.1,[],8,0.75,
0,pause,0.4,None,None,None,0,79,79,79,,,,,,,,,,,,,D004,visual,5,[],"['1', '2', '3', '4']",1,2023.2.3,harveyvisual,2.1,[],8,0.75,
7,dot,0.3,['dot'],['density'],black,0,80,80,80,,,30.400214910507202,30.11801791191101,30.418104887008667,dot,"[0.1, 0.06, 0.08, 0.08, 0.08, 0.1, 0.08]","[[-0.4069355390488937, 0.37207368581823036], [-0.24593577727054447, 0.19917396778247878], [-0.42360727833657225, -0.08003411738888748], [-0.22269992972584096, -0.007913174381400552], [-0.5458110461780458, 0.2006057762678532], [-0.12767295506375728, 0.3689678629588407], [-0.26313434255033313, 0.5223746060296944]]",density,black,,,D004,visual,5,[],"['1', '2', '3', '4']",1,2023.2.3,harveyvisual,2.1,[],8,0.75,
0,pause,0.4,None,None,None,0,81,81,81,,,,,,,,,,,,,D004,visual,5,[],"['1', '2', '3', '4']",1,2023.2.3,harveyvisual,2.1,[],8,0.75,
7,dot,0.3,['dot'],['density'],black,0,82,82,82,,,31.100215911865234,30.818105936050415,31.118118047714233,dot,"[0.08, 0.08, 0.08, 0.08, 0.08, 0.06, 0.08]","[[-0.08751196138777266, -0.40239331021683095], [-0.1389983634140625, -0.1821537091642013], [-0.5212097088452917, -0.15879536445288125], [-0.24197016774290594, 0.025691971861017886], [-0.324083892787021, -0.3083678109532634], [0.06465625853811506, -0.19815494036826437], [-0.2569867334647868, -0.5155038850209747]]",density,black,,,D004,visual,5,[],"['1', '2', '3', '4']",1,2023.2.3,harveyvisual,2.1,[],8,0.75,
0,pause,0.4,None,None,None,0,83,83,83,,,,,,,,,,,,,D004,visual,5,[],"['1', '2', '3', '4']",1,2023.2.3,harveyvisual,2.1,[],8,0.75,
8,dot,0.3,['dot'],['density'],white,0,84,84,84,,,31.80022096633911,31.518075942993164,31.818072080612183,dot,"[0.06, 0.1, 0.1, 0.1, 0.1, 0.08, 0.08, 0.06]","[[-0.0012777187897950197, 0.3966007492927722], [-0.28447363834021117, 0.3159852715582059], [0.19942587273623266, 0.5530929527666414], [0.21318140018031628, 0.35154814550636243], [0.2022184519229619, 0.1402347591191321], [-0.03399167273692697, 0.18426518172063944], [0.09045107803968953, -0.0428478536761596], [-0.13826990130262626, -0.021750669296841257]]",density,white,,,D004,visual,5,[],"['1', '2', '3', '4']",1,2023.2.3,harveyvisual,2.1,[],8,0.75,
0,pause,0.4,None,None,None,0,85,85,85,,,,,,,,,,,1,31.962212085723877,D004,visual,5,[],"['1', '2', '3', '4']",1,2023.2.3,harveyvisual,2.1,[],8,0.75,
8,dot,0.3,['dot'],['density'],black,0,86,86,86,,,32.50020098686218,32.217928886413574,32.51792597770691,dot,"[0.1, 0.08, 0.06, 0.08, 0.1, 0.1, 0.08, 0.08]","[[-0.503192831713878, 0.2818759502405315], [-0.1851508851951268, 0.5121570681976513], [-0.3428391331654375, 0.06336275884690255], [-0.2620893383019587, 0.2653373399092269], [-0.09201493982796581, 0.138249408295409], [-0.14188251758679749, -0.08598668861617832], [-0.5391716430792404, 0.01870596234549803], [-0.2779852747659758, -0.23950462846526258]]",density,black,,,D004,visual,5,[],"['1', '2', '3', '4']",1,2023.2.3,harveyvisual,2.1,[],8,0.75,
0,pause,0.4,None,None,None,0,87,87,87,,,,,,,,,,,,,D004,visual,5,[],"['1', '2', '3', '4']",1,2023.2.3,harveyvisual,2.1,[],8,0.75,
8,dot,0.3,['dot'],['density'],black,0,88,88,88,,,33.2002010345459,32.91794800758362,33.21789288520813,dot,"[0.08, 0.08, 0.06, 0.08, 0.08, 0.1, 0.1, 0.08]","[[-0.20800618360187478, -0.297823595680997], [0.0208603014005115, -0.46570844314230314], [-0.33947416747489917, -0.46414587466331364], [-0.2657502487478435, -0.0024929956194721667], [-0.07971030345085922, -0.1368829558420488], [0.12327021606192319, -0.12614842517591618], [-0.10944837079043952, 0.12795643756026515], [-0.4050023469846894, -0.16101207847090707]]",density,black,,,D004,visual,5,[],"['1', '2', '3', '4']",1,2023.2.3,harveyvisual,2.1,[],8,0.75,
0,pause,0.4,None,None,None,0,89,89,89,,,,,,,,,,,,,D004,visual,5,[],"['1', '2', '3', '4']",1,2023.2.3,harveyvisual,2.1,[],8,0.75,
8,dot,0.3,['dot'],['density'],black,0,90,90,90,,,33.900206089019775,33.61790108680725,33.91789698600769,dot,"[0.1, 0.06, 0.1, 0.1, 0.06, 0.1, 0.06, 0.1]","[[-0.2875956673588428, -0.37608972473646446], [0.1738442798715151, -0.5418380206356169], [-0.005791994605287101, -0.36400925298789194], [0.15381919852689818, -0.2106776783026027], [-0.02243369038452208, -0.11017027562433494], [-0.1375601387891928, -0.5383184991665005], [0.3481619806761259, -0.4256719133417836], [-0.2437856683810358, -0.16373273019932677]]",density,black,,,D004,visual,5,[],"['1', '2', '3', '4']",1,2023.2.3,harveyvisual,2.1,[],8,0.75,
0,pause,0.4,None,None,None,0,91,91,91,,,,,,,,,,,,,D004,visual,5,[],"['1', '2', '3', '4']",1,2023.2.3,harveyvisual,2.1,[],8,0.75,
8,dot,0.3,['dot'],['density'],black,0,92,92,92,,,34.60020089149475,34.3178870677948,34.6178719997406,dot,"[0.08, 0.1, 0.06, 0.1, 0.06, 0.06, 0.1, 0.06]","[[-0.24177141476747963, 0.37227001522147646], [0.022885153928237218, 0.26973630011126315], [-0.028424808126663318, 0.474031493095366], [-0.14677856605916886, 0.1510981622513803], [-0.33541894344674456, 0.07730913931898181], [0.10840621230513336, 0.04997884008138209], [0.30094222783758756, 0.17024461371702543], [-0.056701880949321645, -0.08542646800774611]]",density,black,,,D004,visual,5,[],"['1', '2', '3', '4']",1,2023.2.3,harveyvisual,2.1,[],8,0.75,
0,pause,0.4,None,None,None,0,93,93,93,,,,,,,,,,,,,D004,visual,5,[],"['1', '2', '3', '4']",1,2023.2.3,harveyvisual,2.1,[],8,0.75,
8,dot,0.3,['dot'],['density'],black,0,94,94,94,,,35.300222873687744,35.01786994934082,35.31785607337952,dot,"[0.06, 0.1, 0.06, 0.08, 0.1, 0.06, 0.1, 0.06]","[[-0.13470540342303577, 0.06408260861786476], [-0.32633744656496655, 0.15045505181492372], [-0.2908673593763413, -0.0762007135190446], [-0.5368971138264618, 0.18470905249118252], [0.055331558945424124, 0.1732254888039505], [-0.30909967543404826, 0.3845911877556102], [-0.0777863596696305, 0.41921053595603236], [0.03181857584637903, -0.08967320215721851]]",density,black,,,D004,visual,5,[],"['1', '2', '3', '4']",1,2023.2.3,harveyvisual,2.1,[],8,0.75,
0,pause,0.4,None,None,None,0,95,95,95,,,,,,,,,,,,,D004,visual,5,[],"['1', '2', '3', '4']",1,2023.2.3,harveyvisual,2.1,[],8,0.75,
9,dot,0.3,['dot'],['density'],black,0,96,96,96,,,36.00020408630371,35.717851877212524,36.017833948135376,dot,"[0.06, 0.06, 0.08, 0.08, 0.06, 0.06, 0.1, 0.08, 0.1]","[[-0.08858128315591524, -0.3480052213079807], [0.37291707470974605, -0.0809562497479422], [-0.04311872097798103, 0.23152249840731254], [0.1734412630875083, -0.16491363602164627], [-0.024044713080900382, -0.04824256513196188], [0.126438571592319, 0.09122014985587756], [-0.2168202887682383, 0.11190421567656858], [-0.23215605484234547, -0.20356583507002532], [0.291417597339289, 0.24351333182926893]]",density,black,,,D004,visual,5,[],"['1', '2', '3', '4']",1,2023.2.3,harveyvisual,2.1,[],8,0.75,
0,pause,0.4,None,None,None,0,97,97,97,,,,,,,,,,,,,D004,visual,5,[],"['1', '2', '3', '4']",1,2023.2.3,harveyvisual,2.1,[],8,0.75,
9,dot,0.3,['dot'],['density'],black,0,98,98,98,,,36.70022106170654,36.41782188415527,36.717814922332764,dot,"[0.08, 0.08, 0.06, 0.08, 0.06, 0.06, 0.08, 0.06, 0.06]","[[0.1897356465634014, 0.5279682873488559], [0.32378874068874214, 0.21764355715549547], [-0.02258392144612686, 0.1538672511300514], [0.18768343673053406, 0.06258281167321837], [0.4001161654736714, 0.031858124591620046], [0.03700916369328307, 0.37047593331345124], [0.18810723797826276, -0.14148750743097815], [-0.1502435433980558, -0.03059561201510329], [-0.21808568641731116, 0.28352793851031305]]",density,black,,,D004,visual,5,[],"['1', '2', '3', '4']",1,2023.2.3,harveyvisual,2.1,[],8,0.75,
0,pause,0.4,None,None,None,0,99,99,99,,,,,,,,,,,,,D004,visual,5,[],"['1', '2', '3', '4']",1,2023.2.3,harveyvisual,2.1,[],8,0.75,
9,dot,0.3,['dot'],['density'],black,0,100,100,100,,,37.400222063064575,37.11781692504883,37.41780090332031,dot,"[0.06, 0.1, 0.1, 0.06, 0.08, 0.08, 0.06, 0.06, 0.08]","[[-0.08351644510687262, 0.021707353155035948], [0.11173555070370329, 0.3931220271068859], [-0.15396522232717408, 0.3423719725559184], [0.23829169989725132, 0.186218803300476], [-0.29008049122260166, 0.17395274189193027], [0.2491440638781109, -0.04662568063892593], [-0.2854023508218629, -0.06307984259985559], [0.003596708871689959, 0.21717875760955796], [-0.47489413548496523, 0.030788186259843496]]",density,black,,,D004,visual,5,[],"['1', '2', '3', '4']",1,2023.2.3,harveyvisual,2.1,[],8,0.75,
0,pause,0.4,None,None,None,0,101,101,101,,,,,,,,,,,,,D004,visual,5,[],"['1', '2', '3', '4']",1,2023.2.3,harveyvisual,2.1,[],8,0.75,
9,dot,0.3,['dot'],['density'],white,0,102,102,102,,,38.100215911865234,37.81778597831726,38.117918968200684,dot,"[0.1, 0.1, 0.06, 0.06, 0.08, 0.1, 0.08, 0.08, 0.1]","[[0.5571797577834091, 0.07732674165650813], [0.16332656704353227, -0.09331314560094064], [0.4138178119161903, 0.3925230053806507], [0.28711316854655766, 0.07147022394212545], [0.052100496024031176, 0.3810199549023822], [0.2172039135420496, 0.26337040755706287], [-0.2646845915772586, 0.12849707234668142], [0.21844181080216274, 0.4926952285236599], [0.0761275456309072, 0.11718001140956479]]",density,white,,,D004,visual,5,[],"['1', '2', '3', '4']",1,2023.2.3,harveyvisual,2.1,[],8,0.75,
0,pause,0.4,None,None,None,0,103,103,103,,,,,,,,,,,1,38.290956020355225,D004,visual,5,[],"['1', '2', '3', '4']",1,2023.2.3,harveyvisual,2.1,[],8,0.75,
9,dot,0.3,['dot'],['density'],white,0,104,104,104,,,38.80020308494568,38.51789307594299,38.81789493560791,dot,"[0.08, 0.1, 0.1, 0.1, 0.06, 0.08, 0.1, 0.1, 0.06]","[[0.5610971552988853, -0.17060184332349634], [0.41375718760989944, -0.015869013459887487], [0.10524493337967332, -0.4151143617417518], [0.33762937987512565, -0.21166948995529247], [0.31978246251342735, -0.42403070142702926], [0.14918584865882126, 0.054317793641313596], [-0.13687229080136074, -0.3544767643123256], [-0.14284940328496695, -0.15361328447573858], [0.09035025664413378, -0.16809195260635462]]",density,white,,,D004,visual,5,[],"['1', '2', '3', '4']",1,2023.2.3,harveyvisual,2.1,[],8,0.75,
0,pause,0.4,None,None,None,0,105,105,105,,,,,,,,,,,1,38.95324087142944,D004,visual,5,[],"['1', '2', '3', '4']",1,2023.2.3,harveyvisual,2.1,[],8,0.75,
9,dot,0.3,['dot'],['density'],white,0,106,106,106,,,39.5002179145813,39.2178909778595,39.51792502403259,dot,"[0.06, 0.06, 0.1, 0.06, 0.08, 0.06, 0.1, 0.06, 0.06]","[[0.5176022259896301, 0.07013652950073157], [0.29073914382076843, 0.49095716113391286], [0.25755010907869064, 0.10321661572421419], [0.11549350267606502, 0.37871636325142816], [-0.040248060121338324, 0.07603447111469516], [0.35733910828644905, -0.07238149579930037], [0.09184169877402729, -0.10424630849328012], [-0.10934901156313583, -0.14911132891814113], [0.4158094160330474, 0.26019999263529187]]",density,white,,,D004,visual,5,[],"['1', '2', '3', '4']",1,2023.2.3,harveyvisual,2.1,[],8,0.75,
0,pause,0.4,None,None,None,0,107,107,107,,,,,,,,,,,1,39.56232690811157,D004,visual,5,[],"['1', '2', '3', '4']",1,2023.2.3,harveyvisual,2.1,[],8,0.75,
20,dot,0.3,['dot'],['density'],black,0,108,108,108,,,40.200222969055176,39.91791391372681,40.21788001060486,dot,"[0.1, 0.08, 0.06, 0.1, 0.06, 0.1, 0.06, 0.08, 0.06, 0.1, 0.08, 0.08, 0.08, 0.06, 0.06, 0.06, 0.1, 0.06, 0.1, 0.08]","[[-0.5265862356807048, 0.20998665762507557], [-0.33954934603274556, 0.49149605309305666], [-0.37652737033515804, -0.3086902711850174], [-0.06625045381841699, 0.15053796104065542], [0.4036817791958659, 0.2954664476166056], [0.27274936456467747, -0.2848643107579018], [0.4960495167923672, -0.22332761685700697], [0.29362395568190536, 0.46094122150501604], [0.32874188642144153, 0.10934867631133327], [0.5315561011674917, 0.13121893638917037], [-0.30439761849746294, -0.04985397954825771], [0.016838778323680303, -0.6049269087426193], [-0.5750262533515881, -0.058589241847509466], [-0.0561669713072257, -0.13155988759661463], [0.07227491369032968, 0.45268766394260107], [0.3343202174385277, -0.472603216467073], [-0.16383771926793916, -0.42363558211600294], [-0.11528393224808775, 0.37648556253716936], [0.14044287306891357, -0.10205076836664878], [0.06816035349058192, -0.2978975246628365]]",density,black,,,D004,visual,5,[],"['1', '2', '3', '4']",1,2023.2.3,harveyvisual,2.1,[],8,0.75,
0,pause,0.4,None,None,None,0,109,109,109,,,,,,,,,,,,,D004,visual,5,[],"['1', '2', '3', '4']",1,2023.2.3,harveyvisual,2.1,[],8,0.75,
20,dot,0.3,['dot'],['density'],black,0,110,110,110,,,40.900206089019775,40.617902994155884,40.91798496246338,dot,"[0.08, 0.08, 0.06, 0.06, 0.1, 0.06, 0.1, 0.08, 0.08, 0.08, 0.08, 0.06, 0.1, 0.08, 0.1, 0.06, 0.08, 0.08, 0.06, 0.08]","[[-0.09126935296526095, -0.4441534474994808], [-0.21593018314016738, -0.1477756104926169], [0.41430181535934973, 0.11019066320046783], [0.4835017803563101, -0.34799618950509076], [0.21779417168528736, -0.5642061673851869], [0.22975528343332907, -0.2138873997574312], [0.02269329998631764, 0.06002919841843746], [-0.5409503949368389, -0.0397190204778122], [-0.0008900170477000868, 0.5455764555044924], [0.5699989905257244, -0.11806623418510777], [-0.4276475581488873, -0.3241808401988149], [0.14350187047241048, 0.3028402080207877], [-0.25785021604809977, 0.41978175298286813], [-0.5124856913622244, 0.21261239940661653], [0.35815175467630866, 0.439772198904507], [0.361884765868592, -0.07197973798305818], [-0.21001776279708761, 0.18985879827143093], [-0.003839656595070462, -0.23341726932286927], [-0.2868121019150348, -0.45121742161594913], [0.5378533158220881, 0.26241607568046854]]",density,black,,,D004,visual,5,[],"['1', '2', '3', '4']",1,2023.2.3,harveyvisual,2.1,[],8,0.75,
0,pause,0.4,None,None,None,0,111,111,111,,,,,,,,,,,,,D004,visual,5,[],"['1', '2', '3', '4']",1,2023.2.3,harveyvisual,2.1,[],8,0.75,
20,dot,0.3,['dot'],['density'],black,0,112,112,112,,,41.600204944610596,41.317975997924805,41.61792993545532,dot,"[0.1, 0.08, 0.08, 0.08, 0.08, 0.08, 0.06, 0.1, 0.1, 0.06, 0.08, 0.06, 0.06, 0.1, 0.08, 0.06, 0.06, 0.08, 0.1, 0.06]","[[-0.4090812171456847, 0.34946896348063533], [0.2503534458408828, 0.07568027810428124], [0.47605213345300357, -0.08658128120044989], [0.0920695044631028, -0.06552279219478319], [-0.03354370046702049, 0.5802274455198193], [-0.40860664809122366, -0.04685997587089019], [0.37070692447399833, 0.3349583719106961], [0.5837870110690592, 0.15935109690152102], [-0.5653556527992925, 0.15736876621065204], [-0.20434340343892965, 0.04134149212565352], [0.26489682199799003, -0.3250679307568499], [-0.17119647311372704, -0.43761043497955815], [-0.08037947140161394, 0.36624792848425547], [-0.3961780337760919, -0.33048363765967315], [0.06283377178730498, 0.12698201773190687], [-0.018447421197360314, -0.31045211223328534], [0.18007331947607597, 0.3791912882105065], [-0.58538953032477, -0.13921821790554148], [-0.20644085520329025, -0.19126649698352194], [0.47094611215287385, -0.2799121467966452]]",density,black,,,D004,visual,5,[],"['1', '2', '3', '4']",1,2023.2.3,harveyvisual,2.1,[],8,0.75,
0,pause,0.4,None,None,None,0,113,113,113,,,,,,,,,,,,,D004,visual,5,[],"['1', '2', '3', '4']",1,2023.2.3,harveyvisual,2.1,[],8,0.75,
20,dot,0.3,['dot'],['density'],black,0,114,114,114,,,42.30020809173584,42.01793694496155,42.317816972732544,dot,"[0.1, 0.06, 0.08, 0.06, 0.1, 0.1, 0.06, 0.06, 0.08, 0.06, 0.08, 0.08, 0.06, 0.1, 0.1, 0.08, 0.1, 0.06, 0.1, 0.1]","[[-0.5966018769068696, 0.05922719175951041], [0.40334220338456117, 0.4441889737848476], [0.239881596076009, 0.1477120181691579], [0.32336026249091787, -0.03260812872757629], [-0.29058516333328155, 0.42693690695218844], [0.11866123292166975, -0.03271814649646587], [-0.21451528589783814, -0.4360638016035293], [-0.4124822201749134, -0.26890722534985756], [0.4796875464585525, -0.2607099957979353], [0.5460708076490565, 0.08377244480820523], [0.30909416596242323, -0.41444607714594595], [-0.20503564595413348, -0.1796934183017983], [-0.10343733497135366, 0.38562021915666433], [0.12391322661245974, 0.43561670034858935], [-0.3283094060524211, 0.101798521443203], [-0.047124815578024726, 0.18423594202021576], [-0.014439967466493231, -0.444600090702006], [-0.019260585956533238, -0.22257959588194032], [-0.4615167623273806, 0.27609091372714367], [0.18584126096660514, -0.2253206237193931]]",density,black,,,D004,visual,5,[],"['1', '2', '3', '4']",1,2023.2.3,harveyvisual,2.1,[],8,0.75,
0,pause,0.4,None,None,None,0,115,115,115,,,,,,,,,,,,,D004,visual,5,[],"['1', '2', '3', '4']",1,2023.2.3,harveyvisual,2.1,[],8,0.75,
20,dot,0.3,['dot'],['density'],black,0,116,116,116,,,43.000205993652344,42.717803955078125,43.01781392097473,dot,"[0.08, 0.1, 0.06, 0.1, 0.06, 0.1, 0.08, 0.08, 0.08, 0.08, 0.1, 0.06, 0.1, 0.08, 0.06, 0.06, 0.08, 0.08, 0.08, 0.08]","[[-0.4871128994510867, 0.15727497920815298], [-0.20887272376813454, 0.05570773688694253], [0.2504922326683722, 0.08677249576862167], [0.474059011048486, -0.00332612767411411], [-0.3035277488299326, 0.23371002031492383], [-0.03802280927874546, -0.5148979990070133], [0.0017956481262442203, 0.310110997336857], [0.19544804520510273, -0.12665748853597758], [-0.17748734354642753, -0.23491364281831134], [0.35448909281561725, 0.481276583252259], [-0.23264900051916781, 0.5203632326168113], [-0.6051230757136677, 0.006620841225117153], [-0.26165069730711543, -0.4210291629863222], [0.17574282044424583, -0.4564400327218673], [0.4314123253794314, -0.2520167069783957], [-0.5587458301820047, -0.2065685191953981], [0.4137155644341092, 0.21008869505348615], [-0.002731251342684149, 0.08735990487218248], [0.11257850313231466, 0.5778934619938774], [0.025966928663419098, -0.2804862139145554]]",density,black,,,D004,visual,5,[],"['1', '2', '3', '4']",1,2023.2.3,harveyvisual,2.1,[],8,0.75,
0,pause,0.4,None,None,None,0,117,117,117,,,,,,,,,,,,,D004,visual,5,[],"['1', '2', '3', '4']",1,2023.2.3,harveyvisual,2.1,[],8,0.75,
20,dot,0.3,['dot'],['density'],black,0,118,118,118,,,43.70022010803223,43.41769289970398,43.71776604652405,dot,"[0.06, 0.08, 0.1, 0.06, 0.08, 0.06, 0.08, 0.06, 0.06, 0.06, 0.06, 0.06, 0.08, 0.06, 0.1, 0.08, 0.1, 0.06, 0.06, 0.08]","[[0.4538478226126884, -0.3664405640066176], [0.3191657233618508, 0.33945407396043503], [0.4766444459256839, 0.04863334876917724], [-0.48464584989185794, -0.23709803293635548], [-0.14367460313313907, -0.5404207341676387], [0.004671958847107804, -0.2737763936231255], [-0.2488654284884766, 0.19456368937313495], [-0.2546710312526411, 0.4149344690824017], [-0.051601211965578986, 0.3824106160381825], [-0.5862906148898928, 0.10735611293819983], [0.09959540378729903, 0.56158861011849], [-0.18356053066621503, -0.30576837489662173], [0.25291895309547097, -0.3978597792196891], [-0.4591411981780786, 0.3126509229681062], [0.27047537779708875, -0.1045572600560733], [-0.27245071046521246, -0.00543727232757385], [-0.33103584699057176, -0.47894117650193535], [0.06775953244299548, -0.5999394953051065], [0.5919743827874603, -0.11231281480897458], [0.01874205045820143, 0.19408939491376098]]",density,black,,,D004,visual,5,[],"['1', '2', '3', '4']",1,2023.2.3,harveyvisual,2.1,[],8,0.75,
0,pause,0.4,None,None,None,0,119,119,119,,,,,,,,,,,,,D004,visual,5,[],"['1', '2', '3', '4']",1,2023.2.3,harveyvisual,2.1,[],8,0.75,
20,dot,0.3,['dot'],['density'],black,0,120,120,120,,,44.40021204948425,44.11762499809265,44.41759896278381,dot,"[0.1, 0.06, 0.08, 0.1, 0.1, 0.08, 0.1, 0.08, 0.06, 0.06, 0.06, 0.06, 0.08, 0.1, 0.06, 0.1, 0.08, 0.1, 0.1, 0.1]","[[0.5332084159893277, -0.0352403638462267], [0.3190163462469333, -0.4763840613446805], [-0.4336918889173258, -0.03321706981633238], [-0.4803016028226361, 0.2428483269512442], [-0.19613313623729944, 0.3889142724640895], [0.22012494755722956, 0.22484427356942716], [0.34331057901589557, -0.10417140734220398], [-0.16807354103675276, -0.5308491707950964], [-0.1114823492468614, -0.016168837836524452], [0.032334781262365, -0.6012258560585213], [0.20991878924571927, 0.47218715653021115], [-0.36932413691674204, -0.2479510024658832], [0.43698745180148457, 0.16335350958121858], [-0.09272557711910268, -0.21442230687389047], [-0.013696694620652816, 0.596061289813386], [0.42683393612753584, 0.41955388964901347], [0.052378281764428714, -0.3867859312842294], [0.091095252895257, -0.04360478942425983], [0.170447961646515, -0.22350956211995338], [0.4559357663158138, -0.30123060175245714]]",density,black,,,D004,visual,5,[],"['1', '2', '3', '4']",1,2023.2.3,harveyvisual,2.1,[],8,0.75,
0,pause,0.4,None,None,None,0,121,121,121,,,,,,,,,,,,,D004,visual,5,[],"['1', '2', '3', '4']",1,2023.2.3,harveyvisual,2.1,[],8,0.75,
20,dot,0.3,['dot'],['density'],black,0,122,122,122,,,45.10022807121277,44.81758403778076,45.11765503883362,dot,"[0.06, 0.1, 0.1, 0.06, 0.1, 0.1, 0.1, 0.08, 0.06, 0.06, 0.1, 0.1, 0.06, 0.08, 0.06, 0.06, 0.1, 0.1, 0.08, 0.06]","[[0.5178670462991403, -0.27506006872508154], [0.007203812221994399, 0.026022989220342962], [-0.3540316533553283, 0.39867934732316174], [0.570745737025261, 0.0006306928516080779], [0.11327097946769193, 0.5882459559721335], [0.11537196854870269, -0.5404469382633766], [-0.49395981680988477, -0.11658104170241179], [0.41121731414948737, 0.2744804340125645], [0.2763023352091699, -0.16773444223809553], [0.11905772068260323, 0.25150817226798283], [-0.02734523090329899, 0.42815827051152544], [-0.0017148420558505961, -0.2957121258782793], [-0.2685607327461556, -0.15531962070613298], [-0.20859081117818767, -0.5394527901494609], [-0.2517210312749204, 0.12735487692998215], [0.329367167552295, 0.07582097430805268], [-0.3570848285601871, -0.37047971607800984], [0.25067666268239064, 0.42317652775102255], [-0.46630239156466374, 0.22035211572104985], [0.3021321048029335, -0.3953838475593059]]",density,black,,,D004,visual,5,[],"['1', '2', '3', '4']",1,2023.2.3,harveyvisual,2.1,[],8,0.75,
0,pause,0.4,None,None,None,0,123,123,123,,,,,,,,,,,,,D004,visual,5,[],"['1', '2', '3', '4']",1,2023.2.3,harveyvisual,2.1,[],8,0.75,
20,dot,0.3,['dot'],['density'],black,0,124,124,124,,,45.80021905899048,45.51762390136719,45.817638874053955,dot,"[0.1, 0.1, 0.1, 0.08, 0.06, 0.1, 0.06, 0.1, 0.06, 0.06, 0.06, 0.1, 0.08, 0.06, 0.08, 0.1, 0.06, 0.08, 0.08, 0.1]","[[0.24737576202704903, 0.26677429873391356], [0.023933736650084247, 0.021484544321425214], [-0.1677495287942608, -0.14520648846011347], [-0.5587166083981139, -0.009479782231662875], [0.5215781644845973, 0.07835465195780178], [-0.15975989721993733, 0.1531169188702467], [-0.10105001227815125, -0.5427140391079766], [-0.28145449946399675, 0.4954949530807954], [0.10514284440920618, -0.48758339425482283], [0.3445793982079861, -0.20535550867719743], [0.47378781654507607, 0.34144457015955665], [-0.008812673227779011, -0.2951807666068022], [0.18475752695003878, -0.08706261404394022], [-0.5179695402941619, 0.29599797596261235], [0.18876576421467828, 0.47512633922738734], [0.5619437389729068, -0.210682157521981], [0.3169904351647108, -0.49770480672579326], [0.009387727675421065, 0.26855315675829516], [-0.45008925268153605, -0.38185589104720863], [-0.35267065177838847, 0.10711659882774904]]",density,black,,,D004,visual,5,[],"['1', '2', '3', '4']",1,2023.2.3,harveyvisual,2.1,[],8,0.75,
0,pause,0.4,None,None,None,0,125,125,125,,,,,,,,,,,,,D004,visual,5,[],"['1', '2', '3', '4']",1,2023.2.3,harveyvisual,2.1,[],8,0.75,
20,dot,0.3,['dot'],['density'],black,0,126,126,126,,,46.50022888183594,46.21754503250122,46.517534017562866,dot,"[0.06, 0.1, 0.06, 0.08, 0.1, 0.08, 0.08, 0.08, 0.06, 0.1, 0.06, 0.1, 0.06, 0.08, 0.1, 0.1, 0.06, 0.06, 0.06, 0.1]","[[-0.39824635338617087, -0.08315831101420501], [-0.14785644842090834, 0.07974442781524771], [-0.06027479680718939, -0.5533196719596102], [0.4137040363629584, -0.3881327675122369], [-0.4833533800919868, 0.08681619022990789], [-0.5764068676112141, -0.1567904817023837], [0.1545436028987418, 0.28452154834385146], [-0.19856317965076442, 0.27203082467732786], [0.4159859940753433, 0.25971659290763727], [0.2097805698822911, -0.02948454300033987], [0.4204766391703264, -0.08624677978034245], [-0.0677764198793761, 0.5554098950504803], [-0.475033157095753, 0.3477986327604364], [0.370911106773128, 0.45700003988367116], [0.04364752214372836, -0.38079327152464226], [0.5953747081746447, 0.03209590485584703], [-0.26184692696432416, -0.3711564801393815], [0.14642067591969243, -0.5707995245713728], [0.18153774782222787, 0.5244944055548836], [-0.13567596313812946, -0.14491029510076697]]",density,black,,,D004,visual,5,[],"['1', '2', '3', '4']",1,2023.2.3,harveyvisual,2.1,[],8,0.75,
0,pause,0.4,None,None,None,0,127,127,127,,,,,,,,,,,,,D004,visual,5,[],"['1', '2', '3', '4']",1,2023.2.3,harveyvisual,2.1,[],8,0.75,
20,dot,0.3,['dot'],['density'],black,0,128,128,128,,,47.20021605491638,46.91753602027893,47.21751308441162,dot,"[0.1, 0.1, 0.1, 0.1, 0.08, 0.06, 0.08, 0.08, 0.08, 0.06, 0.1, 0.08, 0.1, 0.08, 0.1, 0.06, 0.06, 0.08, 0.1, 0.06]","[[0.12424391436063187, -0.5425312729981382], [-0.07825233151453015, -0.45801162897170333], [0.11842276842192778, -0.022674514976488536], [-0.16069818520173063, -0.04325255656896576], [0.42598061230865747, 0.342379730783184], [-0.5957883298104509, -0.0064324552973084315], [0.5250941373456984, -0.15704025684696296], [-0.10493831428541567, 0.5027583450359454], [-0.4552132616009591, -0.1921105703133512], [-0.29943082368776525, 0.2762438268302323], [0.20198623041718944, 0.3729444437812033], [-0.267853874749375, -0.41569993215079276], [-0.003330816594114605, -0.2007257696971303], [0.230995063869458, 0.18149392931085084], [0.32699582842391084, -0.09738237411498618], [0.49419806623974216, -0.3446246629651743], [0.5705533601410314, 0.16037452656003937], [0.29167458737236485, -0.42473643063277916], [-0.3363072182539838, 0.48500208046383875], [-0.37753243608389053, 0.03426924531884129]]",density,black,,,D004,visual,5,[],"['1', '2', '3', '4']",1,2023.2.3,harveyvisual,2.1,[],8,0.75,
0,pause,0.4,None,None,None,0,129,129,129,,,,,,,,,,,,,D004,visual,5,[],"['1', '2', '3', '4']",1,2023.2.3,harveyvisual,2.1,[],8,0.75,
20,dot,0.3,['dot'],['density'],black,0,130,130,130,,,47.9002161026001,47.61752200126648,47.91751003265381,dot,"[0.08, 0.08, 0.1, 0.08, 0.08, 0.08, 0.08, 0.08, 0.08, 0.08, 0.1, 0.06, 0.06, 0.08, 0.1, 0.08, 0.06, 0.06, 0.1, 0.1]","[[-0.4293311948250041, 0.10832522950431822], [-0.07088643157785823, 0.4548281127578283], [0.4831632371187963, 0.10710240900897267], [0.37854901320009327, -0.07317711540283561], [0.21352486834452744, 0.5366527521618422], [0.5343500504169504, -0.18096029538700653], [-0.25838875264526323, -0.4655121089955262], [-0.22370683048591056, 0.0654663910970138], [0.0010616622713740531, -0.306854616796724], [0.12407499864465255, 0.055005858733790935], [-0.3744679975907417, 0.3166383653275334], [0.1285730611265664, -0.47670663428667887], [-0.043734521657513015, -0.06017677180134662], [-0.5798310920388257, -0.050005606853168016], [0.3524596925124772, -0.3847631656328607], [-0.34436415751639937, -0.25899124775858584], [0.272208546864971, 0.2215748133737202], [0.04591876626814262, 0.29755747853190806], [0.21754634495249192, -0.22326988877861398], [-0.06884286324866418, -0.5967778347593345]]",density,black,,,D004,visual,5,[],"['1', '2', '3', '4']",1,2023.2.3,harveyvisual,2.1,[],8,0.75,
0,pause,0.4,None,None,None,0,131,131,131,,,,,,,,,,,,,D004,visual,5,[],"['1', '2', '3', '4']",1,2023.2.3,harveyvisual,2.1,[],8,0.75,
20,dot,0.3,['dot'],['density'],white,0,132,132,132,,,48.600208044052124,48.31750297546387,48.61749887466431,dot,"[0.08, 0.06, 0.06, 0.08, 0.1, 0.08, 0.06, 0.08, 0.1, 0.08, 0.08, 0.1, 0.06, 0.08, 0.08, 0.08, 0.08, 0.06, 0.1, 0.06]","[[-0.5603437683842741, 0.009462413366782108], [0.29441307803629757, -0.37256224147780004], [0.3120578376895057, -0.06262960522718786], [0.5470964812831604, -0.16057355145173233], [0.14659332592284724, -0.1834798333558258], [-0.15538773238208548, 0.1948613477075496], [-0.5554548598254645, 0.2058065207251354], [0.13186110596313672, -0.585259854687152], [-0.17058508672208278, -0.16654925701085188], [-0.3696847895986398, -0.4501438164530537], [0.5796397216305548, 0.04289037902602097], [-0.1104774418905417, -0.3623533009598553], [0.2066302443361323, 0.5081690137962417], [-0.032573730391530775, 0.5204025602299959], [-0.3592366598607686, 0.2081225100840038], [-0.5269764276570015, -0.23895621819569016], [0.1673817234136049, 0.07864629829508096], [0.3214154421747124, 0.1900998127859964], [-0.29472057936829243, 0.40017260176277103], [-0.20233222489507124, -0.54989108542351]]",density,white,,,D004,visual,5,[],"['1', '2', '3', '4']",1,2023.2.3,harveyvisual,2.1,[],8,0.75,
0,pause,0.4,None,None,None,0,133,133,133,,,,,,,,,,,,,D004,visual,5,[],"['1', '2', '3', '4']",1,2023.2.3,harveyvisual,2.1,[],8,0.75,
20,dot,0.3,['dot'],['density'],black,0,134,134,134,,,49.30025005340576,49.01747107505798,49.31746697425842,dot,"[0.08, 0.08, 0.1, 0.06, 0.06, 0.08, 0.06, 0.06, 0.06, 0.1, 0.1, 0.08, 0.08, 0.1, 0.1, 0.06, 0.1, 0.1, 0.08, 0.06]","[[-0.5239060302931282, -0.08317202595856638], [0.25222143750804094, -0.23790172767476447], [0.10935241150938302, 0.11171366163686258], [0.3494872975891604, 0.278757177192183], [-0.17703235641799991, -0.3693087063344339], [0.5977301248933576, 0.05562286127044527], [0.23200053509201035, -0.49423015650462104], [-0.44151464068032253, 0.3599127645338111], [0.21166852467286323, 0.44703792938592235], [0.05156960562876822, -0.1661720898604177], [-0.05703746675253829, -0.5383317132460596], [-0.11218531766880491, 0.5854537721515299], [-0.16009739319371813, 0.045218311714781856], [0.3742281413875709, 0.08535214378447259], [-0.2906679794481182, -0.5248197726952324], [-0.11210396747616008, 0.37896544784923525], [-0.392255760601758, 0.10411085450700086], [0.5416661266538637, -0.21845968872947685], [-0.3483989997512318, -0.27669076887016153], [-0.18399905572268077, -0.15580587351703246]]",density,black,1,49.01229810714722,D004,visual,5,[],"['1', '2', '3', '4']",1,2023.2.3,harveyvisual,2.1,[],8,0.75,
0,pause,0.4,None,None,None,0,135,135,135,,,,,,,,,,,,,D004,visual,5,[],"['1', '2', '3', '4']",1,2023.2.3,harveyvisual,2.1,[],8,0.75,
20,dot,0.3,['dot'],['density'],black,0,136,136,136,,,50.00020408630371,49.71743607521057,50.017457008361816,dot,"[0.1, 0.1, 0.08, 0.1, 0.06, 0.08, 0.08, 0.08, 0.08, 0.06, 0.06, 0.08, 0.08, 0.06, 0.1, 0.1, 0.08, 0.06, 0.06, 0.08]","[[-0.29425613313830257, -0.18943123104376475], [0.5405576661174921, -0.23798502873468824], [0.03719544261717567, -0.3628686804651954], [0.20775504782378995, -0.46393478887418643], [0.4499227669624549, 0.1398814212481373], [-0.42652954788653347, 0.33900178905449496], [0.23694796952177766, 0.10611524813962592], [0.25726153545017916, 0.39979415347860103], [0.10377891918093163, 0.28278309123430356], [-0.0929983911828185, 0.04927275830642164], [-0.3017288886783404, -0.48376697856762374], [-0.5494730735181733, -0.13366189230814843], [-0.4698858052748891, 0.0675662614665134], [-0.16206193814197745, 0.29434307984660435], [-0.023544489259373136, 0.574339971891004], [0.2258809088045386, -0.11900664050044796], [-0.25915719073384963, 0.5090918180657917], [0.5317265319363508, -0.039917006153294715], [-0.28299280965677354, 0.12336873373739565], [0.4905145923127582, 0.3325352621421634]]",density,black,,,D004,visual,5,[],"['1', '2', '3', '4']",1,2023.2.3,harveyvisual,2.1,[],8,0.75,
0,pause,0.4,None,None,None,0,137,137,137,,,,,,,,,,,,,D004,visual,5,[],"['1', '2', '3', '4']",1,2023.2.3,harveyvisual,2.1,[],8,0.75,
20,dot,0.3,['dot'],['density'],white,0,138,138,138,,,50.70020794868469,50.41745710372925,50.71743988990784,dot,"[0.06, 0.06, 0.1, 0.08, 0.1, 0.1, 0.08, 0.1, 0.08, 0.1, 0.06, 0.08, 0.06, 0.1, 0.06, 0.06, 0.1, 0.1, 0.06, 0.06]","[[0.39106887096026666, -0.16763305458142552], [0.1376116606014055, 0.1366712667335922], [-0.13788454580473164, -0.20372279649591962], [-0.04824255116501408, 0.3335622588539633], [0.29669091785018864, -0.33448020796026123], [0.1545966816452402, -0.4991151760295533], [-0.3717440952961233, -0.03130434647863484], [0.3700251659764425, 0.37309919520882356], [-0.16652115843024662, -0.5764860336861154], [-0.49438316427320367, 0.29962555249053324], [-0.4876958913711268, -0.35585112048128986], [0.3729704435938672, 0.03147349990965104], [0.6015474167120726, -0.05543673975551488], [-0.2368642852900455, 0.2989687354306989], [0.07273953316759652, -0.18967585425277333], [-0.5658505308850394, 0.002553461321075867], [0.1254519771414151, 0.46294379229299587], [-0.2132874176005115, 0.07401544256616932], [-0.21696694989878806, 0.5445001051679744], [0.5650651434153265, 0.20560343090467303]]",density,white,,,D004,visual,5,[],"['1', '2', '3', '4']",1,2023.2.3,harveyvisual,2.1,[],8,0.75,
0,pause,0.4,None,None,None,0,139,139,139,,,,,,,,,,,1,50.79358696937561,D004,visual,5,[],"['1', '2', '3', '4']",1,2023.2.3,harveyvisual,2.1,[],8,0.75,
20,dot,0.3,['dot'],['density'],black,0,140,140,140,,,51.40020394325256,51.117433071136475,51.417412996292114,dot,"[0.06, 0.06, 0.06, 0.08, 0.08, 0.08, 0.1, 0.06, 0.06, 0.06, 0.08, 0.08, 0.08, 0.08, 0.08, 0.08, 0.06, 0.06, 0.08, 0.1]","[[0.00022915546662927166, 0.3405636002290712], [0.11820440654807629, -0.10192252564228205], [-0.5105655964040492, 0.07914136738117272], [0.38806243775491334, 0.004064813441946424], [0.2743549636615781, -0.3255240429375752], [0.40609410273200675, 0.27194078467071836], [-0.4348641036492832, -0.21399197683419377], [-0.28097765086114806, 0.3433853905388131], [-0.26464997561549336, 0.07066729024993323], [-0.19689439294784467, -0.4322718376369439], [-0.09126445666355243, -0.033961009591525704], [0.35977108592369356, 0.46957946869358635], [0.03129713303475301, 0.539895462301557], [0.4343746679475252, -0.20843507634682323], [0.19585580867918295, -0.5020527432382363], [0.5940962172953895, -0.02501963028835781], [0.000764613998256003, -0.5187255489095243], [-0.22090652862799065, -0.23456304969408248], [0.1486670584575015, 0.10292441720011625], [-0.17466695235922897, 0.5543719221039267]]",density,black,,,D004,visual,5,[],"['1', '2', '3', '4']",1,2023.2.3,harveyvisual,2.1,[],8,0.75,
0,pause,0.4,None,None,None,0,141,141,141,,,,,,,,,,,,,D004,visual,5,[],"['1', '2', '3', '4']",1,2023.2.3,harveyvisual,2.1,[],8,0.75,
20,dot,0.3,['dot'],['density'],black,0,142,142,142,,,52.10021901130676,51.81740689277649,52.11738705635071,dot,"[0.1, 0.06, 0.06, 0.08, 0.1, 0.08, 0.1, 0.06, 0.06, 0.06, 0.06, 0.08, 0.08, 0.1, 0.1, 0.1, 0.1, 0.08, 0.08, 0.08]","[[0.5655087266718145, 0.015799858205103545], [0.38189644439554615, 0.16402345627901477], [-0.3155354232282595, -0.4767173603252544], [-0.1142184896164104, 0.41453422099323356], [0.39309631823485913, -0.22262634747005677], [0.011906590064130751, 0.24415839731140276], [0.27651953514127636, 0.43531687215830306], [0.04077353995833988, -0.2309484923664194], [0.2089076227529858, 0.05695708665126131], [-0.31032124376278025, 0.41471187811208154], [-0.5518635666733772, -0.058119723786659555], [-0.42728185423743825, -0.21818054682722493], [-0.21376895566453125, -0.13087417134707668], [-0.22097182070407756, 0.1260969490945807], [-0.01977934591073993, -0.5957449889937517], [0.24070598397560128, -0.39573070502690855], [-0.47367074065814374, 0.2129258025179514], [-0.02737005386547864, -0.02651466426679272], [-0.19518665063996454, -0.3273838967306938], [0.05467275245477621, 0.5184055058409234]]",density,black,,,D004,visual,5,[],"['1', '2', '3', '4']",1,2023.2.3,harveyvisual,2.1,[],8,0.75,
0,pause,0.4,None,None,None,0,143,143,143,,,,,,,,,,,,,D004,visual,5,[],"['1', '2', '3', '4']",1,2023.2.3,harveyvisual,2.1,[],8,0.75,
20,dot,0.3,['dot'],['density'],black,0,144,144,144,,,52.80022406578064,52.51738500595093,52.81737804412842,dot,"[0.06, 0.1, 0.1, 0.08, 0.06, 0.08, 0.08, 0.1, 0.08, 0.1, 0.1, 0.08, 0.08, 0.06, 0.06, 0.08, 0.06, 0.06, 0.1, 0.08]","[[0.010667621459269805, 0.15213791055342574], [-0.03537418824245386, -0.2667932159695174], [0.6045466002867729, 0.021087197217637202], [0.38052188249133245, -0.1578479051473391], [-0.19895889851552268, 0.04355619291693369], [-0.45949528701435843, 0.036839645226538875], [-0.3118611397767868, -0.46143431843263716], [0.19660446873474746, -0.30885576438626394], [0.36173688193017817, 0.13812198518436752], [-0.48163340436275826, -0.22043553768697544], [0.12876329711445433, -0.06024343646231389], [0.2805213298233803, 0.47447192284256834], [-0.2278862489655466, 0.3383313945981028], [-0.018474786634021245, -0.5273908387584695], [-0.42373403536875553, 0.34487815364772056], [-0.2743236122701889, -0.25122873599937334], [0.06551426194848387, 0.44387997065908125], [0.49393903652157023, -0.34524402237236396], [-0.16397514808556107, 0.5246737725671924], [0.19961150103863123, 0.2549800499104271]]",density,black,,,D004,visual,5,[],"['1', '2', '3', '4']",1,2023.2.3,harveyvisual,2.1,[],8,0.75,
0,pause,0.4,None,None,None,0,145,145,145,,,,,,,,,,,,,D004,visual,5,[],"['1', '2', '3', '4']",1,2023.2.3,harveyvisual,2.1,[],8,0.75,
20,dot,0.3,['dot'],['density'],black,0,146,146,146,,,53.500221967697144,53.217350006103516,53.51741290092468,dot,"[0.1, 0.08, 0.08, 0.08, 0.1, 0.1, 0.1, 0.1, 0.1, 0.06, 0.1, 0.06, 0.08, 0.06, 0.08, 0.06, 0.08, 0.08, 0.08, 0.08]","[[0.10378231117229231, 0.5518400647043008], [-0.07383634633287661, -0.5496796730327005], [-0.3147201809422691, -0.261367468091138], [-0.3822361859436041, 0.2526645908260843], [-0.5650962768110899, 0.05560081160216471], [0.24137580407992099, -0.4571014356784423], [-0.09766990587231072, -0.026615659090638788], [0.21674602080856453, 0.13406776800364795], [0.5211046841079191, 0.28584119167749794], [0.3664696704058369, -0.05003134379805896], [0.29008683874422403, 0.46789845149039], [0.08074163302910475, 0.29478977154324615], [0.5833219557664094, -0.010459643747809555], [0.406209479975462, -0.3196549122218927], [0.17614910301407793, -0.10557526735936534], [-0.35434919900324124, -0.4709018065154826], [-0.2761852271297039, 0.49861056711171625], [-0.10307626250898094, 0.5818861427301752], [-0.023755337393225107, -0.30089796159691057], [-0.5757220245163157, -0.1670888028972002]]",density,black,,,D004,visual,5,[],"['1', '2', '3', '4']",1,2023.2.3,harveyvisual,2.1,[],8,0.75,
0,pause,0.4,None,None,None,0,147,147,147,,,,,,,,,,,,,D004,visual,5,[],"['1', '2', '3', '4']",1,2023.2.3,harveyvisual,2.1,[],8,0.75,
20,dot,0.3,['dot'],['density'],black,0,148,148,148,,,54.200226068496704,53.91752290725708,54.21753001213074,dot,"[0.08, 0.1, 0.08, 0.08, 0.1, 0.08, 0.1, 0.08, 0.1, 0.06, 0.06, 0.06, 0.08, 0.1, 0.06, 0.06, 0.06, 0.08, 0.06, 0.06]","[[-0.5320774757273982, 0.17764959173260325], [0.3179029026951954, 0.15605659918507842], [-0.06652685394572155, -0.3290457207391733], [-0.16281429255504754, 0.35088901334913014], [-0.36816414284179555, -0.36228454818892897], [0.5956850566197985, -0.10411193277876879], [-0.011311868334411779, 0.1162127898529981], [-0.17848741561760678, -0.12773250126794689], [-0.1900548584828171, -0.5190874713588255], [-0.2262458204571629, 0.09751309756201032], [-0.593611779574948, -0.06452497800062827], [0.3105120450412626, -0.3170147002665789], [0.5326797638864266, 0.0941010286858246], [0.1028120468295981, -0.22933049708692965], [0.12670113837703956, -0.02996800330789906], [0.045638903055475466, -0.5981741161249754], [0.11004275011937004, 0.4966244696438177], [0.1743596997630551, -0.45402573875627744], [0.28908666095923385, 0.3449028307283817], [0.04400192413009918, 0.30314818935761456]]",density,black,,,D004,visual,5,[],"['1', '2', '3', '4']",1,2023.2.3,harveyvisual,2.1,[],8,0.75,
0,pause,0.4,None,None,None,0,149,149,149,,,,,,,,,,,,,D004,visual,5,[],"['1', '2', '3', '4']",1,2023.2.3,harveyvisual,2.1,[],8,0.75,
20,dot,0.3,['dot'],['density'],black,0,150,150,150,,,54.90020990371704,54.617347955703735,54.91747188568115,dot,"[0.08, 0.08, 0.06, 0.08, 0.06, 0.08, 0.06, 0.1, 0.1, 0.1, 0.08, 0.06, 0.1, 0.1, 0.06, 0.08, 0.08, 0.06, 0.06, 0.08]","[[0.11555685255723047, 0.47454684015697635], [-0.3022121213914697, -0.10385328656436238], [-0.5077124327522773, -0.23441095838988601], [-0.4900773717266094, -0.008910725283894416], [-0.04385033115007286, -0.44514231097741386], [0.5045756979926693, -0.19821344693346005], [-0.28747237708116075, 0.2296770249992014], [0.3000214189521849, 0.3246894976067666], [0.17067931293546967, -0.38424793371609894], [0.16581775135224863, 0.002891725152493807], [0.0006310406412853853, 0.2202815741967653], [0.43330810116948626, -0.38961130173769687], [0.02397217815313535, -0.16239088018066244], [-0.500918335986271, 0.23757021855568666], [0.3953550760437682, -0.020235526744179055], [-0.08172290115327618, 0.4445497653965128], [0.5963165961587268, 0.030681496915687834], [0.5512475089027408, 0.24584010037990037], [0.30834241246399374, -0.22313449384891054], [-0.25554737711921655, -0.4997092188061386]]",density,black,,,D004,visual,5,[],"['1', '2', '3', '4']",1,2023.2.3,harveyvisual,2.1,[],8,0.75,
0,pause,0.4,None,None,None,0,151,151,151,,,,,,,,,,,,,D004,visual,5,[],"['1', '2', '3', '4']",1,2023.2.3,harveyvisual,2.1,[],8,0.75,
20,dot,0.3,['dot'],['density'],black,0,152,152,152,,,55.600204944610596,55.31750202178955,55.61746406555176,dot,"[0.08, 0.06, 0.06, 0.06, 0.08, 0.1, 0.06, 0.06, 0.1, 0.08, 0.06, 0.1, 0.08, 0.1, 0.08, 0.08, 0.1, 0.06, 0.08, 0.06]","[[-0.4105038712394674, 0.42125073891220743], [0.5185234486629832, -0.2866179850283406], [0.12252328286011671, 0.5625429944708386], [-0.4310097206597012, 0.06729089424060847], [-0.18516920494687844, -0.01894203560525598], [-0.051000289415861544, 0.41112669552390946], [0.009196220176118763, -0.4530297420017486], [0.0645092027605303, 0.0706478681380599], [0.12135954055787457, -0.2694496354134904], [0.5827058958153749, 0.048082729315460676], [-0.4421011980280949, -0.35275159557959124], [0.2441722230634421, -0.44074492036281254], [0.40853420630825654, 0.2827723467573116], [-0.2325794981928746, -0.48257811132760076], [-0.06730779727297076, -0.25181827257246175], [0.3250502557912952, -0.04096226350722576], [-0.27041537879509947, -0.23681522678926792], [-0.4666283901784385, -0.14329355192200482], [-0.24953051250189645, 0.2854121672007137], [-0.19330251846888946, 0.5728203190034261]]",density,black,,,D004,visual,5,[],"['1', '2', '3', '4']",1,2023.2.3,harveyvisual,2.1,[],8,0.75,
0,pause,0.4,None,None,None,0,153,153,153,,,,,,,,,,,,,D004,visual,5,[],"['1', '2', '3', '4']",1,2023.2.3,harveyvisual,2.1,[],8,0.75,
20,dot,0.3,['dot'],['density'],black,0,154,154,154,,,56.30021691322327,56.01734900474548,56.3174409866333,dot,"[0.06, 0.1, 0.1, 0.06, 0.06, 0.06, 0.1, 0.1, 0.1, 0.08, 0.1, 0.06, 0.08, 0.08, 0.08, 0.06, 0.08, 0.1, 0.08, 0.06]","[[0.15978684662208198, 0.09565386776042095], [-0.23408581605812828, -0.0964579284433626], [-0.4357019871673624, 0.23400380023872136], [-0.23855689641978778, -0.5141236464917498], [-0.17676875458293323, 0.42802102369991546], [-0.5271037966856875, 0.03953145716008727], [-0.436737819212358, -0.1475889114784612], [-0.4106898445874505, -0.37013078111184194], [0.2806418926230685, 0.46512396491432373], [-0.21250086918301903, -0.31349605422660576], [0.11281129816832991, -0.3167854273629547], [0.5618306786667974, 0.035837643123796364], [0.40937250444955253, 0.29638138227605415], [0.16494759536754444, -0.5458981234088606], [0.34595796718915983, -0.08675090878079972], [0.04675003574096781, 0.33855186283122074], [0.016516493322147552, -0.08538672796970581], [-0.20627044576723236, 0.17675095595022805], [0.45892270137414803, -0.31222019720480915], [0.005423893219917764, 0.5933554722752792]]",density,black,,,D004,visual,5,[],"['1', '2', '3', '4']",1,2023.2.3,harveyvisual,2.1,[],8,0.75,
0,pause,0.4,None,None,None,0,155,155,155,,,,,,,,,,,,,D004,visual,5,[],"['1', '2', '3', '4']",1,2023.2.3,harveyvisual,2.1,[],8,0.75,
9,dot,0.3,['dot'],['density'],black,0,156,156,156,,,57.00022101402283,56.71743106842041,57.01742601394653,dot,"[0.08, 0.08, 0.1, 0.06, 0.08, 0.08, 0.1, 0.08, 0.1]","[[0.34043128493099817, 0.2271075800100716], [0.2702764120171402, -0.10456749967376819], [-0.1274635928921129, -0.04210317806044915], [-0.03460273614387521, 0.1795356259369138], [0.14470969472881007, 0.3391925298523705], [0.06761060508642219, 0.0060094309834155335], [0.5117869412029185, -0.12050585585317111], [0.07404675892906432, -0.22660478390602867], [0.35723900661310204, -0.3185591288757]]",density,black,,,D004,visual,5,[],"['1', '2', '3', '4']",1,2023.2.3,harveyvisual,2.1,[],8,0.75,
0,pause,0.4,None,None,None,0,157,157,157,,,,,,,,,,,,,D004,visual,5,[],"['1', '2', '3', '4']",1,2023.2.3,harveyvisual,2.1,[],8,0.75,
9,dot,0.3,['dot'],['density'],black,0,158,158,158,,,57.700215101242065,57.41741704940796,57.717395067214966,dot,"[0.06, 0.06, 0.06, 0.08, 0.1, 0.08, 0.06, 0.06, 0.08]","[[0.23250081832313607, -0.03448075506690146], [0.3034476098774822, 0.1830296703973891], [-0.18904104685434053, 0.18833284185042862], [0.2553794676357457, 0.5314352583170906], [0.16363099535363254, 0.3461022642192175], [-0.0841935017478271, 0.3664174397160571], [-0.26748786402911323, -0.05736109653727262], [0.043842773669028334, 0.577246673499167], [0.02102957219118283, 0.0979254794926055]]",density,black,,,D004,visual,5,[],"['1', '2', '3', '4']",1,2023.2.3,harveyvisual,2.1,[],8,0.75,
0,pause,0.4,None,None,None,0,159,159,159,,,,,,,,,,,,,D004,visual,5,[],"['1', '2', '3', '4']",1,2023.2.3,harveyvisual,2.1,[],8,0.75,
9,dot,0.3,['dot'],['density'],black,0,160,160,160,,,58.4002149105072,58.1172890663147,58.41726088523865,dot,"[0.06, 0.06, 0.06, 0.06, 0.1, 0.08, 0.06, 0.06, 0.06]","[[-0.08858128315591524, -0.3480052213079807], [0.37291707470974605, -0.0809562497479422], [-0.04311872097798103, 0.23152249840731254], [0.1734412630875083, -0.16491363602164627], [-0.024044713080900382, -0.04824256513196188], [0.126438571592319, 0.09122014985587756], [-0.2168202887682383, 0.11190421567656858], [-0.23215605484234547, -0.20356583507002532], [0.291417597339289, 0.24351333182926893]]",density,black,,,D004,visual,5,[],"['1', '2', '3', '4']",1,2023.2.3,harveyvisual,2.1,[],8,0.75,
0,pause,0.4,None,None,None,0,161,161,161,,,,,,,,,,,,,D004,visual,5,[],"['1', '2', '3', '4']",1,2023.2.3,harveyvisual,2.1,[],8,0.75,
9,dot,0.3,['dot'],['density'],white,0,162,162,162,,,59.100208044052124,58.817293882369995,59.11726903915405,dot,"[0.06, 0.06, 0.1, 0.1, 0.06, 0.06, 0.08, 0.06, 0.1]","[[0.4907720478217397, -0.04420899316542184], [0.34945142516086164, 0.15252383324094793], [0.5574461082468273, 0.19132091369540322], [0.27860246559707486, -0.040271372914082004], [0.05137088633600719, 0.3166781443626957], [0.3859483744724672, 0.35594746641407654], [0.08124150308634055, -0.11830714188255424], [-0.07254784919135501, 0.1430213671552253], [0.33979531306265204, -0.26214422422440126]]",density,white,,,D004,visual,5,[],"['1', '2', '3', '4']",1,2023.2.3,harveyvisual,2.1,[],8,0.75,
0,pause,0.4,None,None,None,0,163,163,163,,,,,,,,,,,1,59.27959895133972,D004,visual,5,[],"['1', '2', '3', '4']",1,2023.2.3,harveyvisual,2.1,[],8,0.75,
9,dot,0.3,['dot'],['density'],black,0,164,164,164,,,59.800211906433105,59.51725792884827,59.81724405288696,dot,"[0.08, 0.1, 0.1, 0.1, 0.06, 0.06, 0.06, 0.1, 0.06]","[[0.34043128493099817, 0.2271075800100716], [0.2702764120171402, -0.10456749967376819], [-0.1274635928921129, -0.04210317806044915], [-0.03460273614387521, 0.1795356259369138], [0.14470969472881007, 0.3391925298523705], [0.06761060508642219, 0.0060094309834155335], [0.5117869412029185, -0.12050585585317111], [0.07404675892906432, -0.22660478390602867], [0.35723900661310204, -0.3185591288757]]",density,black,,,D004,visual,5,[],"['1', '2', '3', '4']",1,2023.2.3,harveyvisual,2.1,[],8,0.75,
0,pause,0.4,None,None,None,0,165,165,165,,,,,,,,,,,,,D004,visual,5,[],"['1', '2', '3', '4']",1,2023.2.3,harveyvisual,2.1,[],8,0.75,
9,dot,0.3,['dot'],['density'],black,0,166,166,166,,,60.500216007232666,60.21734309196472,60.517327070236206,dot,"[0.08, 0.06, 0.08, 0.06, 0.06, 0.06, 0.1, 0.1, 0.08]","[[-0.08858128315591524, -0.3480052213079807], [0.37291707470974605, -0.0809562497479422], [-0.04311872097798103, 0.23152249840731254], [0.1734412630875083, -0.16491363602164627], [-0.024044713080900382, -0.04824256513196188], [0.126438571592319, 0.09122014985587756], [-0.2168202887682383, 0.11190421567656858], [-0.23215605484234547, -0.20356583507002532], [0.291417597339289, 0.24351333182926893]]",density,black,,,D004,visual,5,[],"['1', '2', '3', '4']",1,2023.2.3,harveyvisual,2.1,[],8,0.75,
0,pause,0.4,None,None,None,0,167,167,167,,,,,,,,,,,,,D004,visual,5,[],"['1', '2', '3', '4']",1,2023.2.3,harveyvisual,2.1,[],8,0.75,
8,dot,0.3,['dot'],['density'],white,0,168,168,168,,,61.200215101242065,60.917325019836426,61.217318058013916,dot,"[0.08, 0.08, 0.06, 0.1, 0.08, 0.06, 0.08, 0.06]","[[0.11895989691250043, -0.4531686673706004], [-0.16516506104640707, -0.03240926074491446], [0.03539791161122963, 0.017706842047032937], [0.2602726326243711, -0.2021454296306109], [-0.07993394910368964, -0.42305571474287856], [-0.2833532244481061, -0.22994433794129646], [0.3633812293108319, -0.4186270945829863], [-0.04042382183071007, -0.1991401458565282]]",density,white,,,D004,visual,5,[],"['1', '2', '3', '4']",1,2023.2.3,harveyvisual,2.1,[],8,0.75,
0,pause,0.4,None,None,None,0,169,169,169,,,,,,,,,,,1,61.45407700538635,D004,visual,5,[],"['1', '2', '3', '4']",1,2023.2.3,harveyvisual,2.1,[],8,0.75,
8,dot,0.3,['dot'],['density'],black,0,170,170,170,,,61.900222063064575,61.61731195449829,61.917157888412476,dot,"[0.08, 0.08, 0.1, 0.06, 0.08, 0.1, 0.08, 0.06]","[[0.15461278376755175, 0.017690045563684864], [0.4404146441246234, 0.21813023399178458], [0.05487595867990863, 0.4084021637362207], [-0.13585566436679766, 0.08658391491112073], [0.3753260993018466, -0.0029057217730488138], [0.24206240898487613, 0.3367355195829085], [0.06992318211572668, 0.2078151862649802], [0.2541279777615451, -0.17357647893213385]]",density,black,,,D004,visual,5,[],"['1', '2', '3', '4']",1,2023.2.3,harveyvisual,2.1,[],8,0.75,
0,pause,0.4,None,None,None,0,171,171,171,,,,,,,,,,,,,D004,visual,5,[],"['1', '2', '3', '4']",1,2023.2.3,harveyvisual,2.1,[],8,0.75,
8,dot,0.3,['dot'],['density'],black,0,172,172,172,,,62.60020899772644,62.31719899177551,62.617170095443726,dot,"[0.06, 0.06, 0.06, 0.1, 0.1, 0.08, 0.08, 0.08]","[[-0.20800618360187478, -0.297823595680997], [0.0208603014005115, -0.46570844314230314], [-0.33947416747489917, -0.46414587466331364], [-0.2657502487478435, -0.0024929956194721667], [-0.07971030345085922, -0.1368829558420488], [0.12327021606192319, -0.12614842517591618], [-0.10944837079043952, 0.12795643756026515], [-0.4050023469846894, -0.16101207847090707]]",density,black,,,D004,visual,5,[],"['1', '2', '3', '4']",1,2023.2.3,harveyvisual,2.1,[],8,0.75,
0,pause,0.4,None,None,None,0,173,173,173,,,,,,,,,,,,,D004,visual,5,[],"['1', '2', '3', '4']",1,2023.2.3,harveyvisual,2.1,[],8,0.75,
8,dot,0.3,['dot'],['density'],black,0,174,174,174,,,63.30021905899048,63.0171799659729,63.31715989112854,dot,"[0.06, 0.06, 0.08, 0.06, 0.1, 0.08, 0.08, 0.1]","[[-0.17001050475317317, -0.17367687575201368], [0.3600613666554234, 0.010096468830953859], [-0.08326222131596324, 0.04242117989324811], [0.04296950773068638, 0.29875887990525135], [0.04919814700692566, -0.23206276490508926], [0.2733682510361541, 0.19343137942482672], [0.15974695196996483, -0.02827404827190698], [-0.2919014881818027, 0.0006738684867251376]]",density,black,,,D004,visual,5,[],"['1', '2', '3', '4']",1,2023.2.3,harveyvisual,2.1,[],8,0.75,
0,pause,0.4,None,None,None,0,175,175,175,,,,,,,,,,,,,D004,visual,5,[],"['1', '2', '3', '4']",1,2023.2.3,harveyvisual,2.1,[],8,0.75,
8,dot,0.3,['dot'],['density'],black,0,176,176,176,,,64.00022196769714,63.71712803840637,64.01712894439697,dot,"[0.06, 0.06, 0.08, 0.1, 0.1, 0.08, 0.08, 0.06]","[[-0.4462313073918426, 0.10595449025715867], [0.022923871415176152, 0.06290918987699953], [-0.12461589820496316, 0.4830175517012745], [-0.29730306390741434, 0.2752084497958106], [-0.2195410516364439, 0.056871795648565045], [0.008916049516666445, 0.2907399105306955], [-0.08256048209355603, -0.11638226771844133], [-0.4106304257826301, -0.09222594144079917]]",density,black,,,D004,visual,5,[],"['1', '2', '3', '4']",1,2023.2.3,harveyvisual,2.1,[],8,0.75,
0,pause,0.4,None,None,None,0,177,177,177,,,,,,,,,,,,,D004,visual,5,[],"['1', '2', '3', '4']",1,2023.2.3,harveyvisual,2.1,[],8,0.75,
8,dot,0.3,['dot'],['density'],black,0,178,178,178,,,64.70022201538086,64.41713309288025,64.71711206436157,dot,"[0.06, 0.06, 0.1, 0.08, 0.06, 0.1, 0.06, 0.1]","[[-0.3306282708070712, -0.09459634407206743], [0.17708038186302957, -0.36794437316098305], [-0.34368294577136044, -0.39688855169369486], [-0.16397220561896333, 0.03033928826277653], [-0.08476975953586025, -0.41834960305423746], [-0.16765121495786453, -0.2265743681515788], [0.0449590487082352, -0.10546915507075137], [-0.5574709661459258, -0.15664368712912546]]",density,black,,,D004,visual,5,[],"['1', '2', '3', '4']",1,2023.2.3,harveyvisual,2.1,[],8,0.75,
0,pause,0.4,None,None,None,0,179,179,179,,,,,,,,,,,,,D004,visual,5,[],"['1', '2', '3', '4']",1,2023.2.3,harveyvisual,2.1,[],8,0.75,
7,dot,0.3,['dot'],['density'],black,0,180,180,180,,,65.40023303031921,65.11711192131042,65.41707301139832,dot,"[0.08, 0.1, 0.1, 0.08, 0.1, 0.08, 0.1]","[[0.020512593940644967, 0.06058225053891463], [-0.12457192929091994, 0.22210134043855223], [0.2267676360835929, 0.07227077176864677], [-0.19381219694833235, -0.14277017550647156], [0.096077147208419, -0.13886261858003718], [0.087393672000005, 0.26445259248386815], [-0.018663113410245565, 0.4344684582511623]]",density,black,,,D004,visual,5,[],"['1', '2', '3', '4']",1,2023.2.3,harveyvisual,2.1,[],8,0.75,
0,pause,0.4,None,None,None,0,181,181,181,,,,,,,,,,,,,D004,visual,5,[],"['1', '2', '3', '4']",1,2023.2.3,harveyvisual,2.1,[],8,0.75,
7,dot,0.3,['dot'],['density'],black,0,182,182,182,,,66.10022902488708,65.8170599937439,66.11706304550171,dot,"[0.1, 0.06, 0.06, 0.1, 0.08, 0.1, 0.06]","[[-0.27882252076513336, 0.33055409005240166], [-0.4957633793454142, -0.06140876275196145], [-0.0066404743852866415, -0.09326226909207957], [-0.0437417051997281, 0.24568157295930956], [-0.4653499650939929, 0.1386387143322748], [-0.23664853702636232, 0.07695828400639043], [-0.2650254833014284, -0.12289079349875774]]",density,black,,,D004,visual,5,[],"['1', '2', '3', '4']",1,2023.2.3,harveyvisual,2.1,[],8,0.75,
0,pause,0.4,None,None,None,0,183,183,183,,,,,,,,,,,,,D004,visual,5,[],"['1', '2', '3', '4']",1,2023.2.3,harveyvisual,2.1,[],8,0.75,
7,dot,0.3,['dot'],['density'],black,0,184,184,184,,,66.80021095275879,66.51704692840576,66.81703901290894,dot,"[0.1, 0.06, 0.08, 0.08, 0.08, 0.06, 0.06]","[[-0.4123410031792677, -0.32555807737620884], [-0.11281232420725038, -0.2658066965482441], [-0.16970574590124413, 0.10972852905085191], [-0.380148642061964, 0.19816541478521793], [-0.49975943015608576, -0.10400723965324657], [-0.30003386022098844, -0.09340949099572564], [-0.0679185705411078, -0.06780919729272472]]",density,black,,,D004,visual,5,[],"['1', '2', '3', '4']",1,2023.2.3,harveyvisual,2.1,[],8,0.75,
0,pause,0.4,None,None,None,0,185,185,185,,,,,,,,,,,,,D004,visual,5,[],"['1', '2', '3', '4']",1,2023.2.3,harveyvisual,2.1,[],8,0.75,
7,dot,0.3,['dot'],['density'],black,0,186,186,186,,,67.5002191066742,67.21703290939331,67.51705002784729,dot,"[0.1, 0.1, 0.06, 0.06, 0.1, 0.06, 0.08]","[[0.36124702795982905, 0.02861074637729004], [0.035495459613383976, -0.03736980990239832], [0.4545067059830119, -0.22475560039862832], [0.21831658066582188, 0.20471036725638603], [0.23621436127430617, -0.13960795011418334], [0.5606656921354746, -0.047865395727918474], [0.5468561378002438, 0.2161657569851178]]",density,black,,,D004,visual,5,[],"['1', '2', '3', '4']",1,2023.2.3,harveyvisual,2.1,[],8,0.75,
0,pause,0.4,None,None,None,0,187,187,187,,,,,,,,,,,,,D004,visual,5,[],"['1', '2', '3', '4']",1,2023.2.3,harveyvisual,2.1,[],8,0.75,
7,dot,0.3,['dot'],['density'],black,0,188,188,188,,,68.20022892951965,67.91703295707703,68.21702194213867,dot,"[0.08, 0.06, 0.06, 0.08, 0.08, 0.06, 0.1]","[[-0.08751196138777266, -0.40239331021683095], [-0.1389983634140625, -0.1821537091642013], [-0.5212097088452917, -0.15879536445288125], [-0.24197016774290594, 0.025691971861017886], [-0.324083892787021, -0.3083678109532634], [0.06465625853811506, -0.19815494036826437], [-0.2569867334647868, -0.5155038850209747]]",density,black,,,D004,visual,5,[],"['1', '2', '3', '4']",1,2023.2.3,harveyvisual,2.1,[],8,0.75,
0,pause,0.4,None,None,None,0,189,189,189,,,,,,,,,,,,,D004,visual,5,[],"['1', '2', '3', '4']",1,2023.2.3,harveyvisual,2.1,[],8,0.75,
7,dot,0.3,['dot'],['density'],black,0,190,190,190,,,68.90022087097168,68.61699509620667,68.91698789596558,dot,"[0.1, 0.1, 0.1, 0.08, 0.1, 0.08, 0.06]","[[-0.1635229753841098, 0.12186382262109141], [0.03437657187081179, 0.5178389267683822], [0.324184412335695, 0.17931743601205324], [0.08929018524031027, 0.11005745596178185], [-0.1318259817332877, 0.4026967659136047], [-0.053046683696667, -0.06058584598870606], [0.042745683665752716, 0.304616966822181]]",density,black,,,D004,visual,5,[],"['1', '2', '3', '4']",1,2023.2.3,harveyvisual,2.1,[],8,0.75,
0,pause,0.4,None,None,None,0,191,191,191,,,,,,,,,,,,,D004,visual,5,[],"['1', '2', '3', '4']",1,2023.2.3,harveyvisual,2.1,[],8,0.75,
6,dot,0.3,['dot'],['density'],black,0,192,192,192,,,69.60021805763245,69.3171648979187,69.61716389656067,dot,"[0.1, 0.1, 0.08, 0.08, 0.1, 0.08]","[[0.4536033237290603, -0.10703390074252807], [0.4090862681261178, 0.14156446515860444], [0.3446070222150913, -0.333203595144996], [0.1541486512624917, 0.13839280063469406], [0.16833114318264894, -0.23068973514796048], [0.2520001164899556, -0.04323865486760776]]",density,black,,,D004,visual,5,[],"['1', '2', '3', '4']",1,2023.2.3,harveyvisual,2.1,[],8,0.75,
0,pause,0.4,None,None,None,0,193,193,193,,,,,,,,,,,,,D004,visual,5,[],"['1', '2', '3', '4']",1,2023.2.3,harveyvisual,2.1,[],8,0.75,
6,dot,0.3,['dot'],['density'],white,0,194,194,194,,,70.30020594596863,70.01717805862427,70.31694197654724,dot,"[0.06, 0.1, 0.1, 0.08, 0.08, 0.08]","[[-0.060066269329224556, -0.3459973645598818], [-0.2267112282887438, -0.46433083725857055], [-0.03368736353914721, -0.0592740518520544], [0.1129416353875032, -0.20466059509733167], [0.13908697530976044, -0.42386339769443276], [-0.2931789080149146, -0.2669036372638095]]",density,white,,,D004,visual,5,[],"['1', '2', '3', '4']",1,2023.2.3,harveyvisual,2.1,[],8,0.75,
0,pause,0.4,None,None,None,0,195,195,195,,,,,,,,,,,1,70.58915209770203,D004,visual,5,[],"['1', '2', '3', '4']",1,2023.2.3,harveyvisual,2.1,[],8,0.75,
6,dot,0.3,['dot'],['density'],black,0,196,196,196,,,71.00021290779114,70.71707606315613,71.01708197593689,dot,"[0.1, 0.08, 0.1, 0.1, 0.06, 0.08]","[[-0.08086177951302478, 0.2470577028799217], [0.17809040740055945, 0.25721690350386706], [0.248993691455746, -0.144418230259854], [0.04260816027356476, -0.17251108440570345], [0.26201279645255604, 0.07253913185781388], [-0.0017619790798508912, 0.027830886297901026]]",density,black,,,D004,visual,5,[],"['1', '2', '3', '4']",1,2023.2.3,harveyvisual,2.1,[],8,0.75,
0,pause,0.4,None,None,None,0,197,197,197,,,,,,,,,,,,,D004,visual,5,[],"['1', '2', '3', '4']",1,2023.2.3,harveyvisual,2.1,[],8,0.75,
6,dot,0.3,['dot'],['density'],black,0,198,198,198,,,71.70022487640381,71.41706490516663,71.71705889701843,dot,"[0.06, 0.1, 0.06, 0.08, 0.08, 0.06]","[[0.285926512064941, -0.24481785515673876], [0.418595730147314, -0.41068201076939437], [0.08023911914447063, -0.2907744195836184], [0.5255309086764915, -0.21900298349449057], [0.21619509519697316, -0.004828458463526469], [0.21043770887025895, -0.4594541383061854]]",density,black,,,D004,visual,5,[],"['1', '2', '3', '4']",1,2023.2.3,harveyvisual,2.1,[],8,0.75,
0,pause,0.4,None,None,None,0,199,199,199,,,,,,,,,,,,,D004,visual,5,[],"['1', '2', '3', '4']",1,2023.2.3,harveyvisual,2.1,[],8,0.75,
6,dot,0.3,['dot'],['density'],black,0,200,200,200,,,72.400230884552,72.1169068813324,72.41689896583557,dot,"[0.06, 0.06, 0.1, 0.06, 0.06, 0.08]","[[0.2333794889108542, 0.5108688068097712], [0.17720399199515413, 0.06488002481085814], [0.3526024925964592, 0.16961020277143707], [0.1596713132306006, 0.321837067503818], [0.0007438407140586783, 0.18344495120876914], [0.42757463853404776, 0.37786691715169374]]",density,black,,,D004,visual,5,[],"['1', '2', '3', '4']",1,2023.2.3,harveyvisual,2.1,[],8,0.75,
0,pause,0.4,None,None,None,0,201,201,201,,,,,,,,,,,,,D004,visual,5,[],"['1', '2', '3', '4']",1,2023.2.3,harveyvisual,2.1,[],8,0.75,
6,dot,0.3,['dot'],['density'],white,0,202,202,202,,,73.10022687911987,72.81691908836365,73.11705303192139,dot,"[0.06, 0.1, 0.08, 0.08, 0.1, 0.1]","[[-0.06594826066790033, 0.1051940440944823], [0.15491437476435005, 0.24610541937573027], [-0.07004887042171212, 0.3755397070333221], [0.22920853754483062, 0.04629278748534093], [0.14611265926610215, 0.46549762069565603], [0.352938231914746, 0.33060025924169734]]",density,white,,,D004,visual,5,[],"['1', '2', '3', '4']",1,2023.2.3,harveyvisual,2.1,[],8,0.75,
0,pause,0.4,None,None,None,0,203,203,203,,,,,,,,,,,1,73.4273738861084,D004,visual,5,[],"['1', '2', '3', '4']",1,2023.2.3,harveyvisual,2.1,[],8,0.75,
5,dot,0.3,['dot'],['density'],black,0,204,204,204,,,73.80020999908447,73.51706600189209,73.8168830871582,dot,"[0.06, 0.08, 0.08, 0.08, 0.08]","[[-0.18510638544872327, 0.41559840932892733], [-0.057175862535637494, 0.18304904272057057], [0.24003340414173915, 0.43371676657957026], [0.006490958465160464, 0.4770521622163581], [0.13658455045585424, 0.2476502540597336]]",density,black,,,D004,visual,5,[],"['1', '2', '3', '4']",1,2023.2.3,harveyvisual,2.1,[],8,0.75,
0,pause,0.4,None,None,None,0,205,205,205,,,,,,,,,,,,,D004,visual,5,[],"['1', '2', '3', '4']",1,2023.2.3,harveyvisual,2.1,[],8,0.75,
5,dot,0.3,['dot'],['density'],black,0,206,206,206,,,74.50021696090698,74.2168869972229,74.51683902740479,dot,"[0.08, 0.06, 0.06, 0.08, 0.08]","[[0.14370466841446422, -0.4636309982806098], [0.2961807471193908, -0.30487684838795487], [-0.08083516471444438, -0.49823911181902014], [0.057429843216129074, -0.22123310288296744], [-0.1653320673045236, -0.3160671692815837]]",density,black,,,D004,visual,5,[],"['1', '2', '3', '4']",1,2023.2.3,harveyvisual,2.1,[],8,0.75,
0,pause,0.4,None,None,None,0,207,207,207,,,,,,,,,,,,,D004,visual,5,[],"['1', '2', '3', '4']",1,2023.2.3,harveyvisual,2.1,[],8,0.75,
5,dot,0.3,['dot'],['density'],black,0,208,208,208,,,75.20021510124207,74.91696190834045,75.21682000160217,dot,"[0.06, 0.08, 0.1, 0.06, 0.08]","[[0.14370466841446422, -0.4636309982806098], [0.2961807471193908, -0.30487684838795487], [-0.08083516471444438, -0.49823911181902014], [0.057429843216129074, -0.22123310288296744], [-0.1653320673045236, -0.3160671692815837]]",density,black,,,D004,visual,5,[],"['1', '2', '3', '4']",1,2023.2.3,harveyvisual,2.1,[],8,0.75,
0,pause,0.4,None,None,None,0,209,209,209,,,,,,,,,,,,,D004,visual,5,[],"['1', '2', '3', '4']",1,2023.2.3,harveyvisual,2.1,[],8,0.75,
5,dot,0.3,['dot'],['density'],black,0,210,210,210,,,75.90021204948425,75.61694407463074,75.91691994667053,dot,"[0.08, 0.08, 0.06, 0.08, 0.08]","[[-0.4709100701083565, 0.02189337908226187], [-0.29145525575644754, 0.3795081276742083], [-0.23690205020139254, 0.016868774910060797], [-0.4278442329265702, 0.22919645259494104], [-0.09991604659712162, 0.23043195716445664]]",density,black,,,D004,visual,5,[],"['1', '2', '3', '4']",1,2023.2.3,harveyvisual,2.1,[],8,0.75,
0,pause,0.4,None,None,None,0,211,211,211,,,,,,,,,,,,,D004,visual,5,[],"['1', '2', '3', '4']",1,2023.2.3,harveyvisual,2.1,[],8,0.75,
5,dot,0.3,['dot'],['density'],black,0,212,212,212,,,76.60023808479309,76.3169219493866,76.61683487892151,dot,"[0.06, 0.1, 0.08, 0.1, 0.1]","[[0.4409169755572007, 0.017856988789309493], [0.10933872532765951, -0.20637645515835812], [0.27728831588229885, 0.198954967346464], [0.3100556643305453, -0.16532657838491105], [0.11148968869271939, 0.006469487304542018]]",density,black,,,D004,visual,5,[],"['1', '2', '3', '4']",1,2023.2.3,harveyvisual,2.1,[],8,0.75,
0,pause,0.4,None,None,None,0,213,213,213,,,,,,,,,,,,,D004,visual,5,[],"['1', '2', '3', '4']",1,2023.2.3,harveyvisual,2.1,[],8,0.75,
5,dot,0.3,['dot'],['density'],black,0,214,214,214,,,77.30022192001343,77.01679491996765,77.31672692298889,dot,"[0.06, 0.1, 0.1, 0.08, 0.06]","[[-0.082153098152829, -0.06894165798345762], [0.016766770742065788, -0.42680196676869325], [0.2961099764235258, -0.14925166127785872], [-0.1456021726000032, -0.26669195071034546], [0.10213220283607832, -0.23321095001989858]]",density,black,,,D004,visual,5,[],"['1', '2', '3', '4']",1,2023.2.3,harveyvisual,2.1,[],8,0.75,
0,pause,0.4,None,None,None,0,215,215,215,,,,,,,,,,,,,D004,visual,5,[],"['1', '2', '3', '4']",1,2023.2.3,harveyvisual,2.1,[],8,0.75,
4,dot,0.3,['dot'],['density'],black,0,216,216,216,,,78.00023198127747,77.71675896644592,78.01674103736877,dot,"[0.1, 0.1, 0.08, 0.08]","[[-0.035956560563939345, -0.32709283091503677], [-0.2190429995428959, -0.2035699502326352], [-0.06992348234594314, -0.5664776463754845], [-0.220471277594294, -0.41208836036752056]]",density,black,,,D004,visual,5,[],"['1', '2', '3', '4']",1,2023.2.3,harveyvisual,2.1,[],8,0.75,
0,pause,0.4,None,None,None,0,217,217,217,,,,,,,,,,,,,D004,visual,5,[],"['1', '2', '3', '4']",1,2023.2.3,harveyvisual,2.1,[],8,0.75,
4,dot,0.3,['dot'],['density'],white,0,218,218,218,,,78.70022988319397,78.41674304008484,78.71672201156616,dot,"[0.08, 0.1, 0.06, 0.08]","[[-0.041173875632770134, -0.46498671258652186], [-0.2993670243960792, -0.1306311282158324], [-0.23343206187288035, -0.39905635110522214], [-0.1242366033797093, -0.2299834244258363]]",density,white,,,D004,visual,5,[],"['1', '2', '3', '4']",1,2023.2.3,harveyvisual,2.1,[],8,0.75,
0,pause,0.4,None,None,None,0,219,219,219,,,,,,,,,,,1,78.89688992500305,D004,visual,5,[],"['1', '2', '3', '4']",1,2023.2.3,harveyvisual,2.1,[],8,0.75,
4,dot,0.3,['dot'],['density'],black,0,220,220,220,,,79.4002161026001,79.1167221069336,79.41670894622803,dot,"[0.08, 0.08, 0.08, 0.08]","[[-0.22375678750486633, 0.16938766720995918], [-0.03438308412182927, 0.2632029670309489], [0.15312837370161694, 0.1265605786946886], [-0.035433382102469414, 0.014828983441921377]]",density,black,,,D004,visual,5,[],"['1', '2', '3', '4']",1,2023.2.3,harveyvisual,2.1,[],8,0.75,
0,pause,0.4,None,None,None,0,221,221,221,,,,,,,,,,,,,D004,visual,5,[],"['1', '2', '3', '4']",1,2023.2.3,harveyvisual,2.1,[],8,0.75,
4,dot,0.3,['dot'],['density'],black,0,222,222,222,,,80.10020709037781,79.81670594215393,80.11667895317078,dot,"[0.1, 0.06, 0.08, 0.08]","[[0.15462156444594843, 0.0379601134824338], [-0.046642739949193296, 0.06510400621286498], [0.12320708371464141, 0.2499967514902957], [-0.13279798436850673, 0.2624558601457805]]",density,black,,,D004,visual,5,[],"['1', '2', '3', '4']",1,2023.2.3,harveyvisual,2.1,[],8,0.75,
0,pause,0.4,None,None,None,0,223,223,223,,,,,,,,,,,,,D004,visual,5,[],"['1', '2', '3', '4']",1,2023.2.3,harveyvisual,2.1,[],8,0.75,
4,dot,0.3,['dot'],['density'],black,0,224,224,224,,,80.80023193359375,80.51668310165405,80.81666994094849,dot,"[0.1, 0.06, 0.06, 0.1]","[[-0.041173875632770134, -0.46498671258652186], [-0.2993670243960792, -0.1306311282158324], [-0.23343206187288035, -0.39905635110522214], [-0.1242366033797093, -0.2299834244258363]]",density,black,,,D004,visual,5,[],"['1', '2', '3', '4']",1,2023.2.3,harveyvisual,2.1,[],8,0.75,
0,pause,0.4,None,None,None,0,225,225,225,,,,,,,,,,,,,D004,visual,5,[],"['1', '2', '3', '4']",1,2023.2.3,harveyvisual,2.1,[],8,0.75,
4,dot,0.3,['dot'],['density'],black,0,226,226,226,,,81.50023198127747,81.2166759967804,81.51665806770325,dot,"[0.1, 0.1, 0.06, 0.1]","[[-0.041173875632770134, -0.46498671258652186], [-0.2993670243960792, -0.1306311282158324], [-0.23343206187288035, -0.39905635110522214], [-0.1242366033797093, -0.2299834244258363]]",density,black,,,D004,visual,5,[],"['1', '2', '3', '4']",1,2023.2.3,harveyvisual,2.1,[],8,0.75,
0,pause,0.4,None,None,None,0,227,227,227,,,,,,,,,,,,,D004,visual,5,[],"['1', '2', '3', '4']",1,2023.2.3,harveyvisual,2.1,[],8,0.75,
3,dot,0.3,['dot'],['density'],black,0,228,228,228,,,82.20022392272949,81.91664600372314,82.21668004989624,dot,"[0.08, 0.1, 0.06]","[[-0.1599523582230929, -0.020289166781496174], [-0.3458010015304564, -0.14250622038001895], [-0.3538668896253721, 0.08903610231223419]]",density,black,,,D004,visual,5,[],"['1', '2', '3', '4']",1,2023.2.3,harveyvisual,2.1,[],8,0.75,
0,pause,0.4,None,None,None,0,229,229,229,,,,,,,,,,,,,D004,visual,5,[],"['1', '2', '3', '4']",1,2023.2.3,harveyvisual,2.1,[],8,0.75,
3,dot,0.3,['dot'],['density'],black,0,230,230,230,,,82.90022492408752,82.61663389205933,82.91661405563354,dot,"[0.06, 0.1, 0.06]","[[-0.15188894406744968, -0.195193050272512], [6.772800145782267e-05, -0.040844811103836635], [-0.2045693439875358, 0.0038115475482788236]]",density,black,,,D004,visual,5,[],"['1', '2', '3', '4']",1,2023.2.3,harveyvisual,2.1,[],8,0.75,
0,pause,0.4,None,None,None,0,231,231,231,,,,,,,,,,,,,D004,visual,5,[],"['1', '2', '3', '4']",1,2023.2.3,harveyvisual,2.1,[],8,0.75,
3,dot,0.3,['dot'],['density'],black,0,232,232,232,,,83.60022187232971,83.31675004959106,83.61671996116638,dot,"[0.06, 0.1, 0.06]","[[0.5267872668145167, -0.16137547842759675], [0.3420119191573968, -0.036920749927643534], [0.3185462880061428, -0.2399114968218526]]",density,black,,,D004,visual,5,[],"['1', '2', '3', '4']",1,2023.2.3,harveyvisual,2.1,[],8,0.75,
0,pause,0.4,None,None,None,0,233,233,233,,,,,,,,,,,,,D004,visual,5,[],"['1', '2', '3', '4']",1,2023.2.3,harveyvisual,2.1,[],8,0.75,
3,dot,0.3,['dot'],['density'],black,0,234,234,234,,,84.30022406578064,84.01659202575684,84.31671595573425,dot,"[0.06, 0.1, 0.06]","[[-0.5649268285189266, -0.02945458741690218], [-0.36332336008090005, 0.05160617148840915], [-0.5004673786076542, 0.20230308468415367]]",density,black,,,D004,visual,5,[],"['1', '2', '3', '4']",1,2023.2.3,harveyvisual,2.1,[],8,0.75,
0,pause,0.4,None,None,None,0,235,235,235,,,,,,,,,,,,,D004,visual,5,[],"['1', '2', '3', '4']",1,2023.2.3,harveyvisual,2.1,[],8,0.75,
3,dot,0.3,['dot'],['density'],black,0,236,236,236,,,85.00023102760315,84.71656703948975,85.01658987998962,dot,"[0.1, 0.1, 0.1]","[[0.35100391059830643, -0.4491085892346253], [0.13011513135189492, -0.5590284990295896], [0.16905753934955023, -0.35714526366544236]]",density,black,,,D004,visual,5,[],"['1', '2', '3', '4']",1,2023.2.3,harveyvisual,2.1,[],8,0.75,
0,pause,0.4,None,None,None,0,237,237,237,,,,,,,,,,,,,D004,visual,5,[],"['1', '2', '3', '4']",1,2023.2.3,harveyvisual,2.1,[],8,0.75,
3,dot,0.3,['dot'],['density'],black,0,238,238,238,,,85.70023202896118,85.4166898727417,85.71667289733887,dot,"[0.06, 0.1, 0.1]","[[0.13507679288784277, 0.012189921546254917], [0.31506600046810584, 0.10578898906948993], [0.12756957777796288, 0.2513869495778075]]",density,black,,,D004,visual,5,[],"['1', '2', '3', '4']",1,2023.2.3,harveyvisual,2.1,[],8,0.75,
0,pause,0.4,None,None,None,0,239,239,239,,,,,,,,,,,,,D004,visual,5,[],"['1', '2', '3', '4']",1,2023.2.3,harveyvisual,2.1,[],8,0.75,
2,dot,0.3,['dot'],['density'],black,0,240,240,240,,,86.40021705627441,86.11657810211182,86.41652488708496,dot,"[0.06, 0.1]","[[0.075840462383643, -0.21806900392302264], [0.2761252679018853, -0.22101292055433702]]",density,black,,,D004,visual,5,[],"['1', '2', '3', '4']",1,2023.2.3,harveyvisual,2.1,[],8,0.75,
0,pause,0.4,None,None,None,0,241,241,241,,,,,,,,,,,,,D004,visual,5,[],"['1', '2', '3', '4']",1,2023.2.3,harveyvisual,2.1,[],8,0.75,
2,dot,0.3,['dot'],['density'],black,0,242,242,242,,,87.10020995140076,86.81659293174744,87.11654090881348,dot,"[0.08, 0.1]","[[-0.03288134563171543, -0.4238564918242606], [-0.10611641736664675, -0.2370354775439666]]",density,black,,,D004,visual,5,[],"['1', '2', '3', '4']",1,2023.2.3,harveyvisual,2.1,[],8,0.75,
0,pause,0.4,None,None,None,0,243,243,243,,,,,,,,,,,,,D004,visual,5,[],"['1', '2', '3', '4']",1,2023.2.3,harveyvisual,2.1,[],8,0.75,
2,dot,0.3,['dot'],['density'],white,0,244,244,244,,,87.80022192001343,87.51664590835571,87.8166298866272,dot,"[0.08, 0.08]","[[0.075840462383643, -0.21806900392302264], [0.2761252679018853, -0.22101292055433702]]",density,white,,,D004,visual,5,[],"['1', '2', '3', '4']",1,2023.2.3,harveyvisual,2.1,[],8,0.75,
0,pause,0.4,None,None,None,0,245,245,245,,,,,,,,,,,1,88.10615706443787,D004,visual,5,[],"['1', '2', '3', '4']",1,2023.2.3,harveyvisual,2.1,[],8,0.75,
2,dot,0.3,['dot'],['density'],black,0,246,246,246,,,88.50021600723267,88.2167329788208,88.51646590232849,dot,"[0.06, 0.06]","[[0.24818458179829028, -0.5230613829255512], [0.05315527151035717, -0.47711981276458415]]",density,black,,,D004,visual,5,[],"['1', '2', '3', '4']",1,2023.2.3,harveyvisual,2.1,[],8,0.75,
0,pause,0.4,None,None,None,0,247,247,247,,,,,,,,,,,,,D004,visual,5,[],"['1', '2', '3', '4']",1,2023.2.3,harveyvisual,2.1,[],8,0.75,
2,dot,0.3,['dot'],['density'],black,0,248,248,248,,,89.20022392272949,88.9164628982544,89.21645498275757,dot,"[0.08, 0.08]","[[-0.15001882639889116, 0.48719053997247297], [-0.1736568080125972, 0.28835755901726084]]",density,black,,,D004,visual,5,[],"['1', '2', '3', '4']",1,2023.2.3,harveyvisual,2.1,[],8,0.75,
0,pause,0.4,None,None,None,0,249,249,249,,,,,,,,,,,,,D004,visual,5,[],"['1', '2', '3', '4']",1,2023.2.3,harveyvisual,2.1,[],8,0.75,
2,dot,0.3,['dot'],['density'],black,0,250,250,250,,,89.90020990371704,89.6164379119873,89.91642999649048,dot,"[0.1, 0.1]","[[-0.03288134563171543, -0.4238564918242606], [-0.10611641736664675, -0.2370354775439666]]",density,black,,,D004,visual,5,[],"['1', '2', '3', '4']",1,2023.2.3,harveyvisual,2.1,[],8,0.75,
0,pause,0.4,None,None,None,0,251,251,251,,,,,,,,,,,,,D004,visual,5,[],"['1', '2', '3', '4']",1,2023.2.3,harveyvisual,2.1,[],8,0.75,
1,dot,0.3,['dot'],['density'],black,0,252,252,252,,,90.60023593902588,90.31643891334534,90.61643600463867,dot,[0.06],"[0.21839164384074103, 0.06179923858190914]",density,black,,,D004,visual,5,[],"['1', '2', '3', '4']",1,2023.2.3,harveyvisual,2.1,[],8,0.75,
0,pause,0.4,None,None,None,0,253,253,253,,,,,,,,,,,,,D004,visual,5,[],"['1', '2', '3', '4']",1,2023.2.3,harveyvisual,2.1,[],8,0.75,
1,dot,0.3,['dot'],['density'],black,0,254,254,254,,,91.30022096633911,91.01640009880066,91.31652593612671,dot,[0.1],"[-0.22356924330877379, 0.41145231278245986]",density,black,,,D004,visual,5,[],"['1', '2', '3', '4']",1,2023.2.3,harveyvisual,2.1,[],8,0.75,
0,pause,0.4,None,None,None,0,255,255,255,,,,,,,,,,,,,D004,visual,5,[],"['1', '2', '3', '4']",1,2023.2.3,harveyvisual,2.1,[],8,0.75,
1,dot,0.3,['dot'],['density'],black,0,256,256,256,,,92.00024509429932,91.71640706062317,92.01635503768921,dot,[0.08],"[0.0038807231877187303, -0.2777732366953785]",density,black,,,D004,visual,5,[],"['1', '2', '3', '4']",1,2023.2.3,harveyvisual,2.1,[],8,0.75,
0,pause,0.4,None,None,None,0,257,257,257,,,,,,,,,,,,,D004,visual,5,[],"['1', '2', '3', '4']",1,2023.2.3,harveyvisual,2.1,[],8,0.75,
1,dot,0.3,['dot'],['density'],black,0,258,258,258,,,92.70021605491638,92.41637206077576,92.71636605262756,dot,[0.08],"[0.4230572171255965, 0.15564154118015242]",density,black,,,D004,visual,5,[],"['1', '2', '3', '4']",1,2023.2.3,harveyvisual,2.1,[],8,0.75,
0,pause,0.4,None,None,None,0,259,259,259,,,,,,,,,,,,,D004,visual,5,[],"['1', '2', '3', '4']",1,2023.2.3,harveyvisual,2.1,[],8,0.75,
1,dot,0.3,['dot'],['density'],black,0,260,260,260,,,93.40022492408752,93.11637806892395,93.41634202003479,dot,[0.1],"[-0.3631366314731191, 0.1590646049745197]",density,black,,,D004,visual,5,[],"['1', '2', '3', '4']",1,2023.2.3,harveyvisual,2.1,[],8,0.75,
0,pause,0.4,None,None,None,0,261,261,261,,,,,,,,,,,,,D004,visual,5,[],"['1', '2', '3', '4']",1,2023.2.3,harveyvisual,2.1,[],8,0.75,
1,dot,0.3,['dot'],['density'],black,0,262,262,262,,,94.10022687911987,93.81634187698364,94.11635208129883,dot,[0.08],"[0.4420174282329864, -0.3383815273201445]",density,black,,,D004,visual,5,[],"['1', '2', '3', '4']",1,2023.2.3,harveyvisual,2.1,[],8,0.75,
0,pause,0.4,None,None,None,0,263,263,263,,,,,,,,,,,,,D004,visual,5,[],"['1', '2', '3', '4']",1,2023.2.3,harveyvisual,2.1,[],8,0.75,
20,dot,0.3,['dot'],['density'],black,0,264,264,264,,,94.80023789405823,94.5163369178772,94.81631398200989,dot,"[0.06, 0.08, 0.1, 0.06, 0.1, 0.08, 0.06, 0.08, 0.06, 0.08, 0.1, 0.06, 0.06, 0.08, 0.08, 0.1, 0.1, 0.06, 0.08, 0.1]","[[0.1327664783146989, -0.3296473480627882], [-0.1890049253737544, -0.39459619890591807], [-0.25606528822412045, -0.149130584611751], [0.39799921342736344, 0.3056655000218064], [-0.45694296341786095, -0.15665256305882871], [0.45512073049382773, -0.2777126967032335], [0.5342520059823913, -0.09301503317666932], [0.29217499710343076, 0.0747343879160921], [0.05292779007111559, -0.025567521931990078], [-0.28543707668369867, 0.2468508768716594], [-0.5346235622690911, 0.07717861266110004], [0.5382212746260348, 0.12748182276669057], [0.1420412069947813, 0.4364623876601187], [0.1421589358759222, -0.5670652453926072], [-0.21912533494335973, 0.4543519097639016], [-0.5107566070826867, 0.31368711721887677], [0.27935074094824464, -0.1690706272086317], [-0.025128048266901182, 0.2857974874213407], [-0.010123777067182482, 0.5912262137091034], [-0.4061275139387519, -0.4050973984202174]]",density,black,,,D004,visual,5,[],"['1', '2', '3', '4']",1,2023.2.3,harveyvisual,2.1,[],8,0.75,
0,pause,0.4,None,None,None,0,265,265,265,,,,,,,,,,,,,D004,visual,5,[],"['1', '2', '3', '4']",1,2023.2.3,harveyvisual,2.1,[],8,0.75,
20,dot,0.3,['dot'],['density'],black,0,266,266,266,,,95.50022506713867,95.21627497673035,95.51626110076904,dot,"[0.1, 0.06, 0.06, 0.08, 0.1, 0.08, 0.08, 0.1, 0.08, 0.08, 0.1, 0.08, 0.06, 0.08, 0.08, 0.06, 0.08, 0.08, 0.08, 0.08]","[[-0.5985259045450686, 0.05843725956622568], [0.23299122435865172, 0.32287231634519], [0.5401402832650767, 0.20487509642962592], [0.1611052038728048, -0.534024237343439], [0.171552184303854, 0.0035932214795083572], [-0.30805979953828944, -0.37214321988785404], [-0.48458650034598405, -0.299398238155714], [0.43371621519702297, -0.34569289263836867], [0.5423204482416314, -0.09172453584608709], [-0.15118039451192017, -0.22823865683812344], [-0.07111838281065497, 0.11820719344662722], [0.0638753612722669, -0.35604371065371476], [-0.3652615633345486, 0.32439085272319906], [0.04562259441648364, 0.3774298664792911], [-0.1890635372316416, -0.5643191005507635], [-0.36281504255186614, 0.013393785501040811], [0.3429925539290123, -0.147500811178932], [0.4236093485038731, 0.42456375981388367], [0.03832967697821332, -0.16162153756876058], [-0.14354360243284742, 0.4244080205346271]]",density,black,,,D004,visual,5,[],"['1', '2', '3', '4']",1,2023.2.3,harveyvisual,2.1,[],8,0.75,
0,pause,0.4,None,None,None,0,267,267,267,,,,,,,,,,,,,D004,visual,5,[],"['1', '2', '3', '4']",1,2023.2.3,harveyvisual,2.1,[],8,0.75,
