num,mod,duration,shape,ll_cond,colors,.thisRepN,.thisTrialN,.thisN,.thisIndex,thisRow.t,notes,raw_global_time,t_start,t_stop,shapes,size,pos,cond,color,button,RT,participant,session,starting_run,left button (match/odd),right button (non-match/even),samples_per_block,psychopy version,expName,offset,audio,number_runs,radius,
1,dot,0.3,['dot'],['density'],black,0,0,0,0,,,2.4001941680908203,2.10888409614563,2.4087820053100586,dot,[0.08],"[0.01430498756481247, 0.36429701967127975]",density,black,,,N008,visual,1,[],"['1', '2', '3', '4']",1,2023.2.3,harveyvisual,2.1,[],8,0.75,
0,pause,0.4,None,None,None,0,1,1,1,,,,,,,,,,,,,N008,visual,1,[],"['1', '2', '3', '4']",1,2023.2.3,harveyvisual,2.1,[],8,0.75,
1,dot,0.3,['dot'],['density'],black,0,2,2,2,,,3.100210189819336,2.808800220489502,3.109678030014038,dot,[0.08],"[-0.2532192430475575, -0.5275431624831907]",density,black,,,N008,visual,1,[],"['1', '2', '3', '4']",1,2023.2.3,harveyvisual,2.1,[],8,0.75,
0,pause,0.4,None,None,None,0,3,3,3,,,,,,,,,,,,,N008,visual,1,[],"['1', '2', '3', '4']",1,2023.2.3,harveyvisual,2.1,[],8,0.75,
1,dot,0.3,['dot'],['density'],black,0,4,4,4,,,3.8002002239227295,3.509197235107422,3.8090291023254395,dot,[0.1],"[-0.48958603946102763, 0.32731293615049173]",density,black,,,N008,visual,1,[],"['1', '2', '3', '4']",1,2023.2.3,harveyvisual,2.1,[],8,0.75,
0,pause,0.4,None,None,None,0,5,5,5,,,,,,,,,,,,,N008,visual,1,[],"['1', '2', '3', '4']",1,2023.2.3,harveyvisual,2.1,[],8,0.75,
1,dot,0.3,['dot'],['density'],black,0,6,6,6,,,4.500211000442505,4.20906400680542,4.509018182754517,dot,[0.08],"[0.31457923939875737, -0.4122609730770665]",density,black,,,N008,visual,1,[],"['1', '2', '3', '4']",1,2023.2.3,harveyvisual,2.1,[],8,0.75,
0,pause,0.4,None,None,None,0,7,7,7,,,,,,,,,,,,,N008,visual,1,[],"['1', '2', '3', '4']",1,2023.2.3,harveyvisual,2.1,[],8,0.75,
1,dot,0.3,['dot'],['density'],black,0,8,8,8,,,5.200211048126221,4.909012079238892,5.209001064300537,dot,[0.1],"[0.31457923939875737, -0.4122609730770665]",density,black,,,N008,visual,1,[],"['1', '2', '3', '4']",1,2023.2.3,harveyvisual,2.1,[],8,0.75,
0,pause,0.4,None,None,None,0,9,9,9,,,,,,,,,,,,,N008,visual,1,[],"['1', '2', '3', '4']",1,2023.2.3,harveyvisual,2.1,[],8,0.75,
1,dot,0.3,['dot'],['density'],black,0,10,10,10,,,5.900193214416504,5.6113362312316895,5.911322116851807,dot,[0.06],"[-0.0300711363278092, -0.16168860719337894]",density,black,,,N008,visual,1,[],"['1', '2', '3', '4']",1,2023.2.3,harveyvisual,2.1,[],8,0.75,
0,pause,0.4,None,None,None,0,11,11,11,,,,,,,,,,,,,N008,visual,1,[],"['1', '2', '3', '4']",1,2023.2.3,harveyvisual,2.1,[],8,0.75,
2,dot,0.3,['dot'],['density'],black,0,12,12,12,,,6.6001951694488525,6.311308145523071,6.611288070678711,dot,"[0.1, 0.06]","[[-0.09730612249650272, 0.4989075015380273], [-0.22752244688881013, 0.34485221713342457]]",density,black,,,N008,visual,1,[],"['1', '2', '3', '4']",1,2023.2.3,harveyvisual,2.1,[],8,0.75,
0,pause,0.4,None,None,None,0,13,13,13,,,,,,,,,,,,,N008,visual,1,[],"['1', '2', '3', '4']",1,2023.2.3,harveyvisual,2.1,[],8,0.75,
2,dot,0.3,['dot'],['density'],white,0,14,14,14,,,7.300196170806885,7.011308193206787,7.311330080032349,dot,"[0.06, 0.1]","[[0.3054529246123127, 0.4455278178545299], [0.3548458028228903, 0.2510588499170468]]",density,white,,,N008,visual,1,[],"['1', '2', '3', '4']",1,2023.2.3,harveyvisual,2.1,[],8,0.75,
0,pause,0.4,None,None,None,0,15,15,15,,,,,,,,,,,1,7.4566779136657715,N008,visual,1,[],"['1', '2', '3', '4']",1,2023.2.3,harveyvisual,2.1,[],8,0.75,
2,dot,0.3,['dot'],['density'],black,0,16,16,16,,,8.000204086303711,7.711511135101318,8.01128602027893,dot,"[0.06, 0.06]","[[0.1851205616289071, -0.3624876981064337], [0.3405923022038234, -0.23608025195482504]]",density,black,,,N008,visual,1,[],"['1', '2', '3', '4']",1,2023.2.3,harveyvisual,2.1,[],8,0.75,
0,pause,0.4,None,None,None,0,17,17,17,,,,,,,,,,,,,N008,visual,1,[],"['1', '2', '3', '4']",1,2023.2.3,harveyvisual,2.1,[],8,0.75,
2,dot,0.3,['dot'],['density'],white,0,18,18,18,,,8.700237035751343,8.411404132843018,8.711305141448975,dot,"[0.08, 0.08]","[[0.07059805578258149, -0.2458188734665979], [0.058763118304238846, -0.4455693812784497]]",density,white,,,N008,visual,1,[],"['1', '2', '3', '4']",1,2023.2.3,harveyvisual,2.1,[],8,0.75,
0,pause,0.4,None,None,None,0,19,19,19,,,,,,,,,,,1,8.801635026931763,N008,visual,1,[],"['1', '2', '3', '4']",1,2023.2.3,harveyvisual,2.1,[],8,0.75,
2,dot,0.3,['dot'],['density'],black,0,20,20,20,,,9.40019416809082,9.111393213272095,9.411384105682373,dot,"[0.06, 0.1]","[[0.5159928458027473, 0.13749655768121952], [0.38343727829172375, 0.28833164788761484]]",density,black,,,N008,visual,1,[],"['1', '2', '3', '4']",1,2023.2.3,harveyvisual,2.1,[],8,0.75,
0,pause,0.4,None,None,None,0,21,21,21,,,,,,,,,,,,,N008,visual,1,[],"['1', '2', '3', '4']",1,2023.2.3,harveyvisual,2.1,[],8,0.75,
2,dot,0.3,['dot'],['density'],black,0,22,22,22,,,10.100214004516602,9.811247110366821,10.11125922203064,dot,"[0.06, 0.1]","[[0.17083311991776792, -0.05558111512160733], [0.1461049568064877, -0.25438559320493304]]",density,black,,,N008,visual,1,[],"['1', '2', '3', '4']",1,2023.2.3,harveyvisual,2.1,[],8,0.75,
0,pause,0.4,None,None,None,0,23,23,23,,,,,,,,,,,,,N008,visual,1,[],"['1', '2', '3', '4']",1,2023.2.3,harveyvisual,2.1,[],8,0.75,
3,dot,0.3,['dot'],['density'],black,0,24,24,24,,,10.800202131271362,10.511254072189331,10.811239004135132,dot,"[0.08, 0.06, 0.1]","[[0.041215869578383385, -0.00689674906403758], [0.17500875751152645, 0.21459232562634095], [-0.03632281132631849, 0.2012994076415249]]",density,black,,,N008,visual,1,[],"['1', '2', '3', '4']",1,2023.2.3,harveyvisual,2.1,[],8,0.75,
0,pause,0.4,None,None,None,0,25,25,25,,,,,,,,,,,,,N008,visual,1,[],"['1', '2', '3', '4']",1,2023.2.3,harveyvisual,2.1,[],8,0.75,
3,dot,0.3,['dot'],['density'],black,0,26,26,26,,,11.500206232070923,11.211214065551758,11.511176109313965,dot,"[0.06, 0.06, 0.06]","[[0.2656832518280197, 0.0014864193765316018], [0.3503107158811183, -0.1826455867164705], [0.5188928509039705, -0.04177453376365527]]",density,black,,,N008,visual,1,[],"['1', '2', '3', '4']",1,2023.2.3,harveyvisual,2.1,[],8,0.75,
0,pause,0.4,None,None,None,0,27,27,27,,,,,,,,,,,,,N008,visual,1,[],"['1', '2', '3', '4']",1,2023.2.3,harveyvisual,2.1,[],8,0.75,
3,dot,0.3,['dot'],['density'],black,0,28,28,28,,,12.200193166732788,11.911189079284668,12.211181163787842,dot,"[0.08, 0.1, 0.08]","[[0.35100391059830643, -0.4491085892346253], [0.13011513135189492, -0.5590284990295896], [0.16905753934955023, -0.35714526366544236]]",density,black,,,N008,visual,1,[],"['1', '2', '3', '4']",1,2023.2.3,harveyvisual,2.1,[],8,0.75,
0,pause,0.4,None,None,None,0,29,29,29,,,,,,,,,,,,,N008,visual,1,[],"['1', '2', '3', '4']",1,2023.2.3,harveyvisual,2.1,[],8,0.75,
3,dot,0.3,['dot'],['density'],black,0,30,30,30,,,12.900217056274414,12.611197233200073,12.911184072494507,dot,"[0.1, 0.08, 0.08]","[[0.4290032298944087, 0.1407520187648592], [0.22848299553954127, 0.06362144779139585], [0.3595680574788582, -0.09433362503040832]]",density,black,,,N008,visual,1,[],"['1', '2', '3', '4']",1,2023.2.3,harveyvisual,2.1,[],8,0.75,
0,pause,0.4,None,None,None,0,31,31,31,,,,,,,,,,,,,N008,visual,1,[],"['1', '2', '3', '4']",1,2023.2.3,harveyvisual,2.1,[],8,0.75,
3,dot,0.3,['dot'],['density'],black,0,32,32,32,,,13.600194215774536,13.311185121536255,13.611166000366211,dot,"[0.1, 0.06, 0.1]","[[-0.10589639487257244, 0.35295021258352427], [0.12780035046084517, 0.3479378296372768], [0.013663645537612555, 0.51889388118174]]",density,black,,,N008,visual,1,[],"['1', '2', '3', '4']",1,2023.2.3,harveyvisual,2.1,[],8,0.75,
0,pause,0.4,None,None,None,0,33,33,33,,,,,,,,,,,,,N008,visual,1,[],"['1', '2', '3', '4']",1,2023.2.3,harveyvisual,2.1,[],8,0.75,
3,dot,0.3,['dot'],['density'],black,0,34,34,34,,,14.300206184387207,14.011175155639648,14.31116008758545,dot,"[0.06, 0.08, 0.06]","[[-0.1599523582230929, -0.020289166781496174], [-0.3458010015304564, -0.14250622038001895], [-0.3538668896253721, 0.08903610231223419]]",density,black,,,N008,visual,1,[],"['1', '2', '3', '4']",1,2023.2.3,harveyvisual,2.1,[],8,0.75,
0,pause,0.4,None,None,None,0,35,35,35,,,,,,,,,,,,,N008,visual,1,[],"['1', '2', '3', '4']",1,2023.2.3,harveyvisual,2.1,[],8,0.75,
4,dot,0.3,['dot'],['density'],black,0,36,36,36,,,15.000213146209717,14.711254119873047,15.011268138885498,dot,"[0.1, 0.06, 0.1, 0.1]","[[0.2541297109701026, -0.03410267595110144], [0.396116024817599, -0.19002287009394117], [0.4303711222235913, 0.2602585224666286], [0.4446461975978109, 0.027516111316963392]]",density,black,,,N008,visual,1,[],"['1', '2', '3', '4']",1,2023.2.3,harveyvisual,2.1,[],8,0.75,
0,pause,0.4,None,None,None,0,37,37,37,,,,,,,,,,,,,N008,visual,1,[],"['1', '2', '3', '4']",1,2023.2.3,harveyvisual,2.1,[],8,0.75,
4,dot,0.3,['dot'],['density'],black,0,38,38,38,,,15.700212001800537,15.411092042922974,15.711080074310303,dot,"[0.08, 0.06, 0.1, 0.06]","[[-0.1807894278345534, -0.050693892368996955], [-0.03778933673514029, -0.29773510453537966], [0.0747201162679791, -0.1287424711559737], [-0.02241484737224569, 0.07404475448468936]]",density,black,,,N008,visual,1,[],"['1', '2', '3', '4']",1,2023.2.3,harveyvisual,2.1,[],8,0.75,
0,pause,0.4,None,None,None,0,39,39,39,,,,,,,,,,,,,N008,visual,1,[],"['1', '2', '3', '4']",1,2023.2.3,harveyvisual,2.1,[],8,0.75,
4,dot,0.3,['dot'],['density'],black,0,40,40,40,,,16.400209188461304,16.111208200454712,16.411113023757935,dot,"[0.08, 0.08, 0.1, 0.08]","[[0.2541297109701026, -0.03410267595110144], [0.396116024817599, -0.19002287009394117], [0.4303711222235913, 0.2602585224666286], [0.4446461975978109, 0.027516111316963392]]",density,black,,,N008,visual,1,[],"['1', '2', '3', '4']",1,2023.2.3,harveyvisual,2.1,[],8,0.75,
0,pause,0.4,None,None,None,0,41,41,41,,,,,,,,,,,,,N008,visual,1,[],"['1', '2', '3', '4']",1,2023.2.3,harveyvisual,2.1,[],8,0.75,
4,dot,0.3,['dot'],['density'],black,0,42,42,42,,,17.10020422935486,16.811025142669678,17.111014127731323,dot,"[0.06, 0.1, 0.06, 0.08]","[[0.17852470546651972, -0.2012438881607824], [-0.031034799765910746, -0.12466087783573923], [0.008996399474264666, -0.3229379719524122], [0.15114343287780646, 0.03986859122442722]]",density,black,,,N008,visual,1,[],"['1', '2', '3', '4']",1,2023.2.3,harveyvisual,2.1,[],8,0.75,
0,pause,0.4,None,None,None,0,43,43,43,,,,,,,,,,,,,N008,visual,1,[],"['1', '2', '3', '4']",1,2023.2.3,harveyvisual,2.1,[],8,0.75,
4,dot,0.3,['dot'],['density'],black,0,44,44,44,,,17.800207138061523,17.511012077331543,17.811004161834717,dot,"[0.08, 0.06, 0.06, 0.08]","[[0.37520814465037905, -0.4432880181017862], [0.4692830223283075, -0.19655799526205012], [0.3063896805601884, -0.036788685454167226], [0.2471196723673293, -0.2344474043623998]]",density,black,,,N008,visual,1,[],"['1', '2', '3', '4']",1,2023.2.3,harveyvisual,2.1,[],8,0.75,
0,pause,0.4,None,None,None,0,45,45,45,,,,,,,,,,,,,N008,visual,1,[],"['1', '2', '3', '4']",1,2023.2.3,harveyvisual,2.1,[],8,0.75,
4,dot,0.3,['dot'],['density'],black,0,46,46,46,,,18.50021719932556,18.21099305152893,18.511004209518433,dot,"[0.08, 0.08, 0.06, 0.06]","[[0.1665887267295909, 0.08389582001604734], [0.4584359263982055, 0.26405512465689546], [0.4157764543415929, 0.03513878013061779], [0.2392225064082761, 0.29777239984320175]]",density,black,,,N008,visual,1,[],"['1', '2', '3', '4']",1,2023.2.3,harveyvisual,2.1,[],8,0.75,
0,pause,0.4,None,None,None,0,47,47,47,,,,,,,,,,,,,N008,visual,1,[],"['1', '2', '3', '4']",1,2023.2.3,harveyvisual,2.1,[],8,0.75,
5,dot,0.3,['dot'],['density'],black,0,48,48,48,,,19.20019507408142,18.910972118377686,19.210955142974854,dot,"[0.08, 0.06, 0.1, 0.08, 0.08]","[[-0.13250041589442924, 0.4634743177333449], [-0.03625216126902591, 0.28212032656479163], [0.10864293512180892, 0.5244886061775208], [-0.2806491611955352, 0.29160063440784684], [-0.17458602784440078, 0.11997474961663163]]",density,black,,,N008,visual,1,[],"['1', '2', '3', '4']",1,2023.2.3,harveyvisual,2.1,[],8,0.75,
0,pause,0.4,None,None,None,0,49,49,49,,,,,,,,,,,,,N008,visual,1,[],"['1', '2', '3', '4']",1,2023.2.3,harveyvisual,2.1,[],8,0.75,
5,dot,0.3,['dot'],['density'],black,0,50,50,50,,,19.900207042694092,19.610958099365234,19.91094422340393,dot,"[0.06, 0.1, 0.08, 0.06, 0.08]","[[-0.10197385386246118, 0.24760023034087644], [-0.014646448823952617, 0.47519555304773536], [-0.21360058910662874, 0.441350445979826], [-0.3878570731713836, 0.20534708698022924], [-0.24187982362067023, 0.06730525069120082]]",density,black,,,N008,visual,1,[],"['1', '2', '3', '4']",1,2023.2.3,harveyvisual,2.1,[],8,0.75,
0,pause,0.4,None,None,None,0,51,51,51,,,,,,,,,,,,,N008,visual,1,[],"['1', '2', '3', '4']",1,2023.2.3,harveyvisual,2.1,[],8,0.75,
5,dot,0.3,['dot'],['density'],black,0,52,52,52,,,20.60021710395813,20.31094717979431,20.610920190811157,dot,"[0.06, 0.06, 0.08, 0.06, 0.1]","[[-0.416197921377668, -0.28619329865683824], [-0.20866628843358032, -0.3460647126262422], [-0.5570429559765239, -0.05989317214741584], [-0.28028983240144106, -0.12146425093182346], [-0.3531870384577651, 0.07845006904085886]]",density,black,,,N008,visual,1,[],"['1', '2', '3', '4']",1,2023.2.3,harveyvisual,2.1,[],8,0.75,
0,pause,0.4,None,None,None,0,53,53,53,,,,,,,,,,,,,N008,visual,1,[],"['1', '2', '3', '4']",1,2023.2.3,harveyvisual,2.1,[],8,0.75,
5,dot,0.3,['dot'],['density'],black,0,54,54,54,,,21.3001971244812,21.010916233062744,21.31101107597351,dot,"[0.08, 0.06, 0.1, 0.1, 0.1]","[[-0.19096480170835262, 0.2202776521134577], [0.009488999043989208, 0.5721548226574139], [0.16477125949827795, 0.3732973518003487], [0.07476286221063107, 0.1476230553836633], [-0.051949696108355745, 0.36609537475325354]]",density,black,,,N008,visual,1,[],"['1', '2', '3', '4']",1,2023.2.3,harveyvisual,2.1,[],8,0.75,
0,pause,0.4,None,None,None,0,55,55,55,,,,,,,,,,,,,N008,visual,1,[],"['1', '2', '3', '4']",1,2023.2.3,harveyvisual,2.1,[],8,0.75,
5,dot,0.3,['dot'],['density'],black,0,56,56,56,,,22.000209093093872,21.71091914176941,22.010882139205933,dot,"[0.08, 0.08, 0.1, 0.1, 0.08]","[[0.10176071415026891, -0.0029310292721688898], [0.32748853803000494, -0.2831003617774451], [0.10999898603900501, -0.23076615641811304], [0.2383494361888625, 0.16403485824849598], [0.3558293804179042, -0.08171974316418079]]",density,black,,,N008,visual,1,[],"['1', '2', '3', '4']",1,2023.2.3,harveyvisual,2.1,[],8,0.75,
0,pause,0.4,None,None,None,0,57,57,57,,,,,,,,,,,,,N008,visual,1,[],"['1', '2', '3', '4']",1,2023.2.3,harveyvisual,2.1,[],8,0.75,
5,dot,0.3,['dot'],['density'],black,0,58,58,58,,,22.700218200683594,22.410898208618164,22.710880041122437,dot,"[0.1, 0.06, 0.06, 0.06, 0.1]","[[0.05896558140131438, -0.5342250951568444], [0.41924064092593105, -0.38742881471212404], [0.0789485457987589, -0.15857793529431863], [0.19859038409043042, -0.3300393182504279], [-0.04229804568701367, -0.31959008629620334]]",density,black,,,N008,visual,1,[],"['1', '2', '3', '4']",1,2023.2.3,harveyvisual,2.1,[],8,0.75,
0,pause,0.4,None,None,None,0,59,59,59,,,,,,,,,,,,,N008,visual,1,[],"['1', '2', '3', '4']",1,2023.2.3,harveyvisual,2.1,[],8,0.75,
6,dot,0.3,['dot'],['density'],black,0,60,60,60,,,23.400206089019775,23.1108660697937,23.41084909439087,dot,"[0.1, 0.06, 0.08, 0.06, 0.06, 0.06]","[[0.23041567882598732, 0.45619944218456715], [0.5278859611842325, 0.18245830030246968], [0.08738225171760033, 0.1578384040678088], [0.20561463112105705, -0.03996865664556224], [0.3021721310554224, 0.21718230064421146], [0.4273755636869532, 0.38341374408431883]]",density,black,,,N008,visual,1,[],"['1', '2', '3', '4']",1,2023.2.3,harveyvisual,2.1,[],8,0.75,
0,pause,0.4,None,None,None,0,61,61,61,,,,,,,,,,,,,N008,visual,1,[],"['1', '2', '3', '4']",1,2023.2.3,harveyvisual,2.1,[],8,0.75,
6,dot,0.3,['dot'],['density'],black,0,62,62,62,,,24.100203037261963,23.81088614463806,24.11103105545044,dot,"[0.08, 0.08, 0.1, 0.08, 0.06, 0.06]","[[0.23041567882598732, 0.45619944218456715], [0.5278859611842325, 0.18245830030246968], [0.08738225171760033, 0.1578384040678088], [0.20561463112105705, -0.03996865664556224], [0.3021721310554224, 0.21718230064421146], [0.4273755636869532, 0.38341374408431883]]",density,black,,,N008,visual,1,[],"['1', '2', '3', '4']",1,2023.2.3,harveyvisual,2.1,[],8,0.75,
0,pause,0.4,None,None,None,0,63,63,63,,,,,,,,,,,,,N008,visual,1,[],"['1', '2', '3', '4']",1,2023.2.3,harveyvisual,2.1,[],8,0.75,
6,dot,0.3,['dot'],['density'],black,0,64,64,64,,,24.80022120475769,24.511001110076904,24.81086301803589,dot,"[0.06, 0.08, 0.1, 0.1, 0.08, 0.1]","[[0.01776890784276672, 0.3448500499300058], [-0.18238616215991446, 0.4840889924469993], [-0.2129582374372363, 0.07157874559070018], [-0.41549008775918617, 0.14353268657608398], [0.019487844458329944, 0.1389587799501653], [-0.21004805074000235, 0.2837936954907191]]",density,black,,,N008,visual,1,[],"['1', '2', '3', '4']",1,2023.2.3,harveyvisual,2.1,[],8,0.75,
0,pause,0.4,None,None,None,0,65,65,65,,,,,,,,,,,,,N008,visual,1,[],"['1', '2', '3', '4']",1,2023.2.3,harveyvisual,2.1,[],8,0.75,
6,dot,0.3,['dot'],['density'],black,0,66,66,66,,,25.50021505355835,25.21082615852356,25.51083016395569,dot,"[0.08, 0.06, 0.06, 0.06, 0.06, 0.1]","[[0.21259181929123794, -0.28356491423097735], [0.48303195854319764, 0.06048455888335473], [0.22913681079270962, 0.07473613686017411], [0.4939377514137012, -0.2837040300549214], [0.055643620130747785, -0.14290468481535015], [0.3711413815128542, -0.10952979375652658]]",density,black,,,N008,visual,1,[],"['1', '2', '3', '4']",1,2023.2.3,harveyvisual,2.1,[],8,0.75,
0,pause,0.4,None,None,None,0,67,67,67,,,,,,,,,,,,,N008,visual,1,[],"['1', '2', '3', '4']",1,2023.2.3,harveyvisual,2.1,[],8,0.75,
6,dot,0.3,['dot'],['density'],black,0,68,68,68,,,26.20021104812622,25.910786151885986,26.21079707145691,dot,"[0.1, 0.06, 0.06, 0.08, 0.08, 0.08]","[[-0.560843418842529, -0.11752527585456686], [-0.31277608783648175, 0.04003545118838376], [-0.18207900664359264, -0.3652956678781814], [-0.41442909117718774, -0.4038021739217259], [-0.14446849917993246, -0.07035639226176245], [-0.3420415871796019, -0.1631057353810994]]",density,black,,,N008,visual,1,[],"['1', '2', '3', '4']",1,2023.2.3,harveyvisual,2.1,[],8,0.75,
0,pause,0.4,None,None,None,0,69,69,69,,,,,,,,,,,,,N008,visual,1,[],"['1', '2', '3', '4']",1,2023.2.3,harveyvisual,2.1,[],8,0.75,
6,dot,0.3,['dot'],['density'],black,0,70,70,70,,,26.900211095809937,26.610819101333618,26.910826206207275,dot,"[0.06, 0.06, 0.08, 0.06, 0.1, 0.06]","[[-0.521575560759306, -0.09896409503936293], [-0.11005055439098525, 0.007412765662050641], [-0.2691644509192311, -0.32034241736757013], [-0.33082776037640693, 0.11579187391948328], [-0.031037041641207554, -0.21820435357846482], [-0.2943013415457968, -0.09543215727460275]]",density,black,,,N008,visual,1,[],"['1', '2', '3', '4']",1,2023.2.3,harveyvisual,2.1,[],8,0.75,
0,pause,0.4,None,None,None,0,71,71,71,,,,,,,,,,,,,N008,visual,1,[],"['1', '2', '3', '4']",1,2023.2.3,harveyvisual,2.1,[],8,0.75,
7,dot,0.3,['dot'],['density'],black,0,72,72,72,,,27.60020112991333,27.31077218055725,27.610794067382812,dot,"[0.06, 0.1, 0.08, 0.1, 0.1, 0.1, 0.1]","[[-0.0009033409944170771, 0.42006327366100915], [0.07504475251916, -0.022201311189229547], [-0.3616170585675141, 0.16750883091546095], [0.025412283732210435, 0.18669523424894663], [-0.17132175432412022, 0.2677160973152203], [-0.13541388111710323, 0.00927786556165188], [-0.3032959001003911, -0.13806764794565113]]",density,black,,,N008,visual,1,[],"['1', '2', '3', '4']",1,2023.2.3,harveyvisual,2.1,[],8,0.75,
0,pause,0.4,None,None,None,0,73,73,73,,,,,,,,,,,,,N008,visual,1,[],"['1', '2', '3', '4']",1,2023.2.3,harveyvisual,2.1,[],8,0.75,
7,dot,0.3,['dot'],['density'],white,0,74,74,74,,,28.300212144851685,28.0107901096344,28.310789108276367,dot,"[0.08, 0.06, 0.1, 0.06, 0.08, 0.1, 0.1]","[[-0.27882252076513336, 0.33055409005240166], [-0.4957633793454142, -0.06140876275196145], [-0.0066404743852866415, -0.09326226909207957], [-0.0437417051997281, 0.24568157295930956], [-0.4653499650939929, 0.1386387143322748], [-0.23664853702636232, 0.07695828400639043], [-0.2650254833014284, -0.12289079349875774]]",density,white,,,N008,visual,1,[],"['1', '2', '3', '4']",1,2023.2.3,harveyvisual,2.1,[],8,0.75,
0,pause,0.4,None,None,None,0,75,75,75,,,,,,,,,,,1,28.539065837860107,N008,visual,1,[],"['1', '2', '3', '4']",1,2023.2.3,harveyvisual,2.1,[],8,0.75,
7,dot,0.3,['dot'],['density'],black,0,76,76,76,,,29.0002121925354,28.71077013015747,29.010736227035522,dot,"[0.06, 0.1, 0.08, 0.1, 0.06, 0.06, 0.08]","[[-0.15204905838880944, -0.5333107186751418], [-0.1519936835116667, -0.2986813487337615], [0.3123805602017952, -0.370842296180838], [-0.04397638837772695, -0.01669328424437847], [0.11716920447009348, -0.14912816843546053], [0.1067198166566748, -0.5553575834591685], [0.04038917577175449, -0.3541606866516689]]",density,black,,,N008,visual,1,[],"['1', '2', '3', '4']",1,2023.2.3,harveyvisual,2.1,[],8,0.75,
0,pause,0.4,None,None,None,0,77,77,77,,,,,,,,,,,,,N008,visual,1,[],"['1', '2', '3', '4']",1,2023.2.3,harveyvisual,2.1,[],8,0.75,
7,dot,0.3,['dot'],['density'],white,0,78,78,78,,,29.700196027755737,29.41087317466736,29.71075201034546,dot,"[0.06, 0.06, 0.1, 0.1, 0.1, 0.1, 0.08]","[[0.14162553822338392, 0.3850374027840034], [0.14862566890709045, -0.11120959689479885], [0.39332636479883865, 0.3869926518090174], [0.40462455387813373, -0.12110830933676162], [0.23143806607869288, 0.12402376181071403], [0.031443448417621304, 0.15083815177969048], [0.4360523150463376, 0.1818515773867412]]",density,white,,,N008,visual,1,[],"['1', '2', '3', '4']",1,2023.2.3,harveyvisual,2.1,[],8,0.75,
0,pause,0.4,None,None,None,0,79,79,79,,,,,,,,,,,1,29.86540985107422,N008,visual,1,[],"['1', '2', '3', '4']",1,2023.2.3,harveyvisual,2.1,[],8,0.75,
7,dot,0.3,['dot'],['density'],black,0,80,80,80,,,30.400225162506104,30.11087203025818,30.410858154296875,dot,"[0.1, 0.06, 0.06, 0.08, 0.08, 0.06, 0.06]","[[0.19245168201499255, -0.1876960705048169], [-0.3381443552002159, -0.23329338142126996], [-0.10497405195571721, -0.20200038512761503], [-0.19215049966389516, -0.01485034356210763], [-0.14804808022624072, 0.20187381879058183], [0.049390412829639754, -0.0077734514623590935], [0.08212821656350888, 0.19234027401595055]]",density,black,,,N008,visual,1,[],"['1', '2', '3', '4']",1,2023.2.3,harveyvisual,2.1,[],8,0.75,
0,pause,0.4,None,None,None,0,81,81,81,,,,,,,,,,,,,N008,visual,1,[],"['1', '2', '3', '4']",1,2023.2.3,harveyvisual,2.1,[],8,0.75,
7,dot,0.3,['dot'],['density'],black,0,82,82,82,,,31.100211143493652,30.81090211868286,31.110703229904175,dot,"[0.06, 0.06, 0.1, 0.1, 0.06, 0.06, 0.08]","[[-0.3025445156539714, -0.42280529123536587], [0.12162933753582021, -0.2851722644810181], [-0.2753205641105948, -0.038672864930592576], [-0.4202189534315163, -0.18742991959605093], [-0.15636117447925973, -0.27217203193286355], [-0.09967880665522989, -0.47242523529006747], [-0.06261398545311019, -0.08879309989794046]]",density,black,,,N008,visual,1,[],"['1', '2', '3', '4']",1,2023.2.3,harveyvisual,2.1,[],8,0.75,
0,pause,0.4,None,None,None,0,83,83,83,,,,,,,,,,,,,N008,visual,1,[],"['1', '2', '3', '4']",1,2023.2.3,harveyvisual,2.1,[],8,0.75,
8,dot,0.3,['dot'],['density'],black,0,84,84,84,,,31.80022120475769,31.51068615913391,31.810667037963867,dot,"[0.08, 0.1, 0.08, 0.06, 0.1, 0.1, 0.06, 0.1]","[[0.12411109391386341, -0.5343823995123961], [-0.21238427398525783, -0.3197389486612228], [-0.06551876445787266, 0.032183079599910736], [0.22034046694826517, 0.05676208929132721], [0.31747551588691986, -0.13046885784073625], [0.01834943727978222, -0.34316474661021057], [0.10776215616131694, -0.12386070969881222], [-0.2386971922539417, -0.09256206635527232]]",density,black,,,N008,visual,1,[],"['1', '2', '3', '4']",1,2023.2.3,harveyvisual,2.1,[],8,0.75,
0,pause,0.4,None,None,None,0,85,85,85,,,,,,,,,,,,,N008,visual,1,[],"['1', '2', '3', '4']",1,2023.2.3,harveyvisual,2.1,[],8,0.75,
8,dot,0.3,['dot'],['density'],black,0,86,86,86,,,32.50020909309387,32.210684061050415,32.51063418388367,dot,"[0.06, 0.1, 0.08, 0.1, 0.06, 0.08, 0.1, 0.08]","[[-0.3290570048964025, 0.45712517183014534], [-0.12351728740192595, 0.19722326774196852], [-0.44617383739254307, -0.0315435053038489], [0.05824565693526591, 0.08769012542188236], [-0.4904255353169048, 0.31423420558286136], [-0.32491150822629034, 0.16696319418744587], [-0.12614658653380179, 0.4043789036591275], [0.10044097339982726, 0.3130264767685494]]",density,black,,,N008,visual,1,[],"['1', '2', '3', '4']",1,2023.2.3,harveyvisual,2.1,[],8,0.75,
0,pause,0.4,None,None,None,0,87,87,87,,,,,,,,,,,,,N008,visual,1,[],"['1', '2', '3', '4']",1,2023.2.3,harveyvisual,2.1,[],8,0.75,
8,dot,0.3,['dot'],['density'],black,0,88,88,88,,,33.200226068496704,32.910622119903564,33.210618019104004,dot,"[0.08, 0.1, 0.06, 0.06, 0.06, 0.1, 0.08, 0.08]","[[-0.3306282708070712, -0.09459634407206743], [0.17708038186302957, -0.36794437316098305], [-0.34368294577136044, -0.39688855169369486], [-0.16397220561896333, 0.03033928826277653], [-0.08476975953586025, -0.41834960305423746], [-0.16765121495786453, -0.2265743681515788], [0.0449590487082352, -0.10546915507075137], [-0.5574709661459258, -0.15664368712912546]]",density,black,,,N008,visual,1,[],"['1', '2', '3', '4']",1,2023.2.3,harveyvisual,2.1,[],8,0.75,
0,pause,0.4,None,None,None,0,89,89,89,,,,,,,,,,,,,N008,visual,1,[],"['1', '2', '3', '4']",1,2023.2.3,harveyvisual,2.1,[],8,0.75,
8,dot,0.3,['dot'],['density'],black,0,90,90,90,,,33.900203227996826,33.61060404777527,33.910603046417236,dot,"[0.06, 0.06, 0.1, 0.1, 0.06, 0.1, 0.1, 0.1]","[[0.4578461037593053, -0.0425280984807614], [0.3105081462658962, -0.253400778181943], [0.5107466611240274, 0.18303335057259504], [0.05013881804369301, 0.21472050036076742], [0.11913774150617627, -0.046477809882714556], [0.3069987493408211, 0.11186211070896974], [0.10261508471656716, -0.25482825738733483], [-0.08881417545548334, 0.035709595317019026]]",density,black,,,N008,visual,1,[],"['1', '2', '3', '4']",1,2023.2.3,harveyvisual,2.1,[],8,0.75,
0,pause,0.4,None,None,None,0,91,91,91,,,,,,,,,,,,,N008,visual,1,[],"['1', '2', '3', '4']",1,2023.2.3,harveyvisual,2.1,[],8,0.75,
8,dot,0.3,['dot'],['density'],black,0,92,92,92,,,34.60021615028381,34.31060004234314,34.61057806015015,dot,"[0.08, 0.06, 0.08, 0.06, 0.08, 0.06, 0.06, 0.1]","[[-0.13470540342303577, 0.06408260861786476], [-0.32633744656496655, 0.15045505181492372], [-0.2908673593763413, -0.0762007135190446], [-0.5368971138264618, 0.18470905249118252], [0.055331558945424124, 0.1732254888039505], [-0.30909967543404826, 0.3845911877556102], [-0.0777863596696305, 0.41921053595603236], [0.03181857584637903, -0.08967320215721851]]",density,black,,,N008,visual,1,[],"['1', '2', '3', '4']",1,2023.2.3,harveyvisual,2.1,[],8,0.75,
0,pause,0.4,None,None,None,0,93,93,93,,,,,,,,,,,,,N008,visual,1,[],"['1', '2', '3', '4']",1,2023.2.3,harveyvisual,2.1,[],8,0.75,
8,dot,0.3,['dot'],['density'],black,0,94,94,94,,,35.30020213127136,35.01057004928589,35.31054711341858,dot,"[0.06, 0.08, 0.08, 0.08, 0.1, 0.06, 0.08, 0.08]","[[-0.3265204970111284, 0.22652760434067618], [0.11129643684023392, 0.07926950251467085], [0.07893474341784651, 0.4315681374945237], [-0.2000017914838315, -0.08445279674287073], [-0.29956068591909263, 0.4664910923320479], [-0.09828291121522204, 0.1483319570086381], [0.07400994184747142, -0.11883630301138211], [-0.12650192453358844, 0.35264367728062257]]",density,black,,,N008,visual,1,[],"['1', '2', '3', '4']",1,2023.2.3,harveyvisual,2.1,[],8,0.75,
0,pause,0.4,None,None,None,0,95,95,95,,,,,,,,,,,,,N008,visual,1,[],"['1', '2', '3', '4']",1,2023.2.3,harveyvisual,2.1,[],8,0.75,
9,dot,0.3,['dot'],['density'],black,0,96,96,96,,,36.00021815299988,35.71053409576416,36.01051902770996,dot,"[0.06, 0.08, 0.08, 0.1, 0.06, 0.06, 0.1, 0.08, 0.1]","[[-0.39546702852536103, 0.05887767166707298], [0.0019437857506851024, 0.07006750722115952], [0.08809400946991845, -0.15083790972035777], [-0.35358057288562594, -0.14123029179452673], [-0.18893042820243505, -0.004761820558363635], [-0.16054322822148615, -0.2701644482013472], [-0.3593088451216199, 0.2649120528395154], [-0.09346394646241396, -0.4621051997984888], [-0.5526246027455071, -0.11781718335669726]]",density,black,,,N008,visual,1,[],"['1', '2', '3', '4']",1,2023.2.3,harveyvisual,2.1,[],8,0.75,
0,pause,0.4,None,None,None,0,97,97,97,,,,,,,,,,,,,N008,visual,1,[],"['1', '2', '3', '4']",1,2023.2.3,harveyvisual,2.1,[],8,0.75,
9,dot,0.3,['dot'],['density'],white,0,98,98,98,,,36.700202226638794,36.41054105758667,36.71050000190735,dot,"[0.1, 0.06, 0.08, 0.06, 0.06, 0.1, 0.08, 0.1, 0.08]","[[0.5633060189111645, -0.020447411670609934], [0.24486306384976717, 0.44476630120442473], [0.18428866344346043, -0.051083701103786204], [0.30165572131442664, 0.2239114093385097], [-0.0017431279865323516, 0.11759053127645673], [0.36864926730470376, 0.029118730319846676], [0.08307425003498874, 0.31712463906399285], [0.26393370779995823, -0.24286541122091637], [0.5109425385251136, 0.2557989077594731]]",density,white,,,N008,visual,1,[],"['1', '2', '3', '4']",1,2023.2.3,harveyvisual,2.1,[],8,0.75,
0,pause,0.4,None,None,None,0,99,99,99,,,,,,,,,,,1,36.81833791732788,N008,visual,1,[],"['1', '2', '3', '4']",1,2023.2.3,harveyvisual,2.1,[],8,0.75,
9,dot,0.3,['dot'],['density'],black,0,100,100,100,,,37.40022015571594,37.110491037368774,37.41048312187195,dot,"[0.06, 0.1, 0.1, 0.06, 0.1, 0.08, 0.08, 0.1, 0.06]","[[0.38655548767220327, 0.3303110468779764], [-0.15062718332117264, 0.3263612679497012], [0.12850016508903517, 0.5435449351404695], [0.04975739233973968, 0.11256198773833849], [0.05418506391445401, 0.3174451450657875], [0.282644584802279, 0.13382110200906677], [0.4968372747528943, 0.11977440893831985], [-0.17748280977865974, 0.12733825933579754], [-0.16508880216336755, 0.5437291489982663]]",density,black,,,N008,visual,1,[],"['1', '2', '3', '4']",1,2023.2.3,harveyvisual,2.1,[],8,0.75,
0,pause,0.4,None,None,None,0,101,101,101,,,,,,,,,,,,,N008,visual,1,[],"['1', '2', '3', '4']",1,2023.2.3,harveyvisual,2.1,[],8,0.75,
9,dot,0.3,['dot'],['density'],black,0,102,102,102,,,38.100200176239014,37.810471057891846,38.110475063323975,dot,"[0.1, 0.06, 0.08, 0.1, 0.08, 0.06, 0.06, 0.1, 0.1]","[[0.08305850914464513, -0.5442468290176591], [0.035628337695759515, -0.10623885656661826], [-0.40455734034313895, -0.4103448572564978], [-0.27695520492017833, -0.22921059622728732], [-0.0679181879583315, -0.31282249044743377], [0.15394835823740735, -0.27999833282003045], [0.36545074601266236, -0.2024769979494575], [-0.18616414474285772, -0.004612976462616847], [-0.15152437179077458, -0.5570863580044498]]",density,black,,,N008,visual,1,[],"['1', '2', '3', '4']",1,2023.2.3,harveyvisual,2.1,[],8,0.75,
0,pause,0.4,None,None,None,0,103,103,103,,,,,,,,,,,,,N008,visual,1,[],"['1', '2', '3', '4']",1,2023.2.3,harveyvisual,2.1,[],8,0.75,
9,dot,0.3,['dot'],['density'],black,0,104,104,104,,,38.800215005874634,38.510473012924194,38.810466051101685,dot,"[0.08, 0.08, 0.1, 0.08, 0.08, 0.1, 0.1, 0.08, 0.08]","[[-0.2844843713072754, 0.22325415166673976], [-0.1819235275981482, -0.2724209396165719], [-0.4663757242286994, 0.0951888680112534], [-0.002662519752874684, 0.12526046944360225], [-0.2804516333182533, -0.07461618094684651], [-0.06266188203573825, -0.10246171469469513], [0.05562179911838863, -0.3774952117829348], [-0.29777175193284133, -0.43797360937606633], [-0.44596842075831894, -0.24145786298940805]]",density,black,,,N008,visual,1,[],"['1', '2', '3', '4']",1,2023.2.3,harveyvisual,2.1,[],8,0.75,
0,pause,0.4,None,None,None,0,105,105,105,,,,,,,,,,,,,N008,visual,1,[],"['1', '2', '3', '4']",1,2023.2.3,harveyvisual,2.1,[],8,0.75,
9,dot,0.3,['dot'],['density'],black,0,106,106,106,,,39.50021004676819,39.210429191589355,39.5104341506958,dot,"[0.1, 0.1, 0.08, 0.08, 0.1, 0.06, 0.1, 0.08, 0.06]","[[0.26246064217380705, -0.20881461689055444], [-0.05738061480455322, -0.2104867327221427], [-0.15279665209492657, -0.4570696492981838], [-0.25848085101471047, 0.03539482855188907], [0.05438928923437074, -0.041842351158073866], [-0.266438460152573, -0.22510974363943476], [-0.08630847597628627, 0.16925380219028288], [0.1378984379274782, 0.16880467564350782], [0.14927440204233722, -0.41110624343475755]]",density,black,,,N008,visual,1,[],"['1', '2', '3', '4']",1,2023.2.3,harveyvisual,2.1,[],8,0.75,
0,pause,0.4,None,None,None,0,107,107,107,,,,,,,,,,,,,N008,visual,1,[],"['1', '2', '3', '4']",1,2023.2.3,harveyvisual,2.1,[],8,0.75,
20,dot,0.3,['dot'],['density'],black,0,108,108,108,,,40.20021319389343,39.91034412384033,40.210413217544556,dot,"[0.06, 0.1, 0.08, 0.1, 0.06, 0.06, 0.06, 0.1, 0.1, 0.06, 0.06, 0.1, 0.1, 0.06, 0.08, 0.1, 0.06, 0.06, 0.08, 0.08]","[[0.35874435671916427, 0.1913731454485632], [0.11228543379049749, -0.578969493769099], [-0.48841487886926604, -0.15228516710554374], [-0.42233675304890417, 0.10006161681143055], [0.02413817234221105, -0.2532605683242502], [0.5779881889483444, 0.17477923917396354], [0.0026957314153244205, 0.5723939207093565], [0.3797210097680709, -0.06266651256344158], [0.3396162285802119, -0.34626774373312164], [-0.12870522520439548, -0.5129906414872971], [0.1295538236478775, -0.06785717226320476], [-0.2425084353690214, 0.4751317486113281], [0.03124364026179005, 0.2707979652738822], [-0.16498140978779385, -0.31482593623298566], [-0.5456413969855654, 0.24936829170127256], [0.25379473749358095, 0.4917885318334717], [0.5619190165668867, -0.1813796807561247], [-0.11214695487154824, 0.1128894430630969], [-0.3942424602251296, -0.3705949200784097], [0.40555437862365784, 0.37504705304196195]]",density,black,,,N008,visual,1,[],"['1', '2', '3', '4']",1,2023.2.3,harveyvisual,2.1,[],8,0.75,
0,pause,0.4,None,None,None,0,109,109,109,,,,,,,,,,,,,N008,visual,1,[],"['1', '2', '3', '4']",1,2023.2.3,harveyvisual,2.1,[],8,0.75,
20,dot,0.3,['dot'],['density'],black,0,110,110,110,,,40.90021204948425,40.61044907569885,40.910388231277466,dot,"[0.06, 0.06, 0.08, 0.08, 0.06, 0.1, 0.1, 0.1, 0.08, 0.08, 0.1, 0.1, 0.08, 0.08, 0.08, 0.06, 0.1, 0.08, 0.08, 0.08]","[[0.1370512890540212, 0.19027777682467828], [0.4296474286632531, -0.17244245475221548], [0.31678636510362446, -0.01957566034093583], [0.4766180368708052, 0.1643919555465101], [-0.602325633173308, -0.0054990934179296805], [-0.2593790977096937, 0.015790991577384617], [0.19280979674437915, 0.4912805797140106], [-0.14568886520171737, -0.5123112997792447], [0.06268892215437227, -0.056603206133614914], [0.21669555659001083, -0.44589048099520673], [-0.06539046211731103, 0.4816880592859265], [-0.36335135304601307, -0.3996997524514069], [-0.40256306222101323, -0.1403819449564251], [-0.32268163323779736, 0.3271138274983453], [-0.11922643274552758, -0.17755168151215533], [-0.5364114316520104, -0.2753720609419237], [0.20146770148972115, -0.21902344456691025], [-0.5101740892726194, 0.18201655239468256], [-0.29467017115136246, 0.5193026211100934], [0.5961596890912827, -0.012132072574005948]]",density,black,,,N008,visual,1,[],"['1', '2', '3', '4']",1,2023.2.3,harveyvisual,2.1,[],8,0.75,
0,pause,0.4,None,None,None,0,111,111,111,,,,,,,,,,,,,N008,visual,1,[],"['1', '2', '3', '4']",1,2023.2.3,harveyvisual,2.1,[],8,0.75,
20,dot,0.3,['dot'],['density'],black,0,112,112,112,,,41.60021615028381,41.3104190826416,41.61041021347046,dot,"[0.1, 0.06, 0.06, 0.06, 0.08, 0.06, 0.08, 0.1, 0.1, 0.1, 0.06, 0.06, 0.1, 0.08, 0.1, 0.06, 0.08, 0.08, 0.06, 0.06]","[[-0.5482516184494508, 0.015897038810484654], [0.5406656824741808, -0.25325590819284477], [0.06337413166307404, -0.24523154996093738], [0.4594705489845933, 0.21553411851281717], [-0.4587300515633981, -0.23440223840376], [0.24236939988366946, 0.46162286942957986], [-0.25673500895199597, -0.47315849265126075], [0.1651362789994285, -0.5516790628240817], [0.5205907177336481, -0.004199776965454316], [0.3640269642343237, -0.41559056507654807], [-0.2746771939540859, -0.007757027357523816], [-0.025102726697172506, -0.527232961634843], [-0.522745841031892, 0.2694276586098674], [-0.12046449800611542, 0.20430164065437184], [0.1670068823207861, 0.10182614497714204], [-0.16290871886306058, 0.46410905224605037], [0.044169353545134515, 0.5238057802914874], [-0.33040757128451226, 0.24498811939772525], [0.06401948866775387, 0.2736376551710167], [-0.14922766756036143, -0.2997800980115725]]",density,black,,,N008,visual,1,[],"['1', '2', '3', '4']",1,2023.2.3,harveyvisual,2.1,[],8,0.75,
0,pause,0.4,None,None,None,0,113,113,113,,,,,,,,,,,,,N008,visual,1,[],"['1', '2', '3', '4']",1,2023.2.3,harveyvisual,2.1,[],8,0.75,
20,dot,0.3,['dot'],['density'],black,0,114,114,114,,,42.30021119117737,42.02706813812256,42.310368061065674,dot,"[0.1, 0.06, 0.08, 0.1, 0.1, 0.06, 0.1, 0.1, 0.08, 0.1, 0.06, 0.06, 0.08, 0.08, 0.1, 0.1, 0.08, 0.06, 0.1, 0.06]","[[-0.22433489417961983, -0.20301004682081863], [0.5004232451915455, 0.3243564294644464], [-0.2996010046952291, 0.1381096203265123], [0.4856748073381222, 0.041057911923140455], [0.033742114103013865, -0.5033849147507864], [0.21664586530317054, -0.24069385073397853], [0.2885644472544602, 0.23993685274791854], [0.4163815228978155, -0.41837579586365414], [0.533631945295438, -0.22534496688570832], [-0.561236575693892, -0.2038294120409799], [0.07040510811025602, 0.11855605061409669], [-0.25257547878751674, -0.3967491585451298], [-0.013492950392371972, -0.10212671594495515], [-0.033911094381765094, 0.27870875247073024], [-0.5094108951989729, 0.2289178012447367], [0.2551749474304117, 0.5359780055699341], [-0.022432797056304965, 0.47630988681733955], [-0.2789345314583727, 0.48685248108321477], [-0.36428215696139077, -0.04268534304100452], [0.35271046698490693, -0.09862686019787986]]",density,black,,,N008,visual,1,[],"['1', '2', '3', '4']",1,2023.2.3,harveyvisual,2.1,[],8,0.75,
0,pause,0.4,None,None,None,0,115,115,115,,,,,,,,,,,,,N008,visual,1,[],"['1', '2', '3', '4']",1,2023.2.3,harveyvisual,2.1,[],8,0.75,
20,dot,0.3,['dot'],['density'],white,0,116,116,116,,,43.00020718574524,42.71029210090637,43.010361194610596,dot,"[0.06, 0.08, 0.08, 0.08, 0.1, 0.06, 0.08, 0.1, 0.06, 0.06, 0.06, 0.06, 0.1, 0.06, 0.08, 0.1, 0.08, 0.1, 0.1, 0.1]","[[-0.24295313171370936, -0.2690623366392959], [-0.04603881166813395, 0.27927331798933663], [0.3514906964747264, -0.3800409651564219], [-0.5160948644111704, 0.2578228572050013], [-0.38146747784274554, -0.037155974956438687], [0.451268847056815, 0.09614209196500068], [-0.22976503446580004, 0.47541915348763275], [0.06911660652825702, 0.07969015723127926], [0.19974467478954927, 0.22950457290615123], [-0.12161986581548573, -0.06691151970126819], [-0.07476049760227388, 0.5998778258569684], [0.5271342435618193, -0.13098182602487063], [-0.008155137930611178, -0.45722687280915886], [0.3726661088621086, 0.3873619163470622], [-0.2694861331634977, 0.2827762135848684], [0.12689264642579567, -0.20459919538957283], [-0.28859477225261737, -0.46469823871147853], [-0.5545080206577758, -0.21588603454937585], [-0.598155543643364, 0.019863575105475678], [0.08362905935819631, 0.43604613233084966]]",density,white,,,N008,visual,1,[],"['1', '2', '3', '4']",1,2023.2.3,harveyvisual,2.1,[],8,0.75,
0,pause,0.4,None,None,None,0,117,117,117,,,,,,,,,,,1,43.076913833618164,N008,visual,1,[],"['1', '2', '3', '4']",1,2023.2.3,harveyvisual,2.1,[],8,0.75,
20,dot,0.3,['dot'],['density'],white,0,118,118,118,,,43.70021319389343,43.42699909210205,43.710336208343506,dot,"[0.08, 0.06, 0.1, 0.06, 0.06, 0.1, 0.06, 0.1, 0.08, 0.08, 0.06, 0.08, 0.1, 0.1, 0.1, 0.08, 0.08, 0.08, 0.08, 0.1]","[[-0.47685232007030587, -0.28316097605312623], [0.584642139284771, -0.04065225937957884], [-0.2854790127420293, -0.37211945580518113], [0.25463472256841746, -0.22789123338778522], [0.21838051367343192, 0.4901346369486833], [-0.21861467209798174, 0.4630049224049745], [0.4251595063175765, 0.2301554199466454], [0.5243741800816576, -0.2478451813478737], [-0.5956923431034705, 0.015361282172167687], [0.13677842760911452, 0.09471399990567131], [0.4101541892176609, -0.4173643377978734], [-0.5241500290043497, 0.2854278549766764], [-0.23157866889135703, -0.10016703077221106], [-0.20354053346677936, 0.24998581924009233], [-0.12814298809864855, -0.5011052020483169], [-0.36474443031701476, 0.08776934247919038], [-0.09523472597555327, 0.073195276902988], [0.015333533107612651, 0.3989997217050072], [-0.051073525832173394, 0.5953591370490786], [0.07287029239564047, -0.44690387857628605]]",density,white,,,N008,visual,1,[],"['1', '2', '3', '4']",1,2023.2.3,harveyvisual,2.1,[],8,0.75,
0,pause,0.4,None,None,None,0,119,119,119,,,,,,,,,,,1,43.792964935302734,N008,visual,1,[],"['1', '2', '3', '4']",1,2023.2.3,harveyvisual,2.1,[],8,0.75,
20,dot,0.3,['dot'],['density'],white,0,120,120,120,,,44.400217056274414,44.12699604034424,44.41035223007202,dot,"[0.06, 0.08, 0.1, 0.08, 0.1, 0.06, 0.06, 0.08, 0.1, 0.06, 0.06, 0.06, 0.1, 0.1, 0.1, 0.06, 0.1, 0.06, 0.08, 0.08]","[[-0.27861538701386296, -0.28990596530369833], [-0.30080291938398895, 0.37434576569463185], [0.3223802133381116, -0.040333924572211355], [-0.05885858219888174, -0.04004654323106338], [-0.4121940007372701, -0.03567671484390217], [0.039830244156362826, -0.5490867791275411], [0.3282668291942582, 0.30560285050204405], [0.02467677004190616, 0.3448266492276333], [0.21357985716722128, -0.2138174784953572], [-0.17216917255403869, 0.1333509387881704], [0.15205910398755096, 0.5048770538818731], [0.5300431971403935, -0.19634439077960217], [0.5439731381245324, 0.0718072517134381], [-0.5692795307840403, 0.1685270178517996], [0.15572924824723677, 0.09326130584386938], [0.2387263819636093, -0.45783567924866975], [-0.5359911709725875, -0.25996205371460746], [-0.11268893131692614, 0.5914450602583796], [0.4519351719517316, -0.36938342961543774], [-0.11343476007906966, -0.4049698683229431]]",density,white,,,N008,visual,1,[],"['1', '2', '3', '4']",1,2023.2.3,harveyvisual,2.1,[],8,0.75,
0,pause,0.4,None,None,None,0,121,121,121,,,,,,,,,,,1,44.40803599357605,N008,visual,1,[],"['1', '2', '3', '4']",1,2023.2.3,harveyvisual,2.1,[],8,0.75,
20,dot,0.3,['dot'],['density'],black,0,122,122,122,,,45.100218057632446,44.826972007751465,45.110345125198364,dot,"[0.08, 0.06, 0.08, 0.06, 0.08, 0.06, 0.08, 0.1, 0.06, 0.08, 0.1, 0.1, 0.08, 0.08, 0.1, 0.06, 0.08, 0.06, 0.1, 0.08]","[[-0.010135128736534549, -0.24792657724233075], [0.25198757958380824, 0.06807774802463851], [-0.4624781082013957, -0.00832351541532833], [0.31403001331167824, 0.3334821891677846], [-0.002160839194860431, 0.05499431277587363], [0.39787028188661655, -0.32267607232957596], [0.05603098590436373, 0.24302031576943106], [0.0966994805111927, -0.4830984091646083], [-0.4221288901396846, -0.2574069700595598], [0.13056460484411958, 0.4260400750230534], [-0.20858032319530084, -0.4902309177920502], [-0.5844586010460924, 0.15663741987614513], [0.13429225474922368, -0.08329552849033184], [-0.2523888220917522, 0.2039250070857921], [0.4710075676932838, 0.14330932008947067], [-0.3153556202483586, 0.47919726132166873], [0.30126565491432467, -0.49983757446063026], [0.44547767067608357, -0.08040675485408494], [-0.48218389102390824, 0.3243275193132684], [0.008575620834744613, 0.6003001756482373]]",density,black,,,N008,visual,1,[],"['1', '2', '3', '4']",1,2023.2.3,harveyvisual,2.1,[],8,0.75,
0,pause,0.4,None,None,None,0,123,123,123,,,,,,,,,,,,,N008,visual,1,[],"['1', '2', '3', '4']",1,2023.2.3,harveyvisual,2.1,[],8,0.75,
20,dot,0.3,['dot'],['density'],black,0,124,124,124,,,45.80020308494568,45.51022815704346,45.81027817726135,dot,"[0.08, 0.08, 0.1, 0.06, 0.08, 0.08, 0.06, 0.1, 0.1, 0.06, 0.08, 0.06, 0.1, 0.1, 0.1, 0.06, 0.06, 0.06, 0.08, 0.06]","[[0.042237165662954324, 0.15114034936151188], [0.5644649907423392, -0.13242135498355695], [-0.11348818418195145, -0.16757398882122465], [-0.1487021463412337, -0.5359973553348033], [0.2084098694134887, -0.1382105035944589], [0.1298708081616612, -0.4860233963365112], [0.5813673008140524, 0.0566516429671062], [0.2798558900304364, 0.10051730912268209], [0.38394417038781226, -0.2322775580563605], [-0.40739089033900144, 0.006238200408178574], [-0.30250216900350646, 0.1837941818938067], [-0.08450763167378894, 0.3717084131657956], [-0.5894013801636296, 0.10334035619855791], [-0.4008381605385848, 0.4065816897041459], [0.2627458572879121, 0.4229435014856058], [-0.5677800028835911, -0.15045016144294202], [-0.04656918185411596, -0.35718918213393525], [0.3414632515329845, -0.45096595306341214], [0.4834355509952565, 0.31836840006277733], [-0.4870333637161433, -0.346900530834294]]",density,black,,,N008,visual,1,[],"['1', '2', '3', '4']",1,2023.2.3,harveyvisual,2.1,[],8,0.75,
0,pause,0.4,None,None,None,0,125,125,125,,,,,,,,,,,,,N008,visual,1,[],"['1', '2', '3', '4']",1,2023.2.3,harveyvisual,2.1,[],8,0.75,
20,dot,0.3,['dot'],['density'],black,0,126,126,126,,,46.50021719932556,46.226943016052246,46.51026701927185,dot,"[0.06, 0.08, 0.1, 0.06, 0.1, 0.08, 0.06, 0.06, 0.06, 0.08, 0.06, 0.06, 0.08, 0.06, 0.06, 0.08, 0.08, 0.06, 0.1, 0.06]","[[-0.5552109114592365, -0.23242030499984093], [-0.5331572151002328, -0.02068338949543519], [-0.29449084530183006, -0.44054480495189524], [0.5529714982709942, 0.24286306261964474], [-0.40211848504806624, 0.1880301800838844], [0.4881814069121174, 0.0451525403194164], [0.17357445357450085, -0.5357777812720266], [0.41158815931980774, -0.33116105960622855], [-0.1146169748422094, 0.5796911748360634], [0.14041099201970264, -0.10370118691984082], [-0.2981520141482872, -0.24945096332147626], [0.1928816380789835, 0.5521293145219716], [-0.021728047134988993, 0.05140580726247135], [0.3007396467895477, 0.28435988839915793], [0.11424041887934377, -0.33514623296500423], [-0.13022286576802256, -0.12094233039258406], [0.06750246549844774, 0.34567107125868335], [0.21365565508494055, 0.1056055625155986], [0.3411030113465692, -0.11403719958335751], [-0.3181039600014491, 0.49574461324284746]]",density,black,,,N008,visual,1,[],"['1', '2', '3', '4']",1,2023.2.3,harveyvisual,2.1,[],8,0.75,
0,pause,0.4,None,None,None,0,127,127,127,,,,,,,,,,,,,N008,visual,1,[],"['1', '2', '3', '4']",1,2023.2.3,harveyvisual,2.1,[],8,0.75,
20,dot,0.3,['dot'],['density'],black,0,128,128,128,,,47.20021104812622,46.91027808189392,47.21026802062988,dot,"[0.1, 0.1, 0.06, 0.1, 0.1, 0.08, 0.06, 0.06, 0.1, 0.1, 0.06, 0.1, 0.1, 0.06, 0.08, 0.1, 0.1, 0.08, 0.08, 0.06]","[[-0.3359962690033277, 0.23272467969854915], [0.11336075145035485, 0.05803973903750759], [-0.16781500268089655, 0.5657213704294438], [0.30666373207032205, -0.21960534314710006], [0.4937643267993631, 0.14610533033062523], [-0.19916831988886796, -0.5011993190645494], [-0.1685260473854146, 0.3349516248318297], [-0.5136916911314923, -0.273038642953253], [-0.15875740638651248, 0.025180249452593895], [-0.0160240748891316, -0.16560569806754782], [0.43293015689629943, -0.39856189350619237], [0.25345505087308084, 0.31534193683067235], [0.48491562975677593, -0.11740980189303446], [-0.591718333336179, 0.043461671353672016], [0.12919944979790476, 0.5118786449780642], [-0.287697829061016, -0.3308669312447104], [-0.34488973013091373, -0.07943974534135217], [0.05562864374932375, 0.2703912956452309], [0.19099534346468483, -0.43217373807091597], [-0.5498196946391938, 0.23451802062653304]]",density,black,,,N008,visual,1,[],"['1', '2', '3', '4']",1,2023.2.3,harveyvisual,2.1,[],8,0.75,
0,pause,0.4,None,None,None,0,129,129,129,,,,,,,,,,,,,N008,visual,1,[],"['1', '2', '3', '4']",1,2023.2.3,harveyvisual,2.1,[],8,0.75,
20,dot,0.3,['dot'],['density'],black,0,130,130,130,,,47.900214195251465,47.61020112037659,47.91030216217041,dot,"[0.06, 0.06, 0.1, 0.06, 0.08, 0.08, 0.06, 0.1, 0.1, 0.06, 0.06, 0.1, 0.06, 0.1, 0.1, 0.06, 0.1, 0.08, 0.06, 0.08]","[[0.3732027496391651, 0.4442850460038678], [-0.2508779553823228, -0.14668239781099895], [0.4542745087636305, 0.19973496865653312], [0.40718036684067027, -0.19134165825048316], [-0.4523130021990638, 0.1378692939396018], [0.21603287725633025, -0.08523835928234064], [0.5588337424631055, -0.01747610221450721], [-0.15575336050779875, 0.5349164062141001], [-0.5476466455423881, -0.13604881736100513], [-0.038079241897587046, -0.44156610259729323], [-0.0436527994900594, 0.32564591545704946], [0.12732657930581903, 0.4943035641852712], [0.21560627004466937, 0.1947051203837511], [0.19376325714847775, -0.47349140150779384], [-0.4112252959590855, 0.3357114473725057], [0.00894212082502488, 0.06798814312162382], [0.41214639620972104, -0.44116176330681967], [-0.20511359942213792, 0.10126250863178887], [-0.34029394032790977, -0.39834835737709345], [-0.06528976065641878, -0.21683482442356344]]",density,black,,,N008,visual,1,[],"['1', '2', '3', '4']",1,2023.2.3,harveyvisual,2.1,[],8,0.75,
0,pause,0.4,None,None,None,0,131,131,131,,,,,,,,,,,,,N008,visual,1,[],"['1', '2', '3', '4']",1,2023.2.3,harveyvisual,2.1,[],8,0.75,
20,dot,0.3,['dot'],['density'],black,0,132,132,132,,,48.60022020339966,48.32688307762146,48.61022114753723,dot,"[0.06, 0.08, 0.1, 0.1, 0.06, 0.08, 0.08, 0.1, 0.1, 0.1, 0.1, 0.08, 0.08, 0.06, 0.1, 0.08, 0.06, 0.08, 0.08, 0.08]","[[0.3918037772766222, 0.21868999421141566], [0.538294577634819, -0.18503507161639665], [-0.016043330160812164, -0.34731410896623416], [-0.3085011091478065, -0.30839702842854033], [-0.1051612384334476, 0.19089190439202242], [0.028667793488239668, 0.05487117607296399], [-0.3906434473376468, -0.04047402740007361], [0.014486553981561179, 0.34913899956458927], [0.016148078489902074, -0.13977021042707855], [-0.2701761448353312, 0.4315852419783641], [-0.5357844005815079, -0.2243510259660715], [0.21212870579028387, 0.5195851023632478], [0.2133416787385668, -0.14713394446773242], [0.1099772199752489, -0.5279996200594226], [0.3589272156566412, 0.02711377773177842], [-0.07355633055389144, -0.5999106449794411], [0.31103281181144704, -0.4790796736203223], [-0.00211301597504987, 0.5899725665921861], [0.5451317011880566, 0.08868865258268505], [-0.33138365641344125, 0.14383299227419422]]",density,black,,,N008,visual,1,[],"['1', '2', '3', '4']",1,2023.2.3,harveyvisual,2.1,[],8,0.75,
0,pause,0.4,None,None,None,0,133,133,133,,,,,,,,,,,,,N008,visual,1,[],"['1', '2', '3', '4']",1,2023.2.3,harveyvisual,2.1,[],8,0.75,
20,dot,0.3,['dot'],['density'],black,0,134,134,134,,,49.300199031829834,49.01025104522705,49.31033706665039,dot,"[0.08, 0.06, 0.06, 0.08, 0.06, 0.1, 0.1, 0.06, 0.1, 0.1, 0.1, 0.06, 0.06, 0.06, 0.08, 0.08, 0.06, 0.1, 0.06, 0.1]","[[0.5119351574803815, -0.05196905148713471], [-0.5011936702603941, -0.24873093162246943], [-0.42783754732010737, -0.05667142734029906], [0.0067781371462075635, 0.40863966970078336], [0.5253594533161287, -0.2769183516473649], [0.29210712074062406, -0.3139067506703598], [0.033357168868317855, -0.5057586756577838], [-0.2648001100287742, -0.41424981321139975], [0.5134189401925436, 0.2881956695240694], [-0.584961140738598, 0.11115440663377371], [0.2839558604176291, 0.047905317119379176], [0.24976422752076943, 0.34708835832862417], [-0.15626087481446294, -0.1865371214461386], [-0.33534516714458623, 0.38034169705011545], [0.07370778448063842, 0.06097612653537254], [-0.2257016705648901, 0.037760974443431294], [0.03401885995924436, -0.280044016403602], [-0.10808083404784224, 0.5880966511162642], [0.08918884593899601, 0.5915382366813162], [-0.18345127866452826, 0.2346378608099765]]",density,black,,,N008,visual,1,[],"['1', '2', '3', '4']",1,2023.2.3,harveyvisual,2.1,[],8,0.75,
0,pause,0.4,None,None,None,0,135,135,135,,,,,,,,,,,,,N008,visual,1,[],"['1', '2', '3', '4']",1,2023.2.3,harveyvisual,2.1,[],8,0.75,
20,dot,0.3,['dot'],['density'],black,0,136,136,136,,,50.00022506713867,49.726866006851196,50.01020002365112,dot,"[0.06, 0.1, 0.08, 0.1, 0.06, 0.1, 0.06, 0.08, 0.06, 0.06, 0.08, 0.06, 0.08, 0.1, 0.06, 0.06, 0.08, 0.08, 0.08, 0.06]","[[0.02219403289778532, -0.05592761642605548], [0.23486357253032886, 0.07785766660420379], [0.5231186958823134, -0.11239703519204783], [-0.5125079035240712, -0.2812120456288272], [-0.39701322178260484, 0.10414077611553213], [0.4005072105260382, 0.3795133527902316], [-0.04306549021091144, -0.2340814268530469], [0.07466782798740457, 0.508804621918357], [-0.6016508169218377, 0.05679550692859897], [0.2957927123109838, -0.171453701739345], [-0.17941027576595875, -0.47507596204059893], [-0.26490204321234606, 0.24017858775163603], [-0.2611847340307563, 0.4435614516128116], [0.45839986416015954, 0.06582219464467665], [0.19502758530476294, 0.32699886898502895], [-0.034520397749681964, -0.6027935501692956], [0.12872213948560263, -0.4438737653581325], [-0.2366604455324422, -0.054755137905628914], [0.32855061522889795, -0.4689137032632107], [-0.4610184165379887, -0.07973533394364374]]",density,black,,,N008,visual,1,[],"['1', '2', '3', '4']",1,2023.2.3,harveyvisual,2.1,[],8,0.75,
0,pause,0.4,None,None,None,0,137,137,137,,,,,,,,,,,,,N008,visual,1,[],"['1', '2', '3', '4']",1,2023.2.3,harveyvisual,2.1,[],8,0.75,
20,dot,0.3,['dot'],['density'],black,0,138,138,138,,,50.700215101242065,50.42684817314148,50.71017003059387,dot,"[0.06, 0.1, 0.1, 0.08, 0.08, 0.08, 0.06, 0.08, 0.06, 0.1, 0.08, 0.1, 0.06, 0.06, 0.06, 0.06, 0.08, 0.08, 0.08, 0.08]","[[0.0004844227103887322, -0.10933160000548253], [0.018587170901253725, -0.3839476883601929], [-0.40924046465508723, 0.165956670540853], [-0.2811386042754581, -0.1886824222044735], [0.3286880890411692, 0.4337344616397678], [0.20240055412626745, 0.21556917972080114], [-0.21900910948007124, 0.280532980905573], [-0.5957734630920358, -0.03836900446231732], [0.59124221929209, 0.05627970985054423], [0.03178850336735983, 0.33834142500881537], [-0.19385561057335488, -0.41086007687519704], [0.5261268084819163, 0.25188798669142665], [0.3305451848128863, -0.052422902346091926], [0.22330825678411337, -0.5108524554169538], [0.2998339938425487, -0.24669960669443702], [-0.05579808621288729, 0.11068544917432344], [0.44017061431971405, -0.377164201763255], [-0.40410452431279686, -0.3330312181224438], [-0.23925915667932846, 0.04786928450790362], [-0.21399255252876537, 0.5531658585887987]]",density,black,,,N008,visual,1,[],"['1', '2', '3', '4']",1,2023.2.3,harveyvisual,2.1,[],8,0.75,
0,pause,0.4,None,None,None,0,139,139,139,,,,,,,,,,,,,N008,visual,1,[],"['1', '2', '3', '4']",1,2023.2.3,harveyvisual,2.1,[],8,0.75,
20,dot,0.3,['dot'],['density'],black,0,140,140,140,,,51.400201082229614,51.12679100036621,51.410163164138794,dot,"[0.06, 0.08, 0.1, 0.08, 0.06, 0.08, 0.08, 0.08, 0.1, 0.06, 0.06, 0.08, 0.08, 0.06, 0.1, 0.06, 0.1, 0.06, 0.1, 0.06]","[[-0.2077461383456387, 0.4800274888216509], [-0.09733791720191898, 0.32357961144868197], [0.2068359118686739, -0.38707732448110516], [-0.3376365276541628, 0.2303105867367975], [0.15042494665430473, 0.45516258610158133], [0.39135278923243266, -0.06428548934907052], [-0.5219478916123189, -0.07198141486468881], [-0.08865461037162814, 0.08792710632567535], [-0.3611434907735076, 0.04107718618946288], [0.42641778228212124, 0.2995701113914396], [-0.23734337598898708, -0.4263641530003082], [-0.5550722343323093, 0.1510967563819429], [0.1779403828781596, 0.2503369669948813], [-0.009633508584401262, -0.4181175495446152], [0.13693923955948117, -0.1909498915097706], [0.572025816966586, 0.17662794727338646], [-0.44431070313771637, -0.2824877857001814], [0.39564857813981436, -0.36207415240803614], [-0.09792856322097898, -0.15166474130030894], [-0.3981684437569173, 0.44070053450557783]]",density,black,,,N008,visual,1,[],"['1', '2', '3', '4']",1,2023.2.3,harveyvisual,2.1,[],8,0.75,
0,pause,0.4,None,None,None,0,141,141,141,,,,,,,,,,,,,N008,visual,1,[],"['1', '2', '3', '4']",1,2023.2.3,harveyvisual,2.1,[],8,0.75,
20,dot,0.3,['dot'],['density'],black,0,142,142,142,,,52.10020613670349,51.82684016227722,52.110135078430176,dot,"[0.1, 0.08, 0.1, 0.08, 0.08, 0.06, 0.08, 0.08, 0.08, 0.06, 0.08, 0.08, 0.08, 0.1, 0.1, 0.1, 0.1, 0.1, 0.1, 0.06]","[[0.4992130586946534, -0.20265884891100344], [0.5825683479485887, 0.12715202899399575], [0.3405894608908093, 0.3010298703183931], [0.0807155990779459, -0.16860508153311393], [-0.0007443261827048131, -0.4293860367642119], [-0.5021827286757338, -0.1647712290050768], [-0.43408871195242693, 0.3627921695849769], [0.1582288095817166, 0.13582671496700172], [-0.2253922836325577, -0.4451427119801591], [-0.592262729352245, 0.0682244902224152], [-0.252015360634476, 0.061436563810208344], [0.27413962603439623, 0.4889456213156187], [-0.25074234109391985, -0.17614313800595588], [0.2709627569446955, -0.5023266395722927], [-0.4366885426476086, -0.35148607799089715], [0.29769095128971135, -0.11031060043266089], [-0.08964429020528242, 0.4912085076110929], [0.02376101596502489, 0.29865718949997144], [0.3396060394627255, 0.07939871388211306], [-0.22054293895792526, 0.27149222259987427]]",density,black,,,N008,visual,1,[],"['1', '2', '3', '4']",1,2023.2.3,harveyvisual,2.1,[],8,0.75,
0,pause,0.4,None,None,None,0,143,143,143,,,,,,,,,,,,,N008,visual,1,[],"['1', '2', '3', '4']",1,2023.2.3,harveyvisual,2.1,[],8,0.75,
20,dot,0.3,['dot'],['density'],black,0,144,144,144,,,52.8002290725708,52.52693009376526,52.81011605262756,dot,"[0.06, 0.06, 0.06, 0.1, 0.08, 0.08, 0.06, 0.08, 0.06, 0.06, 0.06, 0.1, 0.1, 0.08, 0.06, 0.06, 0.06, 0.08, 0.1, 0.06]","[[0.47878758848534375, 0.09005673702234879], [-0.11236262183849582, -0.5432990578909428], [-0.1382655037513409, 0.5664596251773947], [-0.3832788833655333, -0.44037097928040925], [-0.4738424188049979, -0.17956390251730292], [-0.5691710180611119, 0.050501385597941595], [0.31234235502521834, 0.2056798425921501], [-0.2466088514820034, 0.0848237244455402], [0.5374079339322425, -0.10577507896206045], [-0.13839320202514838, -0.15454784628299717], [0.2720020445167546, -0.49885757173192696], [0.27901603226736404, -0.04811477524682545], [0.034626006332815984, 0.11948140892226944], [0.07866427240082075, -0.0886101962510647], [-0.06924608650190489, -0.3367342096339303], [0.42450358576626634, -0.2630611265055466], [0.17394582980140738, 0.4318025653994999], [-0.41817380910428203, 0.3464588159949115], [-0.018452974164052227, 0.3233127499945927], [0.18771636187079, -0.3003770117217689]]",density,black,,,N008,visual,1,[],"['1', '2', '3', '4']",1,2023.2.3,harveyvisual,2.1,[],8,0.75,
0,pause,0.4,None,None,None,0,145,145,145,,,,,,,,,,,,,N008,visual,1,[],"['1', '2', '3', '4']",1,2023.2.3,harveyvisual,2.1,[],8,0.75,
20,dot,0.3,['dot'],['density'],black,0,146,146,146,,,53.500203132629395,53.21017122268677,53.510104179382324,dot,"[0.08, 0.1, 0.1, 0.08, 0.08, 0.1, 0.06, 0.06, 0.08, 0.08, 0.08, 0.1, 0.1, 0.1, 0.1, 0.06, 0.08, 0.06, 0.06, 0.08]","[[-0.5131300904591405, -0.18243811126202414], [-0.42201937565598946, 0.2288934915510033], [0.31721861657629524, -0.37938300615256615], [-0.20647031363083101, -0.04530273618267033], [0.5218859407900484, 0.024324773262126176], [-0.6012546906452658, 0.03736713948262432], [-0.0355770357724543, 0.2972459096478356], [0.4413748677400381, -0.208774758399962], [0.3488777103280153, 0.41726421854026835], [0.19458677416060632, 0.28325074935362804], [0.06002587428092798, 0.5292198180609717], [0.06413109069660583, -0.16725588622686177], [-0.07654849725389823, -0.5625582654110666], [-0.24561679589901025, -0.29661799812566175], [-0.300340598324804, 0.5067104304580566], [-0.4042994158699367, 0.03935746756305725], [-0.4461433049186934, -0.36129351800221426], [0.28910038089707224, -0.05684991178883014], [-0.0226811939560303, 0.025032600608424382], [0.046286016059360335, -0.3714160036815283]]",density,black,,,N008,visual,1,[],"['1', '2', '3', '4']",1,2023.2.3,harveyvisual,2.1,[],8,0.75,
0,pause,0.4,None,None,None,0,147,147,147,,,,,,,,,,,,,N008,visual,1,[],"['1', '2', '3', '4']",1,2023.2.3,harveyvisual,2.1,[],8,0.75,
20,dot,0.3,['dot'],['density'],black,0,148,148,148,,,54.200226068496704,53.92693114280701,54.210108041763306,dot,"[0.1, 0.08, 0.06, 0.06, 0.08, 0.08, 0.08, 0.06, 0.08, 0.06, 0.1, 0.1, 0.08, 0.1, 0.08, 0.08, 0.1, 0.08, 0.08, 0.06]","[[-0.08022612284096486, 0.12624876272792107], [-0.1254457439001025, -0.3435549575991049], [0.46391002880664123, -0.19586982311501808], [0.17183164448057486, -0.42392033623835335], [-0.3400498839010952, 0.14136205779339783], [0.15550718322918766, 0.1429737089360411], [-0.5210610353310113, 0.07634693814450438], [0.4469223141119142, 0.2087989600712266], [0.2789974003467466, 0.365784552104211], [0.3633035013210091, 0.020700956878399956], [0.38296770176179495, -0.43654363423769843], [-0.14072088908007185, -0.5388076811216708], [-0.41216580091500343, -0.0887186826154398], [-0.3576957547191043, 0.43403048567717156], [-0.0027233989853989726, 0.37500281127843593], [0.1649791190408244, -0.06390721035923697], [-0.194075227806788, 0.28969780927791167], [0.11969418764135542, 0.5668105398858032], [-0.43487786472735124, -0.2953294218817506], [0.6012092416825489, 0.03597208251055449]]",density,black,,,N008,visual,1,[],"['1', '2', '3', '4']",1,2023.2.3,harveyvisual,2.1,[],8,0.75,
0,pause,0.4,None,None,None,0,149,149,149,,,,,,,,,,,,,N008,visual,1,[],"['1', '2', '3', '4']",1,2023.2.3,harveyvisual,2.1,[],8,0.75,
20,dot,0.3,['dot'],['density'],black,0,150,150,150,,,54.9002161026001,54.62671422958374,54.910123109817505,dot,"[0.06, 0.08, 0.08, 0.08, 0.08, 0.08, 0.1, 0.1, 0.08, 0.06, 0.1, 0.1, 0.08, 0.06, 0.08, 0.1, 0.08, 0.1, 0.06, 0.08]","[[-0.5146781768471873, -0.23457711987267296], [0.07890828113264325, 0.40739182751483227], [0.17907817738557863, 0.09816598502014662], [0.5129054720504714, 0.31424190124143236], [-0.21471736658975332, -0.3652223673167826], [-0.5048614107710213, 0.3055721303927861], [0.2727015681804609, -0.268371697900119], [0.46161577380332075, 0.026781847460603025], [-0.24101868287663775, 0.47459309851401354], [0.19550644013424778, -0.4919748369467997], [-0.09626369252047418, -0.5226052839179991], [-0.02636422902924307, -0.24026689535636975], [-0.1994382341668342, -0.08925785383913315], [-0.5882568915227905, 0.04942693844739146], [-0.050494483378549004, 0.25629669055623017], [0.4865758769773255, -0.2653550732590519], [-0.3182388317479285, 0.1150165512846919], [-0.4079973318196408, -0.4354317747830838], [0.38292013589476126, -0.45118773522672206], [0.2827356993196982, 0.4516658380258046]]",density,black,,,N008,visual,1,[],"['1', '2', '3', '4']",1,2023.2.3,harveyvisual,2.1,[],8,0.75,
0,pause,0.4,None,None,None,0,151,151,151,,,,,,,,,,,,,N008,visual,1,[],"['1', '2', '3', '4']",1,2023.2.3,harveyvisual,2.1,[],8,0.75,
20,dot,0.3,['dot'],['density'],black,0,152,152,152,,,55.60023021697998,55.32672715187073,55.610021114349365,dot,"[0.1, 0.06, 0.1, 0.08, 0.1, 0.1, 0.08, 0.06, 0.06, 0.06, 0.06, 0.08, 0.1, 0.08, 0.06, 0.06, 0.06, 0.08, 0.08, 0.06]","[[0.1370512890540212, 0.19027777682467828], [0.4296474286632531, -0.17244245475221548], [0.31678636510362446, -0.01957566034093583], [0.4766180368708052, 0.1643919555465101], [-0.602325633173308, -0.0054990934179296805], [-0.2593790977096937, 0.015790991577384617], [0.19280979674437915, 0.4912805797140106], [-0.14568886520171737, -0.5123112997792447], [0.06268892215437227, -0.056603206133614914], [0.21669555659001083, -0.44589048099520673], [-0.06539046211731103, 0.4816880592859265], [-0.36335135304601307, -0.3996997524514069], [-0.40256306222101323, -0.1403819449564251], [-0.32268163323779736, 0.3271138274983453], [-0.11922643274552758, -0.17755168151215533], [-0.5364114316520104, -0.2753720609419237], [0.20146770148972115, -0.21902344456691025], [-0.5101740892726194, 0.18201655239468256], [-0.29467017115136246, 0.5193026211100934], [0.5961596890912827, -0.012132072574005948]]",density,black,,,N008,visual,1,[],"['1', '2', '3', '4']",1,2023.2.3,harveyvisual,2.1,[],8,0.75,
0,pause,0.4,None,None,None,0,153,153,153,,,,,,,,,,,,,N008,visual,1,[],"['1', '2', '3', '4']",1,2023.2.3,harveyvisual,2.1,[],8,0.75,
20,dot,0.3,['dot'],['density'],black,0,154,154,154,,,56.300213098526,56.026692152023315,56.310020208358765,dot,"[0.08, 0.08, 0.06, 0.1, 0.06, 0.1, 0.1, 0.08, 0.06, 0.06, 0.1, 0.06, 0.08, 0.06, 0.1, 0.1, 0.1, 0.08, 0.08, 0.06]","[[-0.3325956415465453, 0.03924510437723683], [0.43312202940061184, -0.20464068767178656], [-0.44609002518160024, 0.30262422888480295], [-0.5239466011702797, -0.16319452364939932], [0.2820804426250959, 0.4834105079353733], [0.179499068784706, -0.5239734013800281], [-0.05390271960684745, -0.08782218412134912], [0.5789655494683329, -0.04075511698738868], [-0.048350391396156156, -0.5348713589394909], [-0.36976616506532894, -0.461894476991752], [0.3506530431109872, 0.2038796282877829], [0.12058446826838887, 0.17974683150958526], [0.5837762610190108, 0.15466727051687804], [-0.10539205373155686, 0.23419387009183623], [0.22810786128099614, -0.2563447596038426], [0.35408270184462765, -0.4352383931776845], [-0.29667122105512733, 0.47465563766355345], [-0.28697780717850646, -0.17427855620837246], [-0.0771896649220295, 0.5904023352352528], [-0.5586839288400922, 0.09644224492060122]]",density,black,,,N008,visual,1,[],"['1', '2', '3', '4']",1,2023.2.3,harveyvisual,2.1,[],8,0.75,
0,pause,0.4,None,None,None,0,155,155,155,,,,,,,,,,,,,N008,visual,1,[],"['1', '2', '3', '4']",1,2023.2.3,harveyvisual,2.1,[],8,0.75,
9,dot,0.3,['dot'],['density'],black,0,156,156,156,,,57.00020122528076,56.709999084472656,57.00999903678894,dot,"[0.1, 0.06, 0.06, 0.1, 0.08, 0.08, 0.08, 0.08, 0.1]","[[-0.3974741157875733, -0.3691322615124248], [0.01813275331019438, -0.041305186939584786], [-0.297817964195003, 0.1404435238036691], [-0.24996212712231053, -0.10674501212047392], [-0.45607543705465475, -0.10954340680539053], [-0.5097726394514722, 0.08872958744943038], [-0.16376728557074105, -0.3354799619734228], [-0.07115584905184995, 0.17737469530672276], [-0.4529869372404742, 0.29851616761646654]]",density,black,,,N008,visual,1,[],"['1', '2', '3', '4']",1,2023.2.3,harveyvisual,2.1,[],8,0.75,
0,pause,0.4,None,None,None,0,157,157,157,,,,,,,,,,,,,N008,visual,1,[],"['1', '2', '3', '4']",1,2023.2.3,harveyvisual,2.1,[],8,0.75,
9,dot,0.3,['dot'],['density'],black,0,158,158,158,,,57.70021319389343,57.40999412536621,57.709991216659546,dot,"[0.06, 0.08, 0.1, 0.1, 0.1, 0.06, 0.08, 0.1, 0.08]","[[-0.4007656520072294, -0.25517300445391483], [-0.002534053661406415, -0.03841937385778563], [0.03867088550537559, -0.37109058839216275], [0.14298263539714814, -0.19121790068267305], [-0.18592892280395246, 0.09800459324165622], [-0.17114407793371844, -0.47763389460370764], [0.20594417137152282, 0.033112046987541804], [-0.3669302527083935, -0.010624696365658668], [-0.20182203610849478, -0.19970173151634407]]",density,black,,,N008,visual,1,[],"['1', '2', '3', '4']",1,2023.2.3,harveyvisual,2.1,[],8,0.75,
0,pause,0.4,None,None,None,0,159,159,159,,,,,,,,,,,,,N008,visual,1,[],"['1', '2', '3', '4']",1,2023.2.3,harveyvisual,2.1,[],8,0.75,
9,dot,0.3,['dot'],['density'],black,0,160,160,160,,,58.400227069854736,58.10999512672424,58.4099440574646,dot,"[0.08, 0.08, 0.08, 0.08, 0.06, 0.08, 0.08, 0.1, 0.08]","[[0.11766436913102363, -0.04327704920019282], [0.17973489876850246, -0.2957558932143311], [0.4322853556796634, 0.1292829237047714], [-0.0348924626991882, -0.2091692004054023], [0.511593351462966, -0.2715393032181878], [0.39631341359825684, -0.10388811790353111], [0.1759041025424718, 0.35783279634564974], [-0.11077337801993212, 0.08002505665429639], [0.1915495233696259, 0.15329463501335125]]",density,black,,,N008,visual,1,[],"['1', '2', '3', '4']",1,2023.2.3,harveyvisual,2.1,[],8,0.75,
0,pause,0.4,None,None,None,0,161,161,161,,,,,,,,,,,,,N008,visual,1,[],"['1', '2', '3', '4']",1,2023.2.3,harveyvisual,2.1,[],8,0.75,
9,dot,0.3,['dot'],['density'],black,0,162,162,162,,,59.10022020339966,58.80995512008667,59.10994219779968,dot,"[0.08, 0.08, 0.06, 0.1, 0.06, 0.1, 0.08, 0.08, 0.06]","[[0.38655548767220327, 0.3303110468779764], [-0.15062718332117264, 0.3263612679497012], [0.12850016508903517, 0.5435449351404695], [0.04975739233973968, 0.11256198773833849], [0.05418506391445401, 0.3174451450657875], [0.282644584802279, 0.13382110200906677], [0.4968372747528943, 0.11977440893831985], [-0.17748280977865974, 0.12733825933579754], [-0.16508880216336755, 0.5437291489982663]]",density,black,,,N008,visual,1,[],"['1', '2', '3', '4']",1,2023.2.3,harveyvisual,2.1,[],8,0.75,
0,pause,0.4,None,None,None,0,163,163,163,,,,,,,,,,,,,N008,visual,1,[],"['1', '2', '3', '4']",1,2023.2.3,harveyvisual,2.1,[],8,0.75,
9,dot,0.3,['dot'],['density'],black,0,164,164,164,,,59.800212144851685,59.509974002838135,59.809967041015625,dot,"[0.1, 0.1, 0.1, 0.1, 0.1, 0.06, 0.06, 0.1, 0.1]","[[0.4433726728065019, 0.22320554513198193], [0.1026133663954636, -0.050786049565613584], [0.20022034484770485, 0.4412403735117007], [0.45250313802570796, 0.010227273383000257], [0.037500571895399265, 0.24935285809920393], [0.23874579090912346, 0.11348512554989887], [0.25013734113836505, -0.23502010549412247], [0.4599692436892986, -0.2536974682823114], [0.04694731086691962, -0.2548367103293993]]",density,black,,,N008,visual,1,[],"['1', '2', '3', '4']",1,2023.2.3,harveyvisual,2.1,[],8,0.75,
0,pause,0.4,None,None,None,0,165,165,165,,,,,,,,,,,,,N008,visual,1,[],"['1', '2', '3', '4']",1,2023.2.3,harveyvisual,2.1,[],8,0.75,
9,dot,0.3,['dot'],['density'],black,0,166,166,166,,,60.5002281665802,60.209938049316406,60.50988221168518,dot,"[0.06, 0.1, 0.08, 0.08, 0.1, 0.1, 0.08, 0.1, 0.06]","[[0.02295687172906439, -0.4555612238154966], [0.343534432465795, -0.2595759245515751], [-0.16187815285083418, -0.09052449078383604], [0.11251247888811697, -0.27313237114007116], [0.30947849701411384, 0.04064216277921932], [0.06991680920562879, 0.010838090335221196], [-0.17538857600721916, -0.30040513178321704], [-0.11470383471809205, 0.10558329706542706], [-0.35883798189287325, -0.15372405551062507]]",density,black,,,N008,visual,1,[],"['1', '2', '3', '4']",1,2023.2.3,harveyvisual,2.1,[],8,0.75,
0,pause,0.4,None,None,None,0,167,167,167,,,,,,,,,,,,,N008,visual,1,[],"['1', '2', '3', '4']",1,2023.2.3,harveyvisual,2.1,[],8,0.75,
8,dot,0.3,['dot'],['density'],black,0,168,168,168,,,61.200218200683594,60.90987205505371,61.20986604690552,dot,"[0.08, 0.08, 0.1, 0.1, 0.06, 0.1, 0.1, 0.08]","[[0.12411109391386341, -0.5343823995123961], [-0.21238427398525783, -0.3197389486612228], [-0.06551876445787266, 0.032183079599910736], [0.22034046694826517, 0.05676208929132721], [0.31747551588691986, -0.13046885784073625], [0.01834943727978222, -0.34316474661021057], [0.10776215616131694, -0.12386070969881222], [-0.2386971922539417, -0.09256206635527232]]",density,black,,,N008,visual,1,[],"['1', '2', '3', '4']",1,2023.2.3,harveyvisual,2.1,[],8,0.75,
0,pause,0.4,None,None,None,0,169,169,169,,,,,,,,,,,,,N008,visual,1,[],"['1', '2', '3', '4']",1,2023.2.3,harveyvisual,2.1,[],8,0.75,
8,dot,0.3,['dot'],['density'],white,0,170,170,170,,,61.90022015571594,61.60987305641174,61.90984106063843,dot,"[0.06, 0.06, 0.1, 0.1, 0.06, 0.08, 0.06, 0.08]","[[-0.3290570048964025, 0.45712517183014534], [-0.12351728740192595, 0.19722326774196852], [-0.44617383739254307, -0.0315435053038489], [0.05824565693526591, 0.08769012542188236], [-0.4904255353169048, 0.31423420558286136], [-0.32491150822629034, 0.16696319418744587], [-0.12614658653380179, 0.4043789036591275], [0.10044097339982726, 0.3130264767685494]]",density,white,,,N008,visual,1,[],"['1', '2', '3', '4']",1,2023.2.3,harveyvisual,2.1,[],8,0.75,
0,pause,0.4,None,None,None,0,171,171,171,,,,,,,,,,,1,62.04943299293518,N008,visual,1,[],"['1', '2', '3', '4']",1,2023.2.3,harveyvisual,2.1,[],8,0.75,
8,dot,0.3,['dot'],['density'],black,0,172,172,172,,,62.60020208358765,62.30983901023865,62.60983204841614,dot,"[0.08, 0.06, 0.06, 0.1, 0.1, 0.08, 0.1, 0.08]","[[-0.012034279999911439, 0.06556808781241986], [-0.3446774290598954, 0.11122635080299646], [0.22428040003470762, 0.1796687910302273], [-0.037221971777983635, 0.5300244249381355], [-0.1456717336157172, 0.2672263832914442], [0.040508406505222534, 0.3412803201140432], [-0.26975617824218623, 0.48628578621654683], [0.24128509790231628, 0.4122343446782376]]",density,black,,,N008,visual,1,[],"['1', '2', '3', '4']",1,2023.2.3,harveyvisual,2.1,[],8,0.75,
0,pause,0.4,None,None,None,0,173,173,173,,,,,,,,,,,,,N008,visual,1,[],"['1', '2', '3', '4']",1,2023.2.3,harveyvisual,2.1,[],8,0.75,
8,dot,0.3,['dot'],['density'],black,0,174,174,174,,,63.30023121833801,63.00988221168518,63.31002402305603,dot,"[0.08, 0.08, 0.1, 0.08, 0.06, 0.08, 0.1, 0.1]","[[0.1740819983727909, -0.16863019829442621], [0.14644114519141543, -0.4524198896657212], [0.0024885361438939093, 0.023531574910491997], [-0.23717340943857948, -0.31112918658627675], [-0.11311749148073028, -0.46867866316561874], [-0.17928248077090506, -0.060241557052319365], [-0.03957999532622772, -0.24759906754331504], [-0.4644327601918011, -0.3627803331480915]]",density,black,,,N008,visual,1,[],"['1', '2', '3', '4']",1,2023.2.3,harveyvisual,2.1,[],8,0.75,
0,pause,0.4,None,None,None,0,175,175,175,,,,,,,,,,,,,N008,visual,1,[],"['1', '2', '3', '4']",1,2023.2.3,harveyvisual,2.1,[],8,0.75,
8,dot,0.3,['dot'],['density'],black,0,176,176,176,,,64.00022602081299,63.70984411239624,64.0098512172699,dot,"[0.1, 0.1, 0.08, 0.06, 0.1, 0.06, 0.06, 0.06]","[[0.1740819983727909, -0.16863019829442621], [0.14644114519141543, -0.4524198896657212], [0.0024885361438939093, 0.023531574910491997], [-0.23717340943857948, -0.31112918658627675], [-0.11311749148073028, -0.46867866316561874], [-0.17928248077090506, -0.060241557052319365], [-0.03957999532622772, -0.24759906754331504], [-0.4644327601918011, -0.3627803331480915]]",density,black,,,N008,visual,1,[],"['1', '2', '3', '4']",1,2023.2.3,harveyvisual,2.1,[],8,0.75,
0,pause,0.4,None,None,None,0,177,177,177,,,,,,,,,,,,,N008,visual,1,[],"['1', '2', '3', '4']",1,2023.2.3,harveyvisual,2.1,[],8,0.75,
8,dot,0.3,['dot'],['density'],black,0,178,178,178,,,64.70020914077759,64.40978407859802,64.70977306365967,dot,"[0.1, 0.1, 0.06, 0.08, 0.06, 0.06, 0.1, 0.08]","[[-0.3306282708070712, -0.09459634407206743], [0.17708038186302957, -0.36794437316098305], [-0.34368294577136044, -0.39688855169369486], [-0.16397220561896333, 0.03033928826277653], [-0.08476975953586025, -0.41834960305423746], [-0.16765121495786453, -0.2265743681515788], [0.0449590487082352, -0.10546915507075137], [-0.5574709661459258, -0.15664368712912546]]",density,black,,,N008,visual,1,[],"['1', '2', '3', '4']",1,2023.2.3,harveyvisual,2.1,[],8,0.75,
0,pause,0.4,None,None,None,0,179,179,179,,,,,,,,,,,,,N008,visual,1,[],"['1', '2', '3', '4']",1,2023.2.3,harveyvisual,2.1,[],8,0.75,
7,dot,0.3,['dot'],['density'],white,0,180,180,180,,,65.40021800994873,65.10979104042053,65.40976810455322,dot,"[0.1, 0.06, 0.1, 0.08, 0.1, 0.1, 0.1]","[[-0.026372969700101213, 0.05085620782211805], [-0.16304282038196347, -0.3616501386780019], [-0.013762327205412121, -0.14910430285435466], [0.14729449770710015, -0.3647544547161306], [-0.22494517313234175, -0.12035103032643314], [-0.36514670174418407, -0.33057163197754225], [0.21417125919861074, -0.06627923590771367]]",density,white,,,N008,visual,1,[],"['1', '2', '3', '4']",1,2023.2.3,harveyvisual,2.1,[],8,0.75,
0,pause,0.4,None,None,None,0,181,181,181,,,,,,,,,,,1,65.57162499427795,N008,visual,1,[],"['1', '2', '3', '4']",1,2023.2.3,harveyvisual,2.1,[],8,0.75,
7,dot,0.3,['dot'],['density'],black,0,182,182,182,,,66.10020208358765,65.80975914001465,66.10976219177246,dot,"[0.06, 0.08, 0.1, 0.06, 0.1, 0.1, 0.08]","[[0.2037857981676222, -0.1815971672986122], [0.4890839798603071, 0.25295445478885614], [0.1294833597440532, 0.050421522491765555], [0.5249724357971474, 0.014331621614536631], [0.4084294087299191, -0.1546943519977724], [0.31356179590401956, 0.13415696527685209], [-0.016262925640377804, -0.1588315022511765]]",density,black,,,N008,visual,1,[],"['1', '2', '3', '4']",1,2023.2.3,harveyvisual,2.1,[],8,0.75,
0,pause,0.4,None,None,None,0,183,183,183,,,,,,,,,,,,,N008,visual,1,[],"['1', '2', '3', '4']",1,2023.2.3,harveyvisual,2.1,[],8,0.75,
7,dot,0.3,['dot'],['density'],black,0,184,184,184,,,66.80022811889648,66.50976610183716,66.80972409248352,dot,"[0.06, 0.08, 0.06, 0.06, 0.08, 0.06, 0.06]","[[-0.0015444251822213466, 0.17452400993182896], [-0.3864233363803332, 0.3856338194384884], [-0.45841970572989144, 0.11901701190004808], [-0.23552014845846486, 0.11986313412455778], [-0.06694767956243396, -0.029831379541550785], [-0.3576154478026905, -0.11072010138878656], [-0.17113735677840214, 0.37123035181888253]]",density,black,,,N008,visual,1,[],"['1', '2', '3', '4']",1,2023.2.3,harveyvisual,2.1,[],8,0.75,
0,pause,0.4,None,None,None,0,185,185,185,,,,,,,,,,,,,N008,visual,1,[],"['1', '2', '3', '4']",1,2023.2.3,harveyvisual,2.1,[],8,0.75,
7,dot,0.3,['dot'],['density'],black,0,186,186,186,,,67.50023007392883,67.20972609519958,67.50970721244812,dot,"[0.1, 0.1, 0.08, 0.06, 0.08, 0.08, 0.08]","[[-0.3616029487054454, 0.4456424486886853], [-0.1496406170718537, 0.08450683720449656], [-0.4229793897960434, 0.19545916586121675], [-0.050735401720141765, 0.4582308035931027], [-0.23416009772798219, 0.28880413379285297], [0.00916417092529717, 0.20866532064640267], [0.0895043828575618, 0.020292244516940467]]",density,black,,,N008,visual,1,[],"['1', '2', '3', '4']",1,2023.2.3,harveyvisual,2.1,[],8,0.75,
0,pause,0.4,None,None,None,0,187,187,187,,,,,,,,,,,,,N008,visual,1,[],"['1', '2', '3', '4']",1,2023.2.3,harveyvisual,2.1,[],8,0.75,
7,dot,0.3,['dot'],['density'],black,0,188,188,188,,,68.20020508766174,67.90973615646362,68.20972013473511,dot,"[0.08, 0.06, 0.06, 0.06, 0.1, 0.1, 0.1]","[[-0.0015444251822213466, 0.17452400993182896], [-0.3864233363803332, 0.3856338194384884], [-0.45841970572989144, 0.11901701190004808], [-0.23552014845846486, 0.11986313412455778], [-0.06694767956243396, -0.029831379541550785], [-0.3576154478026905, -0.11072010138878656], [-0.17113735677840214, 0.37123035181888253]]",density,black,,,N008,visual,1,[],"['1', '2', '3', '4']",1,2023.2.3,harveyvisual,2.1,[],8,0.75,
0,pause,0.4,None,None,None,0,189,189,189,,,,,,,,,,,,,N008,visual,1,[],"['1', '2', '3', '4']",1,2023.2.3,harveyvisual,2.1,[],8,0.75,
7,dot,0.3,['dot'],['density'],black,0,190,190,190,,,68.90022015571594,68.6097412109375,68.90983319282532,dot,"[0.08, 0.1, 0.1, 0.1, 0.06, 0.06, 0.06]","[[0.3899189512010899, -0.40728696153528776], [0.20392863561369634, -0.3305625840210526], [0.31626985815109576, 0.13567824844623666], [0.5017338684339655, -0.028549680114735937], [0.11648855723187378, -0.1078833072829627], [0.07041138378868489, 0.08730219371944997], [0.32910598476010167, -0.13660711058181768]]",density,black,,,N008,visual,1,[],"['1', '2', '3', '4']",1,2023.2.3,harveyvisual,2.1,[],8,0.75,
0,pause,0.4,None,None,None,0,191,191,191,,,,,,,,,,,,,N008,visual,1,[],"['1', '2', '3', '4']",1,2023.2.3,harveyvisual,2.1,[],8,0.75,
6,dot,0.3,['dot'],['density'],black,0,192,192,192,,,69.6002140045166,69.30982422828674,69.60983920097351,dot,"[0.06, 0.1, 0.06, 0.06, 0.1, 0.1]","[[-0.11553075830627273, 0.47698778124428043], [-0.1112787518129194, 0.10456141670764223], [-0.48855705683845824, 0.21494657582805063], [-0.2538299919008863, 0.2532006538804931], [-0.3271837865365474, 0.4662148945367939], [0.006792750312598743, 0.27345996435494924]]",density,black,,,N008,visual,1,[],"['1', '2', '3', '4']",1,2023.2.3,harveyvisual,2.1,[],8,0.75,
0,pause,0.4,None,None,None,0,193,193,193,,,,,,,,,,,,,N008,visual,1,[],"['1', '2', '3', '4']",1,2023.2.3,harveyvisual,2.1,[],8,0.75,
6,dot,0.3,['dot'],['density'],black,0,194,194,194,,,70.30020308494568,70.00981307029724,70.30978012084961,dot,"[0.08, 0.06, 0.1, 0.06, 0.1, 0.06]","[[0.285926512064941, -0.24481785515673876], [0.418595730147314, -0.41068201076939437], [0.08023911914447063, -0.2907744195836184], [0.5255309086764915, -0.21900298349449057], [0.21619509519697316, -0.004828458463526469], [0.21043770887025895, -0.4594541383061854]]",density,black,,,N008,visual,1,[],"['1', '2', '3', '4']",1,2023.2.3,harveyvisual,2.1,[],8,0.75,
0,pause,0.4,None,None,None,0,195,195,195,,,,,,,,,,,,,N008,visual,1,[],"['1', '2', '3', '4']",1,2023.2.3,harveyvisual,2.1,[],8,0.75,
6,dot,0.3,['dot'],['density'],black,0,196,196,196,,,71.0002110004425,70.70980310440063,71.00971221923828,dot,"[0.06, 0.1, 0.1, 0.1, 0.08, 0.08]","[[-0.25052904509636076, -0.46440103658729176], [-0.12772535636451293, 0.010821502090106766], [-0.031043743050516784, -0.3649555915866845], [-0.3754529733759062, -0.18839395716731677], [0.07378414788444272, -0.15062955699655364], [-0.17220243018048728, -0.20498996683935267]]",density,black,,,N008,visual,1,[],"['1', '2', '3', '4']",1,2023.2.3,harveyvisual,2.1,[],8,0.75,
0,pause,0.4,None,None,None,0,197,197,197,,,,,,,,,,,,,N008,visual,1,[],"['1', '2', '3', '4']",1,2023.2.3,harveyvisual,2.1,[],8,0.75,
6,dot,0.3,['dot'],['density'],black,0,198,198,198,,,71.70023107528687,71.40961623191833,71.70976519584656,dot,"[0.08, 0.08, 0.1, 0.1, 0.1, 0.08]","[[0.23625405956766557, 0.3892633732772463], [0.11760889656980711, -0.0038201085241890706], [0.42882153754783053, 0.07157264481568941], [0.22360409458703237, 0.16865996735680294], [-0.08582952339030024, 0.051003002567710905], [-0.0010028139275050567, 0.23222523166366787]]",density,black,,,N008,visual,1,[],"['1', '2', '3', '4']",1,2023.2.3,harveyvisual,2.1,[],8,0.75,
0,pause,0.4,None,None,None,0,199,199,199,,,,,,,,,,,,,N008,visual,1,[],"['1', '2', '3', '4']",1,2023.2.3,harveyvisual,2.1,[],8,0.75,
6,dot,0.3,['dot'],['density'],white,0,200,200,200,,,72.40021014213562,72.10973620414734,72.4095950126648,dot,"[0.08, 0.06, 0.06, 0.06, 0.1, 0.1]","[[-0.521575560759306, -0.09896409503936293], [-0.11005055439098525, 0.007412765662050641], [-0.2691644509192311, -0.32034241736757013], [-0.33082776037640693, 0.11579187391948328], [-0.031037041641207554, -0.21820435357846482], [-0.2943013415457968, -0.09543215727460275]]",density,white,,,N008,visual,1,[],"['1', '2', '3', '4']",1,2023.2.3,harveyvisual,2.1,[],8,0.75,
0,pause,0.4,None,None,None,0,201,201,201,,,,,,,,,,,1,72.57146906852722,N008,visual,1,[],"['1', '2', '3', '4']",1,2023.2.3,harveyvisual,2.1,[],8,0.75,
6,dot,0.3,['dot'],['density'],black,0,202,202,202,,,73.10022521018982,72.80956315994263,73.10955715179443,dot,"[0.06, 0.06, 0.1, 0.1, 0.08, 0.08]","[[0.0015484977009578463, -0.37153509484940705], [-0.24631791352898516, -0.16063896847060222], [-0.21037316856202723, -0.37491302730087106], [-0.14520134419833938, 0.05228402714841561], [-0.41979900021501537, -0.27073368115662844], [-0.020720382871846178, -0.14076137757070492]]",density,black,,,N008,visual,1,[],"['1', '2', '3', '4']",1,2023.2.3,harveyvisual,2.1,[],8,0.75,
0,pause,0.4,None,None,None,0,203,203,203,,,,,,,,,,,,,N008,visual,1,[],"['1', '2', '3', '4']",1,2023.2.3,harveyvisual,2.1,[],8,0.75,
5,dot,0.3,['dot'],['density'],black,0,204,204,204,,,73.80022621154785,73.5095591545105,73.80953216552734,dot,"[0.06, 0.1, 0.1, 0.08, 0.06]","[[0.08548847697718086, 0.4135790235028826], [-0.012611048966726563, 0.22662400259503446], [0.27435170057987585, 0.4853016025774898], [-0.23063129862993442, 0.3109017384705433], [-0.11887524344887646, 0.49040580377695175]]",density,black,,,N008,visual,1,[],"['1', '2', '3', '4']",1,2023.2.3,harveyvisual,2.1,[],8,0.75,
0,pause,0.4,None,None,None,0,205,205,205,,,,,,,,,,,,,N008,visual,1,[],"['1', '2', '3', '4']",1,2023.2.3,harveyvisual,2.1,[],8,0.75,
5,dot,0.3,['dot'],['density'],black,0,206,206,206,,,74.50023007392883,74.20952820777893,74.50951910018921,dot,"[0.1, 0.08, 0.06, 0.1, 0.08]","[[0.34746533592570195, 0.16118282603596082], [0.14457128296481445, 0.28865621170929245], [0.4549189851861922, 0.34228556952890804], [0.008483415068308318, 0.44103246018778014], [0.27150044131742485, 0.4621652121832405]]",density,black,,,N008,visual,1,[],"['1', '2', '3', '4']",1,2023.2.3,harveyvisual,2.1,[],8,0.75,
0,pause,0.4,None,None,None,0,207,207,207,,,,,,,,,,,,,N008,visual,1,[],"['1', '2', '3', '4']",1,2023.2.3,harveyvisual,2.1,[],8,0.75,
5,dot,0.3,['dot'],['density'],black,0,208,208,208,,,75.20020818710327,74.909508228302,75.20949721336365,dot,"[0.1, 0.06, 0.08, 0.06, 0.06]","[[0.33660852042816714, -0.448935078303268], [0.16237328695183198, -0.028906365321866932], [0.003149504206933677, -0.1844463225559013], [0.4065340125681681, -0.22407981263326276], [0.20027486954239768, -0.2346061295568129]]",density,black,,,N008,visual,1,[],"['1', '2', '3', '4']",1,2023.2.3,harveyvisual,2.1,[],8,0.75,
0,pause,0.4,None,None,None,0,209,209,209,,,,,,,,,,,,,N008,visual,1,[],"['1', '2', '3', '4']",1,2023.2.3,harveyvisual,2.1,[],8,0.75,
5,dot,0.3,['dot'],['density'],black,0,210,210,210,,,75.90020418167114,75.60953211784363,75.90953707695007,dot,"[0.08, 0.08, 0.08, 0.06, 0.06]","[[0.14370466841446422, -0.4636309982806098], [0.2961807471193908, -0.30487684838795487], [-0.08083516471444438, -0.49823911181902014], [0.057429843216129074, -0.22123310288296744], [-0.1653320673045236, -0.3160671692815837]]",density,black,,,N008,visual,1,[],"['1', '2', '3', '4']",1,2023.2.3,harveyvisual,2.1,[],8,0.75,
0,pause,0.4,None,None,None,0,211,211,211,,,,,,,,,,,,,N008,visual,1,[],"['1', '2', '3', '4']",1,2023.2.3,harveyvisual,2.1,[],8,0.75,
5,dot,0.3,['dot'],['density'],black,0,212,212,212,,,76.60020613670349,76.3095281124115,76.60946011543274,dot,"[0.06, 0.1, 0.1, 0.08, 0.06]","[[-0.4004020094395207, -0.04445243948850948], [-0.17181756668418613, -0.18180129995893848], [-0.46264198425852476, 0.17889071841303528], [-0.23640824159873003, 0.08340028676903545], [-0.2824747884808712, 0.2826805534387526]]",density,black,,,N008,visual,1,[],"['1', '2', '3', '4']",1,2023.2.3,harveyvisual,2.1,[],8,0.75,
0,pause,0.4,None,None,None,0,213,213,213,,,,,,,,,,,,,N008,visual,1,[],"['1', '2', '3', '4']",1,2023.2.3,harveyvisual,2.1,[],8,0.75,
5,dot,0.3,['dot'],['density'],black,0,214,214,214,,,77.30020403862,77.00960516929626,77.30963611602783,dot,"[0.08, 0.06, 0.06, 0.06, 0.06]","[[-0.006164932418690097, -0.4528126201229341], [-0.1681524682570009, -0.11721653268637569], [-0.1959903964051736, -0.3710708837277218], [0.03544926667602863, -0.1302589477940128], [0.16830580561999814, -0.32298356607012285]]",density,black,,,N008,visual,1,[],"['1', '2', '3', '4']",1,2023.2.3,harveyvisual,2.1,[],8,0.75,
0,pause,0.4,None,None,None,0,215,215,215,,,,,,,,,,,,,N008,visual,1,[],"['1', '2', '3', '4']",1,2023.2.3,harveyvisual,2.1,[],8,0.75,
4,dot,0.3,['dot'],['density'],black,0,216,216,216,,,78.0002031326294,77.70960807800293,78.00959300994873,dot,"[0.06, 0.1, 0.1, 0.06]","[[0.107131415583101, 0.03171316484874249], [0.3330877778846877, 0.14211400081541528], [0.23058747141838212, -0.24340322486593785], [0.3173726134345681, -0.05921806988573682]]",density,black,,,N008,visual,1,[],"['1', '2', '3', '4']",1,2023.2.3,harveyvisual,2.1,[],8,0.75,
0,pause,0.4,None,None,None,0,217,217,217,,,,,,,,,,,,,N008,visual,1,[],"['1', '2', '3', '4']",1,2023.2.3,harveyvisual,2.1,[],8,0.75,
4,dot,0.3,['dot'],['density'],white,0,218,218,218,,,78.7002182006836,78.40943121910095,78.70957803726196,dot,"[0.06, 0.1, 0.08, 0.06]","[[-0.041173875632770134, -0.46498671258652186], [-0.2993670243960792, -0.1306311282158324], [-0.23343206187288035, -0.39905635110522214], [-0.1242366033797093, -0.2299834244258363]]",density,white,,,N008,visual,1,[],"['1', '2', '3', '4']",1,2023.2.3,harveyvisual,2.1,[],8,0.75,
0,pause,0.4,None,None,None,0,219,219,219,,,,,,,,,,,1,78.80444598197937,N008,visual,1,[],"['1', '2', '3', '4']",1,2023.2.3,harveyvisual,2.1,[],8,0.75,
4,dot,0.3,['dot'],['density'],black,0,220,220,220,,,79.40020704269409,79.10956621170044,79.40941500663757,dot,"[0.06, 0.06, 0.08, 0.08]","[[0.06241226843583792, -0.3147100539198924], [0.2553405417111816, -0.24584579293690137], [0.0027514156828475403, -0.09786489187307437], [0.1660279615748852, 0.026007470517245626]]",density,black,,,N008,visual,1,[],"['1', '2', '3', '4']",1,2023.2.3,harveyvisual,2.1,[],8,0.75,
0,pause,0.4,None,None,None,0,221,221,221,,,,,,,,,,,,,N008,visual,1,[],"['1', '2', '3', '4']",1,2023.2.3,harveyvisual,2.1,[],8,0.75,
4,dot,0.3,['dot'],['density'],black,0,222,222,222,,,80.10023212432861,79.8095440864563,80.1095380783081,dot,"[0.1, 0.1, 0.08, 0.1]","[[0.041567121943163726, -0.05225384285034155], [-0.0805660347394345, -0.3501797602382367], [-0.1695568067340664, -0.0700859275369407], [0.1361950610904954, -0.2628340353233457]]",density,black,,,N008,visual,1,[],"['1', '2', '3', '4']",1,2023.2.3,harveyvisual,2.1,[],8,0.75,
0,pause,0.4,None,None,None,0,223,223,223,,,,,,,,,,,,,N008,visual,1,[],"['1', '2', '3', '4']",1,2023.2.3,harveyvisual,2.1,[],8,0.75,
4,dot,0.3,['dot'],['density'],black,0,224,224,224,,,80.80022621154785,80.50954008102417,80.80940818786621,dot,"[0.1, 0.1, 0.08, 0.08]","[[0.2541297109701026, -0.03410267595110144], [0.396116024817599, -0.19002287009394117], [0.4303711222235913, 0.2602585224666286], [0.4446461975978109, 0.027516111316963392]]",density,black,,,N008,visual,1,[],"['1', '2', '3', '4']",1,2023.2.3,harveyvisual,2.1,[],8,0.75,
0,pause,0.4,None,None,None,0,225,225,225,,,,,,,,,,,,,N008,visual,1,[],"['1', '2', '3', '4']",1,2023.2.3,harveyvisual,2.1,[],8,0.75,
4,dot,0.3,['dot'],['density'],black,0,226,226,226,,,81.50020503997803,81.20943307876587,81.50941205024719,dot,"[0.1, 0.1, 0.1, 0.06]","[[0.2472118047986834, -0.10298318101898082], [0.5832669122255578, -0.0503561045998346], [0.411076479450662, -0.2641061246578253], [0.42907679660555237, 0.09101913809416001]]",density,black,,,N008,visual,1,[],"['1', '2', '3', '4']",1,2023.2.3,harveyvisual,2.1,[],8,0.75,
0,pause,0.4,None,None,None,0,227,227,227,,,,,,,,,,,,,N008,visual,1,[],"['1', '2', '3', '4']",1,2023.2.3,harveyvisual,2.1,[],8,0.75,
3,dot,0.3,['dot'],['density'],black,0,228,228,228,,,82.20023608207703,81.90941119194031,82.20940613746643,dot,"[0.08, 0.08, 0.08]","[[-0.15674404860239688, -0.25078459247658497], [0.006578924124220241, -0.41324131210186005], [0.06959682433872849, -0.20549031443856539]]",density,black,,,N008,visual,1,[],"['1', '2', '3', '4']",1,2023.2.3,harveyvisual,2.1,[],8,0.75,
0,pause,0.4,None,None,None,0,229,229,229,,,,,,,,,,,,,N008,visual,1,[],"['1', '2', '3', '4']",1,2023.2.3,harveyvisual,2.1,[],8,0.75,
3,dot,0.3,['dot'],['density'],black,0,230,230,230,,,82.90022206306458,82.60934400558472,82.9092800617218,dot,"[0.08, 0.08, 0.06]","[[-0.04083818552357515, -0.522177599776496], [0.2241586230204485, -0.5188142294055383], [0.09506152973916207, -0.364648334381489]]",density,black,,,N008,visual,1,[],"['1', '2', '3', '4']",1,2023.2.3,harveyvisual,2.1,[],8,0.75,
0,pause,0.4,None,None,None,0,231,231,231,,,,,,,,,,,,,N008,visual,1,[],"['1', '2', '3', '4']",1,2023.2.3,harveyvisual,2.1,[],8,0.75,
3,dot,0.3,['dot'],['density'],black,0,232,232,232,,,83.60021114349365,83.30935502052307,83.60934114456177,dot,"[0.06, 0.08, 0.1]","[[-0.36641147837046456, 0.28339849123565264], [-0.19108570342652328, 0.4628134959899303], [-0.16564092668537764, 0.24926372681875647]]",density,black,,,N008,visual,1,[],"['1', '2', '3', '4']",1,2023.2.3,harveyvisual,2.1,[],8,0.75,
0,pause,0.4,None,None,None,0,233,233,233,,,,,,,,,,,,,N008,visual,1,[],"['1', '2', '3', '4']",1,2023.2.3,harveyvisual,2.1,[],8,0.75,
3,dot,0.3,['dot'],['density'],black,0,234,234,234,,,84.30021500587463,84.00929617881775,84.30931901931763,dot,"[0.08, 0.08, 0.1]","[[-0.04083818552357515, -0.522177599776496], [0.2241586230204485, -0.5188142294055383], [0.09506152973916207, -0.364648334381489]]",density,black,,,N008,visual,1,[],"['1', '2', '3', '4']",1,2023.2.3,harveyvisual,2.1,[],8,0.75,
0,pause,0.4,None,None,None,0,235,235,235,,,,,,,,,,,,,N008,visual,1,[],"['1', '2', '3', '4']",1,2023.2.3,harveyvisual,2.1,[],8,0.75,
3,dot,0.3,['dot'],['density'],black,0,236,236,236,,,85.00022006034851,84.70927214622498,85.00925421714783,dot,"[0.08, 0.08, 0.1]","[[-0.05604225559701161, -0.5082314702914299], [0.10137377066920354, -0.3837858820064252], [-0.12802807887251882, -0.3142638921214105]]",density,black,,,N008,visual,1,[],"['1', '2', '3', '4']",1,2023.2.3,harveyvisual,2.1,[],8,0.75,
0,pause,0.4,None,None,None,0,237,237,237,,,,,,,,,,,,,N008,visual,1,[],"['1', '2', '3', '4']",1,2023.2.3,harveyvisual,2.1,[],8,0.75,
3,dot,0.3,['dot'],['density'],black,0,238,238,238,,,85.70022106170654,85.40926122665405,85.70923519134521,dot,"[0.06, 0.1, 0.08]","[[0.5383732683216915, 0.24050044654635605], [0.337973319445641, 0.36292363064724675], [0.3422154310588786, 0.14570949010333048]]",density,black,,,N008,visual,1,[],"['1', '2', '3', '4']",1,2023.2.3,harveyvisual,2.1,[],8,0.75,
0,pause,0.4,None,None,None,0,239,239,239,,,,,,,,,,,,,N008,visual,1,[],"['1', '2', '3', '4']",1,2023.2.3,harveyvisual,2.1,[],8,0.75,
2,dot,0.3,['dot'],['density'],black,0,240,240,240,,,86.40023517608643,86.10930800437927,86.40928912162781,dot,"[0.08, 0.06]","[[-0.40295961353468523, -0.33947470962363085], [-0.23663605411983973, -0.22749761394439932]]",density,black,,,N008,visual,1,[],"['1', '2', '3', '4']",1,2023.2.3,harveyvisual,2.1,[],8,0.75,
0,pause,0.4,None,None,None,0,241,241,241,,,,,,,,,,,,,N008,visual,1,[],"['1', '2', '3', '4']",1,2023.2.3,harveyvisual,2.1,[],8,0.75,
2,dot,0.3,['dot'],['density'],black,0,242,242,242,,,87.10023307800293,86.80922102928162,87.10921216011047,dot,"[0.1, 0.1]","[[0.510744558366804, -0.07965895932329134], [0.5183014925016622, -0.2796299572401246]]",density,black,,,N008,visual,1,[],"['1', '2', '3', '4']",1,2023.2.3,harveyvisual,2.1,[],8,0.75,
0,pause,0.4,None,None,None,0,243,243,243,,,,,,,,,,,,,N008,visual,1,[],"['1', '2', '3', '4']",1,2023.2.3,harveyvisual,2.1,[],8,0.75,
2,dot,0.3,['dot'],['density'],black,0,244,244,244,,,87.80022811889648,87.5091941356659,87.8091790676117,dot,"[0.08, 0.1]","[[-0.40295961353468523, -0.33947470962363085], [-0.23663605411983973, -0.22749761394439932]]",density,black,,,N008,visual,1,[],"['1', '2', '3', '4']",1,2023.2.3,harveyvisual,2.1,[],8,0.75,
0,pause,0.4,None,None,None,0,245,245,245,,,,,,,,,,,,,N008,visual,1,[],"['1', '2', '3', '4']",1,2023.2.3,harveyvisual,2.1,[],8,0.75,
2,dot,0.3,['dot'],['density'],black,0,246,246,246,,,88.50021409988403,88.20921206474304,88.50916004180908,dot,"[0.1, 0.06]","[[-0.20887660672828282, 0.3399455197969581], [-0.34272369919491674, 0.19089688818271272]]",density,black,,,N008,visual,1,[],"['1', '2', '3', '4']",1,2023.2.3,harveyvisual,2.1,[],8,0.75,
0,pause,0.4,None,None,None,0,247,247,247,,,,,,,,,,,,,N008,visual,1,[],"['1', '2', '3', '4']",1,2023.2.3,harveyvisual,2.1,[],8,0.75,
2,dot,0.3,['dot'],['density'],black,0,248,248,248,,,89.20020604133606,88.90922021865845,89.20922923088074,dot,"[0.06, 0.1]","[[0.4298854344354601, 0.24556028782034023], [0.23727674624932948, 0.18886586315459258]]",density,black,,,N008,visual,1,[],"['1', '2', '3', '4']",1,2023.2.3,harveyvisual,2.1,[],8,0.75,
0,pause,0.4,None,None,None,0,249,249,249,,,,,,,,,,,,,N008,visual,1,[],"['1', '2', '3', '4']",1,2023.2.3,harveyvisual,2.1,[],8,0.75,
2,dot,0.3,['dot'],['density'],black,0,250,250,250,,,89.9002091884613,89.6091639995575,89.90914106369019,dot,"[0.1, 0.1]","[[0.21195259569903124, -0.4986433684978455], [0.023877440871594643, -0.42921284787985464]]",density,black,,,N008,visual,1,[],"['1', '2', '3', '4']",1,2023.2.3,harveyvisual,2.1,[],8,0.75,
0,pause,0.4,None,None,None,0,251,251,251,,,,,,,,,,,,,N008,visual,1,[],"['1', '2', '3', '4']",1,2023.2.3,harveyvisual,2.1,[],8,0.75,
1,dot,0.3,['dot'],['density'],black,0,252,252,252,,,90.60023212432861,90.3091242313385,90.6090931892395,dot,[0.1],"[0.5286010678554951, -0.2554598500704326]",density,black,,,N008,visual,1,[],"['1', '2', '3', '4']",1,2023.2.3,harveyvisual,2.1,[],8,0.75,
0,pause,0.4,None,None,None,0,253,253,253,,,,,,,,,,,,,N008,visual,1,[],"['1', '2', '3', '4']",1,2023.2.3,harveyvisual,2.1,[],8,0.75,
1,dot,0.3,['dot'],['density'],white,0,254,254,254,,,91.30022120475769,91.00909805297852,91.30908918380737,dot,[0.06],"[0.2830289625583117, -0.03026882548871228]",density,white,,,N008,visual,1,[],"['1', '2', '3', '4']",1,2023.2.3,harveyvisual,2.1,[],8,0.75,
0,pause,0.4,None,None,None,0,255,255,255,,,,,,,,,,,1,91.48480892181396,N008,visual,1,[],"['1', '2', '3', '4']",1,2023.2.3,harveyvisual,2.1,[],8,0.75,
1,dot,0.3,['dot'],['density'],black,0,256,256,256,,,92.00021815299988,91.70907711982727,92.00906014442444,dot,[0.08],"[0.31457923939875737, -0.4122609730770665]",density,black,,,N008,visual,1,[],"['1', '2', '3', '4']",1,2023.2.3,harveyvisual,2.1,[],8,0.75,
0,pause,0.4,None,None,None,0,257,257,257,,,,,,,,,,,,,N008,visual,1,[],"['1', '2', '3', '4']",1,2023.2.3,harveyvisual,2.1,[],8,0.75,
1,dot,0.3,['dot'],['density'],black,0,258,258,258,,,92.70023107528687,92.40905404090881,92.70908308029175,dot,[0.08],"[0.01430498756481247, 0.36429701967127975]",density,black,,,N008,visual,1,[],"['1', '2', '3', '4']",1,2023.2.3,harveyvisual,2.1,[],8,0.75,
0,pause,0.4,None,None,None,0,259,259,259,,,,,,,,,,,,,N008,visual,1,[],"['1', '2', '3', '4']",1,2023.2.3,harveyvisual,2.1,[],8,0.75,
1,dot,0.3,['dot'],['density'],black,0,260,260,260,,,93.40022015571594,93.10903406143188,93.40905213356018,dot,[0.1],"[0.19623115665255414, 0.1676894875529279]",density,black,,,N008,visual,1,[],"['1', '2', '3', '4']",1,2023.2.3,harveyvisual,2.1,[],8,0.75,
0,pause,0.4,None,None,None,0,261,261,261,,,,,,,,,,,,,N008,visual,1,[],"['1', '2', '3', '4']",1,2023.2.3,harveyvisual,2.1,[],8,0.75,
1,dot,0.3,['dot'],['density'],black,0,262,262,262,,,94.10021209716797,93.80908107757568,94.10920214653015,dot,[0.1],"[0.0038807231877187303, -0.2777732366953785]",density,black,,,N008,visual,1,[],"['1', '2', '3', '4']",1,2023.2.3,harveyvisual,2.1,[],8,0.75,
0,pause,0.4,None,None,None,0,263,263,263,,,,,,,,,,,,,N008,visual,1,[],"['1', '2', '3', '4']",1,2023.2.3,harveyvisual,2.1,[],8,0.75,
20,dot,0.3,['dot'],['density'],black,0,264,264,264,,,94.8002381324768,94.52578210830688,94.8091471195221,dot,"[0.1, 0.08, 0.08, 0.08, 0.1, 0.06, 0.08, 0.1, 0.08, 0.1, 0.06, 0.1, 0.06, 0.1, 0.06, 0.1, 0.06, 0.06, 0.08, 0.08]","[[0.19913250605916422, 0.10340705707205855], [-0.031439733851076124, 0.3476657991039396], [-0.29230153384010865, 0.4303407966574283], [-0.30347730379850046, -0.2797601122109897], [-0.5218630289193362, 0.28804295040861083], [-0.33201447139159584, 0.02550671964276474], [-0.1453890022514162, 0.1621986351889887], [-0.5959003934495125, -0.05359672022763748], [0.2514763753773829, -0.1847552900096382], [0.3977148791539359, -0.42425099526002075], [0.3060571744009376, 0.46572249989480485], [0.20640906466407882, -0.45121240837355286], [0.47302150714960367, -0.2021538280514638], [-0.5169754253716412, -0.2910237310681474], [-0.07871059778220046, 0.5713873213927614], [-0.08448156309197963, -0.1862882785322838], [0.024734247131410037, -0.36345594117705554], [-0.14940525619394096, -0.5817752487659488], [0.5436962374832078, 0.1635924600699723], [0.6025781734604413, -0.03937214008969359]]",density,black,,,N008,visual,1,[],"['1', '2', '3', '4']",1,2023.2.3,harveyvisual,2.1,[],8,0.75,
0,pause,0.4,None,None,None,0,265,265,265,,,,,,,,,,,,,N008,visual,1,[],"['1', '2', '3', '4']",1,2023.2.3,harveyvisual,2.1,[],8,0.75,
20,dot,0.3,['dot'],['density'],black,0,266,266,266,,,95.50023102760315,95.22584414482117,95.50913310050964,dot,"[0.1, 0.1, 0.1, 0.08, 0.1, 0.08, 0.06, 0.06, 0.08, 0.1, 0.08, 0.1, 0.06, 0.1, 0.06, 0.06, 0.08, 0.06, 0.06, 0.08]","[[0.3792859485580783, 0.43847228491224527], [0.2427636938218587, -0.2977056261376321], [-0.15129445774926087, 0.5814088023260079], [-0.08824552294613408, 0.28903281348551124], [0.025337714275973755, -0.3891449114830714], [0.4840266089350215, -0.050254552908946815], [-0.42465277672130747, -0.11902054689694791], [-0.10040877125437841, -0.18100308718375335], [-0.4067005229449483, -0.38778974213183137], [-0.49043363230609394, 0.08595074223053178], [-0.03585507061956861, 0.011715399308884655], [-0.43653169526847657, 0.39406960801456414], [0.15613014228626498, 0.11233908310305407], [0.5350393310645319, 0.2642635344208113], [0.44797601922288355, -0.3388845347374291], [-0.3339113598129663, 0.21148581715439552], [0.14074506421516264, -0.11624449428861527], [0.11770886089962806, -0.5678867065093212], [-0.20833052869237328, -0.41107671741476925], [0.1554994394875493, 0.526788059653505]]",density,black,,,N008,visual,1,[],"['1', '2', '3', '4']",1,2023.2.3,harveyvisual,2.1,[],8,0.75,
0,pause,0.4,None,None,None,0,267,267,267,,,,,,,,,,,,,N008,visual,1,[],"['1', '2', '3', '4']",1,2023.2.3,harveyvisual,2.1,[],8,0.75,
