num,mod,duration,shape,ll_cond,colors,.thisRepN,.thisTrialN,.thisN,.thisIndex,thisRow.t,notes,raw_global_time,t_start,t_stop,shapes,size,pos,cond,color,button,RT,participant,session,starting_run,left button (match/odd),right button (non-match/even),samples_per_block,psychopy version,expName,offset,audio,number_runs,radius,
1,dot,0.3,['dot'],['density'],black,0,0,0,0,,,2.400205135345459,2.1087160110473633,2.408663034439087,dot,[0.06],"[-0.22364231775977078, 0.4637426405669522]",density,black,,,N008,visual,1,[],"['1', '2', '3', '4']",1,2023.2.3,harveyvisual,2.1,[],8,0.75,
0,pause,0.4,None,None,None,0,1,1,1,,,,,,,,,,,,,N008,visual,1,[],"['1', '2', '3', '4']",1,2023.2.3,harveyvisual,2.1,[],8,0.75,
1,dot,0.3,['dot'],['density'],black,0,2,2,2,,,3.1001980304718018,2.808465003967285,3.10932993888855,dot,[0.06],"[-0.2532192430475575, -0.5275431624831907]",density,black,,,N008,visual,1,[],"['1', '2', '3', '4']",1,2023.2.3,harveyvisual,2.1,[],8,0.75,
0,pause,0.4,None,None,None,0,3,3,3,,,,,,,,,,,,,N008,visual,1,[],"['1', '2', '3', '4']",1,2023.2.3,harveyvisual,2.1,[],8,0.75,
1,dot,0.3,['dot'],['density'],black,0,4,4,4,,,3.800215005874634,3.5093469619750977,3.809330940246582,dot,[0.06],"[0.5163804524385218, 0.172353611070521]",density,black,,,N008,visual,1,[],"['1', '2', '3', '4']",1,2023.2.3,harveyvisual,2.1,[],8,0.75,
0,pause,0.4,None,None,None,0,5,5,5,,,,,,,,,,,,,N008,visual,1,[],"['1', '2', '3', '4']",1,2023.2.3,harveyvisual,2.1,[],8,0.75,
1,dot,0.3,['dot'],['density'],black,0,6,6,6,,,4.500200033187866,4.209305047988892,4.509062051773071,dot,[0.06],"[0.4420174282329864, -0.3383815273201445]",density,black,,,N008,visual,1,[],"['1', '2', '3', '4']",1,2023.2.3,harveyvisual,2.1,[],8,0.75,
0,pause,0.4,None,None,None,0,7,7,7,,,,,,,,,,,,,N008,visual,1,[],"['1', '2', '3', '4']",1,2023.2.3,harveyvisual,2.1,[],8,0.75,
1,dot,0.3,['dot'],['density'],white,0,8,8,8,,,5.200222015380859,4.908930063247681,5.208956956863403,dot,[0.06],"[-0.4519365434524677, 0.22287683068434597]",density,white,,,N008,visual,1,[],"['1', '2', '3', '4']",1,2023.2.3,harveyvisual,2.1,[],8,0.75,
0,pause,0.4,None,None,None,0,9,9,9,,,,,,,,,,,1,5.308342933654785,N008,visual,1,[],"['1', '2', '3', '4']",1,2023.2.3,harveyvisual,2.1,[],8,0.75,
1,dot,0.3,['dot'],['density'],black,0,10,10,10,,,5.900206089019775,5.611264944076538,5.911386966705322,dot,[0.06],"[-0.4913090862596544, 0.31587628757091063]",density,black,,,N008,visual,1,[],"['1', '2', '3', '4']",1,2023.2.3,harveyvisual,2.1,[],8,0.75,
0,pause,0.4,None,None,None,0,11,11,11,,,,,,,,,,,,,N008,visual,1,[],"['1', '2', '3', '4']",1,2023.2.3,harveyvisual,2.1,[],8,0.75,
2,dot,0.3,['dot'],['density'],black,0,12,12,12,,,6.600204944610596,6.311391115188599,6.611241102218628,dot,"[0.08, 0.06]","[[-0.20887660672828282, 0.3399455197969581], [-0.34272369919491674, 0.19089688818271272]]",density,black,,,N008,visual,1,[],"['1', '2', '3', '4']",1,2023.2.3,harveyvisual,2.1,[],8,0.75,
0,pause,0.4,None,None,None,0,13,13,13,,,,,,,,,,,,,N008,visual,1,[],"['1', '2', '3', '4']",1,2023.2.3,harveyvisual,2.1,[],8,0.75,
2,dot,0.3,['dot'],['density'],black,0,14,14,14,,,7.3002049922943115,7.011258125305176,7.311250925064087,dot,"[0.06, 0.08]","[[0.21195259569903124, -0.4986433684978455], [0.023877440871594643, -0.42921284787985464]]",density,black,,,N008,visual,1,[],"['1', '2', '3', '4']",1,2023.2.3,harveyvisual,2.1,[],8,0.75,
0,pause,0.4,None,None,None,0,15,15,15,,,,,,,,,,,,,N008,visual,1,[],"['1', '2', '3', '4']",1,2023.2.3,harveyvisual,2.1,[],8,0.75,
2,dot,0.3,['dot'],['density'],black,0,16,16,16,,,8.000213146209717,7.711266040802002,8.01123309135437,dot,"[0.06, 0.1]","[[0.3054529246123127, 0.4455278178545299], [0.3548458028228903, 0.2510588499170468]]",density,black,,,N008,visual,1,[],"['1', '2', '3', '4']",1,2023.2.3,harveyvisual,2.1,[],8,0.75,
0,pause,0.4,None,None,None,0,17,17,17,,,,,,,,,,,,,N008,visual,1,[],"['1', '2', '3', '4']",1,2023.2.3,harveyvisual,2.1,[],8,0.75,
2,dot,0.3,['dot'],['density'],white,0,18,18,18,,,8.700210094451904,8.411230087280273,8.71120309829712,dot,"[0.1, 0.08]","[[0.5159928458027473, 0.13749655768121952], [0.38343727829172375, 0.28833164788761484]]",density,white,,,N008,visual,1,[],"['1', '2', '3', '4']",1,2023.2.3,harveyvisual,2.1,[],8,0.75,
0,pause,0.4,None,None,None,0,19,19,19,,,,,,,,,,,1,8.884649991989136,N008,visual,1,[],"['1', '2', '3', '4']",1,2023.2.3,harveyvisual,2.1,[],8,0.75,
2,dot,0.3,['dot'],['density'],black,0,20,20,20,,,9.400208950042725,9.11120891571045,9.411191940307617,dot,"[0.1, 0.1]","[[-0.19482721327365293, -0.5079820576301489], [-0.36119809377872014, -0.396546877814361]]",density,black,,,N008,visual,1,[],"['1', '2', '3', '4']",1,2023.2.3,harveyvisual,2.1,[],8,0.75,
0,pause,0.4,None,None,None,0,21,21,21,,,,,,,,,,,,,N008,visual,1,[],"['1', '2', '3', '4']",1,2023.2.3,harveyvisual,2.1,[],8,0.75,
2,dot,0.3,['dot'],['density'],black,0,22,22,22,,,10.100198984146118,9.811182975769043,10.11118197441101,dot,"[0.1, 0.08]","[[0.038501021189721846, -0.3380528513692932], [0.2360793696083702, -0.306423538752856]]",density,black,,,N008,visual,1,[],"['1', '2', '3', '4']",1,2023.2.3,harveyvisual,2.1,[],8,0.75,
0,pause,0.4,None,None,None,0,23,23,23,,,,,,,,,,,,,N008,visual,1,[],"['1', '2', '3', '4']",1,2023.2.3,harveyvisual,2.1,[],8,0.75,
3,dot,0.3,['dot'],['density'],black,0,24,24,24,,,10.800219058990479,10.511181116104126,10.811161041259766,dot,"[0.1, 0.1, 0.1]","[[0.13574725429899362, -0.5423283227425341], [-0.036793286563257144, -0.3768814925557267], [0.16175487704753985, -0.3348017255345844]]",density,black,,,N008,visual,1,[],"['1', '2', '3', '4']",1,2023.2.3,harveyvisual,2.1,[],8,0.75,
0,pause,0.4,None,None,None,0,25,25,25,,,,,,,,,,,,,N008,visual,1,[],"['1', '2', '3', '4']",1,2023.2.3,harveyvisual,2.1,[],8,0.75,
3,dot,0.3,['dot'],['density'],black,0,26,26,26,,,11.500219106674194,11.211162090301514,11.511168956756592,dot,"[0.1, 0.08, 0.08]","[[-0.05604225559701161, -0.5082314702914299], [0.10137377066920354, -0.3837858820064252], [-0.12802807887251882, -0.3142638921214105]]",density,black,,,N008,visual,1,[],"['1', '2', '3', '4']",1,2023.2.3,harveyvisual,2.1,[],8,0.75,
0,pause,0.4,None,None,None,0,27,27,27,,,,,,,,,,,,,N008,visual,1,[],"['1', '2', '3', '4']",1,2023.2.3,harveyvisual,2.1,[],8,0.75,
3,dot,0.3,['dot'],['density'],black,0,28,28,28,,,12.200210094451904,11.911153078079224,12.211265087127686,dot,"[0.08, 0.08, 0.1]","[[-0.09236249555143743, 0.14437879021360575], [0.06053771141254397, 0.008702735453236923], [-0.17336599953316903, -0.04113967592870183]]",density,black,,,N008,visual,1,[],"['1', '2', '3', '4']",1,2023.2.3,harveyvisual,2.1,[],8,0.75,
0,pause,0.4,None,None,None,0,29,29,29,,,,,,,,,,,,,N008,visual,1,[],"['1', '2', '3', '4']",1,2023.2.3,harveyvisual,2.1,[],8,0.75,
3,dot,0.3,['dot'],['density'],black,0,30,30,30,,,12.900216102600098,12.611124992370605,12.911108016967773,dot,"[0.08, 0.06, 0.06]","[[0.29938275938101017, 0.44415474715472736], [0.13070782598704628, 0.5557174004537693], [0.11832456902218637, 0.3273615767427578]]",density,black,,,N008,visual,1,[],"['1', '2', '3', '4']",1,2023.2.3,harveyvisual,2.1,[],8,0.75,
0,pause,0.4,None,None,None,0,31,31,31,,,,,,,,,,,,,N008,visual,1,[],"['1', '2', '3', '4']",1,2023.2.3,harveyvisual,2.1,[],8,0.75,
3,dot,0.3,['dot'],['density'],black,0,32,32,32,,,13.600209951400757,13.311110019683838,13.61109709739685,dot,"[0.1, 0.06, 0.08]","[[0.06695044750400271, -0.4036822973150869], [0.2898428615912539, -0.43752325319744867], [0.2484486434572057, -0.2241911098289173]]",density,black,,,N008,visual,1,[],"['1', '2', '3', '4']",1,2023.2.3,harveyvisual,2.1,[],8,0.75,
0,pause,0.4,None,None,None,0,33,33,33,,,,,,,,,,,,,N008,visual,1,[],"['1', '2', '3', '4']",1,2023.2.3,harveyvisual,2.1,[],8,0.75,
3,dot,0.3,['dot'],['density'],white,0,34,34,34,,,14.300204992294312,14.011106967926025,14.31109094619751,dot,"[0.1, 0.08, 0.1]","[[0.5267872668145167, -0.16137547842759675], [0.3420119191573968, -0.036920749927643534], [0.3185462880061428, -0.2399114968218526]]",density,white,,,N008,visual,1,[],"['1', '2', '3', '4']",1,2023.2.3,harveyvisual,2.1,[],8,0.75,
0,pause,0.4,None,None,None,0,35,35,35,,,,,,,,,,,1,14.5103759765625,N008,visual,1,[],"['1', '2', '3', '4']",1,2023.2.3,harveyvisual,2.1,[],8,0.75,
4,dot,0.3,['dot'],['density'],black,0,36,36,36,,,15.000208139419556,14.711079120635986,15.011065006256104,dot,"[0.06, 0.08, 0.06, 0.08]","[[0.2593869086993074, -0.26887741013308497], [0.09674879007849839, -0.39609983087723066], [-0.011093693993988496, -0.14004324908426333], [0.28630805459639813, -0.4681830009867555]]",density,black,,,N008,visual,1,[],"['1', '2', '3', '4']",1,2023.2.3,harveyvisual,2.1,[],8,0.75,
0,pause,0.4,None,None,None,0,37,37,37,,,,,,,,,,,,,N008,visual,1,[],"['1', '2', '3', '4']",1,2023.2.3,harveyvisual,2.1,[],8,0.75,
4,dot,0.3,['dot'],['density'],black,0,38,38,38,,,15.700212955474854,15.41102409362793,15.71104907989502,dot,"[0.06, 0.1, 0.08, 0.08]","[[0.3510671072586959, 0.39105757673094776], [0.13754249634966464, 0.24690230999823115], [0.2791454519284172, 0.028997379515453933], [0.42442503262497266, 0.18132357243737673]]",density,black,,,N008,visual,1,[],"['1', '2', '3', '4']",1,2023.2.3,harveyvisual,2.1,[],8,0.75,
0,pause,0.4,None,None,None,0,39,39,39,,,,,,,,,,,,,N008,visual,1,[],"['1', '2', '3', '4']",1,2023.2.3,harveyvisual,2.1,[],8,0.75,
4,dot,0.3,['dot'],['density'],black,0,40,40,40,,,16.40021800994873,16.11101007461548,16.411025047302246,dot,"[0.1, 0.06, 0.08, 0.06]","[[-0.5372831058023291, 0.07679305146548565], [-0.47746952625478134, -0.11455356156484316], [-0.2888199447118168, 0.02804534169422597], [-0.3317661241759115, -0.2533775510137967]]",density,black,,,N008,visual,1,[],"['1', '2', '3', '4']",1,2023.2.3,harveyvisual,2.1,[],8,0.75,
0,pause,0.4,None,None,None,0,41,41,41,,,,,,,,,,,,,N008,visual,1,[],"['1', '2', '3', '4']",1,2023.2.3,harveyvisual,2.1,[],8,0.75,
4,dot,0.3,['dot'],['density'],black,0,42,42,42,,,17.100204944610596,16.81114101409912,17.11113405227661,dot,"[0.08, 0.06, 0.08, 0.08]","[[0.37520814465037905, -0.4432880181017862], [0.4692830223283075, -0.19655799526205012], [0.3063896805601884, -0.036788685454167226], [0.2471196723673293, -0.2344474043623998]]",density,black,,,N008,visual,1,[],"['1', '2', '3', '4']",1,2023.2.3,harveyvisual,2.1,[],8,0.75,
0,pause,0.4,None,None,None,0,43,43,43,,,,,,,,,,,,,N008,visual,1,[],"['1', '2', '3', '4']",1,2023.2.3,harveyvisual,2.1,[],8,0.75,
4,dot,0.3,['dot'],['density'],black,0,44,44,44,,,17.800212144851685,17.511121034622192,17.81098508834839,dot,"[0.08, 0.08, 0.1, 0.1]","[[0.37520814465037905, -0.4432880181017862], [0.4692830223283075, -0.19655799526205012], [0.3063896805601884, -0.036788685454167226], [0.2471196723673293, -0.2344474043623998]]",density,black,,,N008,visual,1,[],"['1', '2', '3', '4']",1,2023.2.3,harveyvisual,2.1,[],8,0.75,
0,pause,0.4,None,None,None,0,45,45,45,,,,,,,,,,,,,N008,visual,1,[],"['1', '2', '3', '4']",1,2023.2.3,harveyvisual,2.1,[],8,0.75,
4,dot,0.3,['dot'],['density'],black,0,46,46,46,,,18.50020694732666,18.210986137390137,18.511101007461548,dot,"[0.06, 0.08, 0.1, 0.06]","[[-0.24231220575667195, -0.22966258239168486], [-0.5136420973432148, -0.13696856920477488], [-0.4300726721285167, 0.13088957628356482], [-0.3148289313469241, -0.03851715211982174]]",density,black,,,N008,visual,1,[],"['1', '2', '3', '4']",1,2023.2.3,harveyvisual,2.1,[],8,0.75,
0,pause,0.4,None,None,None,0,47,47,47,,,,,,,,,,,,,N008,visual,1,[],"['1', '2', '3', '4']",1,2023.2.3,harveyvisual,2.1,[],8,0.75,
5,dot,0.3,['dot'],['density'],white,0,48,48,48,,,19.200212001800537,18.910956144332886,19.211127996444702,dot,"[0.06, 0.1, 0.08, 0.1, 0.06]","[[-0.416197921377668, -0.28619329865683824], [-0.20866628843358032, -0.3460647126262422], [-0.5570429559765239, -0.05989317214741584], [-0.28028983240144106, -0.12146425093182346], [-0.3531870384577651, 0.07845006904085886]]",density,white,,,N008,visual,1,[],"['1', '2', '3', '4']",1,2023.2.3,harveyvisual,2.1,[],8,0.75,
0,pause,0.4,None,None,None,0,49,49,49,,,,,,,,,,,1,19.407100915908813,N008,visual,1,[],"['1', '2', '3', '4']",1,2023.2.3,harveyvisual,2.1,[],8,0.75,
5,dot,0.3,['dot'],['density'],black,0,50,50,50,,,19.900197982788086,19.611128091812134,19.91111707687378,dot,"[0.08, 0.1, 0.06, 0.1, 0.06]","[[-0.0036269740154891753, 0.5431219823242713], [-0.2646325594942043, 0.5073179604697073], [-0.41902475937036154, 0.37311436690984484], [-0.007163214206743488, 0.2887893175302695], [-0.2156098228659233, 0.2684642371109035]]",density,black,,,N008,visual,1,[],"['1', '2', '3', '4']",1,2023.2.3,harveyvisual,2.1,[],8,0.75,
0,pause,0.4,None,None,None,0,51,51,51,,,,,,,,,,,,,N008,visual,1,[],"['1', '2', '3', '4']",1,2023.2.3,harveyvisual,2.1,[],8,0.75,
5,dot,0.3,['dot'],['density'],black,0,52,52,52,,,20.600207090377808,20.311119079589844,20.611114978790283,dot,"[0.08, 0.1, 0.1, 0.06, 0.1]","[[0.2447541601906441, 0.3086669061463178], [0.2085849672204031, -0.04267428248465989], [0.44393754570968663, -0.061602228714441105], [0.027125763574429876, 0.05764502161176834], [0.36879828001487897, 0.1310025380577708]]",density,black,,,N008,visual,1,[],"['1', '2', '3', '4']",1,2023.2.3,harveyvisual,2.1,[],8,0.75,
0,pause,0.4,None,None,None,0,53,53,53,,,,,,,,,,,,,N008,visual,1,[],"['1', '2', '3', '4']",1,2023.2.3,harveyvisual,2.1,[],8,0.75,
5,dot,0.3,['dot'],['density'],black,0,54,54,54,,,21.30020499229431,21.010905981063843,21.311126947402954,dot,"[0.1, 0.08, 0.08, 0.06, 0.1]","[[-0.20882687658313398, 0.05979685123170853], [0.07709165915785691, 0.33819008637117026], [0.02323578322535992, 0.12175330968231063], [0.02522363087913582, -0.08718927316059993], [-0.12152044988768049, 0.28453648995279207]]",density,black,,,N008,visual,1,[],"['1', '2', '3', '4']",1,2023.2.3,harveyvisual,2.1,[],8,0.75,
0,pause,0.4,None,None,None,0,55,55,55,,,,,,,,,,,,,N008,visual,1,[],"['1', '2', '3', '4']",1,2023.2.3,harveyvisual,2.1,[],8,0.75,
5,dot,0.3,['dot'],['density'],black,0,56,56,56,,,22.000221967697144,21.711138010025024,22.010874032974243,dot,"[0.1, 0.06, 0.08, 0.08, 0.1]","[[-0.24811222937808852, -0.0926462173418487], [-0.0684102839715827, 0.053707960252323945], [-0.4199359189551936, 0.028595247832400618], [-0.4311232183625476, -0.17348815390478414], [-0.08153496032007611, -0.23043043025001772]]",density,black,,,N008,visual,1,[],"['1', '2', '3', '4']",1,2023.2.3,harveyvisual,2.1,[],8,0.75,
0,pause,0.4,None,None,None,0,57,57,57,,,,,,,,,,,,,N008,visual,1,[],"['1', '2', '3', '4']",1,2023.2.3,harveyvisual,2.1,[],8,0.75,
5,dot,0.3,['dot'],['density'],black,0,58,58,58,,,22.7002010345459,22.411036014556885,22.710875988006592,dot,"[0.1, 0.08, 0.08, 0.08, 0.08]","[[0.14370466841446422, -0.4636309982806098], [0.2961807471193908, -0.30487684838795487], [-0.08083516471444438, -0.49823911181902014], [0.057429843216129074, -0.22123310288296744], [-0.1653320673045236, -0.3160671692815837]]",density,black,,,N008,visual,1,[],"['1', '2', '3', '4']",1,2023.2.3,harveyvisual,2.1,[],8,0.75,
0,pause,0.4,None,None,None,0,59,59,59,,,,,,,,,,,,,N008,visual,1,[],"['1', '2', '3', '4']",1,2023.2.3,harveyvisual,2.1,[],8,0.75,
6,dot,0.3,['dot'],['density'],black,0,60,60,60,,,23.400207042694092,23.111016988754272,23.410881996154785,dot,"[0.08, 0.1, 0.08, 0.08, 0.06, 0.1]","[[-0.060066269329224556, -0.3459973645598818], [-0.2267112282887438, -0.46433083725857055], [-0.03368736353914721, -0.0592740518520544], [0.1129416353875032, -0.20466059509733167], [0.13908697530976044, -0.42386339769443276], [-0.2931789080149146, -0.2669036372638095]]",density,black,,,N008,visual,1,[],"['1', '2', '3', '4']",1,2023.2.3,harveyvisual,2.1,[],8,0.75,
0,pause,0.4,None,None,None,0,61,61,61,,,,,,,,,,,,,N008,visual,1,[],"['1', '2', '3', '4']",1,2023.2.3,harveyvisual,2.1,[],8,0.75,
6,dot,0.3,['dot'],['density'],black,0,62,62,62,,,24.10020613670349,23.81085205078125,24.11081099510193,dot,"[0.06, 0.06, 0.06, 0.08, 0.08, 0.1]","[[-0.25052904509636076, -0.46440103658729176], [-0.12772535636451293, 0.010821502090106766], [-0.031043743050516784, -0.3649555915866845], [-0.3754529733759062, -0.18839395716731677], [0.07378414788444272, -0.15062955699655364], [-0.17220243018048728, -0.20498996683935267]]",density,black,,,N008,visual,1,[],"['1', '2', '3', '4']",1,2023.2.3,harveyvisual,2.1,[],8,0.75,
0,pause,0.4,None,None,None,0,63,63,63,,,,,,,,,,,,,N008,visual,1,[],"['1', '2', '3', '4']",1,2023.2.3,harveyvisual,2.1,[],8,0.75,
6,dot,0.3,['dot'],['density'],black,0,64,64,64,,,24.800218105316162,24.51085114479065,24.81080198287964,dot,"[0.06, 0.08, 0.06, 0.06, 0.06, 0.1]","[[-0.12151555870586603, -0.4812968000001843], [0.16790488833295267, -0.2471088416996458], [0.27214716196035416, -0.49820278546509117], [-0.038147587524033764, -0.29309333197091036], [0.014949188681413147, -0.08915939926713055], [0.06798063624072649, -0.5852336971646088]]",density,black,,,N008,visual,1,[],"['1', '2', '3', '4']",1,2023.2.3,harveyvisual,2.1,[],8,0.75,
0,pause,0.4,None,None,None,0,65,65,65,,,,,,,,,,,,,N008,visual,1,[],"['1', '2', '3', '4']",1,2023.2.3,harveyvisual,2.1,[],8,0.75,
6,dot,0.3,['dot'],['density'],black,0,66,66,66,,,25.5002179145813,25.210806131362915,25.51078510284424,dot,"[0.1, 0.08, 0.06, 0.1, 0.1, 0.1]","[[-0.560843418842529, -0.11752527585456686], [-0.31277608783648175, 0.04003545118838376], [-0.18207900664359264, -0.3652956678781814], [-0.41442909117718774, -0.4038021739217259], [-0.14446849917993246, -0.07035639226176245], [-0.3420415871796019, -0.1631057353810994]]",density,black,,,N008,visual,1,[],"['1', '2', '3', '4']",1,2023.2.3,harveyvisual,2.1,[],8,0.75,
0,pause,0.4,None,None,None,0,67,67,67,,,,,,,,,,,,,N008,visual,1,[],"['1', '2', '3', '4']",1,2023.2.3,harveyvisual,2.1,[],8,0.75,
6,dot,0.3,['dot'],['density'],black,0,68,68,68,,,26.200220108032227,25.910768032073975,26.21076202392578,dot,"[0.08, 0.08, 0.06, 0.1, 0.08, 0.08]","[[0.500827999951601, -0.23304028533624072], [0.20916386845998064, 0.08030245107060778], [0.27809793757338463, -0.1905950399710685], [0.08327260932553728, -0.13599284299194644], [0.16768982653485215, -0.38480252821003114], [0.4174962964646186, 0.01069632702004041]]",density,black,,,N008,visual,1,[],"['1', '2', '3', '4']",1,2023.2.3,harveyvisual,2.1,[],8,0.75,
0,pause,0.4,None,None,None,0,69,69,69,,,,,,,,,,,,,N008,visual,1,[],"['1', '2', '3', '4']",1,2023.2.3,harveyvisual,2.1,[],8,0.75,
6,dot,0.3,['dot'],['density'],black,0,70,70,70,,,26.900222063064575,26.610748052597046,26.91074013710022,dot,"[0.1, 0.08, 0.06, 0.1, 0.06, 0.06]","[[0.285926512064941, -0.24481785515673876], [0.418595730147314, -0.41068201076939437], [0.08023911914447063, -0.2907744195836184], [0.5255309086764915, -0.21900298349449057], [0.21619509519697316, -0.004828458463526469], [0.21043770887025895, -0.4594541383061854]]",density,black,,,N008,visual,1,[],"['1', '2', '3', '4']",1,2023.2.3,harveyvisual,2.1,[],8,0.75,
0,pause,0.4,None,None,None,0,71,71,71,,,,,,,,,,,,,N008,visual,1,[],"['1', '2', '3', '4']",1,2023.2.3,harveyvisual,2.1,[],8,0.75,
7,dot,0.3,['dot'],['density'],black,0,72,72,72,,,27.600225925445557,27.310725927352905,27.610729932785034,dot,"[0.08, 0.1, 0.1, 0.06, 0.08, 0.1, 0.1]","[[-0.27882252076513336, 0.33055409005240166], [-0.4957633793454142, -0.06140876275196145], [-0.0066404743852866415, -0.09326226909207957], [-0.0437417051997281, 0.24568157295930956], [-0.4653499650939929, 0.1386387143322748], [-0.23664853702636232, 0.07695828400639043], [-0.2650254833014284, -0.12289079349875774]]",density,black,,,N008,visual,1,[],"['1', '2', '3', '4']",1,2023.2.3,harveyvisual,2.1,[],8,0.75,
0,pause,0.4,None,None,None,0,73,73,73,,,,,,,,,,,,,N008,visual,1,[],"['1', '2', '3', '4']",1,2023.2.3,harveyvisual,2.1,[],8,0.75,
7,dot,0.3,['dot'],['density'],black,0,74,74,74,,,28.300221920013428,28.0107159614563,28.310708045959473,dot,"[0.08, 0.06, 0.1, 0.06, 0.08, 0.1, 0.06]","[[0.2037857981676222, -0.1815971672986122], [0.4890839798603071, 0.25295445478885614], [0.1294833597440532, 0.050421522491765555], [0.5249724357971474, 0.014331621614536631], [0.4084294087299191, -0.1546943519977724], [0.31356179590401956, 0.13415696527685209], [-0.016262925640377804, -0.1588315022511765]]",density,black,,,N008,visual,1,[],"['1', '2', '3', '4']",1,2023.2.3,harveyvisual,2.1,[],8,0.75,
0,pause,0.4,None,None,None,0,75,75,75,,,,,,,,,,,,,N008,visual,1,[],"['1', '2', '3', '4']",1,2023.2.3,harveyvisual,2.1,[],8,0.75,
7,dot,0.3,['dot'],['density'],black,0,76,76,76,,,29.00022292137146,28.710703134536743,29.010700941085815,dot,"[0.08, 0.06, 0.1, 0.08, 0.06, 0.06, 0.08]","[[-0.2822174821233986, 0.002117056236134186], [-0.10673242512413421, 0.4781556216085482], [-0.18432519539246728, 0.19072201575640843], [-0.4524596318479574, 0.13966285650530724], [0.06907010423411483, 0.2912708813513049], [-0.07412436007020941, -0.021022205933558278], [-0.3208835015251209, 0.3986768431743725]]",density,black,,,N008,visual,1,[],"['1', '2', '3', '4']",1,2023.2.3,harveyvisual,2.1,[],8,0.75,
0,pause,0.4,None,None,None,0,77,77,77,,,,,,,,,,,,,N008,visual,1,[],"['1', '2', '3', '4']",1,2023.2.3,harveyvisual,2.1,[],8,0.75,
7,dot,0.3,['dot'],['density'],white,0,78,78,78,,,29.700222969055176,29.41069197654724,29.71068501472473,dot,"[0.06, 0.1, 0.08, 0.06, 0.1, 0.06, 0.1]","[[0.27964692832129656, -0.15500474148311624], [0.48019533028943556, 0.09933774746227163], [0.08203545767143021, 0.28019381302663365], [0.05572057582720619, -0.1426303369841539], [0.31711281236335803, 0.2944831276535668], [-0.041479771322150735, 0.11885700406191958], [0.21045310206912196, 0.07075003364957701]]",density,white,,,N008,visual,1,[],"['1', '2', '3', '4']",1,2023.2.3,harveyvisual,2.1,[],8,0.75,
0,pause,0.4,None,None,None,0,79,79,79,,,,,,,,,,,1,29.94748091697693,N008,visual,1,[],"['1', '2', '3', '4']",1,2023.2.3,harveyvisual,2.1,[],8,0.75,
7,dot,0.3,['dot'],['density'],black,0,80,80,80,,,30.40023398399353,30.11068105697632,30.41068410873413,dot,"[0.08, 0.1, 0.08, 0.1, 0.1, 0.08, 0.06]","[[0.020512593940644967, 0.06058225053891463], [-0.12457192929091994, 0.22210134043855223], [0.2267676360835929, 0.07227077176864677], [-0.19381219694833235, -0.14277017550647156], [0.096077147208419, -0.13886261858003718], [0.087393672000005, 0.26445259248386815], [-0.018663113410245565, 0.4344684582511623]]",density,black,,,N008,visual,1,[],"['1', '2', '3', '4']",1,2023.2.3,harveyvisual,2.1,[],8,0.75,
0,pause,0.4,None,None,None,0,81,81,81,,,,,,,,,,,,,N008,visual,1,[],"['1', '2', '3', '4']",1,2023.2.3,harveyvisual,2.1,[],8,0.75,
7,dot,0.3,['dot'],['density'],black,0,82,82,82,,,31.100218057632446,30.810703992843628,31.110706090927124,dot,"[0.1, 0.08, 0.1, 0.08, 0.1, 0.08, 0.1]","[[-0.3025445156539714, -0.42280529123536587], [0.12162933753582021, -0.2851722644810181], [-0.2753205641105948, -0.038672864930592576], [-0.4202189534315163, -0.18742991959605093], [-0.15636117447925973, -0.27217203193286355], [-0.09967880665522989, -0.47242523529006747], [-0.06261398545311019, -0.08879309989794046]]",density,black,,,N008,visual,1,[],"['1', '2', '3', '4']",1,2023.2.3,harveyvisual,2.1,[],8,0.75,
0,pause,0.4,None,None,None,0,83,83,83,,,,,,,,,,,,,N008,visual,1,[],"['1', '2', '3', '4']",1,2023.2.3,harveyvisual,2.1,[],8,0.75,
8,dot,0.3,['dot'],['density'],black,0,84,84,84,,,31.800199031829834,31.510674953460693,31.810653924942017,dot,"[0.1, 0.06, 0.08, 0.06, 0.08, 0.1, 0.06, 0.06]","[[-0.4462313073918426, 0.10595449025715867], [0.022923871415176152, 0.06290918987699953], [-0.12461589820496316, 0.4830175517012745], [-0.29730306390741434, 0.2752084497958106], [-0.2195410516364439, 0.056871795648565045], [0.008916049516666445, 0.2907399105306955], [-0.08256048209355603, -0.11638226771844133], [-0.4106304257826301, -0.09222594144079917]]",density,black,,,N008,visual,1,[],"['1', '2', '3', '4']",1,2023.2.3,harveyvisual,2.1,[],8,0.75,
0,pause,0.4,None,None,None,0,85,85,85,,,,,,,,,,,,,N008,visual,1,[],"['1', '2', '3', '4']",1,2023.2.3,harveyvisual,2.1,[],8,0.75,
8,dot,0.3,['dot'],['density'],black,0,86,86,86,,,32.50020408630371,32.210679054260254,32.51065802574158,dot,"[0.1, 0.1, 0.06, 0.08, 0.06, 0.08, 0.1, 0.06]","[[0.3129921899656287, 0.2226642157048143], [0.41298599633021416, -0.001766323215076977], [0.013785601627645026, 0.39275307090924344], [-0.009407606244017683, 0.02333367620517349], [0.20163499737495916, -0.08731087547331118], [0.31235423233837933, 0.42762820752661124], [0.10705959187470679, 0.21318577255187057], [-0.13233007013452783, 0.20605257250075132]]",density,black,,,N008,visual,1,[],"['1', '2', '3', '4']",1,2023.2.3,harveyvisual,2.1,[],8,0.75,
0,pause,0.4,None,None,None,0,87,87,87,,,,,,,,,,,,,N008,visual,1,[],"['1', '2', '3', '4']",1,2023.2.3,harveyvisual,2.1,[],8,0.75,
8,dot,0.3,['dot'],['density'],black,0,88,88,88,,,33.20022010803223,32.910664081573486,33.210633993148804,dot,"[0.1, 0.06, 0.08, 0.06, 0.1, 0.06, 0.1, 0.1]","[[0.17295790489511154, -0.46037743866749825], [0.1416591427765588, 0.05421051799673566], [0.21994266958916148, -0.13656690113679631], [0.3639906379971415, 0.0627265571221228], [0.015481321741344221, -0.13916897583717935], [0.440802488837635, -0.2883976186876931], [0.5157567705321767, -0.08800602901884749], [0.24768837887357187, 0.24424825162618136]]",density,black,,,N008,visual,1,[],"['1', '2', '3', '4']",1,2023.2.3,harveyvisual,2.1,[],8,0.75,
0,pause,0.4,None,None,None,0,89,89,89,,,,,,,,,,,,,N008,visual,1,[],"['1', '2', '3', '4']",1,2023.2.3,harveyvisual,2.1,[],8,0.75,
8,dot,0.3,['dot'],['density'],black,0,90,90,90,,,33.9002161026001,33.6106219291687,33.910609006881714,dot,"[0.06, 0.1, 0.06, 0.06, 0.08, 0.06, 0.08, 0.1]","[[0.43039348711459674, -0.2176132953198537], [0.11499515674856413, 0.2899266495440316], [0.12808102003139596, -0.009244067984354065], [-0.030386771168905473, -0.2551920291624523], [0.3118809155168881, 0.2081403981228026], [-0.06282563634610334, 0.11114412413027695], [0.22944900542930163, -0.23921835558115082], [0.33219925311336224, 0.0035410395788749187]]",density,black,,,N008,visual,1,[],"['1', '2', '3', '4']",1,2023.2.3,harveyvisual,2.1,[],8,0.75,
0,pause,0.4,None,None,None,0,91,91,91,,,,,,,,,,,,,N008,visual,1,[],"['1', '2', '3', '4']",1,2023.2.3,harveyvisual,2.1,[],8,0.75,
8,dot,0.3,['dot'],['density'],black,0,92,92,92,,,34.60020208358765,34.310606956481934,34.6105899810791,dot,"[0.06, 0.1, 0.08, 0.08, 0.08, 0.1, 0.08, 0.06]","[[0.4107983822504989, -0.04783789354839145], [-0.06954892783911702, 0.20421019801840873], [0.19287329246680035, -0.23674413065931216], [-0.04658255687897442, -0.27568538913083557], [0.19478566210173015, -0.00965484605936359], [-0.04069516991009335, -0.04900998707948758], [0.17921022995035232, 0.2044367826380957], [-0.22871454517575843, 0.05025111546696341]]",density,black,,,N008,visual,1,[],"['1', '2', '3', '4']",1,2023.2.3,harveyvisual,2.1,[],8,0.75,
0,pause,0.4,None,None,None,0,93,93,93,,,,,,,,,,,,,N008,visual,1,[],"['1', '2', '3', '4']",1,2023.2.3,harveyvisual,2.1,[],8,0.75,
8,dot,0.3,['dot'],['density'],black,0,94,94,94,,,35.30022192001343,35.01055908203125,35.31057810783386,dot,"[0.06, 0.06, 0.08, 0.1, 0.1, 0.1, 0.06, 0.08]","[[0.1740819983727909, -0.16863019829442621], [0.14644114519141543, -0.4524198896657212], [0.0024885361438939093, 0.023531574910491997], [-0.23717340943857948, -0.31112918658627675], [-0.11311749148073028, -0.46867866316561874], [-0.17928248077090506, -0.060241557052319365], [-0.03957999532622772, -0.24759906754331504], [-0.4644327601918011, -0.3627803331480915]]",density,black,,,N008,visual,1,[],"['1', '2', '3', '4']",1,2023.2.3,harveyvisual,2.1,[],8,0.75,
0,pause,0.4,None,None,None,0,95,95,95,,,,,,,,,,,,,N008,visual,1,[],"['1', '2', '3', '4']",1,2023.2.3,harveyvisual,2.1,[],8,0.75,
9,dot,0.3,['dot'],['density'],black,0,96,96,96,,,36.00021004676819,35.71056294441223,36.010546922683716,dot,"[0.08, 0.1, 0.06, 0.1, 0.06, 0.08, 0.06, 0.08, 0.1]","[[-0.03413633707233166, 0.539775862693792], [0.03045342777742709, 0.14881397110038386], [0.3968101769942594, 0.3516381959676015], [-0.12464897846505978, 0.27513009849494485], [0.24828272947848068, 0.13372878599656182], [0.1825630446668698, 0.5466865974155928], [-0.40057775338259505, 0.3148646888607764], [0.06988801613907401, -0.06658504348068199], [0.07277149512897427, 0.3699912437376705]]",density,black,,,N008,visual,1,[],"['1', '2', '3', '4']",1,2023.2.3,harveyvisual,2.1,[],8,0.75,
0,pause,0.4,None,None,None,0,97,97,97,,,,,,,,,,,,,N008,visual,1,[],"['1', '2', '3', '4']",1,2023.2.3,harveyvisual,2.1,[],8,0.75,
9,dot,0.3,['dot'],['density'],black,0,98,98,98,,,36.700222969055176,36.41056799888611,36.71053194999695,dot,"[0.08, 0.08, 0.1, 0.06, 0.1, 0.06, 0.06, 0.1, 0.1]","[[0.4433726728065019, 0.22320554513198193], [0.1026133663954636, -0.050786049565613584], [0.20022034484770485, 0.4412403735117007], [0.45250313802570796, 0.010227273383000257], [0.037500571895399265, 0.24935285809920393], [0.23874579090912346, 0.11348512554989887], [0.25013734113836505, -0.23502010549412247], [0.4599692436892986, -0.2536974682823114], [0.04694731086691962, -0.2548367103293993]]",density,black,,,N008,visual,1,[],"['1', '2', '3', '4']",1,2023.2.3,harveyvisual,2.1,[],8,0.75,
0,pause,0.4,None,None,None,0,99,99,99,,,,,,,,,,,,,N008,visual,1,[],"['1', '2', '3', '4']",1,2023.2.3,harveyvisual,2.1,[],8,0.75,
9,dot,0.3,['dot'],['density'],black,0,100,100,100,,,37.40021109580994,37.11054706573486,37.410545110702515,dot,"[0.08, 0.1, 0.08, 0.1, 0.08, 0.08, 0.08, 0.1, 0.08]","[[0.27429149071172837, 0.34251676390746333], [0.46797507249945486, 0.005491811463162166], [0.21235580877939833, 0.08757146436558581], [0.046223583492975936, 0.2932249054251131], [0.07051592556679111, -0.0704922843318231], [0.30438918969270623, -0.13028831600800136], [0.11534598117609637, 0.5236829685630697], [-0.06673610159464062, 0.12515255452502297], [-0.14439101605953233, -0.1332028051536465]]",density,black,,,N008,visual,1,[],"['1', '2', '3', '4']",1,2023.2.3,harveyvisual,2.1,[],8,0.75,
0,pause,0.4,None,None,None,0,101,101,101,,,,,,,,,,,,,N008,visual,1,[],"['1', '2', '3', '4']",1,2023.2.3,harveyvisual,2.1,[],8,0.75,
9,dot,0.3,['dot'],['density'],black,0,102,102,102,,,38.10020303726196,37.81054401397705,38.11054491996765,dot,"[0.08, 0.1, 0.06, 0.08, 0.06, 0.08, 0.06, 0.08, 0.08]","[[0.31750259908069645, 0.09103062301409195], [-0.10814993995151222, -0.14883262012051235], [0.2615101699546999, -0.13245952524223892], [0.014531427323725789, 0.3887544696515085], [-0.1117096847062306, 0.09593752649312724], [0.07810272484559946, -0.019955638642360052], [-0.26173373106631487, 0.2840804484106463], [0.4370020372247476, 0.2669512546191977], [0.11115841416421544, 0.18722161068425575]]",density,black,,,N008,visual,1,[],"['1', '2', '3', '4']",1,2023.2.3,harveyvisual,2.1,[],8,0.75,
0,pause,0.4,None,None,None,0,103,103,103,,,,,,,,,,,,,N008,visual,1,[],"['1', '2', '3', '4']",1,2023.2.3,harveyvisual,2.1,[],8,0.75,
9,dot,0.3,['dot'],['density'],black,0,104,104,104,,,38.80020308494568,38.51052808761597,38.81050896644592,dot,"[0.06, 0.08, 0.06, 0.06, 0.08, 0.1, 0.06, 0.1, 0.1]","[[0.34043128493099817, 0.2271075800100716], [0.2702764120171402, -0.10456749967376819], [-0.1274635928921129, -0.04210317806044915], [-0.03460273614387521, 0.1795356259369138], [0.14470969472881007, 0.3391925298523705], [0.06761060508642219, 0.0060094309834155335], [0.5117869412029185, -0.12050585585317111], [0.07404675892906432, -0.22660478390602867], [0.35723900661310204, -0.3185591288757]]",density,black,,,N008,visual,1,[],"['1', '2', '3', '4']",1,2023.2.3,harveyvisual,2.1,[],8,0.75,
0,pause,0.4,None,None,None,0,105,105,105,,,,,,,,,,,,,N008,visual,1,[],"['1', '2', '3', '4']",1,2023.2.3,harveyvisual,2.1,[],8,0.75,
9,dot,0.3,['dot'],['density'],black,0,106,106,106,,,39.500216007232666,39.21052598953247,39.510488986968994,dot,"[0.08, 0.1, 0.1, 0.08, 0.06, 0.08, 0.08, 0.06, 0.06]","[[0.050129075631511706, -0.29659829200500587], [0.1522424042566208, -0.02012498145544232], [-0.31773020450764894, 0.09756431981266957], [-0.25388767024787284, -0.20865833148222632], [-0.06549152868915667, -0.10253084504872755], [-0.047012852932693645, 0.11741599898337682], [0.26526013051082903, -0.18996189821299347], [0.2442588296558726, 0.17404051307925203], [0.053323608967773835, 0.34462047536600726]]",density,black,,,N008,visual,1,[],"['1', '2', '3', '4']",1,2023.2.3,harveyvisual,2.1,[],8,0.75,
0,pause,0.4,None,None,None,0,107,107,107,,,,,,,,,,,,,N008,visual,1,[],"['1', '2', '3', '4']",1,2023.2.3,harveyvisual,2.1,[],8,0.75,
20,dot,0.3,['dot'],['density'],black,0,108,108,108,,,40.20021891593933,39.91039800643921,40.21046805381775,dot,"[0.08, 0.1, 0.1, 0.1, 0.08, 0.08, 0.08, 0.1, 0.1, 0.06, 0.06, 0.1, 0.08, 0.1, 0.06, 0.1, 0.1, 0.06, 0.08, 0.06]","[[-0.39434377771349877, -0.2739391505106805], [0.42184394405659165, -0.31987633406305305], [-0.011191872784421575, 0.1244662255165847], [-0.12815785161759546, -0.3623364525735717], [0.022524622007422, -0.09670174014885391], [-0.42608463520031226, 0.10312939907425944], [-0.16527383265228512, 0.38638378393564843], [0.274969649173991, 0.05958125870224107], [-0.5589509964299676, -0.17313023664564742], [-0.2478772705282044, -0.05004283477794902], [0.5202542031761724, 0.22249108128560746], [0.48221170116915035, -0.06959797190438505], [0.0809720869002446, -0.3855179716266405], [0.26723395946800677, 0.48241612309097126], [0.06962133091086276, 0.5334119972499631], [0.17979002557628343, 0.23935427969054957], [0.25623276021124963, -0.22359857943524641], [-0.377711681676318, 0.37273589127069734], [0.07837525410603241, -0.5792780420143022], [-0.3075545238725261, -0.5012775659587908]]",density,black,,,N008,visual,1,[],"['1', '2', '3', '4']",1,2023.2.3,harveyvisual,2.1,[],8,0.75,
0,pause,0.4,None,None,None,0,109,109,109,,,,,,,,,,,,,N008,visual,1,[],"['1', '2', '3', '4']",1,2023.2.3,harveyvisual,2.1,[],8,0.75,
20,dot,0.3,['dot'],['density'],black,0,110,110,110,,,40.90020394325256,40.6104691028595,40.910473108291626,dot,"[0.1, 0.06, 0.08, 0.06, 0.08, 0.06, 0.06, 0.1, 0.1, 0.08, 0.06, 0.08, 0.08, 0.06, 0.08, 0.1, 0.1, 0.06, 0.1, 0.08]","[[-0.45529553272342926, 0.19048087468968306], [0.5689989615399912, 0.09376732417495595], [-0.18898604650149337, 0.2294398864963917], [0.32908226911497473, 0.0018327238787834155], [0.3542771540478844, 0.33359480951570797], [0.34467238023548596, -0.3954673120906801], [-0.5899311016620488, -0.06184990791807336], [-0.03950306742627019, -0.37376877934888686], [-0.33779554874724965, -0.17625874661587743], [0.4254464583522789, -0.18013383538454092], [-0.04610726716292424, 0.046345430908041774], [-0.49416460557199854, -0.2935980220252284], [-0.1812509843110851, 0.5565701780324677], [-0.009389522243442805, 0.38965692601602553], [0.06657339859547806, -0.596774381679698], [-0.18527576499400106, -0.5021161390618974], [0.08141522581248462, 0.19121777280423558], [0.2173033847671647, -0.24335170614859952], [0.12708640238740332, 0.571788151184289], [-0.2734226492431914, 0.007697900769318866]]",density,black,,,N008,visual,1,[],"['1', '2', '3', '4']",1,2023.2.3,harveyvisual,2.1,[],8,0.75,
0,pause,0.4,None,None,None,0,111,111,111,,,,,,,,,,,,,N008,visual,1,[],"['1', '2', '3', '4']",1,2023.2.3,harveyvisual,2.1,[],8,0.75,
20,dot,0.3,['dot'],['density'],black,0,112,112,112,,,41.60020709037781,41.31059908866882,41.610568046569824,dot,"[0.1, 0.1, 0.1, 0.1, 0.06, 0.06, 0.06, 0.06, 0.08, 0.1, 0.06, 0.08, 0.06, 0.1, 0.08, 0.08, 0.1, 0.08, 0.08, 0.06]","[[-0.004901662368758886, -0.5156357558393353], [0.31371446552579574, 0.04452913099154909], [-0.22895024425666016, -0.249385038587222], [-0.4714246403463148, -0.36260763378678157], [0.537510670043046, -0.2102051262961276], [0.5863971000734062, -0.021097727800147986], [-0.3105651102593057, 0.5102750390527817], [0.4232628256231151, 0.20389392765123293], [-0.36826689635980486, 0.09054693116665669], [-0.5951917140306424, -0.10444959368677317], [-0.13648601449097442, 0.3100669205104716], [-0.035062177146365836, -0.32138734434801974], [-0.28966698590631546, -0.43412275107003956], [0.1961479915121146, -0.5514497807022134], [0.06974243016555792, 0.281312199057107], [-0.527461253477888, 0.2275886031498235], [0.27213899115629825, -0.3458115057412532], [0.23651038569582883, 0.5335207437136571], [-0.08534187371206736, -0.007764365306170862], [0.011660431982406516, 0.5624325400329719]]",density,black,,,N008,visual,1,[],"['1', '2', '3', '4']",1,2023.2.3,harveyvisual,2.1,[],8,0.75,
0,pause,0.4,None,None,None,0,113,113,113,,,,,,,,,,,,,N008,visual,1,[],"['1', '2', '3', '4']",1,2023.2.3,harveyvisual,2.1,[],8,0.75,
20,dot,0.3,['dot'],['density'],black,0,114,114,114,,,42.3002290725708,42.01033592224121,42.31056594848633,dot,"[0.1, 0.06, 0.06, 0.08, 0.08, 0.06, 0.06, 0.1, 0.1, 0.1, 0.06, 0.06, 0.06, 0.06, 0.06, 0.06, 0.1, 0.08, 0.08, 0.06]","[[-0.09366116809064362, 0.36140422750549095], [-0.2937450609718617, -0.5012838049227548], [0.3344597075778031, 0.21264244788809983], [0.3303536420892508, -0.1457016916122309], [0.049314494828745725, -0.22934937444552433], [-0.5084640537701642, -0.20662406821018733], [-0.21092730658596803, 0.055914677571591076], [-0.09806607326236993, -0.4112499911655366], [-0.4020712312372038, 0.16406527230251056], [0.5992742128779226, 0.0689555806246162], [0.13154959009077727, -0.48001698456187736], [0.3262263974786681, -0.36996251209443554], [-0.3856860607100504, 0.4160908980427541], [0.10220137984288702, 0.03344172384814681], [0.20990508482358772, 0.48987713471555105], [0.5810783580655844, -0.16520723673936105], [-0.16912181806046134, -0.17593724558189844], [-0.5800596526858133, 0.09693309893978838], [-0.000700581133986633, 0.6015749507401509], [-0.22068286742676513, 0.5541405692022285]]",density,black,,,N008,visual,1,[],"['1', '2', '3', '4']",1,2023.2.3,harveyvisual,2.1,[],8,0.75,
0,pause,0.4,None,None,None,0,115,115,115,,,,,,,,,,,,,N008,visual,1,[],"['1', '2', '3', '4']",1,2023.2.3,harveyvisual,2.1,[],8,0.75,
20,dot,0.3,['dot'],['density'],white,0,116,116,116,,,43.000208139419556,42.71054291725159,43.010364055633545,dot,"[0.08, 0.08, 0.06, 0.08, 0.08, 0.06, 0.1, 0.06, 0.08, 0.08, 0.06, 0.1, 0.1, 0.06, 0.1, 0.1, 0.08, 0.06, 0.1, 0.1]","[[0.22492435827318946, 0.4220482654428741], [0.08041649750668889, 0.5516865220688268], [-0.5561885326023234, 0.07007336054258262], [-0.021699236649283304, -0.5680957984280907], [-0.4644914220698922, 0.23999469782990196], [-0.18517349081791556, -0.4164213256402472], [-0.5868606694648008, -0.11745975971306277], [0.5508713393145989, -0.12708104879397608], [0.20927876569734172, -0.357129898718253], [0.1526098621107066, 0.21753548389364974], [-0.07250659552370087, 0.3532058368973381], [-0.022247094201657824, 0.06992664511733038], [-0.24885389871155017, 0.43943592223538597], [0.3726330195442543, 0.20945182544447605], [0.40085319054572655, -0.40896703683186114], [0.18921643420142176, -0.07251700252641169], [0.5986972952984592, 0.06681631628104573], [-0.5006608400501817, -0.30162987435666255], [-0.1315953751459536, -0.19960318359739682], [-0.34789371493418525, 0.05434281935309676]]",density,white,,,N008,visual,1,[],"['1', '2', '3', '4']",1,2023.2.3,harveyvisual,2.1,[],8,0.75,
0,pause,0.4,None,None,None,0,117,117,117,,,,,,,,,,,1,43.167232036590576,N008,visual,1,[],"['1', '2', '3', '4']",1,2023.2.3,harveyvisual,2.1,[],8,0.75,
20,dot,0.3,['dot'],['density'],black,0,118,118,118,,,43.70020794868469,43.41051697731018,43.71053194999695,dot,"[0.1, 0.1, 0.1, 0.08, 0.06, 0.06, 0.1, 0.06, 0.08, 0.06, 0.08, 0.1, 0.1, 0.1, 0.06, 0.08, 0.1, 0.08, 0.06, 0.08]","[[0.17617380102279256, 0.48115539267108176], [-0.15125033239132696, 0.26901238391616467], [0.32882045359834366, 0.11731100705741282], [0.3469978146692819, -0.4618605618465263], [0.5908708992450847, -0.10084899898752543], [-0.5324228195299828, 0.24820083271761462], [-0.09843220995955426, -0.3359019364172905], [-0.31093583800180435, -0.4338287544155481], [0.16255349111027195, -0.201472071685395], [0.5864178929725249, 0.14481697688114492], [-0.5089299865892544, 0.022675450765982597], [-0.10140756863105138, 0.5952191482594149], [-0.21048989239930843, 0.039706685273844355], [-0.31821479878819436, 0.4365082671307159], [0.06839185430244821, 0.2834245206232001], [-0.4084516276442761, -0.18585887774408383], [-0.023139597411536372, -0.5555017997403116], [-0.0008019759291241213, 0.07319510253866146], [-0.08268495297198919, -0.1446371436286787], [0.39932006477461257, 0.38602721514999583]]",density,black,,,N008,visual,1,[],"['1', '2', '3', '4']",1,2023.2.3,harveyvisual,2.1,[],8,0.75,
0,pause,0.4,None,None,None,0,119,119,119,,,,,,,,,,,,,N008,visual,1,[],"['1', '2', '3', '4']",1,2023.2.3,harveyvisual,2.1,[],8,0.75,
20,dot,0.3,['dot'],['density'],black,0,120,120,120,,,44.4002161026001,44.11053204536438,44.41041302680969,dot,"[0.08, 0.06, 0.06, 0.08, 0.06, 0.1, 0.1, 0.08, 0.08, 0.08, 0.06, 0.1, 0.06, 0.06, 0.08, 0.06, 0.08, 0.1, 0.08, 0.08]","[[0.46591313118963085, 0.3474505696446859], [-0.22398849893186612, 0.2288842462485876], [-0.07648227748517955, -0.1426054190636491], [0.3099111984015026, 0.15600026128886346], [-0.3177962344343191, -0.24226839101201936], [0.5410089200027893, -0.11296759781947463], [0.5258197330703066, 0.11857340096130858], [0.2721680891257624, -0.035318288708197754], [0.1552820873734273, 0.2665823693359268], [0.10367047557512055, -0.47514269459540015], [-0.5216051836795835, 0.28535400110286185], [-0.5148220657691311, -0.01947571433208617], [-0.16742179400984564, 0.4554405804072379], [-0.1722074805139409, -0.5487272070557193], [0.05638943727111512, 0.5297527707346299], [0.43824777721153574, -0.3584289028131147], [0.003375624695253543, 0.14679257229421705], [-0.31798337453087416, -0.03439818518732768], [0.2768191045754115, 0.4885296819895105], [0.13469150646515915, -0.24516620952659346]]",density,black,,,N008,visual,1,[],"['1', '2', '3', '4']",1,2023.2.3,harveyvisual,2.1,[],8,0.75,
0,pause,0.4,None,None,None,0,121,121,121,,,,,,,,,,,,,N008,visual,1,[],"['1', '2', '3', '4']",1,2023.2.3,harveyvisual,2.1,[],8,0.75,
20,dot,0.3,['dot'],['density'],white,0,122,122,122,,,45.10023498535156,44.81046009063721,45.110356092453,dot,"[0.1, 0.08, 0.1, 0.08, 0.1, 0.06, 0.08, 0.1, 0.1, 0.08, 0.08, 0.06, 0.1, 0.1, 0.08, 0.06, 0.08, 0.1, 0.1, 0.08]","[[0.5119007766952849, -0.16066229271136528], [-0.15824858544758813, -0.3090860106141863], [0.13071048167012433, -0.11799426781001932], [-0.2725328367169952, 0.2785165597465955], [0.20579945930114607, 0.5017424948922624], [0.5176857776960234, 0.16890226988180673], [-0.5617774984589525, -0.02454046103844046], [0.14159978706281484, -0.31669692201453487], [-0.06269091404347182, 0.24150445372609242], [-0.5106619892708802, 0.18469958554056726], [0.0953711762325048, 0.09926345220451738], [-0.08686718317430009, 0.47986202651343024], [-0.2924303828201063, -0.009956259327592032], [0.35200251508521463, -0.4045354960712842], [0.11717728765637436, -0.557006228405625], [-0.4063741925701895, -0.3937592225643652], [0.29458518771410325, 0.27220174462666213], [-0.4203054689928525, 0.4343485298038378], [-0.2582040709977495, -0.5421416748562438], [0.2741929950890969, 0.029056585562472814]]",density,white,,,N008,visual,1,[],"['1', '2', '3', '4']",1,2023.2.3,harveyvisual,2.1,[],8,0.75,
0,pause,0.4,None,None,None,0,123,123,123,,,,,,,,,,,,,N008,visual,1,[],"['1', '2', '3', '4']",1,2023.2.3,harveyvisual,2.1,[],8,0.75,
20,dot,0.3,['dot'],['density'],black,0,124,124,124,,,45.80025911331177,45.51048803329468,45.81041097640991,dot,"[0.1, 0.06, 0.1, 0.08, 0.08, 0.1, 0.08, 0.08, 0.06, 0.08, 0.08, 0.06, 0.1, 0.1, 0.06, 0.06, 0.06, 0.1, 0.06, 0.08]","[[-0.4146778164214441, 0.07524454935452557], [0.3058786164740094, -0.14184929628868903], [-0.386722333343751, -0.27676552987995096], [-0.24327611404372002, 0.5368394966058744], [0.49948701307137144, -0.21773471438392228], [0.061667707375205216, -0.15461060474524807], [-0.1593048745462865, -0.07415568733187161], [-0.01476970873822181, 0.48201363084504056], [0.11735181144451945, -0.548824949910254], [0.27352769613605843, 0.2046836279702361], [0.5564645848304101, 0.09899151826591604], [-0.1531352594207917, -0.28184697137266523], [0.36611011199832, -0.47617441234075464], [-0.450201048195644, 0.40025360987283415], [-0.4761205395265015, -0.10433303438965863], [0.45724763084251674, 0.392913735432831], [0.16857492612666214, -0.3118621194778351], [-0.14213465705246575, 0.2141276323392225], [0.2235430461631024, 0.5467627665490941], [-0.19191007780443686, -0.5560330747017322]]",density,black,1,45.5284788608551,N008,visual,1,[],"['1', '2', '3', '4']",1,2023.2.3,harveyvisual,2.1,[],8,0.75,
0,pause,0.4,None,None,None,0,125,125,125,,,,,,,,,,,,,N008,visual,1,[],"['1', '2', '3', '4']",1,2023.2.3,harveyvisual,2.1,[],8,0.75,
20,dot,0.3,['dot'],['density'],black,0,126,126,126,,,46.50021314620972,46.21048593521118,46.51041007041931,dot,"[0.1, 0.06, 0.1, 0.06, 0.06, 0.06, 0.1, 0.08, 0.08, 0.1, 0.08, 0.1, 0.1, 0.06, 0.06, 0.1, 0.1, 0.1, 0.06, 0.1]","[[-0.3291641703168458, 0.37787427405938934], [0.15342518814646067, -0.5053450401852919], [-0.33618336163247214, -0.2219330674069186], [0.35722558083006406, -0.39771853032386484], [0.1518159876676175, 0.1979850554003718], [0.06739854163856607, -0.1883939905881038], [0.020121918026146157, 0.5866145630922067], [-0.0776494940622493, -0.48469592179474746], [-0.23000204210327796, 0.05968287980769027], [-0.4369881545684563, 0.14532349174970138], [0.5966265019235312, -0.02211720852503002], [0.3512879242037529, 0.1464746772389281], [-0.0636734520605946, 0.15176953366887347], [-0.35313652498734294, -0.4508237322796495], [0.3285464111164731, -0.10025572250096942], [0.5585424260847599, -0.21174742803719232], [-0.56932486290309, -0.1471349889149805], [0.30988716946671213, 0.4417848304506482], [0.4693903540024228, 0.3387772670341149], [0.05387112697318319, 0.38240994375297943]]",density,black,,,N008,visual,1,[],"['1', '2', '3', '4']",1,2023.2.3,harveyvisual,2.1,[],8,0.75,
0,pause,0.4,None,None,None,0,127,127,127,,,,,,,,,,,,,N008,visual,1,[],"['1', '2', '3', '4']",1,2023.2.3,harveyvisual,2.1,[],8,0.75,
20,dot,0.3,['dot'],['density'],black,0,128,128,128,,,47.20020508766174,46.91044902801514,47.2104389667511,dot,"[0.08, 0.1, 0.08, 0.08, 0.08, 0.06, 0.08, 0.06, 0.06, 0.08, 0.06, 0.1, 0.1, 0.1, 0.06, 0.08, 0.06, 0.08, 0.08, 0.08]","[[-0.5508270869928112, -0.1974250284128954], [-0.004680478619209727, 0.5579296394238067], [0.11754776740681949, -0.3958299542077696], [0.377726873234568, -0.2953182447139644], [0.23410720041481392, -0.07955495384446909], [-0.07575977401618228, -0.4875946056844915], [0.5942986489633445, -0.08397530360019914], [0.04126802960687326, -0.1575000145503122], [-0.33288396901405454, 0.2216037747698335], [0.24213343852094116, 0.3994503491322293], [0.45223472785689756, 0.25285181335525786], [0.28090830909982734, 0.129274034189914], [-0.3005393049119255, -0.20733353964509055], [-0.5883256061697937, 0.06297440826646747], [-0.15926574205492583, 0.3721332551071943], [-0.29453272484349136, -0.4860368533631696], [-0.001030958678874927, 0.22407891179511186], [-0.07638976765000582, 0.007598672702156084], [-0.4103224471341267, -0.035096514672934565], [-0.4391315228605353, 0.4083024948814743]]",density,black,,,N008,visual,1,[],"['1', '2', '3', '4']",1,2023.2.3,harveyvisual,2.1,[],8,0.75,
0,pause,0.4,None,None,None,0,129,129,129,,,,,,,,,,,,,N008,visual,1,[],"['1', '2', '3', '4']",1,2023.2.3,harveyvisual,2.1,[],8,0.75,
20,dot,0.3,['dot'],['density'],black,0,130,130,130,,,47.90022397041321,47.610432147979736,47.9104540348053,dot,"[0.1, 0.06, 0.06, 0.06, 0.06, 0.06, 0.1, 0.08, 0.1, 0.1, 0.06, 0.08, 0.06, 0.08, 0.1, 0.08, 0.06, 0.1, 0.1, 0.06]","[[-0.39947198967610037, 0.2598171643272745], [-0.5791134919972988, -0.07808432415654668], [-0.47414426254422, -0.25149216807823327], [-0.17674771801778566, 0.5423970727840142], [0.05582962356598553, 0.2700402441891744], [-0.2814143265431602, 0.0597246938694348], [0.546206393627415, -0.06386901404641396], [0.5190573647407853, 0.15667790447900592], [0.19366408727337825, -0.34420273928454953], [0.039276316053380556, -0.5162010294797311], [-0.2886783368824994, -0.38169108513358485], [0.35623597766654835, 0.29936321879141387], [-0.0491499233947188, -0.11462709487461165], [0.22424007989119188, 0.05059961765011478], [0.14934643174202755, 0.5640462300335974], [-0.5780694935424446, 0.114435725769377], [0.5286823480809656, -0.25368068825144613], [-0.34883622136447473, 0.45222513991645935], [0.32733545612787096, -0.47969196642588774], [0.28637280984339986, -0.14803588867020218]]",density,black,,,N008,visual,1,[],"['1', '2', '3', '4']",1,2023.2.3,harveyvisual,2.1,[],8,0.75,
0,pause,0.4,None,None,None,0,131,131,131,,,,,,,,,,,,,N008,visual,1,[],"['1', '2', '3', '4']",1,2023.2.3,harveyvisual,2.1,[],8,0.75,
20,dot,0.3,['dot'],['density'],black,0,132,132,132,,,48.60022807121277,48.31036996841431,48.61044096946716,dot,"[0.08, 0.1, 0.06, 0.1, 0.08, 0.08, 0.06, 0.06, 0.06, 0.1, 0.08, 0.06, 0.08, 0.08, 0.08, 0.08, 0.08, 0.08, 0.08, 0.08]","[[-0.28707014881642795, -0.4256360882425142], [-0.09569939766093749, -0.14975251851081317], [0.11383877381998941, 0.07066456197456539], [-0.3452152444588615, 0.471947005624378], [0.12876387694711222, 0.5518799301157293], [0.4865601779468657, 0.2700646804106788], [0.39370140302334244, -0.3519684928965495], [0.08993611300434101, 0.3613245899897659], [0.1739241882635011, -0.3345896420816278], [-0.5733691162353981, 0.1132014258711625], [0.3714665488546963, 0.006604710756526133], [0.501103156261609, -0.14833488563851663], [-0.14423484350350602, 0.3933774005487999], [-0.03283264005003106, -0.4989648867111933], [-0.48247187855629087, -0.060971717307382545], [-0.31946941934384204, 0.09492477018363543], [0.5850856858260293, 0.10367422162886289], [-0.5129014303652524, 0.3133952610271959], [-0.47797793216882284, -0.3027085834681754], [0.09452454432974378, -0.1279872429238934]]",density,black,,,N008,visual,1,[],"['1', '2', '3', '4']",1,2023.2.3,harveyvisual,2.1,[],8,0.75,
0,pause,0.4,None,None,None,0,133,133,133,,,,,,,,,,,,,N008,visual,1,[],"['1', '2', '3', '4']",1,2023.2.3,harveyvisual,2.1,[],8,0.75,
20,dot,0.3,['dot'],['density'],black,0,134,134,134,,,49.30022192001343,49.01047992706299,49.31044912338257,dot,"[0.08, 0.08, 0.06, 0.1, 0.06, 0.06, 0.1, 0.06, 0.06, 0.1, 0.1, 0.08, 0.1, 0.06, 0.06, 0.08, 0.1, 0.08, 0.06, 0.06]","[[-0.2756579028104695, -0.29483614251461954], [0.5533653122304666, 0.1000040440268812], [0.16984878088411315, 0.156185310193533], [-0.3464191613143711, -0.49488203610307735], [0.41516644335844155, -0.17153973051930133], [0.38003935774721265, -0.4336740129303885], [0.07085184531712019, -0.21598154677204606], [-0.051709625757761835, -0.47866879336783646], [-0.058686992259908144, 0.46334483773046975], [-0.27122996122602905, 0.11881593269241297], [-0.5072633885568795, 0.2627429388679512], [-0.5064844878215446, -0.2707873467102544], [0.36011936877001305, 0.2773398131325461], [0.195019062467632, 0.5510913613310707], [-0.5215221626152655, -0.07395383009797762], [-0.35292206423640843, 0.44313903421741985], [-0.2414692856185478, -0.10355204566391835], [-0.04897625464476685, 0.2411964933904015], [0.18848852692357065, -0.5437594395260482], [0.2259943890286119, -0.07419708652780854]]",density,black,,,N008,visual,1,[],"['1', '2', '3', '4']",1,2023.2.3,harveyvisual,2.1,[],8,0.75,
0,pause,0.4,None,None,None,0,135,135,135,,,,,,,,,,,,,N008,visual,1,[],"['1', '2', '3', '4']",1,2023.2.3,harveyvisual,2.1,[],8,0.75,
20,dot,0.3,['dot'],['density'],black,0,136,136,136,,,50.000221967697144,49.71046805381775,50.01022005081177,dot,"[0.08, 0.08, 0.08, 0.06, 0.1, 0.06, 0.06, 0.06, 0.1, 0.1, 0.06, 0.08, 0.1, 0.1, 0.1, 0.06, 0.06, 0.1, 0.1, 0.06]","[[-0.5843679606188225, -0.022567667234115657], [0.2625306429203479, 0.15117368260059483], [-0.032475338772688045, -0.476368765112784], [-0.2020645286760715, 0.04026570619992542], [-0.3513954417224749, -0.3380436095431195], [0.05649067988186518, 0.1605406838451947], [0.34940974062351104, -0.08289316166852023], [0.473728668937604, 0.2572673941585806], [-0.42196061277721936, 0.40087223569602487], [-0.06966318356141421, -0.1348613637632654], [0.5001964239424567, -0.24481108772393922], [-0.5675842202772109, 0.185340731555793], [0.18156925368232002, 0.39228604296985825], [0.11000664163259422, -0.2518336907022346], [-0.09364132157659966, 0.36952774038718283], [-0.22940877135151932, -0.5247515787335784], [0.6040191484208887, -0.016397363529041347], [-0.2776095541007896, -0.14527861404898618], [-0.3997374639776264, 0.09084683020232132], [-0.53328427159182, -0.26735719137090597]]",density,black,,,N008,visual,1,[],"['1', '2', '3', '4']",1,2023.2.3,harveyvisual,2.1,[],8,0.75,
0,pause,0.4,None,None,None,0,137,137,137,,,,,,,,,,,,,N008,visual,1,[],"['1', '2', '3', '4']",1,2023.2.3,harveyvisual,2.1,[],8,0.75,
20,dot,0.3,['dot'],['density'],black,0,138,138,138,,,50.70021891593933,50.41038513183594,50.710360050201416,dot,"[0.08, 0.08, 0.06, 0.08, 0.1, 0.1, 0.1, 0.06, 0.08, 0.08, 0.06, 0.08, 0.1, 0.1, 0.1, 0.06, 0.06, 0.1, 0.08, 0.06]","[[-0.4106517135880101, -0.3351392285814592], [0.47459756703505185, -0.04603077277322043], [0.26439452496869753, 0.19922021472128548], [0.04554900382674931, 0.16510315475012438], [0.47109888105015674, -0.3268285990336919], [-0.4494200378788272, 0.26048711759405446], [0.21310291801962988, -0.2898341069828025], [0.13326116786179198, -0.5091924518886596], [-0.14207561844402206, 0.015740057920992423], [-0.04353128426791175, -0.3219344167915358], [0.06120633796722419, -0.12017203788235642], [-0.17109456553075636, 0.2944996910079608], [-0.28282493179659285, -0.12214120445476229], [-0.09406553381777927, 0.5365067278928184], [-0.5549070503415852, -0.16200767509643865], [0.0944219726277018, 0.4823534623526474], [-0.4873023544395467, 0.05417147532692551], [0.47054005516615394, 0.27067169896704013], [-0.15752774504067596, -0.5827710891467041], [-0.38528011723537625, 0.44510126043179155]]",density,black,,,N008,visual,1,[],"['1', '2', '3', '4']",1,2023.2.3,harveyvisual,2.1,[],8,0.75,
0,pause,0.4,None,None,None,0,139,139,139,,,,,,,,,,,,,N008,visual,1,[],"['1', '2', '3', '4']",1,2023.2.3,harveyvisual,2.1,[],8,0.75,
20,dot,0.3,['dot'],['density'],black,0,140,140,140,,,51.40021800994873,51.1103630065918,51.41034197807312,dot,"[0.06, 0.08, 0.1, 0.08, 0.08, 0.08, 0.06, 0.1, 0.1, 0.1, 0.08, 0.08, 0.1, 0.06, 0.08, 0.06, 0.06, 0.06, 0.06, 0.06]","[[0.26192867494222194, 0.294714336482891], [-0.09539455734674107, 0.4645410119436919], [-0.2799344051092776, 0.06750986350137522], [-0.36594896372476815, -0.20452026892849584], [-0.6028647561028638, 0.018657328503252815], [-0.20149777726022727, -0.3766362595198231], [0.47403828956592753, -0.17747852993226593], [0.20992711650664686, 0.04844205525478329], [-0.021749580750822117, -0.20155449327746183], [0.5241645491307884, 0.1637386480804494], [-0.46322952687311036, 0.15460753637205005], [0.3073236116964648, -0.44172987223183824], [0.476981125745061, 0.3669944262325135], [-0.35997912329975534, 0.4575808081019594], [0.006418269466183846, 0.24618604215045148], [0.17655713710458842, 0.5407408399676638], [-0.27015791595114924, 0.2846552332104221], [-0.43392285939223063, -0.4104325179565573], [-0.5635922686053324, -0.18899951195845852], [0.6026385530074557, -0.010848547193874201]]",density,black,,,N008,visual,1,[],"['1', '2', '3', '4']",1,2023.2.3,harveyvisual,2.1,[],8,0.75,
0,pause,0.4,None,None,None,0,141,141,141,,,,,,,,,,,,,N008,visual,1,[],"['1', '2', '3', '4']",1,2023.2.3,harveyvisual,2.1,[],8,0.75,
20,dot,0.3,['dot'],['density'],white,0,142,142,142,,,52.100224018096924,51.81024503707886,52.11024594306946,dot,"[0.1, 0.08, 0.06, 0.1, 0.06, 0.1, 0.06, 0.06, 0.08, 0.08, 0.1, 0.1, 0.08, 0.06, 0.1, 0.06, 0.08, 0.06, 0.06, 0.06]","[[-0.4978894822733937, -0.03269523881708625], [-0.22547342046364544, -0.28737916881680275], [0.5161782627808357, 0.0023638328593926783], [0.163114199403963, -0.5554192131436527], [-0.03348448005407745, 0.3531574007318121], [-0.14162452910272078, 0.5451324462226022], [0.3456961586974171, -0.2829004171346051], [-0.2567470752230099, 0.3479930087124069], [-0.4346001894475678, -0.2393335644440752], [0.20434499091695346, 0.2790257822230393], [0.1740574382885004, -0.1892741462523843], [0.4444485928412846, 0.25445076079761236], [-0.5523996062889093, 0.21129416508812934], [0.054549722540307544, -0.3907165778868382], [-0.32734610274212356, -0.5023187809037036], [-0.09963525894565184, 0.10656742080844339], [0.3124885910719596, 0.02100615951517648], [-0.2897716501841846, 0.06271386640555265], [0.34834574165507337, -0.49254607956022617], [-0.05991622187802892, -0.13384539834773274]]",density,white,,,N008,visual,1,[],"['1', '2', '3', '4']",1,2023.2.3,harveyvisual,2.1,[],8,0.75,
0,pause,0.4,None,None,None,0,143,143,143,,,,,,,,,,,1,52.441118001937866,N008,visual,1,[],"['1', '2', '3', '4']",1,2023.2.3,harveyvisual,2.1,[],8,0.75,
20,dot,0.3,['dot'],['density'],black,0,144,144,144,,,52.80021905899048,52.52682900428772,52.81016302108765,dot,"[0.08, 0.1, 0.08, 0.06, 0.08, 0.06, 0.08, 0.06, 0.1, 0.06, 0.08, 0.08, 0.08, 0.06, 0.08, 0.06, 0.08, 0.06, 0.08, 0.06]","[[-0.1755817221697883, 0.13451299418678453], [0.5318703439871025, 0.25304498979005524], [0.07304459284559073, 0.19999858299357987], [-0.24987964035724725, -0.38806346329843516], [0.18367687124907184, -0.28367834669252573], [0.4931316340842501, -0.3239358326943553], [0.014530738485484584, -0.4980822818236662], [-0.3835308713680472, 0.3173970144052685], [0.2425029640274896, -0.49263928210995755], [-0.2699830803369913, 0.4747292196870666], [0.37989024186365306, 0.3942708291066154], [0.024247852010891302, 0.593190676318722], [0.5284097981212642, -0.03224530178200413], [0.2917116876338437, 0.13248122721964517], [-0.3355613504590088, -0.20471576085385507], [-0.5999997467669723, 0.06430931297152555], [-0.05892743026053615, -0.14315217754138226], [0.11832603975999778, -0.01738292267044672], [-0.5628585499251989, -0.22001785628052561], [-0.3771105696559941, -0.004194412432114936]]",density,black,,,N008,visual,1,[],"['1', '2', '3', '4']",1,2023.2.3,harveyvisual,2.1,[],8,0.75,
0,pause,0.4,None,None,None,0,145,145,145,,,,,,,,,,,,,N008,visual,1,[],"['1', '2', '3', '4']",1,2023.2.3,harveyvisual,2.1,[],8,0.75,
20,dot,0.3,['dot'],['density'],white,0,146,146,146,,,53.500205993652344,53.2268271446228,53.51014709472656,dot,"[0.06, 0.06, 0.08, 0.08, 0.08, 0.06, 0.06, 0.08, 0.1, 0.06, 0.1, 0.1, 0.06, 0.1, 0.06, 0.08, 0.1, 0.1, 0.06, 0.08]","[[0.20780515757841644, 0.01634949035513955], [0.3619970944006251, -0.3324853762031406], [-0.24382787849649706, -0.3606882187833299], [-0.35304906991247076, 0.03232938397831253], [0.5012788034650116, 0.21717673188204506], [-0.452626688925628, -0.38773869051783366], [-0.07630287111230005, 0.21280197313860127], [0.6021907078284371, 0.02416472609180373], [0.23604539821889947, 0.3052149712488357], [0.008651126312309798, 0.4605995537725657], [-0.4785703600603559, -0.1417400107906088], [-0.5945043571640068, 0.09744018563976663], [-0.2896123955406189, 0.37875959101420054], [-0.13393538866857735, -0.060249910424530984], [0.505212385245498, -0.15212118318104997], [0.05710166689435803, -0.13788001651387816], [-0.10949200926534686, -0.5086005349309675], [0.3479897308229397, 0.47714436398301585], [-0.1629721647626018, 0.5560164554067029], [0.039330344692444674, -0.32685413745241093]]",density,white,,,N008,visual,1,[],"['1', '2', '3', '4']",1,2023.2.3,harveyvisual,2.1,[],8,0.75,
0,pause,0.4,None,None,None,0,147,147,147,,,,,,,,,,,1,53.66530895233154,N008,visual,1,[],"['1', '2', '3', '4']",1,2023.2.3,harveyvisual,2.1,[],8,0.75,
20,dot,0.3,['dot'],['density'],black,0,148,148,148,,,54.200236082077026,53.9268159866333,54.21014595031738,dot,"[0.08, 0.1, 0.06, 0.06, 0.1, 0.08, 0.06, 0.08, 0.08, 0.1, 0.06, 0.1, 0.1, 0.06, 0.06, 0.08, 0.06, 0.1, 0.1, 0.08]","[[0.3283609092136782, -0.13765260304069532], [-0.04562208708085591, 0.5956141085605818], [-0.5035975502619069, 0.1739690971344069], [-0.24888665377285513, -0.5142187453973543], [-0.2945591844443764, 0.07533165672459397], [0.2726624810227334, 0.28851790454344606], [0.04131740900517966, -0.4934948255554516], [0.07341455059030344, -0.009431372677733751], [-0.10221676067745922, -0.16909492887306637], [0.08356435591251732, 0.3676792809898032], [0.43852186569947527, 0.38840698132208706], [-0.18168906850211092, 0.3715985082442914], [0.4492832750272612, 0.08663476127154629], [-0.41884454437218466, -0.12059175035171465], [0.2559275593463516, -0.5340322036382753], [-0.5898852978416663, -0.015822807367979114], [0.33824238233647375, -0.3584642497363745], [0.5500022613759227, -0.16500393924698786], [-0.37015095235675266, 0.40819091017478615], [-0.38971552997756453, -0.34286529658330117]]",density,black,,,N008,visual,1,[],"['1', '2', '3', '4']",1,2023.2.3,harveyvisual,2.1,[],8,0.75,
0,pause,0.4,None,None,None,0,149,149,149,,,,,,,,,,,,,N008,visual,1,[],"['1', '2', '3', '4']",1,2023.2.3,harveyvisual,2.1,[],8,0.75,
20,dot,0.3,['dot'],['density'],black,0,150,150,150,,,54.90021300315857,54.62679600715637,54.91024613380432,dot,"[0.08, 0.06, 0.06, 0.08, 0.1, 0.08, 0.1, 0.06, 0.06, 0.06, 0.06, 0.06, 0.08, 0.1, 0.08, 0.1, 0.1, 0.1, 0.1, 0.08]","[[0.3398141337949241, 0.010441774399766457], [-0.3367059744574044, 0.3855464637996313], [0.49708932369928294, 0.34227660560942896], [-0.1914458341649271, -0.4682608787005637], [-0.4516462465719022, -0.038021901437927], [0.43815392427423594, -0.28413172034636913], [0.05036390156964077, 0.24277606190391232], [-0.3156006076751341, 0.17169772669611594], [-0.21659042409269652, -0.1871543748592251], [0.2588413143193856, 0.5417507813937308], [-0.11313721601351845, 0.39358974841654737], [0.5743599466436872, -0.0925288793981371], [-0.019614425627741183, -0.21159267036298735], [-0.05592699883533936, 0.5817943703569558], [0.2604577684010614, -0.5051827115141538], [-0.5639802229499165, 0.17082989183570355], [0.2541525505137877, -0.233774434384949], [-0.017340391814939293, -0.5777232905890186], [0.11391544291321842, -0.06112009150717579], [-0.5315923756119262, -0.2467456099989815]]",density,black,,,N008,visual,1,[],"['1', '2', '3', '4']",1,2023.2.3,harveyvisual,2.1,[],8,0.75,
0,pause,0.4,None,None,None,0,151,151,151,,,,,,,,,,,,,N008,visual,1,[],"['1', '2', '3', '4']",1,2023.2.3,harveyvisual,2.1,[],8,0.75,
20,dot,0.3,['dot'],['density'],black,0,152,152,152,,,55.60021901130676,55.31030297279358,55.610244035720825,dot,"[0.1, 0.06, 0.08, 0.08, 0.1, 0.06, 0.06, 0.1, 0.06, 0.08, 0.06, 0.06, 0.1, 0.06, 0.08, 0.08, 0.1, 0.1, 0.08, 0.06]","[[0.49829093828636506, 0.04466660335581951], [-0.567329528932171, -0.0831431449723688], [-0.4164896235368812, 0.053076156351934245], [0.21934571665022873, 0.47451425509297174], [-0.020713329714937778, -0.04977226473140839], [-0.351107522356603, -0.48845518483560585], [0.06650006543046172, 0.2702282612090251], [-0.3653311162756182, -0.21499153304042834], [0.0726182289318158, -0.38969173210473873], [-0.14399697953601764, -0.3507664299810004], [0.33596673897295415, 0.18151020557140485], [-0.07446553245135135, -0.5604775969887738], [-0.1442219491134077, 0.38231879615002107], [0.3070801530236823, -0.4167144786795593], [-0.05293526264844661, 0.5516402288640321], [0.5025851616696738, -0.30102935378917334], [-0.4825945168239682, 0.3143132866847426], [-0.13840408614777405, 0.16042625261017174], [0.1877374103781051, -0.039305125725987766], [0.17994340563776545, -0.5690047610495302]]",density,black,,,N008,visual,1,[],"['1', '2', '3', '4']",1,2023.2.3,harveyvisual,2.1,[],8,0.75,
0,pause,0.4,None,None,None,0,153,153,153,,,,,,,,,,,,,N008,visual,1,[],"['1', '2', '3', '4']",1,2023.2.3,harveyvisual,2.1,[],8,0.75,
20,dot,0.3,['dot'],['density'],black,0,154,154,154,,,56.300212144851685,56.02689003944397,56.310219049453735,dot,"[0.06, 0.06, 0.08, 0.08, 0.08, 0.1, 0.08, 0.1, 0.06, 0.06, 0.08, 0.08, 0.06, 0.06, 0.06, 0.1, 0.1, 0.06, 0.08, 0.1]","[[-0.37150515001682205, 0.4314209310255601], [0.3576167374424959, 0.19372577606045144], [-0.4899372441272192, -0.27622058144341743], [0.4337646965136138, -0.04201775314374456], [-0.21590540576811978, -0.024495243725433324], [-0.2845240673353208, -0.3318049034249696], [0.2219935876995479, -0.06965761108999374], [-0.1395721333162992, 0.48065524579544283], [0.3914943390879173, -0.3990973845984631], [-0.4829012303119429, 0.21943982211462998], [0.13001655337401907, 0.38056801276966246], [-0.5684202995148057, -0.08165958460651043], [0.07352426356961805, -0.26310684322246763], [-0.07715918176753889, -0.4344293692761898], [0.5735948872231732, 0.18495813279290582], [0.23080948578835325, -0.5234272753790317], [-0.12909167314874093, 0.2094787688973826], [0.33661509619545726, 0.47985477612436345], [0.005329090082542565, 0.028787890174046482], [0.1047690347524004, 0.1902733751528175]]",density,black,,,N008,visual,1,[],"['1', '2', '3', '4']",1,2023.2.3,harveyvisual,2.1,[],8,0.75,
0,pause,0.4,None,None,None,0,155,155,155,,,,,,,,,,,,,N008,visual,1,[],"['1', '2', '3', '4']",1,2023.2.3,harveyvisual,2.1,[],8,0.75,
9,dot,0.3,['dot'],['density'],black,0,156,156,156,,,57.000221967697144,56.71011710166931,57.01007413864136,dot,"[0.08, 0.1, 0.08, 0.1, 0.08, 0.08, 0.06, 0.08, 0.1]","[[0.15603996265512696, -0.0872053538661942], [-0.29211765964195757, -0.04110002513656992], [-0.071087909845803, -0.33174387981618686], [-0.13011395490928096, 0.2584597801106329], [-0.08364541374476576, -0.0980664528631432], [-0.26669569773039664, -0.25481833902542456], [-0.35582819085755485, -0.4494505046102014], [-0.1269674344078877, -0.5566175884613933], [0.011820482989003244, 0.07934247632600783]]",density,black,,,N008,visual,1,[],"['1', '2', '3', '4']",1,2023.2.3,harveyvisual,2.1,[],8,0.75,
0,pause,0.4,None,None,None,0,157,157,157,,,,,,,,,,,,,N008,visual,1,[],"['1', '2', '3', '4']",1,2023.2.3,harveyvisual,2.1,[],8,0.75,
9,dot,0.3,['dot'],['density'],black,0,158,158,158,,,57.70023012161255,57.41019892692566,57.71019697189331,dot,"[0.08, 0.08, 0.06, 0.06, 0.06, 0.08, 0.06, 0.06, 0.06]","[[-0.08858128315591524, -0.3480052213079807], [0.37291707470974605, -0.0809562497479422], [-0.04311872097798103, 0.23152249840731254], [0.1734412630875083, -0.16491363602164627], [-0.024044713080900382, -0.04824256513196188], [0.126438571592319, 0.09122014985587756], [-0.2168202887682383, 0.11190421567656858], [-0.23215605484234547, -0.20356583507002532], [0.291417597339289, 0.24351333182926893]]",density,black,,,N008,visual,1,[],"['1', '2', '3', '4']",1,2023.2.3,harveyvisual,2.1,[],8,0.75,
0,pause,0.4,None,None,None,0,159,159,159,,,,,,,,,,,,,N008,visual,1,[],"['1', '2', '3', '4']",1,2023.2.3,harveyvisual,2.1,[],8,0.75,
9,dot,0.3,['dot'],['density'],black,0,160,160,160,,,58.40023112297058,58.11003804206848,58.410030126571655,dot,"[0.08, 0.08, 0.06, 0.1, 0.1, 0.08, 0.1, 0.06, 0.06]","[[-0.06218673389315922, -0.4689115343027075], [0.3660477402554353, -0.15396192139437054], [0.1401329754895462, -0.14262156541192547], [0.12293598154832706, -0.38779640022673934], [0.42645158233284447, -0.3607859009111275], [-0.06238477126329685, -0.2564764349502154], [-0.2584688277182379, -0.29964401945706215], [-0.11312192996032899, -0.05439345917292958], [0.19096873654163896, 0.1321853744035435]]",density,black,,,N008,visual,1,[],"['1', '2', '3', '4']",1,2023.2.3,harveyvisual,2.1,[],8,0.75,
0,pause,0.4,None,None,None,0,161,161,161,,,,,,,,,,,,,N008,visual,1,[],"['1', '2', '3', '4']",1,2023.2.3,harveyvisual,2.1,[],8,0.75,
9,dot,0.3,['dot'],['density'],black,0,162,162,162,,,59.10022592544556,58.81021499633789,59.11016297340393,dot,"[0.1, 0.06, 0.1, 0.08, 0.08, 0.08, 0.1, 0.08, 0.08]","[[-0.03971785412685378, -0.013307253576883936], [-0.1795931736998084, 0.3973594317450326], [-0.3834375522639881, 0.20263766925149762], [-0.17272229141218848, -0.19949677387464254], [-0.5360333538572699, -0.009032368777402771], [-0.28286279854376034, -0.008232758075431683], [0.17411699897949384, -0.08382665075843401], [-0.16068367208365952, 0.1786486522774764], [0.029814794500374706, 0.34001547930781484]]",density,black,,,N008,visual,1,[],"['1', '2', '3', '4']",1,2023.2.3,harveyvisual,2.1,[],8,0.75,
0,pause,0.4,None,None,None,0,163,163,163,,,,,,,,,,,,,N008,visual,1,[],"['1', '2', '3', '4']",1,2023.2.3,harveyvisual,2.1,[],8,0.75,
9,dot,0.3,['dot'],['density'],black,0,164,164,164,,,59.800213098526,59.510149002075195,59.81015706062317,dot,"[0.1, 0.06, 0.08, 0.06, 0.1, 0.06, 0.06, 0.08, 0.08]","[[-0.011980588702785358, -0.14271344386551676], [-0.15345504415890063, -0.3599837049237609], [0.2909474261289129, -0.3591516282942406], [0.16239073734315843, -0.5386624114967425], [0.2227638828830022, -0.11271380419745088], [0.06426208015886789, 0.04859175461581491], [-0.3648571389210414, -0.3413683676300365], [0.3831858227582706, 0.019718563726728144], [0.06479696894599615, -0.3534524636945761]]",density,black,,,N008,visual,1,[],"['1', '2', '3', '4']",1,2023.2.3,harveyvisual,2.1,[],8,0.75,
0,pause,0.4,None,None,None,0,165,165,165,,,,,,,,,,,,,N008,visual,1,[],"['1', '2', '3', '4']",1,2023.2.3,harveyvisual,2.1,[],8,0.75,
9,dot,0.3,['dot'],['density'],black,0,166,166,166,,,60.500224113464355,60.21014094352722,60.51011800765991,dot,"[0.1, 0.08, 0.08, 0.1, 0.06, 0.06, 0.1, 0.08, 0.1]","[[0.31750259908069645, 0.09103062301409195], [-0.10814993995151222, -0.14883262012051235], [0.2615101699546999, -0.13245952524223892], [0.014531427323725789, 0.3887544696515085], [-0.1117096847062306, 0.09593752649312724], [0.07810272484559946, -0.019955638642360052], [-0.26173373106631487, 0.2840804484106463], [0.4370020372247476, 0.2669512546191977], [0.11115841416421544, 0.18722161068425575]]",density,black,,,N008,visual,1,[],"['1', '2', '3', '4']",1,2023.2.3,harveyvisual,2.1,[],8,0.75,
0,pause,0.4,None,None,None,0,167,167,167,,,,,,,,,,,,,N008,visual,1,[],"['1', '2', '3', '4']",1,2023.2.3,harveyvisual,2.1,[],8,0.75,
8,dot,0.3,['dot'],['density'],black,0,168,168,168,,,61.20022892951965,60.90999412536621,61.209969997406006,dot,"[0.06, 0.1, 0.1, 0.06, 0.06, 0.06, 0.1, 0.06]","[[-0.19469543066458847, -0.326291241472255], [0.30343637985980976, -0.10925869102227477], [-0.1969922581528186, -0.11664339975312436], [0.2570255161168456, -0.3247060146943647], [0.10684135558856425, -0.18174565546534566], [0.03482742583321104, -0.4893606045609451], [-0.015658395544436696, -0.0001692298399926468], [0.11980560642279467, 0.15585563517441894]]",density,black,,,N008,visual,1,[],"['1', '2', '3', '4']",1,2023.2.3,harveyvisual,2.1,[],8,0.75,
0,pause,0.4,None,None,None,0,169,169,169,,,,,,,,,,,,,N008,visual,1,[],"['1', '2', '3', '4']",1,2023.2.3,harveyvisual,2.1,[],8,0.75,
8,dot,0.3,['dot'],['density'],white,0,170,170,170,,,61.90021109580994,61.60997009277344,61.90995502471924,dot,"[0.06, 0.06, 0.1, 0.06, 0.06, 0.08, 0.08, 0.06]","[[0.34834348934164344, -0.28812382596974456], [-0.10329597477015798, -0.5243874580500916], [0.11080732975293575, -0.39067626210733153], [-0.006800183936578442, -0.10390350920236302], [0.17453264242573352, -0.004648084789036161], [-0.11839138898177409, -0.2765800857961495], [-0.2122949223397977, -0.08354151726817095], [0.0010823045536620208, 0.09995244087301837]]",density,white,,,N008,visual,1,[],"['1', '2', '3', '4']",1,2023.2.3,harveyvisual,2.1,[],8,0.75,
0,pause,0.4,None,None,None,0,171,171,171,,,,,,,,,,,1,62.17239785194397,N008,visual,1,[],"['1', '2', '3', '4']",1,2023.2.3,harveyvisual,2.1,[],8,0.75,
8,dot,0.3,['dot'],['density'],black,0,172,172,172,,,62.6002299785614,62.30995011329651,62.6099419593811,dot,"[0.1, 0.08, 0.1, 0.08, 0.08, 0.06, 0.06, 0.08]","[[-0.16499387414028463, -0.418455346753131], [0.031011941373623824, -0.006148034068666969], [-0.4150712424924157, -0.28668557629476243], [-0.199054958380199, -0.21375968732837633], [-0.4870789535587041, 0.00515905815181239], [-0.198479811208303, 0.006815000109153054], [-0.3273741662815474, 0.19008037141614484], [0.04340096687518584, -0.25044408321713213]]",density,black,,,N008,visual,1,[],"['1', '2', '3', '4']",1,2023.2.3,harveyvisual,2.1,[],8,0.75,
0,pause,0.4,None,None,None,0,173,173,173,,,,,,,,,,,,,N008,visual,1,[],"['1', '2', '3', '4']",1,2023.2.3,harveyvisual,2.1,[],8,0.75,
8,dot,0.3,['dot'],['density'],black,0,174,174,174,,,63.30022692680359,63.00991106033325,63.30992412567139,dot,"[0.1, 0.1, 0.1, 0.06, 0.06, 0.1, 0.08, 0.06]","[[0.1740819983727909, -0.16863019829442621], [0.14644114519141543, -0.4524198896657212], [0.0024885361438939093, 0.023531574910491997], [-0.23717340943857948, -0.31112918658627675], [-0.11311749148073028, -0.46867866316561874], [-0.17928248077090506, -0.060241557052319365], [-0.03957999532622772, -0.24759906754331504], [-0.4644327601918011, -0.3627803331480915]]",density,black,,,N008,visual,1,[],"['1', '2', '3', '4']",1,2023.2.3,harveyvisual,2.1,[],8,0.75,
0,pause,0.4,None,None,None,0,175,175,175,,,,,,,,,,,,,N008,visual,1,[],"['1', '2', '3', '4']",1,2023.2.3,harveyvisual,2.1,[],8,0.75,
8,dot,0.3,['dot'],['density'],black,0,176,176,176,,,64.0002269744873,63.70991802215576,64.00990104675293,dot,"[0.08, 0.06, 0.1, 0.08, 0.08, 0.06, 0.08, 0.08]","[[0.2695774744445919, -0.006239189610034271], [0.562582848369008, 0.10338967896652898], [0.24075709842543627, 0.2415297589697605], [0.16944247952526825, 0.43473569867318385], [0.009973801462114143, 0.2622623098226203], [0.4378981685404615, 0.30984992123658367], [0.345623627049791, -0.19390063473497438], [0.01218861403819752, 6.35764658527089e-05]]",density,black,,,N008,visual,1,[],"['1', '2', '3', '4']",1,2023.2.3,harveyvisual,2.1,[],8,0.75,
0,pause,0.4,None,None,None,0,177,177,177,,,,,,,,,,,,,N008,visual,1,[],"['1', '2', '3', '4']",1,2023.2.3,harveyvisual,2.1,[],8,0.75,
8,dot,0.3,['dot'],['density'],white,0,178,178,178,,,64.70021796226501,64.40990114212036,64.70989298820496,dot,"[0.08, 0.06, 0.06, 0.08, 0.1, 0.08, 0.1, 0.08]","[[-0.13214754069031825, -0.5402677255150703], [0.1288984478000013, -0.5519726475135984], [0.27401725229332, -0.34994268047279037], [-0.052680844420756816, 0.006786609240531098], [0.03557367748195712, -0.3699094958310016], [-0.23170140006741713, -0.18198058676873416], [-0.33504621301322857, -0.3611685350886627], [0.0760940577115827, -0.14857148175569432]]",density,white,,,N008,visual,1,[],"['1', '2', '3', '4']",1,2023.2.3,harveyvisual,2.1,[],8,0.75,
0,pause,0.4,None,None,None,0,179,179,179,,,,,,,,,,,1,64.97168803215027,N008,visual,1,[],"['1', '2', '3', '4']",1,2023.2.3,harveyvisual,2.1,[],8,0.75,
7,dot,0.3,['dot'],['density'],black,0,180,180,180,,,65.40020608901978,65.10990405082703,65.40988206863403,dot,"[0.08, 0.08, 0.06, 0.08, 0.1, 0.1, 0.06]","[[-0.3423230189937584, -0.41219609722212536], [-0.1182323968952694, -0.35552357509158045], [-0.4111032443031386, -0.006313161275750597], [-0.5095560862941229, -0.2529410328503813], [-0.2588176969072235, -0.18091026219072012], [-0.0026253510642934245, -0.12197054074907589], [-0.16586784627322051, 0.0941069694468023]]",density,black,,,N008,visual,1,[],"['1', '2', '3', '4']",1,2023.2.3,harveyvisual,2.1,[],8,0.75,
0,pause,0.4,None,None,None,0,181,181,181,,,,,,,,,,,,,N008,visual,1,[],"['1', '2', '3', '4']",1,2023.2.3,harveyvisual,2.1,[],8,0.75,
7,dot,0.3,['dot'],['density'],black,0,182,182,182,,,66.10020995140076,65.80986905097961,66.10985803604126,dot,"[0.06, 0.06, 0.1, 0.08, 0.08, 0.06, 0.08]","[[0.14162553822338392, 0.3850374027840034], [0.14862566890709045, -0.11120959689479885], [0.39332636479883865, 0.3869926518090174], [0.40462455387813373, -0.12110830933676162], [0.23143806607869288, 0.12402376181071403], [0.031443448417621304, 0.15083815177969048], [0.4360523150463376, 0.1818515773867412]]",density,black,,,N008,visual,1,[],"['1', '2', '3', '4']",1,2023.2.3,harveyvisual,2.1,[],8,0.75,
0,pause,0.4,None,None,None,0,183,183,183,,,,,,,,,,,,,N008,visual,1,[],"['1', '2', '3', '4']",1,2023.2.3,harveyvisual,2.1,[],8,0.75,
7,dot,0.3,['dot'],['density'],black,0,184,184,184,,,66.80023002624512,66.5098569393158,66.80984807014465,dot,"[0.06, 0.1, 0.1, 0.06, 0.08, 0.1, 0.1]","[[0.3350011905151264, 0.09255159473130091], [-0.07424962927914175, -0.2643067362759337], [-0.0068732696698998825, 0.04948606721470151], [0.12855319879406235, -0.3381192636220083], [0.11551090787938859, 0.24000211478775196], [0.3415900712266813, -0.1269386107563701], [0.14228147320501944, -0.08533637750285226]]",density,black,,,N008,visual,1,[],"['1', '2', '3', '4']",1,2023.2.3,harveyvisual,2.1,[],8,0.75,
0,pause,0.4,None,None,None,0,185,185,185,,,,,,,,,,,,,N008,visual,1,[],"['1', '2', '3', '4']",1,2023.2.3,harveyvisual,2.1,[],8,0.75,
7,dot,0.3,['dot'],['density'],black,0,186,186,186,,,67.50022411346436,67.20982813835144,67.50983095169067,dot,"[0.06, 0.08, 0.06, 0.08, 0.1, 0.06, 0.06]","[[-0.1639205104410485, 0.5375336320852997], [0.13665370749938832, 0.21910895384688228], [-0.33778978147358674, 0.04597826141406851], [-0.2268593015261854, 0.22000868921510455], [-0.39586497221419475, 0.3389169711393182], [-0.023188047053822363, 0.08417042442854547], [-0.025005414605345992, 0.38521147685537843]]",density,black,,,N008,visual,1,[],"['1', '2', '3', '4']",1,2023.2.3,harveyvisual,2.1,[],8,0.75,
0,pause,0.4,None,None,None,0,187,187,187,,,,,,,,,,,,,N008,visual,1,[],"['1', '2', '3', '4']",1,2023.2.3,harveyvisual,2.1,[],8,0.75,
7,dot,0.3,['dot'],['density'],black,0,188,188,188,,,68.20023012161255,67.90982294082642,68.20981001853943,dot,"[0.06, 0.1, 0.1, 0.06, 0.08, 0.1, 0.08]","[[-0.1635229753841098, 0.12186382262109141], [0.03437657187081179, 0.5178389267683822], [0.324184412335695, 0.17931743601205324], [0.08929018524031027, 0.11005745596178185], [-0.1318259817332877, 0.4026967659136047], [-0.053046683696667, -0.06058584598870606], [0.042745683665752716, 0.304616966822181]]",density,black,,,N008,visual,1,[],"['1', '2', '3', '4']",1,2023.2.3,harveyvisual,2.1,[],8,0.75,
0,pause,0.4,None,None,None,0,189,189,189,,,,,,,,,,,,,N008,visual,1,[],"['1', '2', '3', '4']",1,2023.2.3,harveyvisual,2.1,[],8,0.75,
7,dot,0.3,['dot'],['density'],black,0,190,190,190,,,68.90022110939026,68.60981893539429,68.9098060131073,dot,"[0.1, 0.1, 0.06, 0.06, 0.08, 0.08, 0.08]","[[-0.08751196138777266, -0.40239331021683095], [-0.1389983634140625, -0.1821537091642013], [-0.5212097088452917, -0.15879536445288125], [-0.24197016774290594, 0.025691971861017886], [-0.324083892787021, -0.3083678109532634], [0.06465625853811506, -0.19815494036826437], [-0.2569867334647868, -0.5155038850209747]]",density,black,,,N008,visual,1,[],"['1', '2', '3', '4']",1,2023.2.3,harveyvisual,2.1,[],8,0.75,
0,pause,0.4,None,None,None,0,191,191,191,,,,,,,,,,,,,N008,visual,1,[],"['1', '2', '3', '4']",1,2023.2.3,harveyvisual,2.1,[],8,0.75,
6,dot,0.3,['dot'],['density'],black,0,192,192,192,,,69.60020804405212,69.30977892875671,69.6097800731659,dot,"[0.06, 0.1, 0.08, 0.08, 0.08, 0.06]","[[-0.2094991805307552, 0.08302354111181451], [0.09557258300728075, 0.3458622669714129], [0.22056408800171526, -0.017094369341425636], [0.026601936584830878, 0.1297564650757722], [-0.11681768564656844, 0.2726391152528644], [-0.03570146891163527, -0.09222923444939024]]",density,black,,,N008,visual,1,[],"['1', '2', '3', '4']",1,2023.2.3,harveyvisual,2.1,[],8,0.75,
0,pause,0.4,None,None,None,0,193,193,193,,,,,,,,,,,,,N008,visual,1,[],"['1', '2', '3', '4']",1,2023.2.3,harveyvisual,2.1,[],8,0.75,
6,dot,0.3,['dot'],['density'],black,0,194,194,194,,,70.30022501945496,70.00978112220764,70.30975794792175,dot,"[0.08, 0.08, 0.1, 0.08, 0.08, 0.08]","[[-0.3495133471434448, -0.27378397825191725], [-0.13100446626766318, 0.13866361521721876], [-0.5155090776439144, 0.11776884681908774], [-0.4780287848267884, -0.11588239978167382], [-0.11897161770401087, -0.0933943475842369], [-0.303431097341306, -0.010759678588622423]]",density,black,,,N008,visual,1,[],"['1', '2', '3', '4']",1,2023.2.3,harveyvisual,2.1,[],8,0.75,
0,pause,0.4,None,None,None,0,195,195,195,,,,,,,,,,,,,N008,visual,1,[],"['1', '2', '3', '4']",1,2023.2.3,harveyvisual,2.1,[],8,0.75,
6,dot,0.3,['dot'],['density'],white,0,196,196,196,,,71.00021600723267,70.70977306365967,71.00973510742188,dot,"[0.08, 0.06, 0.06, 0.08, 0.1, 0.08]","[[0.2333794889108542, 0.5108688068097712], [0.17720399199515413, 0.06488002481085814], [0.3526024925964592, 0.16961020277143707], [0.1596713132306006, 0.321837067503818], [0.0007438407140586783, 0.18344495120876914], [0.42757463853404776, 0.37786691715169374]]",density,white,,,N008,visual,1,[],"['1', '2', '3', '4']",1,2023.2.3,harveyvisual,2.1,[],8,0.75,
0,pause,0.4,None,None,None,0,197,197,197,,,,,,,,,,,1,71.23449182510376,N008,visual,1,[],"['1', '2', '3', '4']",1,2023.2.3,harveyvisual,2.1,[],8,0.75,
6,dot,0.3,['dot'],['density'],black,0,198,198,198,,,71.70020794868469,71.4097409248352,71.70972800254822,dot,"[0.06, 0.06, 0.08, 0.1, 0.1, 0.08]","[[-0.08086177951302478, 0.2470577028799217], [0.17809040740055945, 0.25721690350386706], [0.248993691455746, -0.144418230259854], [0.04260816027356476, -0.17251108440570345], [0.26201279645255604, 0.07253913185781388], [-0.0017619790798508912, 0.027830886297901026]]",density,black,,,N008,visual,1,[],"['1', '2', '3', '4']",1,2023.2.3,harveyvisual,2.1,[],8,0.75,
0,pause,0.4,None,None,None,0,199,199,199,,,,,,,,,,,,,N008,visual,1,[],"['1', '2', '3', '4']",1,2023.2.3,harveyvisual,2.1,[],8,0.75,
6,dot,0.3,['dot'],['density'],black,0,200,200,200,,,72.40023493766785,72.10985898971558,72.40984892845154,dot,"[0.1, 0.1, 0.1, 0.08, 0.1, 0.1]","[[-0.24492162854676555, 0.16704436901929823], [-0.3861886513150086, 0.35601694661450933], [-0.48514013682315105, 0.15596888098880124], [-0.5451465436738104, -0.12931683943359434], [-0.11772959853104834, 0.007676420150436517], [-0.35755989064212684, -0.03355234579502648]]",density,black,,,N008,visual,1,[],"['1', '2', '3', '4']",1,2023.2.3,harveyvisual,2.1,[],8,0.75,
0,pause,0.4,None,None,None,0,201,201,201,,,,,,,,,,,,,N008,visual,1,[],"['1', '2', '3', '4']",1,2023.2.3,harveyvisual,2.1,[],8,0.75,
6,dot,0.3,['dot'],['density'],black,0,202,202,202,,,73.10021901130676,72.80984497070312,73.10984802246094,dot,"[0.08, 0.1, 0.06, 0.08, 0.08, 0.06]","[[-0.5379788740814003, -0.011730333491669416], [-0.1820890739253136, -0.27973544868684425], [-0.07809457889047756, -0.09124846264896269], [-0.30616251401069866, -0.45101817852416426], [-0.44200878281119743, -0.26991620184617166], [-0.3315938551005316, -0.08696624632848979]]",density,black,,,N008,visual,1,[],"['1', '2', '3', '4']",1,2023.2.3,harveyvisual,2.1,[],8,0.75,
0,pause,0.4,None,None,None,0,203,203,203,,,,,,,,,,,,,N008,visual,1,[],"['1', '2', '3', '4']",1,2023.2.3,harveyvisual,2.1,[],8,0.75,
5,dot,0.3,['dot'],['density'],black,0,204,204,204,,,73.80022311210632,73.50983309745789,73.80980491638184,dot,"[0.06, 0.08, 0.06, 0.1, 0.1]","[[0.26736814946294957, 0.039639821311179], [0.3007085492035367, 0.3262250213434343], [0.4353907115448318, -0.11778011175670104], [0.4521497692138949, 0.1289853794543976], [0.1485908728023605, -0.12275462689891227]]",density,black,,,N008,visual,1,[],"['1', '2', '3', '4']",1,2023.2.3,harveyvisual,2.1,[],8,0.75,
0,pause,0.4,None,None,None,0,205,205,205,,,,,,,,,,,,,N008,visual,1,[],"['1', '2', '3', '4']",1,2023.2.3,harveyvisual,2.1,[],8,0.75,
5,dot,0.3,['dot'],['density'],black,0,206,206,206,,,74.50022506713867,74.20981192588806,74.50979995727539,dot,"[0.08, 0.1, 0.1, 0.1, 0.06]","[[-0.11834215492801986, 0.412508379109845], [0.31881799646300274, 0.30859303438359803], [-0.06368743078099719, 0.10105058071702504], [0.1133485112468387, 0.46262203184429457], [0.11957051434631445, 0.24197418837926052]]",density,black,,,N008,visual,1,[],"['1', '2', '3', '4']",1,2023.2.3,harveyvisual,2.1,[],8,0.75,
0,pause,0.4,None,None,None,0,207,207,207,,,,,,,,,,,,,N008,visual,1,[],"['1', '2', '3', '4']",1,2023.2.3,harveyvisual,2.1,[],8,0.75,
5,dot,0.3,['dot'],['density'],black,0,208,208,208,,,75.20022702217102,74.9097831249237,75.20977711677551,dot,"[0.08, 0.08, 0.08, 0.08, 0.08]","[[-0.16255238243643175, 0.17860987090823105], [-0.3708934258622909, -0.17994308192218272], [-0.3873401471382859, 0.23755408526324856], [-0.3082462149465763, 0.01808515368093923], [-0.09381294098683406, -0.04001219282613638]]",density,black,,,N008,visual,1,[],"['1', '2', '3', '4']",1,2023.2.3,harveyvisual,2.1,[],8,0.75,
0,pause,0.4,None,None,None,0,209,209,209,,,,,,,,,,,,,N008,visual,1,[],"['1', '2', '3', '4']",1,2023.2.3,harveyvisual,2.1,[],8,0.75,
5,dot,0.3,['dot'],['density'],black,0,210,210,210,,,75.90022897720337,75.60978293418884,75.90975713729858,dot,"[0.06, 0.08, 0.06, 0.1, 0.06]","[[0.029171133319913545, -0.11913068329317353], [-0.2981845944788078, -0.46624640290839614], [-0.1844599491613969, -0.04126455345730423], [-0.2900988597239497, -0.2493716418714862], [-0.0791391532727178, -0.3057260733699829]]",density,black,,,N008,visual,1,[],"['1', '2', '3', '4']",1,2023.2.3,harveyvisual,2.1,[],8,0.75,
0,pause,0.4,None,None,None,0,211,211,211,,,,,,,,,,,,,N008,visual,1,[],"['1', '2', '3', '4']",1,2023.2.3,harveyvisual,2.1,[],8,0.75,
5,dot,0.3,['dot'],['density'],black,0,212,212,212,,,76.60020899772644,76.30976295471191,76.6098120212555,dot,"[0.08, 0.1, 0.08, 0.06, 0.1]","[[0.33660852042816714, -0.448935078303268], [0.16237328695183198, -0.028906365321866932], [0.003149504206933677, -0.1844463225559013], [0.4065340125681681, -0.22407981263326276], [0.20027486954239768, -0.2346061295568129]]",density,black,,,N008,visual,1,[],"['1', '2', '3', '4']",1,2023.2.3,harveyvisual,2.1,[],8,0.75,
0,pause,0.4,None,None,None,0,213,213,213,,,,,,,,,,,,,N008,visual,1,[],"['1', '2', '3', '4']",1,2023.2.3,harveyvisual,2.1,[],8,0.75,
5,dot,0.3,['dot'],['density'],white,0,214,214,214,,,77.300213098526,77.00981307029724,77.3097870349884,dot,"[0.06, 0.08, 0.1, 0.1, 0.06]","[[-0.17224806752104949, 0.21128771658676965], [-0.35983128753182364, -0.1328600505582573], [-0.33716814897054914, 0.09708697582185674], [-0.044562237693599294, -0.03778919281981133], [-0.17109626387405982, -0.21732524013947077]]",density,white,,,N008,visual,1,[],"['1', '2', '3', '4']",1,2023.2.3,harveyvisual,2.1,[],8,0.75,
0,pause,0.4,None,None,None,0,215,215,215,,,,,,,,,,,,,N008,visual,1,[],"['1', '2', '3', '4']",1,2023.2.3,harveyvisual,2.1,[],8,0.75,
4,dot,0.3,['dot'],['density'],black,0,216,216,216,,,78.00024104118347,77.70960211753845,78.00958609580994,dot,"[0.06, 0.08, 0.08, 0.06]","[[0.2472118047986834, -0.10298318101898082], [0.5832669122255578, -0.0503561045998346], [0.411076479450662, -0.2641061246578253], [0.42907679660555237, 0.09101913809416001]]",density,black,1,77.87440395355225,N008,visual,1,[],"['1', '2', '3', '4']",1,2023.2.3,harveyvisual,2.1,[],8,0.75,
0,pause,0.4,None,None,None,0,217,217,217,,,,,,,,,,,,,N008,visual,1,[],"['1', '2', '3', '4']",1,2023.2.3,harveyvisual,2.1,[],8,0.75,
4,dot,0.3,['dot'],['density'],black,0,218,218,218,,,78.70022106170654,78.40980505943298,78.70979309082031,dot,"[0.1, 0.1, 0.06, 0.1]","[[0.06081986304483943, 0.35358512719402324], [0.4232304195196481, 0.14579533924648716], [0.12419639750553536, 0.133833625718984], [0.26609561976711055, 0.2970795792082364]]",density,black,,,N008,visual,1,[],"['1', '2', '3', '4']",1,2023.2.3,harveyvisual,2.1,[],8,0.75,
0,pause,0.4,None,None,None,0,219,219,219,,,,,,,,,,,,,N008,visual,1,[],"['1', '2', '3', '4']",1,2023.2.3,harveyvisual,2.1,[],8,0.75,
4,dot,0.3,['dot'],['density'],black,0,220,220,220,,,79.40022802352905,79.10978198051453,79.40968704223633,dot,"[0.06, 0.08, 0.08, 0.06]","[[-0.24231220575667195, -0.22966258239168486], [-0.5136420973432148, -0.13696856920477488], [-0.4300726721285167, 0.13088957628356482], [-0.3148289313469241, -0.03851715211982174]]",density,black,,,N008,visual,1,[],"['1', '2', '3', '4']",1,2023.2.3,harveyvisual,2.1,[],8,0.75,
0,pause,0.4,None,None,None,0,221,221,221,,,,,,,,,,,,,N008,visual,1,[],"['1', '2', '3', '4']",1,2023.2.3,harveyvisual,2.1,[],8,0.75,
4,dot,0.3,['dot'],['density'],black,0,222,222,222,,,80.10022497177124,79.80967497825623,80.10967898368835,dot,"[0.06, 0.1, 0.08, 0.08]","[[-0.24855901342904946, 0.4326179111294549], [-0.33066739519925503, 0.24314919490711104], [-0.015728317870896572, 0.5189617074191414], [-0.09686463175319387, 0.28200212383687606]]",density,black,,,N008,visual,1,[],"['1', '2', '3', '4']",1,2023.2.3,harveyvisual,2.1,[],8,0.75,
0,pause,0.4,None,None,None,0,223,223,223,,,,,,,,,,,,,N008,visual,1,[],"['1', '2', '3', '4']",1,2023.2.3,harveyvisual,2.1,[],8,0.75,
4,dot,0.3,['dot'],['density'],white,0,224,224,224,,,80.80023407936096,80.50966596603394,80.80967211723328,dot,"[0.1, 0.1, 0.08, 0.08]","[[-0.4771446773377139, 0.25157103962592786], [-0.4259846000875058, -0.15982147080050188], [-0.5514119563937664, 0.017569371675289724], [-0.3400083930451492, 0.09263869595453958]]",density,white,,,N008,visual,1,[],"['1', '2', '3', '4']",1,2023.2.3,harveyvisual,2.1,[],8,0.75,
0,pause,0.4,None,None,None,0,225,225,225,,,,,,,,,,,,,N008,visual,1,[],"['1', '2', '3', '4']",1,2023.2.3,harveyvisual,2.1,[],8,0.75,
4,dot,0.3,['dot'],['density'],black,0,226,226,226,,,81.50025796890259,81.2096700668335,81.50968813896179,dot,"[0.08, 0.08, 0.06, 0.08]","[[0.06081986304483943, 0.35358512719402324], [0.4232304195196481, 0.14579533924648716], [0.12419639750553536, 0.133833625718984], [0.26609561976711055, 0.2970795792082364]]",density,black,1,81.19583892822266,N008,visual,1,[],"['1', '2', '3', '4']",1,2023.2.3,harveyvisual,2.1,[],8,0.75,
0,pause,0.4,None,None,None,0,227,227,227,,,,,,,,,,,,,N008,visual,1,[],"['1', '2', '3', '4']",1,2023.2.3,harveyvisual,2.1,[],8,0.75,
3,dot,0.3,['dot'],['density'],black,0,228,228,228,,,82.20024013519287,81.90967607498169,82.2096779346466,dot,"[0.06, 0.1, 0.1]","[[0.2768253388883432, 0.03346297355107007], [0.11287187477499526, -0.09417797505773098], [0.09003622344097514, 0.12370024427926096]]",density,black,,,N008,visual,1,[],"['1', '2', '3', '4']",1,2023.2.3,harveyvisual,2.1,[],8,0.75,
0,pause,0.4,None,None,None,0,229,229,229,,,,,,,,,,,,,N008,visual,1,[],"['1', '2', '3', '4']",1,2023.2.3,harveyvisual,2.1,[],8,0.75,
3,dot,0.3,['dot'],['density'],black,0,230,230,230,,,82.90021109580994,82.60969400405884,82.90968799591064,dot,"[0.1, 0.08, 0.06]","[[-0.1599523582230929, -0.020289166781496174], [-0.3458010015304564, -0.14250622038001895], [-0.3538668896253721, 0.08903610231223419]]",density,black,,,N008,visual,1,[],"['1', '2', '3', '4']",1,2023.2.3,harveyvisual,2.1,[],8,0.75,
0,pause,0.4,None,None,None,0,231,231,231,,,,,,,,,,,,,N008,visual,1,[],"['1', '2', '3', '4']",1,2023.2.3,harveyvisual,2.1,[],8,0.75,
3,dot,0.3,['dot'],['density'],black,0,232,232,232,,,83.60022807121277,83.30959296226501,83.60958409309387,dot,"[0.1, 0.06, 0.1]","[[0.1555504186016049, 0.15532406847092056], [-0.0680535881648269, 0.26220909641571793], [0.08533315121688807, 0.39122308779032533]]",density,black,,,N008,visual,1,[],"['1', '2', '3', '4']",1,2023.2.3,harveyvisual,2.1,[],8,0.75,
0,pause,0.4,None,None,None,0,233,233,233,,,,,,,,,,,,,N008,visual,1,[],"['1', '2', '3', '4']",1,2023.2.3,harveyvisual,2.1,[],8,0.75,
3,dot,0.3,['dot'],['density'],black,0,234,234,234,,,84.30022811889648,84.00943112373352,84.30956506729126,dot,"[0.08, 0.1, 0.08]","[[0.13507679288784277, 0.012189921546254917], [0.31506600046810584, 0.10578898906948993], [0.12756957777796288, 0.2513869495778075]]",density,black,,,N008,visual,1,[],"['1', '2', '3', '4']",1,2023.2.3,harveyvisual,2.1,[],8,0.75,
0,pause,0.4,None,None,None,0,235,235,235,,,,,,,,,,,,,N008,visual,1,[],"['1', '2', '3', '4']",1,2023.2.3,harveyvisual,2.1,[],8,0.75,
3,dot,0.3,['dot'],['density'],white,0,236,236,236,,,85.0002429485321,84.70947003364563,85.00944805145264,dot,"[0.1, 0.1, 0.1]","[[-0.476501853024302, 0.3110516410681161], [-0.26865065753742645, 0.4732574608261889], [-0.2772428868380306, 0.2516539537451065]]",density,white,,,N008,visual,1,[],"['1', '2', '3', '4']",1,2023.2.3,harveyvisual,2.1,[],8,0.75,
0,pause,0.4,None,None,None,0,237,237,237,,,,,,,,,,,1,85.26730489730835,N008,visual,1,[],"['1', '2', '3', '4']",1,2023.2.3,harveyvisual,2.1,[],8,0.75,
3,dot,0.3,['dot'],['density'],black,0,238,238,238,,,85.7002170085907,85.40947794914246,85.70942807197571,dot,"[0.06, 0.1, 0.1]","[[0.13574725429899362, -0.5423283227425341], [-0.036793286563257144, -0.3768814925557267], [0.16175487704753985, -0.3348017255345844]]",density,black,,,N008,visual,1,[],"['1', '2', '3', '4']",1,2023.2.3,harveyvisual,2.1,[],8,0.75,
0,pause,0.4,None,None,None,0,239,239,239,,,,,,,,,,,,,N008,visual,1,[],"['1', '2', '3', '4']",1,2023.2.3,harveyvisual,2.1,[],8,0.75,
2,dot,0.3,['dot'],['density'],black,0,240,240,240,,,86.40023612976074,86.10942506790161,86.40941500663757,dot,"[0.08, 0.06]","[[0.500151128333041, 0.1656925720118866], [0.3771979967144504, 0.3235340638115745]]",density,black,,,N008,visual,1,[],"['1', '2', '3', '4']",1,2023.2.3,harveyvisual,2.1,[],8,0.75,
0,pause,0.4,None,None,None,0,241,241,241,,,,,,,,,,,,,N008,visual,1,[],"['1', '2', '3', '4']",1,2023.2.3,harveyvisual,2.1,[],8,0.75,
2,dot,0.3,['dot'],['density'],black,0,242,242,242,,,87.1002299785614,86.80941605567932,87.1094069480896,dot,"[0.08, 0.08]","[[0.3859848860398513, -0.03650274153894256], [0.5613034441480618, 0.06134992989862206]]",density,black,,,N008,visual,1,[],"['1', '2', '3', '4']",1,2023.2.3,harveyvisual,2.1,[],8,0.75,
0,pause,0.4,None,None,None,0,243,243,243,,,,,,,,,,,,,N008,visual,1,[],"['1', '2', '3', '4']",1,2023.2.3,harveyvisual,2.1,[],8,0.75,
2,dot,0.3,['dot'],['density'],black,0,244,244,244,,,87.80022692680359,87.50940608978271,87.80940413475037,dot,"[0.1, 0.1]","[[0.002249876020969301, 0.20442088447143333], [-0.056293345030126195, 0.39599742374220376]]",density,black,,,N008,visual,1,[],"['1', '2', '3', '4']",1,2023.2.3,harveyvisual,2.1,[],8,0.75,
0,pause,0.4,None,None,None,0,245,245,245,,,,,,,,,,,,,N008,visual,1,[],"['1', '2', '3', '4']",1,2023.2.3,harveyvisual,2.1,[],8,0.75,
2,dot,0.3,['dot'],['density'],black,0,246,246,246,,,88.50024008750916,88.20938396453857,88.50938606262207,dot,"[0.08, 0.08]","[[0.11437717294043931, -0.408092871188616], [0.012734947149558614, -0.23578585574018435]]",density,black,,,N008,visual,1,[],"['1', '2', '3', '4']",1,2023.2.3,harveyvisual,2.1,[],8,0.75,
0,pause,0.4,None,None,None,0,247,247,247,,,,,,,,,,,,,N008,visual,1,[],"['1', '2', '3', '4']",1,2023.2.3,harveyvisual,2.1,[],8,0.75,
2,dot,0.3,['dot'],['density'],black,0,248,248,248,,,89.2002260684967,88.90938401222229,89.2094349861145,dot,"[0.08, 0.06]","[[0.24265818653156754, -0.3775895252336694], [0.4224299169789366, -0.289759305909148]]",density,black,,,N008,visual,1,[],"['1', '2', '3', '4']",1,2023.2.3,harveyvisual,2.1,[],8,0.75,
0,pause,0.4,None,None,None,0,249,249,249,,,,,,,,,,,,,N008,visual,1,[],"['1', '2', '3', '4']",1,2023.2.3,harveyvisual,2.1,[],8,0.75,
2,dot,0.3,['dot'],['density'],black,0,250,250,250,,,89.90022110939026,89.60928893089294,89.90930008888245,dot,"[0.08, 0.08]","[[-0.16440981108753766, 0.5378091218652469], [-0.08422838651173449, 0.35445914222875186]]",density,black,,,N008,visual,1,[],"['1', '2', '3', '4']",1,2023.2.3,harveyvisual,2.1,[],8,0.75,
0,pause,0.4,None,None,None,0,251,251,251,,,,,,,,,,,,,N008,visual,1,[],"['1', '2', '3', '4']",1,2023.2.3,harveyvisual,2.1,[],8,0.75,
1,dot,0.3,['dot'],['density'],black,0,252,252,252,,,90.6002299785614,90.3094220161438,90.6094069480896,dot,[0.06],"[-0.1989246115662565, -0.15069844343359862]",density,black,,,N008,visual,1,[],"['1', '2', '3', '4']",1,2023.2.3,harveyvisual,2.1,[],8,0.75,
0,pause,0.4,None,None,None,0,253,253,253,,,,,,,,,,,,,N008,visual,1,[],"['1', '2', '3', '4']",1,2023.2.3,harveyvisual,2.1,[],8,0.75,
1,dot,0.3,['dot'],['density'],white,0,254,254,254,,,91.30023694038391,91.00926613807678,91.3093991279602,dot,[0.1],"[0.0038807231877187303, -0.2777732366953785]",density,white,,,N008,visual,1,[],"['1', '2', '3', '4']",1,2023.2.3,harveyvisual,2.1,[],8,0.75,
0,pause,0.4,None,None,None,0,255,255,255,,,,,,,,,,,,,N008,visual,1,[],"['1', '2', '3', '4']",1,2023.2.3,harveyvisual,2.1,[],8,0.75,
1,dot,0.3,['dot'],['density'],black,0,256,256,256,,,92.00022411346436,91.70939898490906,92.00922799110413,dot,[0.08],"[0.5363314188299194, -0.14809861569100125]",density,black,,,N008,visual,1,[],"['1', '2', '3', '4']",1,2023.2.3,harveyvisual,2.1,[],8,0.75,
0,pause,0.4,None,None,None,0,257,257,257,,,,,,,,,,,,,N008,visual,1,[],"['1', '2', '3', '4']",1,2023.2.3,harveyvisual,2.1,[],8,0.75,
1,dot,0.3,['dot'],['density'],black,0,258,258,258,,,92.70021605491638,92.40938901901245,92.70936703681946,dot,[0.06],"[0.01430498756481247, 0.36429701967127975]",density,black,,,N008,visual,1,[],"['1', '2', '3', '4']",1,2023.2.3,harveyvisual,2.1,[],8,0.75,
0,pause,0.4,None,None,None,0,259,259,259,,,,,,,,,,,,,N008,visual,1,[],"['1', '2', '3', '4']",1,2023.2.3,harveyvisual,2.1,[],8,0.75,
1,dot,0.3,['dot'],['density'],black,0,260,260,260,,,93.40021300315857,93.10925793647766,93.40936994552612,dot,[0.06],"[0.1771264825789444, 0.012298414170669998]",density,black,,,N008,visual,1,[],"['1', '2', '3', '4']",1,2023.2.3,harveyvisual,2.1,[],8,0.75,
0,pause,0.4,None,None,None,0,261,261,261,,,,,,,,,,,,,N008,visual,1,[],"['1', '2', '3', '4']",1,2023.2.3,harveyvisual,2.1,[],8,0.75,
1,dot,0.3,['dot'],['density'],black,0,262,262,262,,,94.1002140045166,93.80936694145203,94.1092300415039,dot,[0.08],"[0.5363314188299194, -0.14809861569100125]",density,black,,,N008,visual,1,[],"['1', '2', '3', '4']",1,2023.2.3,harveyvisual,2.1,[],8,0.75,
0,pause,0.4,None,None,None,0,263,263,263,,,,,,,,,,,,,N008,visual,1,[],"['1', '2', '3', '4']",1,2023.2.3,harveyvisual,2.1,[],8,0.75,
20,dot,0.3,['dot'],['density'],black,0,264,264,264,,,94.80023002624512,94.52602291107178,94.80933809280396,dot,"[0.06, 0.06, 0.1, 0.1, 0.08, 0.1, 0.06, 0.08, 0.06, 0.08, 0.1, 0.08, 0.1, 0.1, 0.1, 0.06, 0.1, 0.08, 0.08, 0.06]","[[-0.1347816545518008, 0.25674789680998944], [-0.13336027280578638, -0.05619309703158071], [0.42022151988021716, 0.1647991788780157], [-0.5953631868066004, 0.0014437066286896172], [-0.47428378682639316, -0.30118386555102417], [-0.18494655976146362, 0.4591691384821438], [0.43870841690174645, -0.06257183872064914], [-0.4618992240893708, 0.222370558170992], [0.14407381392935326, 0.5526299794930133], [0.2612633291697297, -0.5401753214616613], [-0.10621718076670472, -0.29007377564571607], [0.3987490125986911, 0.39041120142967844], [-0.32769878556933113, 0.012287609251297349], [0.07521465685044337, -0.1337928230044963], [-0.40081007200030655, 0.41939408449812277], [0.26559394438958583, -0.1530708001083098], [0.048804319957888476, -0.45520759873818156], [0.1338320487908763, 0.10149818652978915], [0.2407418418630437, 0.26783428767620054], [-0.3180530722583813, -0.4934235599971396]]",density,black,,,N008,visual,1,[],"['1', '2', '3', '4']",1,2023.2.3,harveyvisual,2.1,[],8,0.75,
0,pause,0.4,None,None,None,0,265,265,265,,,,,,,,,,,,,N008,visual,1,[],"['1', '2', '3', '4']",1,2023.2.3,harveyvisual,2.1,[],8,0.75,
20,dot,0.3,['dot'],['density'],black,0,266,266,266,,,95.50022196769714,95.2259910106659,95.50929808616638,dot,"[0.08, 0.08, 0.06, 0.06, 0.06, 0.08, 0.08, 0.1, 0.08, 0.08, 0.1, 0.06, 0.1, 0.06, 0.08, 0.08, 0.1, 0.06, 0.06, 0.1]","[[-0.060551883725033395, 0.49161816415646475], [0.31011825552801586, -0.36940910007193956], [0.19281131811298824, -0.5252057212313399], [-0.06753129404973668, 0.07478770360204001], [-0.07727102828673249, 0.28745400937293175], [0.13432690841352435, 0.4204788949882281], [-0.4260469256913976, 0.2792568057853493], [-0.5599721765080623, 0.06686216155686306], [-0.29891493256695284, -0.37675613848301653], [0.18984310422427086, 0.006180553259537702], [0.3173737396010424, 0.49173868154187605], [-0.008526524184882533, -0.45901219728164844], [0.5272012223071566, -0.033666201742659496], [-0.42370224217182695, -0.12872793182658687], [-0.10580868535254734, -0.16052282679268215], [-0.3379369191487555, 0.4679259678775992], [-0.28737059300259393, 0.11375142871802157], [0.47376246690904444, 0.36623004608172094], [0.35030180948974776, -0.14281174010560216], [0.5008486142873091, 0.17569012542988016]]",density,black,,,N008,visual,1,[],"['1', '2', '3', '4']",1,2023.2.3,harveyvisual,2.1,[],8,0.75,
0,pause,0.4,None,None,None,0,267,267,267,,,,,,,,,,,,,N008,visual,1,[],"['1', '2', '3', '4']",1,2023.2.3,harveyvisual,2.1,[],8,0.75,
