num,mod,duration,shape,ll_cond,colors,.thisRepN,.thisTrialN,.thisN,.thisIndex,thisRow.t,notes,raw_global_time,t_start,t_stop,shapes,size,pos,cond,color,button,RT,participant,session,starting_run,left button (match/odd),right button (non-match/even),samples_per_block,psychopy version,expName,offset,audio,number_runs,radius,
1,dot,0.3,['dot'],['density'],black,0,0,0,0,,,2.4002010822296143,2.1044859886169434,2.4044189453125,dot,[0.1],"[0.0956549371127339, 0.09579573331985794]",density,black,,,N008,visual,8,[],"['1', '2', '3', '4']",1,2023.2.3,harveyvisual,2.1,[],8,0.75,
0,pause,0.4,None,None,None,0,1,1,1,,,,,,,,,,,,,N008,visual,8,[],"['1', '2', '3', '4']",1,2023.2.3,harveyvisual,2.1,[],8,0.75,
1,dot,0.3,['dot'],['density'],black,0,2,2,2,,,3.100208044052124,2.8044750690460205,3.1043648719787598,dot,[0.1],"[0.46628601751002285, 0.12197617226191985]",density,black,,,N008,visual,8,[],"['1', '2', '3', '4']",1,2023.2.3,harveyvisual,2.1,[],8,0.75,
0,pause,0.4,None,None,None,0,3,3,3,,,,,,,,,,,,,N008,visual,8,[],"['1', '2', '3', '4']",1,2023.2.3,harveyvisual,2.1,[],8,0.75,
1,dot,0.3,['dot'],['density'],black,0,4,4,4,,,3.800199031829834,3.504395008087158,3.8043909072875977,dot,[0.06],"[-0.3631366314731191, 0.1590646049745197]",density,black,,,N008,visual,8,[],"['1', '2', '3', '4']",1,2023.2.3,harveyvisual,2.1,[],8,0.75,
0,pause,0.4,None,None,None,0,5,5,5,,,,,,,,,,,,,N008,visual,8,[],"['1', '2', '3', '4']",1,2023.2.3,harveyvisual,2.1,[],8,0.75,
1,dot,0.3,['dot'],['density'],black,0,6,6,6,,,4.50021505355835,4.204499006271362,4.504366874694824,dot,[0.08],"[-0.13294789447644317, -0.0050084293737640015]",density,black,,,N008,visual,8,[],"['1', '2', '3', '4']",1,2023.2.3,harveyvisual,2.1,[],8,0.75,
0,pause,0.4,None,None,None,0,7,7,7,,,,,,,,,,,,,N008,visual,8,[],"['1', '2', '3', '4']",1,2023.2.3,harveyvisual,2.1,[],8,0.75,
1,dot,0.3,['dot'],['density'],black,0,8,8,8,,,5.200203895568848,4.904339075088501,5.204355955123901,dot,[0.08],"[0.25023401086931774, -0.3984124620602511]",density,black,,,N008,visual,8,[],"['1', '2', '3', '4']",1,2023.2.3,harveyvisual,2.1,[],8,0.75,
0,pause,0.4,None,None,None,0,9,9,9,,,,,,,,,,,,,N008,visual,8,[],"['1', '2', '3', '4']",1,2023.2.3,harveyvisual,2.1,[],8,0.75,
1,dot,0.3,['dot'],['density'],black,0,10,10,10,,,5.900202035903931,5.60432505607605,5.904309988021851,dot,[0.1],"[-0.1989246115662565, -0.15069844343359862]",density,black,,,N008,visual,8,[],"['1', '2', '3', '4']",1,2023.2.3,harveyvisual,2.1,[],8,0.75,
0,pause,0.4,None,None,None,0,11,11,11,,,,,,,,,,,,,N008,visual,8,[],"['1', '2', '3', '4']",1,2023.2.3,harveyvisual,2.1,[],8,0.75,
2,dot,0.3,['dot'],['density'],black,0,12,12,12,,,6.600203990936279,6.304305076599121,6.604314088821411,dot,"[0.08, 0.06]","[[0.3859848860398513, -0.03650274153894256], [0.5613034441480618, 0.06134992989862206]]",density,black,,,N008,visual,8,[],"['1', '2', '3', '4']",1,2023.2.3,harveyvisual,2.1,[],8,0.75,
0,pause,0.4,None,None,None,0,13,13,13,,,,,,,,,,,,,N008,visual,8,[],"['1', '2', '3', '4']",1,2023.2.3,harveyvisual,2.1,[],8,0.75,
2,dot,0.3,['dot'],['density'],black,0,14,14,14,,,7.300214052200317,7.0042688846588135,7.304288864135742,dot,"[0.06, 0.1]","[[0.11437717294043931, -0.408092871188616], [0.012734947149558614, -0.23578585574018435]]",density,black,,,N008,visual,8,[],"['1', '2', '3', '4']",1,2023.2.3,harveyvisual,2.1,[],8,0.75,
0,pause,0.4,None,None,None,0,15,15,15,,,,,,,,,,,,,N008,visual,8,[],"['1', '2', '3', '4']",1,2023.2.3,harveyvisual,2.1,[],8,0.75,
2,dot,0.3,['dot'],['density'],black,0,16,16,16,,,8.00022292137146,7.70428991317749,8.004240989685059,dot,"[0.08, 0.1]","[[0.06661886780735636, -0.3109770134588511], [-0.03502229105109153, -0.4833380692870097]]",density,black,,,N008,visual,8,[],"['1', '2', '3', '4']",1,2023.2.3,harveyvisual,2.1,[],8,0.75,
0,pause,0.4,None,None,None,0,17,17,17,,,,,,,,,,,,,N008,visual,8,[],"['1', '2', '3', '4']",1,2023.2.3,harveyvisual,2.1,[],8,0.75,
2,dot,0.3,['dot'],['density'],black,0,18,18,18,,,8.700216054916382,8.404406070709229,8.704278945922852,dot,"[0.06, 0.06]","[[-0.3970652553054307, 0.36151140161898554], [-0.22306532646831484, 0.26288994227005946]]",density,black,,,N008,visual,8,[],"['1', '2', '3', '4']",1,2023.2.3,harveyvisual,2.1,[],8,0.75,
0,pause,0.4,None,None,None,0,19,19,19,,,,,,,,,,,,,N008,visual,8,[],"['1', '2', '3', '4']",1,2023.2.3,harveyvisual,2.1,[],8,0.75,
2,dot,0.3,['dot'],['density'],black,0,20,20,20,,,9.400218963623047,9.104233980178833,9.404206037521362,dot,"[0.1, 0.1]","[[-0.020654750029313704, 0.3891656546739414], [-0.0007759068931318763, 0.19000611836641118]]",density,black,,,N008,visual,8,[],"['1', '2', '3', '4']",1,2023.2.3,harveyvisual,2.1,[],8,0.75,
0,pause,0.4,None,None,None,0,21,21,21,,,,,,,,,,,,,N008,visual,8,[],"['1', '2', '3', '4']",1,2023.2.3,harveyvisual,2.1,[],8,0.75,
2,dot,0.3,['dot'],['density'],black,0,22,22,22,,,10.100208044052124,9.80424690246582,10.104218006134033,dot,"[0.06, 0.06]","[[-0.1809096912417549, 0.4542701565657042], [0.018526046348631375, 0.4698330185089162]]",density,black,,,N008,visual,8,[],"['1', '2', '3', '4']",1,2023.2.3,harveyvisual,2.1,[],8,0.75,
0,pause,0.4,None,None,None,0,23,23,23,,,,,,,,,,,,,N008,visual,8,[],"['1', '2', '3', '4']",1,2023.2.3,harveyvisual,2.1,[],8,0.75,
3,dot,0.3,['dot'],['density'],white,0,24,24,24,,,10.800204992294312,10.504181861877441,10.804190874099731,dot,"[0.06, 0.08, 0.1]","[[0.3835821938049364, -0.20766469641190155], [0.321707527308891, -0.4175939354614905], [0.1897943789354585, -0.2642367600490923]]",density,white,,,N008,visual,8,[],"['1', '2', '3', '4']",1,2023.2.3,harveyvisual,2.1,[],8,0.75,
0,pause,0.4,None,None,None,0,25,25,25,,,,,,,,,,,1,10.45165205001831,N008,visual,8,[],"['1', '2', '3', '4']",1,2023.2.3,harveyvisual,2.1,[],8,0.75,
3,dot,0.3,['dot'],['density'],black,0,26,26,26,,,11.50021505355835,11.204156875610352,11.504740953445435,dot,"[0.08, 0.1, 0.1]","[[-0.17720328293608806, -0.4514300161601115], [0.022754438065530718, -0.42143894503716073], [-0.10940085810899225, -0.24791511077847575]]",density,black,,,N008,visual,8,[],"['1', '2', '3', '4']",1,2023.2.3,harveyvisual,2.1,[],8,0.75,
0,pause,0.4,None,None,None,0,27,27,27,,,,,,,,,,,,,N008,visual,8,[],"['1', '2', '3', '4']",1,2023.2.3,harveyvisual,2.1,[],8,0.75,
3,dot,0.3,['dot'],['density'],black,0,28,28,28,,,12.200198888778687,11.904680967330933,12.2047278881073,dot,"[0.06, 0.08, 0.1]","[[0.13574725429899362, -0.5423283227425341], [-0.036793286563257144, -0.3768814925557267], [0.16175487704753985, -0.3348017255345844]]",density,black,,,N008,visual,8,[],"['1', '2', '3', '4']",1,2023.2.3,harveyvisual,2.1,[],8,0.75,
0,pause,0.4,None,None,None,0,29,29,29,,,,,,,,,,,,,N008,visual,8,[],"['1', '2', '3', '4']",1,2023.2.3,harveyvisual,2.1,[],8,0.75,
3,dot,0.3,['dot'],['density'],black,0,30,30,30,,,12.90020489692688,12.60471796989441,12.904531002044678,dot,"[0.06, 0.08, 0.06]","[[0.3935061822875672, 0.2255916562549388], [0.5507663609445765, 0.05974239467682067], [0.33737455125106675, -0.013318187219183488]]",density,black,,,N008,visual,8,[],"['1', '2', '3', '4']",1,2023.2.3,harveyvisual,2.1,[],8,0.75,
0,pause,0.4,None,None,None,0,31,31,31,,,,,,,,,,,,,N008,visual,8,[],"['1', '2', '3', '4']",1,2023.2.3,harveyvisual,2.1,[],8,0.75,
3,dot,0.3,['dot'],['density'],black,0,32,32,32,,,13.600205898284912,13.305268049240112,13.604707956314087,dot,"[0.06, 0.08, 0.1]","[[-0.15674404860239688, -0.25078459247658497], [0.006578924124220241, -0.41324131210186005], [0.06959682433872849, -0.20549031443856539]]",density,black,,,N008,visual,8,[],"['1', '2', '3', '4']",1,2023.2.3,harveyvisual,2.1,[],8,0.75,
0,pause,0.4,None,None,None,0,33,33,33,,,,,,,,,,,,,N008,visual,8,[],"['1', '2', '3', '4']",1,2023.2.3,harveyvisual,2.1,[],8,0.75,
3,dot,0.3,['dot'],['density'],black,0,34,34,34,,,14.300211906433105,14.004626989364624,14.323605060577393,dot,"[0.1, 0.06, 0.1]","[[-0.42255820389626353, 0.35871945956833473], [-0.19896656331745483, 0.3032224324013186], [-0.25553590712368324, 0.5056038804507684]]",density,black,,,N008,visual,8,[],"['1', '2', '3', '4']",1,2023.2.3,harveyvisual,2.1,[],8,0.75,
0,pause,0.4,None,None,None,0,35,35,35,,,,,,,,,,,,,N008,visual,8,[],"['1', '2', '3', '4']",1,2023.2.3,harveyvisual,2.1,[],8,0.75,
4,dot,0.3,['dot'],['density'],black,0,36,36,36,,,15.000205993652344,14.706939935684204,15.02355408668518,dot,"[0.06, 0.06, 0.06, 0.06]","[[-0.46485289602757673, 0.3603628353310837], [-0.30733625211232357, 0.21626236973196436], [-0.38991578213366157, 0.024479253410336757], [-0.570234662048439, 0.14093512067028166]]",density,black,,,N008,visual,8,[],"['1', '2', '3', '4']",1,2023.2.3,harveyvisual,2.1,[],8,0.75,
0,pause,0.4,None,None,None,0,37,37,37,,,,,,,,,,,,,N008,visual,8,[],"['1', '2', '3', '4']",1,2023.2.3,harveyvisual,2.1,[],8,0.75,
4,dot,0.3,['dot'],['density'],black,0,38,38,38,,,15.70020604133606,15.40692400932312,15.723578929901123,dot,"[0.08, 0.06, 0.1, 0.08]","[[0.107131415583101, 0.03171316484874249], [0.3330877778846877, 0.14211400081541528], [0.23058747141838212, -0.24340322486593785], [0.3173726134345681, -0.05921806988573682]]",density,black,,,N008,visual,8,[],"['1', '2', '3', '4']",1,2023.2.3,harveyvisual,2.1,[],8,0.75,
0,pause,0.4,None,None,None,0,39,39,39,,,,,,,,,,,,,N008,visual,8,[],"['1', '2', '3', '4']",1,2023.2.3,harveyvisual,2.1,[],8,0.75,
4,dot,0.3,['dot'],['density'],white,0,40,40,40,,,16.400222063064575,16.106863021850586,16.423553943634033,dot,"[0.1, 0.08, 0.06, 0.1]","[[0.010836700166572746, 0.3385055392368038], [-0.21755291078517647, 0.23172276430217797], [0.04881011250022837, 0.13413393103699342], [-0.16894730197854985, 0.4434327172909165]]",density,white,,,N008,visual,8,[],"['1', '2', '3', '4']",1,2023.2.3,harveyvisual,2.1,[],8,0.75,
0,pause,0.4,None,None,None,0,41,41,41,,,,,,,,,,,1,16.173542976379395,N008,visual,8,[],"['1', '2', '3', '4']",1,2023.2.3,harveyvisual,2.1,[],8,0.75,
4,dot,0.3,['dot'],['density'],black,0,42,42,42,,,17.100204944610596,16.806866884231567,17.12351107597351,dot,"[0.08, 0.08, 0.1, 0.08]","[[-0.22711054503220823, -0.5144049053218714], [-0.016307770745122817, -0.5558659767831347], [-0.26432457165568224, -0.2824025039497699], [-0.026303944553407815, -0.34464361634901186]]",density,black,,,N008,visual,8,[],"['1', '2', '3', '4']",1,2023.2.3,harveyvisual,2.1,[],8,0.75,
0,pause,0.4,None,None,None,0,43,43,43,,,,,,,,,,,,,N008,visual,8,[],"['1', '2', '3', '4']",1,2023.2.3,harveyvisual,2.1,[],8,0.75,
4,dot,0.3,['dot'],['density'],black,0,44,44,44,,,17.800200939178467,17.506865978240967,17.82352900505066,dot,"[0.08, 0.06, 0.08, 0.06]","[[0.17852470546651972, -0.2012438881607824], [-0.031034799765910746, -0.12466087783573923], [0.008996399474264666, -0.3229379719524122], [0.15114343287780646, 0.03986859122442722]]",density,black,,,N008,visual,8,[],"['1', '2', '3', '4']",1,2023.2.3,harveyvisual,2.1,[],8,0.75,
0,pause,0.4,None,None,None,0,45,45,45,,,,,,,,,,,,,N008,visual,8,[],"['1', '2', '3', '4']",1,2023.2.3,harveyvisual,2.1,[],8,0.75,
4,dot,0.3,['dot'],['density'],black,0,46,46,46,,,18.500216960906982,18.206815004348755,18.523536920547485,dot,"[0.06, 0.06, 0.1, 0.06]","[[0.15462156444594843, 0.0379601134824338], [-0.046642739949193296, 0.06510400621286498], [0.12320708371464141, 0.2499967514902957], [-0.13279798436850673, 0.2624558601457805]]",density,black,,,N008,visual,8,[],"['1', '2', '3', '4']",1,2023.2.3,harveyvisual,2.1,[],8,0.75,
0,pause,0.4,None,None,None,0,47,47,47,,,,,,,,,,,,,N008,visual,8,[],"['1', '2', '3', '4']",1,2023.2.3,harveyvisual,2.1,[],8,0.75,
5,dot,0.3,['dot'],['density'],black,0,48,48,48,,,19.20022988319397,18.906826972961426,19.223448991775513,dot,"[0.06, 0.08, 0.08, 0.1, 0.08]","[[-0.20882687658313398, 0.05979685123170853], [0.07709165915785691, 0.33819008637117026], [0.02323578322535992, 0.12175330968231063], [0.02522363087913582, -0.08718927316059993], [-0.12152044988768049, 0.28453648995279207]]",density,black,,,N008,visual,8,[],"['1', '2', '3', '4']",1,2023.2.3,harveyvisual,2.1,[],8,0.75,
0,pause,0.4,None,None,None,0,49,49,49,,,,,,,,,,,,,N008,visual,8,[],"['1', '2', '3', '4']",1,2023.2.3,harveyvisual,2.1,[],8,0.75,
5,dot,0.3,['dot'],['density'],black,0,50,50,50,,,19.90020990371704,19.606783866882324,19.923464059829712,dot,"[0.06, 0.08, 0.1, 0.08, 0.08]","[[0.10558973120531606, -0.20428866875977839], [-0.0893225412758366, 0.16524926947551877], [-0.05793580974794309, -0.07826743033729393], [0.11130747138107101, 0.10875249109580729], [0.28035132100960686, -0.09064984251937742]]",density,black,,,N008,visual,8,[],"['1', '2', '3', '4']",1,2023.2.3,harveyvisual,2.1,[],8,0.75,
0,pause,0.4,None,None,None,0,51,51,51,,,,,,,,,,,,,N008,visual,8,[],"['1', '2', '3', '4']",1,2023.2.3,harveyvisual,2.1,[],8,0.75,
5,dot,0.3,['dot'],['density'],black,0,52,52,52,,,20.600214958190918,20.306801080703735,20.623411893844604,dot,"[0.06, 0.06, 0.06, 0.06, 0.08]","[[0.21791283729510122, -0.3451859720731072], [0.5246150578842218, -0.1749209719782184], [0.23417080448362212, 0.06149420791510773], [0.21628546435715315, -0.14179681516434317], [0.46094971099473236, 0.03541120369123469]]",density,black,,,N008,visual,8,[],"['1', '2', '3', '4']",1,2023.2.3,harveyvisual,2.1,[],8,0.75,
0,pause,0.4,None,None,None,0,53,53,53,,,,,,,,,,,,,N008,visual,8,[],"['1', '2', '3', '4']",1,2023.2.3,harveyvisual,2.1,[],8,0.75,
5,dot,0.3,['dot'],['density'],black,0,54,54,54,,,21.300209999084473,21.006739854812622,21.323430061340332,dot,"[0.06, 0.1, 0.08, 0.1, 0.1]","[[-0.3632963637400461, -0.33792544526642676], [-0.48189922448633543, -0.036156829306921726], [-0.2958020468624338, 0.07292024124872273], [-0.10639492237515816, -0.0008972940205680791], [-0.20818262001932955, -0.17666930306052683]]",density,black,,,N008,visual,8,[],"['1', '2', '3', '4']",1,2023.2.3,harveyvisual,2.1,[],8,0.75,
0,pause,0.4,None,None,None,0,55,55,55,,,,,,,,,,,,,N008,visual,8,[],"['1', '2', '3', '4']",1,2023.2.3,harveyvisual,2.1,[],8,0.75,
5,dot,0.3,['dot'],['density'],black,0,56,56,56,,,22.000230073928833,21.70675802230835,22.023386001586914,dot,"[0.1, 0.1, 0.06, 0.1, 0.08]","[[-0.11834215492801986, 0.412508379109845], [0.31881799646300274, 0.30859303438359803], [-0.06368743078099719, 0.10105058071702504], [0.1133485112468387, 0.46262203184429457], [0.11957051434631445, 0.24197418837926052]]",density,black,,,N008,visual,8,[],"['1', '2', '3', '4']",1,2023.2.3,harveyvisual,2.1,[],8,0.75,
0,pause,0.4,None,None,None,0,57,57,57,,,,,,,,,,,,,N008,visual,8,[],"['1', '2', '3', '4']",1,2023.2.3,harveyvisual,2.1,[],8,0.75,
5,dot,0.3,['dot'],['density'],black,0,58,58,58,,,22.70021104812622,22.40672492980957,22.723392963409424,dot,"[0.1, 0.1, 0.08, 0.1, 0.08]","[[0.05896558140131438, -0.5342250951568444], [0.41924064092593105, -0.38742881471212404], [0.0789485457987589, -0.15857793529431863], [0.19859038409043042, -0.3300393182504279], [-0.04229804568701367, -0.31959008629620334]]",density,black,,,N008,visual,8,[],"['1', '2', '3', '4']",1,2023.2.3,harveyvisual,2.1,[],8,0.75,
0,pause,0.4,None,None,None,0,59,59,59,,,,,,,,,,,,,N008,visual,8,[],"['1', '2', '3', '4']",1,2023.2.3,harveyvisual,2.1,[],8,0.75,
6,dot,0.3,['dot'],['density'],black,0,60,60,60,,,23.400224924087524,23.10670304298401,23.423358917236328,dot,"[0.08, 0.1, 0.1, 0.1, 0.06, 0.1]","[[0.4838288853419304, 0.012393783640839304], [0.3357737587390128, 0.3939464288632381], [0.48781910936274964, 0.21484656822060386], [0.038497076365425514, 0.2266532147795764], [0.13074852606734502, 0.009493629341700475], [0.2855531954453259, 0.1811044151544938]]",density,black,,,N008,visual,8,[],"['1', '2', '3', '4']",1,2023.2.3,harveyvisual,2.1,[],8,0.75,
0,pause,0.4,None,None,None,0,61,61,61,,,,,,,,,,,,,N008,visual,8,[],"['1', '2', '3', '4']",1,2023.2.3,harveyvisual,2.1,[],8,0.75,
6,dot,0.3,['dot'],['density'],black,0,62,62,62,,,24.100225925445557,23.806691884994507,24.124433040618896,dot,"[0.08, 0.08, 0.1, 0.08, 0.08, 0.08]","[[0.1442800129286608, -0.025670240792647715], [-0.253335145558221, 0.06312541807928282], [0.15340240856287354, 0.2410349392962658], [-0.1639657784688781, 0.25075335361279655], [-0.07910231793701084, -0.12784096878077061], [-0.011661193723423325, 0.11361106492824657]]",density,black,,,N008,visual,8,[],"['1', '2', '3', '4']",1,2023.2.3,harveyvisual,2.1,[],8,0.75,
0,pause,0.4,None,None,None,0,63,63,63,,,,,,,,,,,,,N008,visual,8,[],"['1', '2', '3', '4']",1,2023.2.3,harveyvisual,2.1,[],8,0.75,
6,dot,0.3,['dot'],['density'],black,0,64,64,64,,,24.800217866897583,24.506684064865112,24.82336187362671,dot,"[0.06, 0.06, 0.08, 0.08, 0.1, 0.08]","[[-0.3495133471434448, -0.27378397825191725], [-0.13100446626766318, 0.13866361521721876], [-0.5155090776439144, 0.11776884681908774], [-0.4780287848267884, -0.11588239978167382], [-0.11897161770401087, -0.0933943475842369], [-0.303431097341306, -0.010759678588622423]]",density,black,,,N008,visual,8,[],"['1', '2', '3', '4']",1,2023.2.3,harveyvisual,2.1,[],8,0.75,
0,pause,0.4,None,None,None,0,65,65,65,,,,,,,,,,,,,N008,visual,8,[],"['1', '2', '3', '4']",1,2023.2.3,harveyvisual,2.1,[],8,0.75,
6,dot,0.3,['dot'],['density'],black,0,66,66,66,,,25.500242948532104,25.206652879714966,25.523361921310425,dot,"[0.06, 0.06, 0.08, 0.06, 0.06, 0.08]","[[-0.25199583264674774, 0.1645076628059283], [-0.30980015185235615, -0.30059811601219943], [-0.3416104032120793, -0.08609002542292095], [-0.44539923421558947, 0.10453038353258776], [-0.10444623085343022, 0.0009067836503606603], [-0.5495015018291214, -0.1770200348029928]]",density,black,,,N008,visual,8,[],"['1', '2', '3', '4']",1,2023.2.3,harveyvisual,2.1,[],8,0.75,
0,pause,0.4,None,None,None,0,67,67,67,,,,,,,,,,,,,N008,visual,8,[],"['1', '2', '3', '4']",1,2023.2.3,harveyvisual,2.1,[],8,0.75,
6,dot,0.3,['dot'],['density'],white,0,68,68,68,,,26.20022988319397,25.906633853912354,26.223267078399658,dot,"[0.1, 0.06, 0.06, 0.1, 0.06, 0.1]","[[0.26568550625605564, -0.48823100126060537], [0.030589778490880962, -0.34307155488476027], [0.2920158589989485, -0.005481777194348812], [0.4969139129819881, -0.3034402107212153], [0.2924968692334099, -0.2393606426967254], [0.09404279540557291, -0.1505005030192783]]",density,white,,,N008,visual,8,[],"['1', '2', '3', '4']",1,2023.2.3,harveyvisual,2.1,[],8,0.75,
0,pause,0.4,None,None,None,0,69,69,69,,,,,,,,,,,1,25.826535940170288,N008,visual,8,[],"['1', '2', '3', '4']",1,2023.2.3,harveyvisual,2.1,[],8,0.75,
6,dot,0.3,['dot'],['density'],black,0,70,70,70,,,26.900207042694092,26.606642961502075,26.923290967941284,dot,"[0.06, 0.08, 0.1, 0.06, 0.1, 0.08]","[[-0.560843418842529, -0.11752527585456686], [-0.31277608783648175, 0.04003545118838376], [-0.18207900664359264, -0.3652956678781814], [-0.41442909117718774, -0.4038021739217259], [-0.14446849917993246, -0.07035639226176245], [-0.3420415871796019, -0.1631057353810994]]",density,black,,,N008,visual,8,[],"['1', '2', '3', '4']",1,2023.2.3,harveyvisual,2.1,[],8,0.75,
0,pause,0.4,None,None,None,0,71,71,71,,,,,,,,,,,,,N008,visual,8,[],"['1', '2', '3', '4']",1,2023.2.3,harveyvisual,2.1,[],8,0.75,
7,dot,0.3,['dot'],['density'],black,0,72,72,72,,,27.6002299785614,27.306612014770508,27.62331986427307,dot,"[0.08, 0.06, 0.08, 0.06, 0.08, 0.08, 0.08]","[[0.3474653327129969, -0.31878285251617694], [0.04167069501601444, -0.04495125607964222], [-0.05005146056072613, -0.501422524998621], [-0.11295401278341419, -0.30095052262615135], [0.08710344590613708, -0.2932726077696002], [0.25592372840254046, -0.13825923460737455], [-0.15770825932276006, -0.07757053521742455]]",density,black,,,N008,visual,8,[],"['1', '2', '3', '4']",1,2023.2.3,harveyvisual,2.1,[],8,0.75,
0,pause,0.4,None,None,None,0,73,73,73,,,,,,,,,,,,,N008,visual,8,[],"['1', '2', '3', '4']",1,2023.2.3,harveyvisual,2.1,[],8,0.75,
7,dot,0.3,['dot'],['density'],black,0,74,74,74,,,28.300212860107422,28.00658392906189,28.32322096824646,dot,"[0.1, 0.06, 0.08, 0.08, 0.08, 0.1, 0.06]","[[0.2037857981676222, -0.1815971672986122], [0.4890839798603071, 0.25295445478885614], [0.1294833597440532, 0.050421522491765555], [0.5249724357971474, 0.014331621614536631], [0.4084294087299191, -0.1546943519977724], [0.31356179590401956, 0.13415696527685209], [-0.016262925640377804, -0.1588315022511765]]",density,black,,,N008,visual,8,[],"['1', '2', '3', '4']",1,2023.2.3,harveyvisual,2.1,[],8,0.75,
0,pause,0.4,None,None,None,0,75,75,75,,,,,,,,,,,,,N008,visual,8,[],"['1', '2', '3', '4']",1,2023.2.3,harveyvisual,2.1,[],8,0.75,
7,dot,0.3,['dot'],['density'],black,0,76,76,76,,,29.000226974487305,28.706722021102905,29.02354407310486,dot,"[0.1, 0.08, 0.06, 0.08, 0.06, 0.08, 0.08]","[[-0.1635229753841098, 0.12186382262109141], [0.03437657187081179, 0.5178389267683822], [0.324184412335695, 0.17931743601205324], [0.08929018524031027, 0.11005745596178185], [-0.1318259817332877, 0.4026967659136047], [-0.053046683696667, -0.06058584598870606], [0.042745683665752716, 0.304616966822181]]",density,black,,,N008,visual,8,[],"['1', '2', '3', '4']",1,2023.2.3,harveyvisual,2.1,[],8,0.75,
0,pause,0.4,None,None,None,0,77,77,77,,,,,,,,,,,,,N008,visual,8,[],"['1', '2', '3', '4']",1,2023.2.3,harveyvisual,2.1,[],8,0.75,
7,dot,0.3,['dot'],['density'],black,0,78,78,78,,,29.700212001800537,29.406539916992188,29.723180055618286,dot,"[0.08, 0.06, 0.1, 0.1, 0.06, 0.08, 0.06]","[[0.19245168201499255, -0.1876960705048169], [-0.3381443552002159, -0.23329338142126996], [-0.10497405195571721, -0.20200038512761503], [-0.19215049966389516, -0.01485034356210763], [-0.14804808022624072, 0.20187381879058183], [0.049390412829639754, -0.0077734514623590935], [0.08212821656350888, 0.19234027401595055]]",density,black,,,N008,visual,8,[],"['1', '2', '3', '4']",1,2023.2.3,harveyvisual,2.1,[],8,0.75,
0,pause,0.4,None,None,None,0,79,79,79,,,,,,,,,,,,,N008,visual,8,[],"['1', '2', '3', '4']",1,2023.2.3,harveyvisual,2.1,[],8,0.75,
7,dot,0.3,['dot'],['density'],black,0,80,80,80,,,30.400219917297363,30.106525897979736,30.423182010650635,dot,"[0.08, 0.1, 0.06, 0.06, 0.1, 0.08, 0.1]","[[0.14162553822338392, 0.3850374027840034], [0.14862566890709045, -0.11120959689479885], [0.39332636479883865, 0.3869926518090174], [0.40462455387813373, -0.12110830933676162], [0.23143806607869288, 0.12402376181071403], [0.031443448417621304, 0.15083815177969048], [0.4360523150463376, 0.1818515773867412]]",density,black,,,N008,visual,8,[],"['1', '2', '3', '4']",1,2023.2.3,harveyvisual,2.1,[],8,0.75,
0,pause,0.4,None,None,None,0,81,81,81,,,,,,,,,,,,,N008,visual,8,[],"['1', '2', '3', '4']",1,2023.2.3,harveyvisual,2.1,[],8,0.75,
7,dot,0.3,['dot'],['density'],black,0,82,82,82,,,31.10021686553955,30.806535959243774,31.123172998428345,dot,"[0.1, 0.08, 0.06, 0.1, 0.06, 0.08, 0.08]","[[-0.03978284138183809, -0.43963729991580147], [0.2770736023028816, -0.4460091285183096], [0.4264240077257641, -0.26124456405115876], [0.04351789842027954, -0.004572294527936195], [0.08491707485555088, -0.26540219852266356], [0.2274622265833728, -0.10044916879814345], [0.4232844185721205, -0.050742783717769746]]",density,black,,,N008,visual,8,[],"['1', '2', '3', '4']",1,2023.2.3,harveyvisual,2.1,[],8,0.75,
0,pause,0.4,None,None,None,0,83,83,83,,,,,,,,,,,,,N008,visual,8,[],"['1', '2', '3', '4']",1,2023.2.3,harveyvisual,2.1,[],8,0.75,
8,dot,0.3,['dot'],['density'],black,0,84,84,84,,,31.800217866897583,31.50769591331482,31.824020862579346,dot,"[0.1, 0.08, 0.1, 0.1, 0.08, 0.06, 0.1, 0.06]","[[-0.24177141476747963, 0.37227001522147646], [0.022885153928237218, 0.26973630011126315], [-0.028424808126663318, 0.474031493095366], [-0.14677856605916886, 0.1510981622513803], [-0.33541894344674456, 0.07730913931898181], [0.10840621230513336, 0.04997884008138209], [0.30094222783758756, 0.17024461371702543], [-0.056701880949321645, -0.08542646800774611]]",density,black,,,N008,visual,8,[],"['1', '2', '3', '4']",1,2023.2.3,harveyvisual,2.1,[],8,0.75,
0,pause,0.4,None,None,None,0,85,85,85,,,,,,,,,,,,,N008,visual,8,[],"['1', '2', '3', '4']",1,2023.2.3,harveyvisual,2.1,[],8,0.75,
8,dot,0.3,['dot'],['density'],black,0,86,86,86,,,32.50022602081299,32.20756506919861,32.52311301231384,dot,"[0.08, 0.06, 0.06, 0.08, 0.06, 0.1, 0.1, 0.06]","[[0.28112832868380594, 0.3075763237432237], [-0.21381995858864508, 0.197554992839043], [0.14035436555963224, -0.1470740351963634], [-0.04856350071149823, -0.017306043905309515], [0.12070301707556046, 0.11279463428917226], [0.35236156425888765, 0.046198621115284964], [-0.012223412543992913, 0.3265760435025566], [0.11745206869397669, 0.49408919182137495]]",density,black,,,N008,visual,8,[],"['1', '2', '3', '4']",1,2023.2.3,harveyvisual,2.1,[],8,0.75,
0,pause,0.4,None,None,None,0,87,87,87,,,,,,,,,,,,,N008,visual,8,[],"['1', '2', '3', '4']",1,2023.2.3,harveyvisual,2.1,[],8,0.75,
8,dot,0.3,['dot'],['density'],black,0,88,88,88,,,33.20022392272949,32.90687608718872,33.22312307357788,dot,"[0.06, 0.1, 0.08, 0.08, 0.06, 0.08, 0.1, 0.1]","[[0.1740819983727909, -0.16863019829442621], [0.14644114519141543, -0.4524198896657212], [0.0024885361438939093, 0.023531574910491997], [-0.23717340943857948, -0.31112918658627675], [-0.11311749148073028, -0.46867866316561874], [-0.17928248077090506, -0.060241557052319365], [-0.03957999532622772, -0.24759906754331504], [-0.4644327601918011, -0.3627803331480915]]",density,black,,,N008,visual,8,[],"['1', '2', '3', '4']",1,2023.2.3,harveyvisual,2.1,[],8,0.75,
0,pause,0.4,None,None,None,0,89,89,89,,,,,,,,,,,,,N008,visual,8,[],"['1', '2', '3', '4']",1,2023.2.3,harveyvisual,2.1,[],8,0.75,
8,dot,0.3,['dot'],['density'],black,0,90,90,90,,,33.90022897720337,33.60643005371094,33.92313504219055,dot,"[0.08, 0.1, 0.06, 0.08, 0.1, 0.06, 0.06, 0.1]","[[-0.012034279999911439, 0.06556808781241986], [-0.3446774290598954, 0.11122635080299646], [0.22428040003470762, 0.1796687910302273], [-0.037221971777983635, 0.5300244249381355], [-0.1456717336157172, 0.2672263832914442], [0.040508406505222534, 0.3412803201140432], [-0.26975617824218623, 0.48628578621654683], [0.24128509790231628, 0.4122343446782376]]",density,black,,,N008,visual,8,[],"['1', '2', '3', '4']",1,2023.2.3,harveyvisual,2.1,[],8,0.75,
0,pause,0.4,None,None,None,0,91,91,91,,,,,,,,,,,,,N008,visual,8,[],"['1', '2', '3', '4']",1,2023.2.3,harveyvisual,2.1,[],8,0.75,
8,dot,0.3,['dot'],['density'],white,0,92,92,92,,,34.60020995140076,34.30643892288208,34.62308192253113,dot,"[0.1, 0.08, 0.06, 0.06, 0.06, 0.08, 0.08, 0.06]","[[-0.20800618360187478, -0.297823595680997], [0.0208603014005115, -0.46570844314230314], [-0.33947416747489917, -0.46414587466331364], [-0.2657502487478435, -0.0024929956194721667], [-0.07971030345085922, -0.1368829558420488], [0.12327021606192319, -0.12614842517591618], [-0.10944837079043952, 0.12795643756026515], [-0.4050023469846894, -0.16101207847090707]]",density,white,,,N008,visual,8,[],"['1', '2', '3', '4']",1,2023.2.3,harveyvisual,2.1,[],8,0.75,
0,pause,0.4,None,None,None,0,93,93,93,,,,,,,,,,,1,34.30157399177551,N008,visual,8,[],"['1', '2', '3', '4']",1,2023.2.3,harveyvisual,2.1,[],8,0.75,
8,dot,0.3,['dot'],['density'],white,0,94,94,94,,,35.300215005874634,35.0230770111084,35.32306098937988,dot,"[0.08, 0.06, 0.06, 0.06, 0.1, 0.06, 0.06, 0.1]","[[-0.16499387414028463, -0.418455346753131], [0.031011941373623824, -0.006148034068666969], [-0.4150712424924157, -0.28668557629476243], [-0.199054958380199, -0.21375968732837633], [-0.4870789535587041, 0.00515905815181239], [-0.198479811208303, 0.006815000109153054], [-0.3273741662815474, 0.19008037141614484], [0.04340096687518584, -0.25044408321713213]]",density,white,,,N008,visual,8,[],"['1', '2', '3', '4']",1,2023.2.3,harveyvisual,2.1,[],8,0.75,
0,pause,0.4,None,None,None,0,95,95,95,,,,,,,,,,,1,35.02861785888672,N008,visual,8,[],"['1', '2', '3', '4']",1,2023.2.3,harveyvisual,2.1,[],8,0.75,
9,dot,0.3,['dot'],['density'],black,0,96,96,96,,,36.00021290779114,35.72307896614075,36.02302002906799,dot,"[0.1, 0.06, 0.06, 0.06, 0.1, 0.06, 0.06, 0.08, 0.1]","[[-0.08858128315591524, -0.3480052213079807], [0.37291707470974605, -0.0809562497479422], [-0.04311872097798103, 0.23152249840731254], [0.1734412630875083, -0.16491363602164627], [-0.024044713080900382, -0.04824256513196188], [0.126438571592319, 0.09122014985587756], [-0.2168202887682383, 0.11190421567656858], [-0.23215605484234547, -0.20356583507002532], [0.291417597339289, 0.24351333182926893]]",density,black,,,N008,visual,8,[],"['1', '2', '3', '4']",1,2023.2.3,harveyvisual,2.1,[],8,0.75,
0,pause,0.4,None,None,None,0,97,97,97,,,,,,,,,,,,,N008,visual,8,[],"['1', '2', '3', '4']",1,2023.2.3,harveyvisual,2.1,[],8,0.75,
9,dot,0.3,['dot'],['density'],black,0,98,98,98,,,36.70022797584534,36.42304801940918,36.72517490386963,dot,"[0.08, 0.08, 0.08, 0.1, 0.1, 0.1, 0.08, 0.1, 0.1]","[[0.31750259908069645, 0.09103062301409195], [-0.10814993995151222, -0.14883262012051235], [0.2615101699546999, -0.13245952524223892], [0.014531427323725789, 0.3887544696515085], [-0.1117096847062306, 0.09593752649312724], [0.07810272484559946, -0.019955638642360052], [-0.26173373106631487, 0.2840804484106463], [0.4370020372247476, 0.2669512546191977], [0.11115841416421544, 0.18722161068425575]]",density,black,,,N008,visual,8,[],"['1', '2', '3', '4']",1,2023.2.3,harveyvisual,2.1,[],8,0.75,
0,pause,0.4,None,None,None,0,99,99,99,,,,,,,,,,,,,N008,visual,8,[],"['1', '2', '3', '4']",1,2023.2.3,harveyvisual,2.1,[],8,0.75,
9,dot,0.3,['dot'],['density'],black,0,100,100,100,,,37.40023708343506,37.12304496765137,37.423012018203735,dot,"[0.08, 0.06, 0.1, 0.08, 0.1, 0.1, 0.1, 0.06, 0.1]","[[0.1897356465634014, 0.5279682873488559], [0.32378874068874214, 0.21764355715549547], [-0.02258392144612686, 0.1538672511300514], [0.18768343673053406, 0.06258281167321837], [0.4001161654736714, 0.031858124591620046], [0.03700916369328307, 0.37047593331345124], [0.18810723797826276, -0.14148750743097815], [-0.1502435433980558, -0.03059561201510329], [-0.21808568641731116, 0.28352793851031305]]",density,black,,,N008,visual,8,[],"['1', '2', '3', '4']",1,2023.2.3,harveyvisual,2.1,[],8,0.75,
0,pause,0.4,None,None,None,0,101,101,101,,,,,,,,,,,,,N008,visual,8,[],"['1', '2', '3', '4']",1,2023.2.3,harveyvisual,2.1,[],8,0.75,
9,dot,0.3,['dot'],['density'],black,0,102,102,102,,,38.100218057632446,37.82303786277771,38.12301707267761,dot,"[0.08, 0.08, 0.06, 0.06, 0.1, 0.06, 0.06, 0.1, 0.06]","[[0.30047334598257713, -0.32583448447642216], [0.4997394081452916, 0.05175273655880906], [0.13646797290608587, 0.02221883094322858], [0.11448241016544139, -0.2117191838414046], [0.417500260412479, 0.2413963184479076], [0.19152536325099656, 0.23172406522327998], [0.5046802385722475, -0.28323005758562664], [-0.037891296982194685, 0.14714919272112825], [0.3292067348064443, -0.0657181274468392]]",density,black,,,N008,visual,8,[],"['1', '2', '3', '4']",1,2023.2.3,harveyvisual,2.1,[],8,0.75,
0,pause,0.4,None,None,None,0,103,103,103,,,,,,,,,,,,,N008,visual,8,[],"['1', '2', '3', '4']",1,2023.2.3,harveyvisual,2.1,[],8,0.75,
9,dot,0.3,['dot'],['density'],white,0,104,104,104,,,38.80022096633911,38.52299189567566,38.82301902770996,dot,"[0.06, 0.1, 0.1, 0.1, 0.08, 0.08, 0.08, 0.1, 0.06]","[[-0.39546702852536103, 0.05887767166707298], [0.0019437857506851024, 0.07006750722115952], [0.08809400946991845, -0.15083790972035777], [-0.35358057288562594, -0.14123029179452673], [-0.18893042820243505, -0.004761820558363635], [-0.16054322822148615, -0.2701644482013472], [-0.3593088451216199, 0.2649120528395154], [-0.09346394646241396, -0.4621051997984888], [-0.5526246027455071, -0.11781718335669726]]",density,white,,,N008,visual,8,[],"['1', '2', '3', '4']",1,2023.2.3,harveyvisual,2.1,[],8,0.75,
0,pause,0.4,None,None,None,0,105,105,105,,,,,,,,,,,1,38.492029905319214,N008,visual,8,[],"['1', '2', '3', '4']",1,2023.2.3,harveyvisual,2.1,[],8,0.75,
9,dot,0.3,['dot'],['density'],black,0,106,106,106,,,39.500221967697144,39.222975969314575,39.52509093284607,dot,"[0.06, 0.06, 0.1, 0.08, 0.06, 0.06, 0.06, 0.06, 0.08]","[[0.26246064217380705, -0.20881461689055444], [-0.05738061480455322, -0.2104867327221427], [-0.15279665209492657, -0.4570696492981838], [-0.25848085101471047, 0.03539482855188907], [0.05438928923437074, -0.041842351158073866], [-0.266438460152573, -0.22510974363943476], [-0.08630847597628627, 0.16925380219028288], [0.1378984379274782, 0.16880467564350782], [0.14927440204233722, -0.41110624343475755]]",density,black,,,N008,visual,8,[],"['1', '2', '3', '4']",1,2023.2.3,harveyvisual,2.1,[],8,0.75,
0,pause,0.4,None,None,None,0,107,107,107,,,,,,,,,,,,,N008,visual,8,[],"['1', '2', '3', '4']",1,2023.2.3,harveyvisual,2.1,[],8,0.75,
20,dot,0.3,['dot'],['density'],white,0,108,108,108,,,40.20021200180054,39.92293095588684,40.222980976104736,dot,"[0.08, 0.06, 0.06, 0.1, 0.06, 0.08, 0.1, 0.06, 0.1, 0.1, 0.1, 0.1, 0.06, 0.06, 0.06, 0.1, 0.08, 0.1, 0.06, 0.1]","[[0.4072058236510293, -0.12489883984095529], [0.2910284488048097, 0.4829618695227311], [-0.28326030380710526, -0.19641540620541514], [0.2931868635784647, 0.17380687114154836], [-0.011618018739240621, 0.4725520819610568], [-0.0049911760671261796, -0.05714800514714646], [-0.5524974653288329, 0.045092254177553526], [-0.15537057925846548, -0.352785235973333], [0.47385582084692024, 0.32096397497310675], [-0.20338598905488764, 0.011720057257139094], [-0.3568203614485056, -0.4509119701544635], [0.3614228215387204, -0.40200879668508793], [-0.054083576003186806, -0.5689664869380288], [-0.4701493029173912, -0.14946187504677302], [-0.21007991535206538, 0.2987817926854205], [0.22387856175387755, -0.24483158485976853], [0.5985400063114791, 0.025879790657852966], [0.06889290374807522, 0.2458062192988375], [-0.32116433960731927, 0.4924613485146163], [0.19444267170546703, 0.009247226744786952]]",density,white,,,N008,visual,8,[],"['1', '2', '3', '4']",1,2023.2.3,harveyvisual,2.1,[],8,0.75,
0,pause,0.4,None,None,None,0,109,109,109,,,,,,,,,,,1,39.85223984718323,N008,visual,8,[],"['1', '2', '3', '4']",1,2023.2.3,harveyvisual,2.1,[],8,0.75,
20,dot,0.3,['dot'],['density'],black,0,110,110,110,,,40.90022587776184,40.62291193008423,40.92291498184204,dot,"[0.08, 0.06, 0.06, 0.08, 0.08, 0.1, 0.06, 0.06, 0.06, 0.08, 0.1, 0.06, 0.08, 0.1, 0.1, 0.06, 0.1, 0.06, 0.06, 0.08]","[[0.36159744433641905, 0.1765964554749666], [-0.372729398686539, 0.0984334931231689], [-0.09204619309943873, 0.24798598795393212], [-0.5705054741906597, -0.06810081897017675], [0.17532803930727525, 0.5679258025890466], [-0.15135694770988306, -0.08956011445202883], [-0.23331954708833175, 0.4135971567957194], [0.39269127250073377, -0.07140040340092463], [0.4080622069250378, -0.3447975142538795], [0.10241061171869281, -0.13267101259105207], [0.6016561456981965, 0.06343098558271222], [-0.07346409155825262, -0.5560668351340656], [-0.0954826470872433, -0.36117601765752394], [0.25998353590192047, -0.5269681076558901], [0.14513719352175758, 0.09718995363506322], [-0.29361723184699834, -0.24873577079394926], [0.1627386926437615, 0.35075568094793763], [-0.4241295016911967, -0.4122083356167323], [0.3818940754812389, 0.4052626274366523], [-0.020702438500577403, 0.5170600006181564]]",density,black,,,N008,visual,8,[],"['1', '2', '3', '4']",1,2023.2.3,harveyvisual,2.1,[],8,0.75,
0,pause,0.4,None,None,None,0,111,111,111,,,,,,,,,,,,,N008,visual,8,[],"['1', '2', '3', '4']",1,2023.2.3,harveyvisual,2.1,[],8,0.75,
20,dot,0.3,['dot'],['density'],black,0,112,112,112,,,41.60020995140076,41.32383108139038,41.62294602394104,dot,"[0.06, 0.08, 0.06, 0.06, 0.1, 0.1, 0.06, 0.1, 0.08, 0.1, 0.1, 0.06, 0.06, 0.06, 0.06, 0.06, 0.06, 0.06, 0.06, 0.06]","[[0.15811377792196213, 0.4309101996007373], [0.26787077261918624, -0.3634313005890457], [-0.03954978278018695, -0.4765979804719908], [-0.4147410244625649, -0.3928316214877249], [-0.5078120480184328, -0.046251627504051984], [0.42604940301388095, 0.0471233974821772], [-0.3916945052644478, 0.16967043319495878], [-0.24381374732279398, 0.4205351021128978], [0.4029336304318708, -0.2053916207705245], [0.19688979736641643, 0.18495644252317556], [-0.06560648888731768, 0.600262337044981], [-0.2953240508372024, -0.20673171905891635], [-0.0369859722437379, 0.1607611300234597], [0.45440964915720616, 0.2898093129861147], [-0.5434461267631303, -0.2511417083709945], [0.5809814110263923, -0.13407186406739455], [-0.2264477920165524, 0.07691446422879089], [-0.44216804765130213, 0.357389005439538], [-0.03518089415748982, -0.0925111683162202], [0.18965708432262662, -0.17399728061765396]]",density,black,,,N008,visual,8,[],"['1', '2', '3', '4']",1,2023.2.3,harveyvisual,2.1,[],8,0.75,
0,pause,0.4,None,None,None,0,113,113,113,,,,,,,,,,,,,N008,visual,8,[],"['1', '2', '3', '4']",1,2023.2.3,harveyvisual,2.1,[],8,0.75,
20,dot,0.3,['dot'],['density'],black,0,114,114,114,,,42.30021405220032,42.02289605140686,42.322892904281616,dot,"[0.1, 0.08, 0.06, 0.08, 0.08, 0.08, 0.1, 0.1, 0.1, 0.1, 0.08, 0.08, 0.06, 0.06, 0.08, 0.06, 0.1, 0.06, 0.1, 0.06]","[[-0.5570365348681192, -0.027567413028511012], [0.24105075244037888, -0.12752171272791185], [-0.36515244325012775, -0.3374641710725136], [-0.27640278640840504, -0.5141651809653787], [-0.5436203662915952, 0.17269538309575588], [0.034021601593584694, 0.3814428679775469], [0.23884498412407495, -0.4924768868031705], [0.2095594415523615, 0.5546226539332629], [0.0183630313783536, -0.009563820914493593], [0.35946274374103315, -0.2923045905021382], [0.5127024761269693, 0.2124515429927058], [0.5067327286018081, -0.0966491671449099], [-0.2905885859045657, 0.02843303861735369], [0.03154537854380435, -0.24278767697615872], [-0.10603243665496992, 0.5515113910252546], [-0.10595767524140193, -0.42789124026006564], [-0.41039383328384343, 0.3889180846175217], [0.20825999639333148, 0.2779940724077786], [-0.190973708760941, -0.14736125444237586], [0.29423682863284795, 0.05889503258453965]]",density,black,,,N008,visual,8,[],"['1', '2', '3', '4']",1,2023.2.3,harveyvisual,2.1,[],8,0.75,
0,pause,0.4,None,None,None,0,115,115,115,,,,,,,,,,,,,N008,visual,8,[],"['1', '2', '3', '4']",1,2023.2.3,harveyvisual,2.1,[],8,0.75,
20,dot,0.3,['dot'],['density'],black,0,116,116,116,,,43.00022602081299,42.722877979278564,43.02287197113037,dot,"[0.06, 0.06, 0.08, 0.08, 0.08, 0.06, 0.06, 0.08, 0.06, 0.06, 0.06, 0.06, 0.06, 0.08, 0.1, 0.1, 0.08, 0.06, 0.08, 0.06]","[[0.3251695180049644, -0.4326009521114507], [-0.2966373860271754, -0.326315450196234], [-0.29707989010010905, 0.2575952882620368], [0.525831140521488, 0.13725823104092727], [0.053281326621617, 0.5988081227631891], [-0.46109236626615024, -0.05535214963825513], [0.42460598715116504, 0.3612595868275513], [0.0703944631562834, -0.5378339416753218], [0.11068968548819647, 0.3554592946390549], [-0.0015444892021422296, 0.1464840410753011], [0.1432045496138088, -0.3597418313020624], [-0.08402918439567408, -0.2001896224941384], [-0.21358207878785307, 0.5410764682434857], [0.2984217827040414, -0.23726973580652572], [0.2419294335102644, 0.5127554586640254], [0.23946112026291366, 0.08912249296729113], [-0.5348838642261967, 0.22611620248313008], [-0.15751839769299902, -0.02499151411924605], [0.5377580372997143, -0.25464024995861234], [-0.11496836380185138, -0.433893232452498]]",density,black,,,N008,visual,8,[],"['1', '2', '3', '4']",1,2023.2.3,harveyvisual,2.1,[],8,0.75,
0,pause,0.4,None,None,None,0,117,117,117,,,,,,,,,,,,,N008,visual,8,[],"['1', '2', '3', '4']",1,2023.2.3,harveyvisual,2.1,[],8,0.75,
20,dot,0.3,['dot'],['density'],black,0,118,118,118,,,43.70021390914917,43.42287087440491,43.72284293174744,dot,"[0.1, 0.1, 0.1, 0.08, 0.08, 0.1, 0.1, 0.08, 0.06, 0.08, 0.06, 0.06, 0.06, 0.06, 0.1, 0.06, 0.06, 0.08, 0.08, 0.06]","[[-0.21981484650437183, 0.23170062242505307], [-0.19845009322496432, -0.07105534759692578], [0.4332664136381673, 0.412350645790602], [0.47946921267811116, -0.025468433438269378], [0.2872957597563647, -0.027407608552989737], [0.09683316348920001, 0.2107220869519767], [-0.5057802144738781, -0.1831502972791166], [-0.5837482324731483, -0.006074967038930235], [-0.4620955879977519, 0.37171983138073594], [0.09296092552310398, 0.5502999210545156], [0.31683701169304146, -0.3875301521382602], [0.5588234246911715, -0.2081948416096747], [0.13384781249255817, -0.22295488450740586], [0.027099611495143505, -0.5247204378243094], [-0.3789479463322697, 0.05145807087708465], [-0.33680844803166027, -0.46607683009251494], [-0.5743496623714366, 0.1834503137803704], [0.32717060448806046, 0.24032467375262878], [-0.08393918858982041, 0.42777607307962173], [0.5504090592013163, 0.17919580801715917]]",density,black,,,N008,visual,8,[],"['1', '2', '3', '4']",1,2023.2.3,harveyvisual,2.1,[],8,0.75,
0,pause,0.4,None,None,None,0,119,119,119,,,,,,,,,,,,,N008,visual,8,[],"['1', '2', '3', '4']",1,2023.2.3,harveyvisual,2.1,[],8,0.75,
20,dot,0.3,['dot'],['density'],white,0,120,120,120,,,44.40021204948425,44.122852087020874,44.42283487319946,dot,"[0.1, 0.1, 0.06, 0.1, 0.08, 0.08, 0.06, 0.08, 0.1, 0.08, 0.1, 0.06, 0.06, 0.08, 0.08, 0.1, 0.08, 0.1, 0.1, 0.08]","[[0.15586262249442573, 0.29628988111447496], [0.13365939659009352, -0.006805453824517804], [-0.09235568172931496, -0.31100771871088895], [0.030285846095398528, 0.4415618182634743], [-0.1233342516013039, 0.15891133337303576], [0.44981844233656665, -0.3416771692155803], [0.48669788923198276, 0.3467710766062124], [-0.2613974426625213, -0.08907001683764482], [0.4178913304767303, 0.05608065376564786], [-0.28658082701149284, 0.42742748254452123], [0.5929013520161276, -0.020835906059284065], [-0.4435421802620708, -0.24351960790428698], [-0.31865249830095727, 0.21744760980540478], [0.3584349033959384, -0.14952407584934935], [0.0555168636679958, -0.46943606757691164], [0.28971262382875496, -0.522291194500412], [-0.20951481917515746, -0.5528346946090116], [-0.53328554647986, 0.029268855975725983], [0.28951423447063074, 0.4861908404603399], [0.15696784635186212, -0.20601975144907875]]",density,white,,,N008,visual,8,[],"['1', '2', '3', '4']",1,2023.2.3,harveyvisual,2.1,[],8,0.75,
0,pause,0.4,None,None,None,0,121,121,121,,,,,,,,,,,1,44.08872890472412,N008,visual,8,[],"['1', '2', '3', '4']",1,2023.2.3,harveyvisual,2.1,[],8,0.75,
20,dot,0.3,['dot'],['density'],black,0,122,122,122,,,45.10020399093628,44.82282495498657,45.122803926467896,dot,"[0.08, 0.08, 0.08, 0.1, 0.06, 0.06, 0.06, 0.1, 0.06, 0.08, 0.1, 0.1, 0.06, 0.08, 0.08, 0.08, 0.1, 0.1, 0.1, 0.08]","[[0.043694268474149034, 0.5839736813397217], [0.05769973615999202, -0.36135546377526484], [-0.1458309431333243, -0.35203000838375537], [-0.10657115070717482, 0.07112117504818227], [-0.406600253530249, -0.3640576399425153], [-0.258183702075755, 0.26185792584504664], [-0.43874776953268213, 0.16520301283373862], [0.507008283975036, 0.24262021680480483], [0.26633447467893867, 0.29455505456414655], [0.0910723746435993, 0.011696193721523085], [0.39479975754601904, -0.4052427769785345], [0.31293856958706234, -0.11259745444178176], [-0.3522478948869388, 0.42758531582952697], [-0.2903082670373589, -0.085380312388396], [-0.13089576623085836, -0.5882545154916997], [0.3272419210118688, 0.4931403445261108], [0.480086876388916, -0.009647449965377808], [-0.0973895042485502, 0.4415070049150577], [0.2938396894423465, 0.09560443023548404], [-0.6031222107702308, -0.016951653108791293]]",density,black,,,N008,visual,8,[],"['1', '2', '3', '4']",1,2023.2.3,harveyvisual,2.1,[],8,0.75,
0,pause,0.4,None,None,None,0,123,123,123,,,,,,,,,,,,,N008,visual,8,[],"['1', '2', '3', '4']",1,2023.2.3,harveyvisual,2.1,[],8,0.75,
20,dot,0.3,['dot'],['density'],black,0,124,124,124,,,45.80020999908447,45.52280592918396,45.82276797294617,dot,"[0.06, 0.08, 0.1, 0.08, 0.1, 0.08, 0.08, 0.08, 0.1, 0.08, 0.06, 0.06, 0.06, 0.08, 0.1, 0.06, 0.06, 0.08, 0.1, 0.1]","[[0.42684520733222764, 0.27039210562565064], [-0.3220715695415493, -0.37435936419462346], [-0.2521493122188283, 0.18115650633176084], [0.31974938262421904, -0.5077802982864772], [0.3582807983988785, 0.021957855630193146], [0.5996073079882137, -0.05007983067876237], [-0.6028153055268393, -0.0083170139990634], [-0.04354766210941785, 0.3326588177351363], [-0.06729544519740771, -0.32922419111091794], [0.43822693786495714, -0.22379515045815898], [0.13069574307377918, -0.33982540920535736], [0.1544582544493054, -0.022798322475469424], [-0.09692911102415835, 0.05720647234870302], [0.08267740684351643, 0.1635414419834904], [-0.11072471267518263, -0.5504331715744105], [0.10297304255927175, 0.572432453494994], [-0.5066409263809062, -0.22450193930756815], [-0.4587788490264385, 0.31024404960977153], [0.3073304195689277, 0.47464436547753486], [-0.10629348540393452, 0.5630572616417828]]",density,black,,,N008,visual,8,[],"['1', '2', '3', '4']",1,2023.2.3,harveyvisual,2.1,[],8,0.75,
0,pause,0.4,None,None,None,0,125,125,125,,,,,,,,,,,,,N008,visual,8,[],"['1', '2', '3', '4']",1,2023.2.3,harveyvisual,2.1,[],8,0.75,
20,dot,0.3,['dot'],['density'],black,0,126,126,126,,,46.50021004676819,46.222774028778076,46.52275204658508,dot,"[0.1, 0.08, 0.1, 0.06, 0.06, 0.08, 0.06, 0.08, 0.08, 0.06, 0.08, 0.08, 0.06, 0.06, 0.1, 0.06, 0.08, 0.1, 0.08, 0.06]","[[-0.3690068594577959, -0.25387946455449206], [0.34182619573417117, 0.31899331713414786], [-0.48130320841935587, 0.2241272345276692], [-0.011918836273688727, -0.08557779073234417], [0.5669747153666765, -0.08336095867235635], [-0.5502516038037512, -0.1560856982916598], [0.24065671839025438, -0.4036606809492545], [0.24027545693981645, -0.05175844743718383], [-0.24365069827635188, 0.2638895561394523], [-0.37684653490762376, 0.03357714150810953], [-0.14579727545894994, -0.5506119772110587], [0.07656935703168555, 0.18077474737959265], [-0.1561597801376574, -0.3019156672660362], [0.033608807260400386, -0.38537767224806585], [-0.16151453261269139, 0.04127217765758151], [0.020924379663554538, 0.3835328179821422], [0.5550695708957382, 0.19848594027970637], [0.35964120059340676, -0.23761107554859406], [-0.4118379088044084, 0.4199851683698805], [0.409701493236006, 0.03586988293187815]]",density,black,,,N008,visual,8,[],"['1', '2', '3', '4']",1,2023.2.3,harveyvisual,2.1,[],8,0.75,
0,pause,0.4,None,None,None,0,127,127,127,,,,,,,,,,,,,N008,visual,8,[],"['1', '2', '3', '4']",1,2023.2.3,harveyvisual,2.1,[],8,0.75,
20,dot,0.3,['dot'],['density'],black,0,128,128,128,,,47.200209856033325,46.92275285720825,47.2227509021759,dot,"[0.06, 0.06, 0.08, 0.06, 0.1, 0.1, 0.1, 0.06, 0.08, 0.08, 0.08, 0.08, 0.1, 0.08, 0.08, 0.1, 0.08, 0.06, 0.1, 0.1]","[[-0.13705003931225568, -0.37726397915136667], [0.5128633950412113, 0.04945024267486331], [-0.5171392414904578, -0.30530838305643204], [0.5085261263773305, 0.25739087399500726], [-0.5996099452135751, -0.07992577961196802], [0.16127698138637137, 0.15258106241469505], [-0.4265753806996724, 0.2743084797499681], [0.23436726211193393, 0.40158938968568025], [-0.2787953912488643, 0.021448880863712882], [-0.03219844559089413, 0.10150021051207814], [0.3452019272278376, -0.048916262407430744], [0.12575381854265988, -0.5096325413348135], [0.5110890493402876, -0.15114568469027848], [-0.2659523233907916, -0.5304432010668383], [-0.27192730665218506, -0.2256336446771805], [-0.15541243841511487, 0.45910763692708445], [0.08002042899429329, -0.21556547805240334], [0.28114819515618794, -0.2827928870842362], [0.08371147929311418, 0.5885687287486309], [-0.14830434400228654, 0.26036928869969966]]",density,black,,,N008,visual,8,[],"['1', '2', '3', '4']",1,2023.2.3,harveyvisual,2.1,[],8,0.75,
0,pause,0.4,None,None,None,0,129,129,129,,,,,,,,,,,,,N008,visual,8,[],"['1', '2', '3', '4']",1,2023.2.3,harveyvisual,2.1,[],8,0.75,
20,dot,0.3,['dot'],['density'],black,0,130,130,130,,,47.900213956832886,47.62365388870239,47.92363500595093,dot,"[0.08, 0.1, 0.08, 0.1, 0.1, 0.1, 0.1, 0.08, 0.1, 0.06, 0.1, 0.06, 0.06, 0.1, 0.06, 0.1, 0.1, 0.08, 0.08, 0.1]","[[0.1755802576326868, -0.331008890299584], [-0.05962174997187997, 0.08186960740384996], [-0.3055586199671673, -0.4094845632998744], [-0.061137529997286943, -0.21687211166421916], [-0.42567620440720677, -0.09802312387238676], [0.4241906601247837, 0.3726461873134485], [0.3186718424172068, 0.053862109596254704], [-0.2207939225923956, 0.24577842220426072], [-0.47945610248924386, 0.2799795430365141], [0.45853536625873337, -0.22340624848544705], [0.5520343315818731, 0.05550067489297053], [-0.5977193828036027, 0.06620116807528889], [0.08574887545176535, 0.33721972847369963], [0.226047070112254, 0.496204365976877], [-0.2450981756484676, 0.032694267427661794], [0.21027120234762398, -0.11755971908955337], [0.3484358458146495, -0.46084724329074356], [-0.07274609956243505, 0.5224346318284087], [-0.4826487852583971, -0.34092586800712943], [-0.26286779016355066, 0.5070145645014034]]",density,black,,,N008,visual,8,[],"['1', '2', '3', '4']",1,2023.2.3,harveyvisual,2.1,[],8,0.75,
0,pause,0.4,None,None,None,0,131,131,131,,,,,,,,,,,,,N008,visual,8,[],"['1', '2', '3', '4']",1,2023.2.3,harveyvisual,2.1,[],8,0.75,
20,dot,0.3,['dot'],['density'],black,0,132,132,132,,,48.60022687911987,48.32271599769592,48.62269306182861,dot,"[0.08, 0.1, 0.06, 0.06, 0.08, 0.08, 0.06, 0.08, 0.06, 0.08, 0.1, 0.08, 0.08, 0.08, 0.06, 0.08, 0.08, 0.06, 0.08, 0.06]","[[-0.2677016675769713, -0.10601904009980534], [0.5147138883965613, -0.23259983459499503], [0.21688256565323216, -0.30255289778547], [-0.4497450609158844, 0.2109332171490394], [-0.020225807175154653, 0.35032904838500145], [-0.2546028479892629, 0.22757982230349516], [0.4724318606522099, 0.31155236710652906], [0.1866204265031891, 0.30458615893691476], [0.05382342179437949, -0.44724695891859434], [-0.17354997168552422, 0.5639285589487009], [0.15712294607604338, 0.08533962508254711], [-0.3463452427459755, -0.4609093526302911], [0.4125583937347971, -0.04437173661210708], [0.6028593055052868, 0.02164729569146784], [-0.1554081910059601, -0.5289101398924554], [-0.11846597846868173, 0.03135538420287454], [0.14077844457888955, 0.5717967496182986], [-0.5978689340191514, -0.06848063363862486], [0.3387331340061922, 0.49572593836418044], [-0.18950385597080782, -0.3029832030293161]]",density,black,,,N008,visual,8,[],"['1', '2', '3', '4']",1,2023.2.3,harveyvisual,2.1,[],8,0.75,
0,pause,0.4,None,None,None,0,133,133,133,,,,,,,,,,,,,N008,visual,8,[],"['1', '2', '3', '4']",1,2023.2.3,harveyvisual,2.1,[],8,0.75,
20,dot,0.3,['dot'],['density'],black,0,134,134,134,,,49.300230979919434,49.02273607254028,49.322710037231445,dot,"[0.1, 0.1, 0.06, 0.08, 0.1, 0.06, 0.08, 0.1, 0.06, 0.08, 0.06, 0.1, 0.06, 0.06, 0.08, 0.1, 0.06, 0.1, 0.08, 0.1]","[[-0.3537660293346708, 0.36676248187349536], [-0.13636346825672124, 0.5821479550318308], [0.11287022575026273, 0.3384317470051521], [0.5830533769858742, 0.038983790150931896], [-0.11496438440383372, 0.023582698397793256], [-0.17298177202022536, -0.3450935751559131], [-0.3902536456637581, -0.2639758394785409], [0.08405213684892077, -0.4058349383430352], [0.36919069330784715, 0.30314307382732003], [-0.5960905960403905, -0.08894140791249619], [0.1544178341197786, 0.04968649859141072], [0.33604749079840845, -0.196903869455119], [-0.36402092462567537, 0.017963500122373743], [0.14617863135920306, 0.5494664689990391], [-0.084541322416825, -0.5731936189237233], [-0.5479701338645141, 0.19207773353198443], [-0.1948237499586008, 0.2537267306545805], [0.3740151776765105, -0.4165816732347713], [0.5528108217295106, -0.16037147490421877], [0.3950588530935303, 0.10116232145324733]]",density,black,,,N008,visual,8,[],"['1', '2', '3', '4']",1,2023.2.3,harveyvisual,2.1,[],8,0.75,
0,pause,0.4,None,None,None,0,135,135,135,,,,,,,,,,,,,N008,visual,8,[],"['1', '2', '3', '4']",1,2023.2.3,harveyvisual,2.1,[],8,0.75,
20,dot,0.3,['dot'],['density'],black,0,136,136,136,,,50.000216007232666,49.72269892692566,50.02271103858948,dot,"[0.08, 0.1, 0.08, 0.1, 0.08, 0.06, 0.1, 0.08, 0.06, 0.1, 0.08, 0.1, 0.06, 0.06, 0.1, 0.08, 0.1, 0.08, 0.1, 0.1]","[[0.40403858063562603, 0.09312383616372649], [0.0073047530013308215, 0.07161211342188734], [-0.32851750216309306, 0.25928240771863353], [0.1744638374386075, -0.3048737129409121], [-0.24860899052586893, 0.049319571349317304], [-0.02646796695379272, -0.44171470419211584], [-0.5648834437182761, 0.12900509121065226], [0.15051356042137087, -0.5444351210888938], [-0.445132283111492, -0.30520297543980757], [-0.10107688866980225, 0.4011041731899736], [0.10915051108973173, 0.3983991997737556], [0.5502787382114785, -0.12885386956635903], [0.5011673109763138, 0.25997310736136797], [0.255848862927067, -0.028697241665637474], [0.41236907598640593, -0.349852892702502], [-0.3331852206276257, 0.46845392419954957], [-0.4974453647006638, -0.0964044814652556], [-0.19661666047419735, -0.2746239996311279], [-0.32973026941702505, -0.47687540567105696], [0.3178393754529758, 0.32948031249603105]]",density,black,,,N008,visual,8,[],"['1', '2', '3', '4']",1,2023.2.3,harveyvisual,2.1,[],8,0.75,
0,pause,0.4,None,None,None,0,137,137,137,,,,,,,,,,,,,N008,visual,8,[],"['1', '2', '3', '4']",1,2023.2.3,harveyvisual,2.1,[],8,0.75,
20,dot,0.3,['dot'],['density'],black,0,138,138,138,,,50.70021295547485,50.42281198501587,50.72266888618469,dot,"[0.06, 0.1, 0.1, 0.08, 0.08, 0.08, 0.08, 0.1, 0.08, 0.1, 0.08, 0.1, 0.08, 0.08, 0.08, 0.08, 0.06, 0.08, 0.06, 0.1]","[[-0.37965252755468026, 0.29250593627985744], [-0.09645132762278852, 0.4954241171238757], [0.01209208802337125, -0.2970649274853193], [-0.5367131107675056, 0.182397628690107], [-0.2988615681493765, -0.18143470082283242], [-0.3928157733016927, -0.45317280176014113], [0.31840589571797007, 0.2734429667878243], [-0.5087332069293067, -0.14106916948258233], [0.20756028965596818, 0.5179685989476199], [-0.1313301124469342, 0.1023285193543011], [0.20353089912057742, 0.05685719989825888], [0.43161711036938055, -0.21705390425307658], [0.2808068657769951, -0.3651981275894437], [-0.34584133677747764, 0.03790061610980794], [0.5814524239644453, 0.12716704062858958], [-0.1460657552137939, 0.3018516179560019], [0.5856175061097427, -0.06758234581370948], [0.03762764044509037, -0.5740233121342717], [-0.03135328961069672, -0.09209806126436981], [-0.19641550753641868, -0.3834393681225406]]",density,black,,,N008,visual,8,[],"['1', '2', '3', '4']",1,2023.2.3,harveyvisual,2.1,[],8,0.75,
0,pause,0.4,None,None,None,0,139,139,139,,,,,,,,,,,,,N008,visual,8,[],"['1', '2', '3', '4']",1,2023.2.3,harveyvisual,2.1,[],8,0.75,
20,dot,0.3,['dot'],['density'],black,0,140,140,140,,,51.400222063064575,51.12283992767334,51.42386507987976,dot,"[0.08, 0.1, 0.08, 0.08, 0.1, 0.08, 0.06, 0.08, 0.06, 0.06, 0.1, 0.1, 0.08, 0.08, 0.1, 0.06, 0.06, 0.06, 0.08, 0.06]","[[0.06538318376492658, 0.09835870357424026], [-0.549497284994557, 0.15986775222752875], [0.3850117714884742, -0.08044609030628591], [-0.3490065556582182, -0.41893352027298203], [0.5836368412995842, -0.11259668485917709], [0.24120534724987275, -0.5187636213079037], [0.47092309524982856, -0.35880404396945925], [0.3632656163914837, 0.2518225433852501], [-0.23470529419052832, 0.20327718395306937], [-0.344963356430316, 0.014451153061076139], [-0.20154861351104253, 0.5420341146768799], [0.18795342765884637, 0.49809237961070385], [0.014435510697036857, -0.4523088626591472], [-0.3656214456572001, 0.43891384372300685], [-0.07114961154425226, -0.25824519071188645], [0.5475007800209076, 0.16511914588875387], [-0.5145790582422219, -0.144471682817448], [0.22549460092949491, -0.32190703614621685], [0.16033252178449264, -0.07221250641942001], [-0.03346092286501878, 0.3641838160322143]]",density,black,,,N008,visual,8,[],"['1', '2', '3', '4']",1,2023.2.3,harveyvisual,2.1,[],8,0.75,
0,pause,0.4,None,None,None,0,141,141,141,,,,,,,,,,,,,N008,visual,8,[],"['1', '2', '3', '4']",1,2023.2.3,harveyvisual,2.1,[],8,0.75,
20,dot,0.3,['dot'],['density'],black,0,142,142,142,,,52.10021686553955,51.82353901863098,52.123679876327515,dot,"[0.08, 0.08, 0.06, 0.06, 0.1, 0.08, 0.06, 0.1, 0.1, 0.1, 0.06, 0.06, 0.06, 0.06, 0.08, 0.06, 0.1, 0.06, 0.08, 0.1]","[[0.3170088427586045, 0.44530625825788106], [-0.40064329076179617, 0.342358510068729], [-0.1943903952790132, -0.03564023907657066], [-0.0016827808114762144, -0.3690226608205408], [0.06516412817484574, -0.5918543502040934], [0.5039098478267395, -0.19914347767769952], [-0.11381669884715312, 0.5828528065325748], [-0.4503766008189892, -0.1513213156771892], [-0.16915726750286142, 0.3251835201147253], [0.20535334500502755, 0.08112932047414145], [0.4529422700800009, 0.25739548179065613], [-0.5911335070203212, -0.007083030634149168], [0.16615768133520536, -0.18296177401122432], [0.5942211194464068, 0.06827947801796205], [-0.23097977141418996, -0.28006032229248246], [-0.39400755362299544, 0.13915734005341157], [0.37827187994004974, -0.42196934758704], [-0.37134563427295786, -0.4398344365013478], [0.013412079898728613, 0.17968988512327289], [0.14574752364765997, 0.34224136493876434]]",density,black,,,N008,visual,8,[],"['1', '2', '3', '4']",1,2023.2.3,harveyvisual,2.1,[],8,0.75,
0,pause,0.4,None,None,None,0,143,143,143,,,,,,,,,,,,,N008,visual,8,[],"['1', '2', '3', '4']",1,2023.2.3,harveyvisual,2.1,[],8,0.75,
20,dot,0.3,['dot'],['density'],black,0,144,144,144,,,52.800220012664795,52.522631883621216,52.82261085510254,dot,"[0.1, 0.06, 0.08, 0.08, 0.1, 0.1, 0.1, 0.08, 0.1, 0.06, 0.08, 0.06, 0.1, 0.06, 0.06, 0.08, 0.08, 0.1, 0.1, 0.06]","[[0.06625591511315732, -0.18069810154132138], [-0.09974701041790512, 0.5953477813023169], [-0.5460902675328922, -0.19838371126511162], [0.05415799689602763, 0.25150051679185736], [-0.3918686034819767, 0.2511606899117071], [0.03554376656503244, 0.054746494725096295], [0.48708084965934206, 0.00945230855165019], [-0.13621829870179286, -0.26423248654746656], [0.3663012196817391, 0.33493648869130127], [0.27731318596344323, 0.09291987264202883], [0.5323588150668971, -0.2738753609400473], [-0.18907280355241157, 0.053708236177950175], [-0.21527823216646996, -0.48018487301804924], [-0.3475267281412463, -0.2525921981079349], [0.06319954413926654, -0.5797156342592359], [0.12471775347249092, 0.5720145805947355], [-0.5777836992539369, 0.15895576346283546], [0.3319003777261347, -0.27468134732512306], [-0.4120589685850029, -0.03045224982624295], [-0.1997308113607681, 0.39424593867494717]]",density,black,,,N008,visual,8,[],"['1', '2', '3', '4']",1,2023.2.3,harveyvisual,2.1,[],8,0.75,
0,pause,0.4,None,None,None,0,145,145,145,,,,,,,,,,,,,N008,visual,8,[],"['1', '2', '3', '4']",1,2023.2.3,harveyvisual,2.1,[],8,0.75,
20,dot,0.3,['dot'],['density'],black,0,146,146,146,,,53.50023102760315,53.22257089614868,53.522605895996094,dot,"[0.08, 0.1, 0.06, 0.06, 0.08, 0.1, 0.1, 0.08, 0.1, 0.1, 0.08, 0.1, 0.08, 0.1, 0.06, 0.08, 0.08, 0.06, 0.08, 0.06]","[[-0.20848266608020982, 0.10731571897709247], [-0.6004082585710739, 0.012510050723156418], [0.4620617694062684, -0.28028462705056983], [0.0734017358466198, 0.5577323108121512], [-0.41755038131218114, -0.29348549763599646], [0.585570536367895, 0.04614861689365951], [-0.5410350868291136, 0.204338843248572], [-0.1520279955146256, -0.5837166040233183], [0.00868349902578558, -0.12412126312844474], [0.44649364846803896, 0.3460802950538261], [-0.14696491873225692, 0.5462987259545926], [0.22679580539543565, -0.31909861062128636], [0.21930707288266027, 0.3042110345941246], [-0.3296792339621826, -0.48783794474791514], [0.3647797475486384, 0.01841425438870592], [-0.3251949312146998, 0.3385552242651412], [-0.3654486210971193, -0.004131724218888744], [-0.18390111073540216, -0.09628903605692524], [0.02958191753586248, -0.3649013934979414], [0.10839407662729972, 0.040668034669907205]]",density,black,,,N008,visual,8,[],"['1', '2', '3', '4']",1,2023.2.3,harveyvisual,2.1,[],8,0.75,
0,pause,0.4,None,None,None,0,147,147,147,,,,,,,,,,,,,N008,visual,8,[],"['1', '2', '3', '4']",1,2023.2.3,harveyvisual,2.1,[],8,0.75,
20,dot,0.3,['dot'],['density'],black,0,148,148,148,,,54.20022106170654,53.92257905006409,54.222596883773804,dot,"[0.1, 0.08, 0.08, 0.08, 0.06, 0.06, 0.06, 0.08, 0.06, 0.06, 0.06, 0.08, 0.08, 0.08, 0.1, 0.1, 0.06, 0.06, 0.06, 0.06]","[[-0.3967362558186326, 0.22883984215207198], [-0.25958858563608067, 0.37377342206287], [0.44358865306952067, -0.384898873663812], [-0.47956711728317397, -0.30585304905267946], [-0.18903709203533303, 0.1775874213780495], [0.1310279545249975, -0.5554492991439125], [-0.04457177627666209, 0.04152087253512815], [0.13696366031728713, -0.26980161588244955], [-0.4310895225169475, 0.0019602025367486675], [0.16299858311992432, 0.3479108739646247], [0.3344414838389277, 0.17516090236118143], [0.48812683460030193, -0.04529988215427572], [-0.02769375283030251, 0.4112546916044073], [0.4708628474143609, 0.3339130041880385], [0.22440828279453706, 0.012992709644340628], [-0.05979712532105419, -0.43705907291312174], [-0.35514086424054686, -0.46396000616140215], [-0.5764808031823654, -0.12596299317842152], [-0.1555762979084156, 0.5548200412095979], [-0.2825123864841761, -0.14985936045471143]]",density,black,,,N008,visual,8,[],"['1', '2', '3', '4']",1,2023.2.3,harveyvisual,2.1,[],8,0.75,
0,pause,0.4,None,None,None,0,149,149,149,,,,,,,,,,,,,N008,visual,8,[],"['1', '2', '3', '4']",1,2023.2.3,harveyvisual,2.1,[],8,0.75,
20,dot,0.3,['dot'],['density'],black,0,150,150,150,,,54.9002320766449,54.622556924819946,54.922574043273926,dot,"[0.1, 0.06, 0.08, 0.08, 0.06, 0.06, 0.08, 0.06, 0.1, 0.1, 0.1, 0.08, 0.1, 0.06, 0.1, 0.1, 0.08, 0.06, 0.08, 0.1]","[[-0.5815976365545591, 0.15674034621237934], [-0.15374359173188568, 0.49485232675394586], [-0.25945830428399214, -0.20512820113419833], [0.03530294047018445, 0.18081927798441177], [0.4086441522640244, 0.2783207863434655], [-0.5958928224597481, -0.055629095971708245], [0.20920464716701093, 0.486760247231217], [-0.35264479663902165, 0.2109660877099762], [-0.013505062982355542, -0.015055279957617906], [0.3984904893397704, -0.3234622306790156], [-0.2778854355575246, -0.42311955017934644], [0.5411345650091398, 0.12905916406015588], [0.495740617959204, -0.14313950468074654], [0.11080469394775339, -0.43439441667998235], [0.18744188384490967, -0.11786603547214553], [-0.06590039995193497, -0.33602189919154885], [-0.14602730730341146, 0.26138823491593666], [0.34536682838685295, 0.04650028879927165], [-0.40619489684534427, -0.02092052839870473], [-0.438867559552525, -0.31798833277222727]]",density,black,,,N008,visual,8,[],"['1', '2', '3', '4']",1,2023.2.3,harveyvisual,2.1,[],8,0.75,
0,pause,0.4,None,None,None,0,151,151,151,,,,,,,,,,,,,N008,visual,8,[],"['1', '2', '3', '4']",1,2023.2.3,harveyvisual,2.1,[],8,0.75,
20,dot,0.3,['dot'],['density'],black,0,152,152,152,,,55.600229024887085,55.32255792617798,55.62257790565491,dot,"[0.1, 0.08, 0.1, 0.08, 0.06, 0.06, 0.08, 0.08, 0.08, 0.06, 0.08, 0.08, 0.08, 0.1, 0.08, 0.08, 0.08, 0.06, 0.08, 0.06]","[[0.37718191840357973, 0.1347810503184979], [-0.2771218567304635, 0.14108102185141347], [0.009494104155805538, 0.0483993520256184], [0.5977360357253078, -0.0019137182128249608], [0.11160267142903113, -0.5938023722305255], [0.15119198668480915, 0.3085913676112553], [0.3611966619961744, 0.37443357618713485], [0.13235565280039652, -0.1201946690671506], [-0.32981132158033927, -0.06328473981524063], [0.496770844316773, -0.34278798018711476], [-0.11316842555472695, 0.2624251100600783], [-0.13574040041477525, -0.46313272709368203], [0.5369095414543438, 0.2538670404154249], [-0.3783661608308947, 0.3840111908761459], [-0.5448870127250499, -0.04557251650562588], [-0.09185622772222224, 0.4657287503577431], [-0.39642874199928463, -0.28060275922915745], [-0.4965494134300834, 0.22270141352298178], [0.0975483439793231, -0.3379001806581042], [0.22135905717331983, 0.5404045705047346]]",density,black,,,N008,visual,8,[],"['1', '2', '3', '4']",1,2023.2.3,harveyvisual,2.1,[],8,0.75,
0,pause,0.4,None,None,None,0,153,153,153,,,,,,,,,,,,,N008,visual,8,[],"['1', '2', '3', '4']",1,2023.2.3,harveyvisual,2.1,[],8,0.75,
20,dot,0.3,['dot'],['density'],black,0,154,154,154,,,56.3002290725708,56.02258586883545,56.322542905807495,dot,"[0.1, 0.1, 0.1, 0.08, 0.06, 0.1, 0.1, 0.08, 0.08, 0.06, 0.1, 0.1, 0.08, 0.06, 0.06, 0.08, 0.08, 0.08, 0.08, 0.08]","[[0.10585872677003272, 0.18708888923390554], [-0.2182759986821644, 0.3870574322108783], [-0.15113059733815037, 0.050650231153977376], [-0.47212417989264843, -0.3501418039665815], [-0.08914491923181433, 0.24465167607418548], [-0.39566023857016364, 0.1746503043719289], [-0.5926348112972222, 0.018791034525638337], [0.15914301522338792, -0.4765497006648095], [0.344633497081268, 0.46325086167788], [-0.3229775584683811, -0.1881760781866622], [-0.22763120699273975, -0.45698530333650283], [0.3932157265287951, -0.013867573157024915], [0.2364183315236409, -0.2565886252295325], [0.52926384382471, -0.1791495362320274], [-0.00784562628373231, 0.5029685867550927], [0.37666133004038627, 0.2325633459908526], [-0.00853957861849286, -0.11878318370338037], [-0.044534766383669266, -0.3723552413960328], [0.39919681753980074, -0.4496987129755247], [0.5992766733612375, 0.06737278967891455]]",density,black,,,N008,visual,8,[],"['1', '2', '3', '4']",1,2023.2.3,harveyvisual,2.1,[],8,0.75,
0,pause,0.4,None,None,None,0,155,155,155,,,,,,,,,,,,,N008,visual,8,[],"['1', '2', '3', '4']",1,2023.2.3,harveyvisual,2.1,[],8,0.75,
9,dot,0.3,['dot'],['density'],black,0,156,156,156,,,57.000216007232666,56.72252607345581,57.02281093597412,dot,"[0.06, 0.06, 0.06, 0.06, 0.1, 0.1, 0.06, 0.06, 0.08]","[[0.27429149071172837, 0.34251676390746333], [0.46797507249945486, 0.005491811463162166], [0.21235580877939833, 0.08757146436558581], [0.046223583492975936, 0.2932249054251131], [0.07051592556679111, -0.0704922843318231], [0.30438918969270623, -0.13028831600800136], [0.11534598117609637, 0.5236829685630697], [-0.06673610159464062, 0.12515255452502297], [-0.14439101605953233, -0.1332028051536465]]",density,black,,,N008,visual,8,[],"['1', '2', '3', '4']",1,2023.2.3,harveyvisual,2.1,[],8,0.75,
0,pause,0.4,None,None,None,0,157,157,157,,,,,,,,,,,,,N008,visual,8,[],"['1', '2', '3', '4']",1,2023.2.3,harveyvisual,2.1,[],8,0.75,
9,dot,0.3,['dot'],['density'],black,0,158,158,158,,,57.700226068496704,57.4224898815155,57.72357106208801,dot,"[0.06, 0.06, 0.06, 0.1, 0.08, 0.08, 0.06, 0.06, 0.1]","[[-0.15654783233563613, 0.5456880468186037], [-0.24757731968740795, 0.34117179271889175], [0.237608115185398, 0.5379153628426676], [0.0469559873873498, 0.0609843963705915], [0.17872629641391088, 0.30721368784738284], [-0.014663874177430473, 0.385293302856951], [-0.1034840675008618, 0.1993866575147459], [0.37552485507684036, 0.26074226948317425], [-0.1631567374159006, -0.0021534685146951615]]",density,black,,,N008,visual,8,[],"['1', '2', '3', '4']",1,2023.2.3,harveyvisual,2.1,[],8,0.75,
0,pause,0.4,None,None,None,0,159,159,159,,,,,,,,,,,,,N008,visual,8,[],"['1', '2', '3', '4']",1,2023.2.3,harveyvisual,2.1,[],8,0.75,
9,dot,0.3,['dot'],['density'],black,0,160,160,160,,,58.40021896362305,58.1227970123291,58.422451972961426,dot,"[0.08, 0.06, 0.1, 0.06, 0.1, 0.06, 0.1, 0.06, 0.06]","[[0.15603996265512696, -0.0872053538661942], [-0.29211765964195757, -0.04110002513656992], [-0.071087909845803, -0.33174387981618686], [-0.13011395490928096, 0.2584597801106329], [-0.08364541374476576, -0.0980664528631432], [-0.26669569773039664, -0.25481833902542456], [-0.35582819085755485, -0.4494505046102014], [-0.1269674344078877, -0.5566175884613933], [0.011820482989003244, 0.07934247632600783]]",density,black,,,N008,visual,8,[],"['1', '2', '3', '4']",1,2023.2.3,harveyvisual,2.1,[],8,0.75,
0,pause,0.4,None,None,None,0,161,161,161,,,,,,,,,,,,,N008,visual,8,[],"['1', '2', '3', '4']",1,2023.2.3,harveyvisual,2.1,[],8,0.75,
9,dot,0.3,['dot'],['density'],black,0,162,162,162,,,59.10022592544556,58.82361888885498,59.122426986694336,dot,"[0.06, 0.1, 0.06, 0.08, 0.1, 0.08, 0.08, 0.08, 0.1]","[[-0.15654783233563613, 0.5456880468186037], [-0.24757731968740795, 0.34117179271889175], [0.237608115185398, 0.5379153628426676], [0.0469559873873498, 0.0609843963705915], [0.17872629641391088, 0.30721368784738284], [-0.014663874177430473, 0.385293302856951], [-0.1034840675008618, 0.1993866575147459], [0.37552485507684036, 0.26074226948317425], [-0.1631567374159006, -0.0021534685146951615]]",density,black,,,N008,visual,8,[],"['1', '2', '3', '4']",1,2023.2.3,harveyvisual,2.1,[],8,0.75,
0,pause,0.4,None,None,None,0,163,163,163,,,,,,,,,,,,,N008,visual,8,[],"['1', '2', '3', '4']",1,2023.2.3,harveyvisual,2.1,[],8,0.75,
9,dot,0.3,['dot'],['density'],black,0,164,164,164,,,59.80020999908447,59.52242088317871,59.822417974472046,dot,"[0.08, 0.1, 0.08, 0.06, 0.06, 0.1, 0.08, 0.06, 0.08]","[[0.15603996265512696, -0.0872053538661942], [-0.29211765964195757, -0.04110002513656992], [-0.071087909845803, -0.33174387981618686], [-0.13011395490928096, 0.2584597801106329], [-0.08364541374476576, -0.0980664528631432], [-0.26669569773039664, -0.25481833902542456], [-0.35582819085755485, -0.4494505046102014], [-0.1269674344078877, -0.5566175884613933], [0.011820482989003244, 0.07934247632600783]]",density,black,,,N008,visual,8,[],"['1', '2', '3', '4']",1,2023.2.3,harveyvisual,2.1,[],8,0.75,
0,pause,0.4,None,None,None,0,165,165,165,,,,,,,,,,,,,N008,visual,8,[],"['1', '2', '3', '4']",1,2023.2.3,harveyvisual,2.1,[],8,0.75,
9,dot,0.3,['dot'],['density'],black,0,166,166,166,,,60.50021290779114,60.2223858833313,60.522454023361206,dot,"[0.06, 0.1, 0.08, 0.08, 0.1, 0.1, 0.06, 0.06, 0.08]","[[0.050129075631511706, -0.29659829200500587], [0.1522424042566208, -0.02012498145544232], [-0.31773020450764894, 0.09756431981266957], [-0.25388767024787284, -0.20865833148222632], [-0.06549152868915667, -0.10253084504872755], [-0.047012852932693645, 0.11741599898337682], [0.26526013051082903, -0.18996189821299347], [0.2442588296558726, 0.17404051307925203], [0.053323608967773835, 0.34462047536600726]]",density,black,,,N008,visual,8,[],"['1', '2', '3', '4']",1,2023.2.3,harveyvisual,2.1,[],8,0.75,
0,pause,0.4,None,None,None,0,167,167,167,,,,,,,,,,,,,N008,visual,8,[],"['1', '2', '3', '4']",1,2023.2.3,harveyvisual,2.1,[],8,0.75,
8,dot,0.3,['dot'],['density'],black,0,168,168,168,,,61.20022487640381,60.92238903045654,61.22237801551819,dot,"[0.06, 0.08, 0.1, 0.1, 0.06, 0.08, 0.08, 0.08]","[[0.28112832868380594, 0.3075763237432237], [-0.21381995858864508, 0.197554992839043], [0.14035436555963224, -0.1470740351963634], [-0.04856350071149823, -0.017306043905309515], [0.12070301707556046, 0.11279463428917226], [0.35236156425888765, 0.046198621115284964], [-0.012223412543992913, 0.3265760435025566], [0.11745206869397669, 0.49408919182137495]]",density,black,,,N008,visual,8,[],"['1', '2', '3', '4']",1,2023.2.3,harveyvisual,2.1,[],8,0.75,
0,pause,0.4,None,None,None,0,169,169,169,,,,,,,,,,,,,N008,visual,8,[],"['1', '2', '3', '4']",1,2023.2.3,harveyvisual,2.1,[],8,0.75,
8,dot,0.3,['dot'],['density'],black,0,170,170,170,,,61.90022587776184,61.62235689163208,61.92236089706421,dot,"[0.06, 0.08, 0.06, 0.1, 0.1, 0.06, 0.08, 0.08]","[[-0.20800618360187478, -0.297823595680997], [0.0208603014005115, -0.46570844314230314], [-0.33947416747489917, -0.46414587466331364], [-0.2657502487478435, -0.0024929956194721667], [-0.07971030345085922, -0.1368829558420488], [0.12327021606192319, -0.12614842517591618], [-0.10944837079043952, 0.12795643756026515], [-0.4050023469846894, -0.16101207847090707]]",density,black,,,N008,visual,8,[],"['1', '2', '3', '4']",1,2023.2.3,harveyvisual,2.1,[],8,0.75,
0,pause,0.4,None,None,None,0,171,171,171,,,,,,,,,,,,,N008,visual,8,[],"['1', '2', '3', '4']",1,2023.2.3,harveyvisual,2.1,[],8,0.75,
8,dot,0.3,['dot'],['density'],black,0,172,172,172,,,62.60023307800293,62.32238292694092,62.62232804298401,dot,"[0.06, 0.1, 0.1, 0.1, 0.1, 0.06, 0.06, 0.1]","[[0.016639406518403475, -0.10031965053970064], [-0.49734137941811546, 0.023312718056099104], [0.03171158295547566, 0.2028207856397581], [-0.3777108616291506, 0.18827317115199685], [-0.2734124440264558, -0.20525012861841768], [-0.1742574757978524, 0.04093824739900491], [-0.17815403785603903, 0.26205888083036905], [-0.2502819750276768, 0.4804358206127844]]",density,black,,,N008,visual,8,[],"['1', '2', '3', '4']",1,2023.2.3,harveyvisual,2.1,[],8,0.75,
0,pause,0.4,None,None,None,0,173,173,173,,,,,,,,,,,,,N008,visual,8,[],"['1', '2', '3', '4']",1,2023.2.3,harveyvisual,2.1,[],8,0.75,
8,dot,0.3,['dot'],['density'],black,0,174,174,174,,,63.300222873687744,63.022363901138306,63.326334953308105,dot,"[0.06, 0.06, 0.1, 0.08, 0.1, 0.06, 0.1, 0.08]","[[-0.258715538922871, 0.3828151050353194], [-0.4384035523576633, -0.18689856672911037], [-0.5586779833045601, 0.15056420889708766], [-0.1699372658897842, -0.04883432605429875], [-0.36053016753151684, 0.02858569738219561], [-0.199221799186684, 0.1876786431210615], [0.004458053620249285, 0.1240038339062716], [0.019420137312414813, -0.16023679021787893]]",density,black,,,N008,visual,8,[],"['1', '2', '3', '4']",1,2023.2.3,harveyvisual,2.1,[],8,0.75,
0,pause,0.4,None,None,None,0,175,175,175,,,,,,,,,,,,,N008,visual,8,[],"['1', '2', '3', '4']",1,2023.2.3,harveyvisual,2.1,[],8,0.75,
8,dot,0.3,['dot'],['density'],black,0,176,176,176,,,64.00022506713867,63.72233486175537,64.02232885360718,dot,"[0.1, 0.06, 0.1, 0.1, 0.1, 0.06, 0.1, 0.06]","[[-0.13214754069031825, -0.5402677255150703], [0.1288984478000013, -0.5519726475135984], [0.27401725229332, -0.34994268047279037], [-0.052680844420756816, 0.006786609240531098], [0.03557367748195712, -0.3699094958310016], [-0.23170140006741713, -0.18198058676873416], [-0.33504621301322857, -0.3611685350886627], [0.0760940577115827, -0.14857148175569432]]",density,black,,,N008,visual,8,[],"['1', '2', '3', '4']",1,2023.2.3,harveyvisual,2.1,[],8,0.75,
0,pause,0.4,None,None,None,0,177,177,177,,,,,,,,,,,,,N008,visual,8,[],"['1', '2', '3', '4']",1,2023.2.3,harveyvisual,2.1,[],8,0.75,
8,dot,0.3,['dot'],['density'],black,0,178,178,178,,,64.70021200180054,64.42232608795166,64.72230195999146,dot,"[0.06, 0.1, 0.1, 0.08, 0.06, 0.06, 0.08, 0.1]","[[-0.17382250058115215, 0.008030820220576582], [-0.5561520679887834, 0.09064024109159684], [-0.2322770524578434, -0.18818443710846813], [-0.41357291590276396, -0.2905316508268561], [-0.37423053416790164, -0.04064357687765813], [-0.014699175284411378, 0.15059198662288528], [-0.015485985535575739, -0.1348843831724925], [-0.36639977644872057, 0.228205681233079]]",density,black,,,N008,visual,8,[],"['1', '2', '3', '4']",1,2023.2.3,harveyvisual,2.1,[],8,0.75,
0,pause,0.4,None,None,None,0,179,179,179,,,,,,,,,,,,,N008,visual,8,[],"['1', '2', '3', '4']",1,2023.2.3,harveyvisual,2.1,[],8,0.75,
7,dot,0.3,['dot'],['density'],black,0,180,180,180,,,65.40022706985474,65.12232398986816,65.42231702804565,dot,"[0.1, 0.1, 0.1, 0.08, 0.08, 0.06, 0.1]","[[0.19245168201499255, -0.1876960705048169], [-0.3381443552002159, -0.23329338142126996], [-0.10497405195571721, -0.20200038512761503], [-0.19215049966389516, -0.01485034356210763], [-0.14804808022624072, 0.20187381879058183], [0.049390412829639754, -0.0077734514623590935], [0.08212821656350888, 0.19234027401595055]]",density,black,,,N008,visual,8,[],"['1', '2', '3', '4']",1,2023.2.3,harveyvisual,2.1,[],8,0.75,
0,pause,0.4,None,None,None,0,181,181,181,,,,,,,,,,,,,N008,visual,8,[],"['1', '2', '3', '4']",1,2023.2.3,harveyvisual,2.1,[],8,0.75,
7,dot,0.3,['dot'],['density'],black,0,182,182,182,,,66.10020899772644,65.82320404052734,66.12222695350647,dot,"[0.06, 0.06, 0.08, 0.1, 0.08, 0.08, 0.08]","[[-0.23867826801906328, -0.4967507610264224], [-0.008572732368673055, -0.07934474412745643], [-0.2066881937132076, -0.2790710878612567], [0.21709551483580575, -0.47507177834902015], [0.2058411173229685, -0.17553172422760346], [-0.015438952742397984, -0.3568653319460787], [-0.011603255668745115, -0.5749057065343526]]",density,black,,,N008,visual,8,[],"['1', '2', '3', '4']",1,2023.2.3,harveyvisual,2.1,[],8,0.75,
0,pause,0.4,None,None,None,0,183,183,183,,,,,,,,,,,,,N008,visual,8,[],"['1', '2', '3', '4']",1,2023.2.3,harveyvisual,2.1,[],8,0.75,
7,dot,0.3,['dot'],['density'],black,0,184,184,184,,,66.80023002624512,66.5222520828247,66.82221698760986,dot,"[0.06, 0.1, 0.08, 0.1, 0.06, 0.06, 0.1]","[[-0.15204905838880944, -0.5333107186751418], [-0.1519936835116667, -0.2986813487337615], [0.3123805602017952, -0.370842296180838], [-0.04397638837772695, -0.01669328424437847], [0.11716920447009348, -0.14912816843546053], [0.1067198166566748, -0.5553575834591685], [0.04038917577175449, -0.3541606866516689]]",density,black,,,N008,visual,8,[],"['1', '2', '3', '4']",1,2023.2.3,harveyvisual,2.1,[],8,0.75,
0,pause,0.4,None,None,None,0,185,185,185,,,,,,,,,,,,,N008,visual,8,[],"['1', '2', '3', '4']",1,2023.2.3,harveyvisual,2.1,[],8,0.75,
7,dot,0.3,['dot'],['density'],black,0,186,186,186,,,67.5002110004425,67.22225403785706,67.52329206466675,dot,"[0.06, 0.08, 0.06, 0.06, 0.08, 0.1, 0.1]","[[-0.2822174821233986, 0.002117056236134186], [-0.10673242512413421, 0.4781556216085482], [-0.18432519539246728, 0.19072201575640843], [-0.4524596318479574, 0.13966285650530724], [0.06907010423411483, 0.2912708813513049], [-0.07412436007020941, -0.021022205933558278], [-0.3208835015251209, 0.3986768431743725]]",density,black,,,N008,visual,8,[],"['1', '2', '3', '4']",1,2023.2.3,harveyvisual,2.1,[],8,0.75,
0,pause,0.4,None,None,None,0,187,187,187,,,,,,,,,,,,,N008,visual,8,[],"['1', '2', '3', '4']",1,2023.2.3,harveyvisual,2.1,[],8,0.75,
7,dot,0.3,['dot'],['density'],black,0,188,188,188,,,68.20022702217102,67.92221808433533,68.22220301628113,dot,"[0.06, 0.1, 0.1, 0.08, 0.06, 0.06, 0.1]","[[-0.27882252076513336, 0.33055409005240166], [-0.4957633793454142, -0.06140876275196145], [-0.0066404743852866415, -0.09326226909207957], [-0.0437417051997281, 0.24568157295930956], [-0.4653499650939929, 0.1386387143322748], [-0.23664853702636232, 0.07695828400639043], [-0.2650254833014284, -0.12289079349875774]]",density,black,,,N008,visual,8,[],"['1', '2', '3', '4']",1,2023.2.3,harveyvisual,2.1,[],8,0.75,
0,pause,0.4,None,None,None,0,189,189,189,,,,,,,,,,,,,N008,visual,8,[],"['1', '2', '3', '4']",1,2023.2.3,harveyvisual,2.1,[],8,0.75,
7,dot,0.3,['dot'],['density'],white,0,190,190,190,,,68.90023398399353,68.62220597267151,68.9221658706665,dot,"[0.08, 0.08, 0.06, 0.06, 0.1, 0.08, 0.1]","[[-0.39883248072855915, 0.30823732592088265], [-0.041341486549100435, 0.2390478988097413], [-0.013495537319202725, 0.5211111720540192], [-0.2415889716500472, 0.10795059447242317], [-0.023803066389735523, 0.02076064871433158], [0.14387498046506175, 0.3548008600093999], [-0.24331877599120405, 0.46521846842164205]]",density,white,,,N008,visual,8,[],"['1', '2', '3', '4']",1,2023.2.3,harveyvisual,2.1,[],8,0.75,
0,pause,0.4,None,None,None,0,191,191,191,,,,,,,,,,,1,68.65971207618713,N008,visual,8,[],"['1', '2', '3', '4']",1,2023.2.3,harveyvisual,2.1,[],8,0.75,
6,dot,0.3,['dot'],['density'],black,0,192,192,192,,,69.60022401809692,69.30544996261597,69.62218308448792,dot,"[0.08, 0.1, 0.06, 0.1, 0.1, 0.06]","[[-0.4718675517483807, -0.080313523620691], [-0.31247550484642445, -0.23218356379105512], [-0.2575593735283343, 0.24158811959194182], [-0.2948669609652105, 0.017652028830845004], [-0.0883702388727292, 0.027494606567874856], [-0.45154527444290743, 0.17691331155056722]]",density,black,,,N008,visual,8,[],"['1', '2', '3', '4']",1,2023.2.3,harveyvisual,2.1,[],8,0.75,
0,pause,0.4,None,None,None,0,193,193,193,,,,,,,,,,,,,N008,visual,8,[],"['1', '2', '3', '4']",1,2023.2.3,harveyvisual,2.1,[],8,0.75,
6,dot,0.3,['dot'],['density'],black,0,194,194,194,,,70.3002278804779,70.0055410861969,70.32215785980225,dot,"[0.1, 0.1, 0.06, 0.1, 0.1, 0.1]","[[0.1982846419110591, -0.5292804859653952], [-0.09533153174900855, -0.5647367288422243], [-0.1659446600366624, -0.36958438178462333], [0.23572970018209544, -0.2476946313124468], [-0.023160452264027947, -0.17140847685647978], [0.035419311136148636, -0.3737635646361638]]",density,black,,,N008,visual,8,[],"['1', '2', '3', '4']",1,2023.2.3,harveyvisual,2.1,[],8,0.75,
0,pause,0.4,None,None,None,0,195,195,195,,,,,,,,,,,,,N008,visual,8,[],"['1', '2', '3', '4']",1,2023.2.3,harveyvisual,2.1,[],8,0.75,
6,dot,0.3,['dot'],['density'],black,0,196,196,196,,,71.00021195411682,70.70550990104675,71.02304291725159,dot,"[0.08, 0.06, 0.08, 0.06, 0.1, 0.1]","[[-0.362545063880459, -0.421860962952156], [-0.24010638466002518, -0.0327569241266412], [-0.22622339336134992, -0.23590116153186103], [-0.41823503972227205, -0.14060420183103206], [-0.028992295722001654, -0.1293578273409096], [-0.1459617666416116, -0.4591052827033254]]",density,black,,,N008,visual,8,[],"['1', '2', '3', '4']",1,2023.2.3,harveyvisual,2.1,[],8,0.75,
0,pause,0.4,None,None,None,0,197,197,197,,,,,,,,,,,,,N008,visual,8,[],"['1', '2', '3', '4']",1,2023.2.3,harveyvisual,2.1,[],8,0.75,
6,dot,0.3,['dot'],['density'],black,0,198,198,198,,,71.70023798942566,71.40538191795349,71.72210597991943,dot,"[0.06, 0.06, 0.06, 0.08, 0.08, 0.08]","[[0.23041567882598732, 0.45619944218456715], [0.5278859611842325, 0.18245830030246968], [0.08738225171760033, 0.1578384040678088], [0.20561463112105705, -0.03996865664556224], [0.3021721310554224, 0.21718230064421146], [0.4273755636869532, 0.38341374408431883]]",density,black,,,N008,visual,8,[],"['1', '2', '3', '4']",1,2023.2.3,harveyvisual,2.1,[],8,0.75,
0,pause,0.4,None,None,None,0,199,199,199,,,,,,,,,,,,,N008,visual,8,[],"['1', '2', '3', '4']",1,2023.2.3,harveyvisual,2.1,[],8,0.75,
6,dot,0.3,['dot'],['density'],black,0,200,200,200,,,72.40021991729736,72.10536003112793,72.4220929145813,dot,"[0.1, 0.06, 0.1, 0.06, 0.1, 0.08]","[[0.1643264729387965, -0.2471077239796436], [-0.22534804549937193, -0.4918728234310363], [-0.026166131246113146, -0.09278119687647148], [-0.24451989516519138, -0.21339523607155425], [0.11868454116144263, -0.4574197693624388], [-0.058907778787058426, -0.30919141315076737]]",density,black,,,N008,visual,8,[],"['1', '2', '3', '4']",1,2023.2.3,harveyvisual,2.1,[],8,0.75,
0,pause,0.4,None,None,None,0,201,201,201,,,,,,,,,,,,,N008,visual,8,[],"['1', '2', '3', '4']",1,2023.2.3,harveyvisual,2.1,[],8,0.75,
6,dot,0.3,['dot'],['density'],black,0,202,202,202,,,73.10023403167725,72.82301688194275,73.12206888198853,dot,"[0.06, 0.08, 0.1, 0.06, 0.1, 0.08]","[[0.1382403832049451, 0.0462086450304607], [-0.07534018949214154, -0.3274433807795599], [0.3332171610134826, -0.14895102818546319], [0.22614943412716124, -0.3322834867125916], [-0.0756450994425101, -0.005640117700353421], [0.0938048843888254, -0.16909843217532775]]",density,black,,,N008,visual,8,[],"['1', '2', '3', '4']",1,2023.2.3,harveyvisual,2.1,[],8,0.75,
0,pause,0.4,None,None,None,0,203,203,203,,,,,,,,,,,,,N008,visual,8,[],"['1', '2', '3', '4']",1,2023.2.3,harveyvisual,2.1,[],8,0.75,
5,dot,0.3,['dot'],['density'],black,0,204,204,204,,,73.8002359867096,73.50542497634888,73.82205605506897,dot,"[0.1, 0.06, 0.06, 0.08, 0.08]","[[-0.09836533996777486, -0.13487298234664027], [-0.39372579989196477, -0.3970332615714695], [-0.08519030630468749, -0.3439803803737387], [-0.28676510783747755, -0.22768547842943598], [-0.4191710438677135, -0.018830474544977712]]",density,black,,,N008,visual,8,[],"['1', '2', '3', '4']",1,2023.2.3,harveyvisual,2.1,[],8,0.75,
0,pause,0.4,None,None,None,0,205,205,205,,,,,,,,,,,,,N008,visual,8,[],"['1', '2', '3', '4']",1,2023.2.3,harveyvisual,2.1,[],8,0.75,
5,dot,0.3,['dot'],['density'],white,0,206,206,206,,,74.50023889541626,74.20652604103088,74.52203893661499,dot,"[0.06, 0.1, 0.06, 0.1, 0.1]","[[0.34746533592570195, 0.16118282603596082], [0.14457128296481445, 0.28865621170929245], [0.4549189851861922, 0.34228556952890804], [0.008483415068308318, 0.44103246018778014], [0.27150044131742485, 0.4621652121832405]]",density,white,,,N008,visual,8,[],"['1', '2', '3', '4']",1,2023.2.3,harveyvisual,2.1,[],8,0.75,
0,pause,0.4,None,None,None,0,207,207,207,,,,,,,,,,,1,74.2434298992157,N008,visual,8,[],"['1', '2', '3', '4']",1,2023.2.3,harveyvisual,2.1,[],8,0.75,
5,dot,0.3,['dot'],['density'],black,0,208,208,208,,,75.20021295547485,74.90536093711853,75.2220208644867,dot,"[0.08, 0.06, 0.08, 0.06, 0.08]","[[0.21791283729510122, -0.3451859720731072], [0.5246150578842218, -0.1749209719782184], [0.23417080448362212, 0.06149420791510773], [0.21628546435715315, -0.14179681516434317], [0.46094971099473236, 0.03541120369123469]]",density,black,,,N008,visual,8,[],"['1', '2', '3', '4']",1,2023.2.3,harveyvisual,2.1,[],8,0.75,
0,pause,0.4,None,None,None,0,209,209,209,,,,,,,,,,,,,N008,visual,8,[],"['1', '2', '3', '4']",1,2023.2.3,harveyvisual,2.1,[],8,0.75,
5,dot,0.3,['dot'],['density'],black,0,210,210,210,,,75.900230884552,75.60648202896118,75.92199087142944,dot,"[0.1, 0.08, 0.06, 0.08, 0.06]","[[-0.2338402938730933, 0.15846616122991625], [-0.3229678957369872, -0.0901175890533356], [-0.5034912146055804, 0.021834460539281654], [-0.23914892391179104, -0.28496604153387733], [-0.10132718886958789, -0.1172648190903725]]",density,black,,,N008,visual,8,[],"['1', '2', '3', '4']",1,2023.2.3,harveyvisual,2.1,[],8,0.75,
0,pause,0.4,None,None,None,0,211,211,211,,,,,,,,,,,,,N008,visual,8,[],"['1', '2', '3', '4']",1,2023.2.3,harveyvisual,2.1,[],8,0.75,
5,dot,0.3,['dot'],['density'],black,0,212,212,212,,,76.60021591186523,76.30532097816467,76.62290406227112,dot,"[0.06, 0.06, 0.06, 0.06, 0.06]","[[-0.09836533996777486, -0.13487298234664027], [-0.39372579989196477, -0.3970332615714695], [-0.08519030630468749, -0.3439803803737387], [-0.28676510783747755, -0.22768547842943598], [-0.4191710438677135, -0.018830474544977712]]",density,black,,,N008,visual,8,[],"['1', '2', '3', '4']",1,2023.2.3,harveyvisual,2.1,[],8,0.75,
0,pause,0.4,None,None,None,0,213,213,213,,,,,,,,,,,,,N008,visual,8,[],"['1', '2', '3', '4']",1,2023.2.3,harveyvisual,2.1,[],8,0.75,
5,dot,0.3,['dot'],['density'],black,0,214,214,214,,,77.30021095275879,77.00529599189758,77.32196688652039,dot,"[0.1, 0.08, 0.08, 0.08, 0.1]","[[-0.20882687658313398, 0.05979685123170853], [0.07709165915785691, 0.33819008637117026], [0.02323578322535992, 0.12175330968231063], [0.02522363087913582, -0.08718927316059993], [-0.12152044988768049, 0.28453648995279207]]",density,black,,,N008,visual,8,[],"['1', '2', '3', '4']",1,2023.2.3,harveyvisual,2.1,[],8,0.75,
0,pause,0.4,None,None,None,0,215,215,215,,,,,,,,,,,,,N008,visual,8,[],"['1', '2', '3', '4']",1,2023.2.3,harveyvisual,2.1,[],8,0.75,
4,dot,0.3,['dot'],['density'],black,0,216,216,216,,,78.00022602081299,77.7053210735321,78.02195286750793,dot,"[0.08, 0.06, 0.1, 0.1]","[[0.17852470546651972, -0.2012438881607824], [-0.031034799765910746, -0.12466087783573923], [0.008996399474264666, -0.3229379719524122], [0.15114343287780646, 0.03986859122442722]]",density,black,,,N008,visual,8,[],"['1', '2', '3', '4']",1,2023.2.3,harveyvisual,2.1,[],8,0.75,
0,pause,0.4,None,None,None,0,217,217,217,,,,,,,,,,,,,N008,visual,8,[],"['1', '2', '3', '4']",1,2023.2.3,harveyvisual,2.1,[],8,0.75,
4,dot,0.3,['dot'],['density'],black,0,218,218,218,,,78.70023894309998,78.40525889396667,78.72191500663757,dot,"[0.06, 0.06, 0.1, 0.06]","[[0.012521055699324385, 0.11356654047594222], [0.23234191260135498, 0.08597184236642744], [-0.1711309036876675, 0.020891973622313913], [0.11376048882462075, -0.09104804463782627]]",density,black,,,N008,visual,8,[],"['1', '2', '3', '4']",1,2023.2.3,harveyvisual,2.1,[],8,0.75,
0,pause,0.4,None,None,None,0,219,219,219,,,,,,,,,,,,,N008,visual,8,[],"['1', '2', '3', '4']",1,2023.2.3,harveyvisual,2.1,[],8,0.75,
4,dot,0.3,['dot'],['density'],black,0,220,220,220,,,79.40022587776184,79.10524392127991,79.42189192771912,dot,"[0.06, 0.06, 0.1, 0.06]","[[0.2593869086993074, -0.26887741013308497], [0.09674879007849839, -0.39609983087723066], [-0.011093693993988496, -0.14004324908426333], [0.28630805459639813, -0.4681830009867555]]",density,black,,,N008,visual,8,[],"['1', '2', '3', '4']",1,2023.2.3,harveyvisual,2.1,[],8,0.75,
0,pause,0.4,None,None,None,0,221,221,221,,,,,,,,,,,,,N008,visual,8,[],"['1', '2', '3', '4']",1,2023.2.3,harveyvisual,2.1,[],8,0.75,
4,dot,0.3,['dot'],['density'],black,0,222,222,222,,,80.10023188591003,79.80522608757019,80.12187385559082,dot,"[0.06, 0.08, 0.08, 0.06]","[[0.06241226843583792, -0.3147100539198924], [0.2553405417111816, -0.24584579293690137], [0.0027514156828475403, -0.09786489187307437], [0.1660279615748852, 0.026007470517245626]]",density,black,,,N008,visual,8,[],"['1', '2', '3', '4']",1,2023.2.3,harveyvisual,2.1,[],8,0.75,
0,pause,0.4,None,None,None,0,223,223,223,,,,,,,,,,,,,N008,visual,8,[],"['1', '2', '3', '4']",1,2023.2.3,harveyvisual,2.1,[],8,0.75,
4,dot,0.3,['dot'],['density'],black,0,224,224,224,,,80.8002359867096,80.50522303581238,80.82185196876526,dot,"[0.1, 0.1, 0.1, 0.08]","[[-0.264878088602857, 0.22906395790450432], [0.07239228809704809, 0.2615492699427171], [0.10034738543262733, 0.4676118263175188], [-0.09637524959065707, 0.3769302803343899]]",density,black,,,N008,visual,8,[],"['1', '2', '3', '4']",1,2023.2.3,harveyvisual,2.1,[],8,0.75,
0,pause,0.4,None,None,None,0,225,225,225,,,,,,,,,,,,,N008,visual,8,[],"['1', '2', '3', '4']",1,2023.2.3,harveyvisual,2.1,[],8,0.75,
4,dot,0.3,['dot'],['density'],black,0,226,226,226,,,81.5002179145813,81.20519089698792,81.52183198928833,dot,"[0.1, 0.06, 0.1, 0.1]","[[0.5195678262777355, 0.06634869171649047], [0.11508779247300271, 0.04459464887784077], [0.27862218446352316, 0.18290230777407274], [0.28701832247091064, -0.08209332131291468]]",density,black,,,N008,visual,8,[],"['1', '2', '3', '4']",1,2023.2.3,harveyvisual,2.1,[],8,0.75,
0,pause,0.4,None,None,None,0,227,227,227,,,,,,,,,,,,,N008,visual,8,[],"['1', '2', '3', '4']",1,2023.2.3,harveyvisual,2.1,[],8,0.75,
3,dot,0.3,['dot'],['density'],black,0,228,228,228,,,82.20021891593933,81.90516090393066,82.22182393074036,dot,"[0.06, 0.1, 0.08]","[[-0.5081709494874314, 0.1572673197774781], [-0.37009835501087307, 0.006965763417246156], [-0.5707172634768017, -0.07177594851347295]]",density,black,,,N008,visual,8,[],"['1', '2', '3', '4']",1,2023.2.3,harveyvisual,2.1,[],8,0.75,
0,pause,0.4,None,None,None,0,229,229,229,,,,,,,,,,,,,N008,visual,8,[],"['1', '2', '3', '4']",1,2023.2.3,harveyvisual,2.1,[],8,0.75,
3,dot,0.3,['dot'],['density'],black,0,230,230,230,,,82.90022397041321,82.60513591766357,82.92185306549072,dot,"[0.08, 0.08, 0.06]","[[-0.42255820389626353, 0.35871945956833473], [-0.19896656331745483, 0.3032224324013186], [-0.25553590712368324, 0.5056038804507684]]",density,black,,,N008,visual,8,[],"['1', '2', '3', '4']",1,2023.2.3,harveyvisual,2.1,[],8,0.75,
0,pause,0.4,None,None,None,0,231,231,231,,,,,,,,,,,,,N008,visual,8,[],"['1', '2', '3', '4']",1,2023.2.3,harveyvisual,2.1,[],8,0.75,
3,dot,0.3,['dot'],['density'],black,0,232,232,232,,,83.60021901130676,83.30626893043518,83.62179899215698,dot,"[0.08, 0.1, 0.08]","[[-0.1599523582230929, -0.020289166781496174], [-0.3458010015304564, -0.14250622038001895], [-0.3538668896253721, 0.08903610231223419]]",density,black,,,N008,visual,8,[],"['1', '2', '3', '4']",1,2023.2.3,harveyvisual,2.1,[],8,0.75,
0,pause,0.4,None,None,None,0,233,233,233,,,,,,,,,,,,,N008,visual,8,[],"['1', '2', '3', '4']",1,2023.2.3,harveyvisual,2.1,[],8,0.75,
3,dot,0.3,['dot'],['density'],black,0,234,234,234,,,84.30023789405823,84.00511002540588,84.32338404655457,dot,"[0.06, 0.06, 0.1]","[[-0.1599523582230929, -0.020289166781496174], [-0.3458010015304564, -0.14250622038001895], [-0.3538668896253721, 0.08903610231223419]]",density,black,,,N008,visual,8,[],"['1', '2', '3', '4']",1,2023.2.3,harveyvisual,2.1,[],8,0.75,
0,pause,0.4,None,None,None,0,235,235,235,,,,,,,,,,,,,N008,visual,8,[],"['1', '2', '3', '4']",1,2023.2.3,harveyvisual,2.1,[],8,0.75,
3,dot,0.3,['dot'],['density'],black,0,236,236,236,,,85.00021290779114,84.70510601997375,85.02175092697144,dot,"[0.08, 0.08, 0.08]","[[-0.5649268285189266, -0.02945458741690218], [-0.36332336008090005, 0.05160617148840915], [-0.5004673786076542, 0.20230308468415367]]",density,black,,,N008,visual,8,[],"['1', '2', '3', '4']",1,2023.2.3,harveyvisual,2.1,[],8,0.75,
0,pause,0.4,None,None,None,0,237,237,237,,,,,,,,,,,,,N008,visual,8,[],"['1', '2', '3', '4']",1,2023.2.3,harveyvisual,2.1,[],8,0.75,
3,dot,0.3,['dot'],['density'],black,0,238,238,238,,,85.70021200180054,85.40508008003235,85.72173190116882,dot,"[0.06, 0.06, 0.06]","[[-0.15674404860239688, -0.25078459247658497], [0.006578924124220241, -0.41324131210186005], [0.06959682433872849, -0.20549031443856539]]",density,black,,,N008,visual,8,[],"['1', '2', '3', '4']",1,2023.2.3,harveyvisual,2.1,[],8,0.75,
0,pause,0.4,None,None,None,0,239,239,239,,,,,,,,,,,,,N008,visual,8,[],"['1', '2', '3', '4']",1,2023.2.3,harveyvisual,2.1,[],8,0.75,
2,dot,0.3,['dot'],['density'],black,0,240,240,240,,,86.40021705627441,86.10504293441772,86.42170405387878,dot,"[0.06, 0.1]","[[-0.22226122312079244, -0.00806926593831646], [-0.023245446524914906, -0.037240983575548024]]",density,black,,,N008,visual,8,[],"['1', '2', '3', '4']",1,2023.2.3,harveyvisual,2.1,[],8,0.75,
0,pause,0.4,None,None,None,0,241,241,241,,,,,,,,,,,,,N008,visual,8,[],"['1', '2', '3', '4']",1,2023.2.3,harveyvisual,2.1,[],8,0.75,
2,dot,0.3,['dot'],['density'],black,0,242,242,242,,,87.10020995140076,86.80507397651672,87.12176203727722,dot,"[0.1, 0.1]","[[-0.09730612249650272, 0.4989075015380273], [-0.22752244688881013, 0.34485221713342457]]",density,black,,,N008,visual,8,[],"['1', '2', '3', '4']",1,2023.2.3,harveyvisual,2.1,[],8,0.75,
0,pause,0.4,None,None,None,0,243,243,243,,,,,,,,,,,,,N008,visual,8,[],"['1', '2', '3', '4']",1,2023.2.3,harveyvisual,2.1,[],8,0.75,
2,dot,0.3,['dot'],['density'],black,0,244,244,244,,,87.80023908615112,87.50505995750427,87.82171487808228,dot,"[0.1, 0.08]","[[-0.3970652553054307, 0.36151140161898554], [-0.22306532646831484, 0.26288994227005946]]",density,black,,,N008,visual,8,[],"['1', '2', '3', '4']",1,2023.2.3,harveyvisual,2.1,[],8,0.75,
0,pause,0.4,None,None,None,0,245,245,245,,,,,,,,,,,,,N008,visual,8,[],"['1', '2', '3', '4']",1,2023.2.3,harveyvisual,2.1,[],8,0.75,
2,dot,0.3,['dot'],['density'],white,0,246,246,246,,,88.50023603439331,88.2060980796814,88.52169895172119,dot,"[0.1, 0.06]","[[0.3054529246123127, 0.4455278178545299], [0.3548458028228903, 0.2510588499170468]]",density,white,,,N008,visual,8,[],"['1', '2', '3', '4']",1,2023.2.3,harveyvisual,2.1,[],8,0.75,
0,pause,0.4,None,None,None,0,247,247,247,,,,,,,,,,,1,88.25512599945068,N008,visual,8,[],"['1', '2', '3', '4']",1,2023.2.3,harveyvisual,2.1,[],8,0.75,
2,dot,0.3,['dot'],['density'],black,0,248,248,248,,,89.20020890235901,88.90504789352417,89.22167706489563,dot,"[0.1, 0.1]","[[0.4101371699595759, -0.046236245446824746], [0.42481245787877703, -0.24684889303111815]]",density,black,,,N008,visual,8,[],"['1', '2', '3', '4']",1,2023.2.3,harveyvisual,2.1,[],8,0.75,
0,pause,0.4,None,None,None,0,249,249,249,,,,,,,,,,,,,N008,visual,8,[],"['1', '2', '3', '4']",1,2023.2.3,harveyvisual,2.1,[],8,0.75,
2,dot,0.3,['dot'],['density'],black,0,250,250,250,,,89.90022802352905,89.60500288009644,89.92256093025208,dot,"[0.06, 0.08]","[[-0.5356907773971091, -0.01454049690556478], [-0.3936553319468624, 0.1263392020735458]]",density,black,,,N008,visual,8,[],"['1', '2', '3', '4']",1,2023.2.3,harveyvisual,2.1,[],8,0.75,
0,pause,0.4,None,None,None,0,251,251,251,,,,,,,,,,,,,N008,visual,8,[],"['1', '2', '3', '4']",1,2023.2.3,harveyvisual,2.1,[],8,0.75,
1,dot,0.3,['dot'],['density'],white,0,252,252,252,,,90.60021996498108,90.30497288703918,90.62165093421936,dot,[0.08],"[-0.045934412585722416, -0.12236734128406912]",density,white,,,N008,visual,8,[],"['1', '2', '3', '4']",1,2023.2.3,harveyvisual,2.1,[],8,0.75,
0,pause,0.4,None,None,None,0,253,253,253,,,,,,,,,,,1,90.40738892555237,N008,visual,8,[],"['1', '2', '3', '4']",1,2023.2.3,harveyvisual,2.1,[],8,0.75,
1,dot,0.3,['dot'],['density'],black,0,254,254,254,,,91.30021905899048,91.00495505332947,91.3216199874878,dot,[0.1],"[0.1049869166116724, 0.1335000464341748]",density,black,,,N008,visual,8,[],"['1', '2', '3', '4']",1,2023.2.3,harveyvisual,2.1,[],8,0.75,
0,pause,0.4,None,None,None,0,255,255,255,,,,,,,,,,,,,N008,visual,8,[],"['1', '2', '3', '4']",1,2023.2.3,harveyvisual,2.1,[],8,0.75,
1,dot,0.3,['dot'],['density'],black,0,256,256,256,,,92.00021386146545,91.70496892929077,92.02160096168518,dot,[0.1],"[-0.4519365434524677, 0.22287683068434597]",density,black,,,N008,visual,8,[],"['1', '2', '3', '4']",1,2023.2.3,harveyvisual,2.1,[],8,0.75,
0,pause,0.4,None,None,None,0,257,257,257,,,,,,,,,,,,,N008,visual,8,[],"['1', '2', '3', '4']",1,2023.2.3,harveyvisual,2.1,[],8,0.75,
1,dot,0.3,['dot'],['density'],black,0,258,258,258,,,92.70022702217102,92.40492987632751,92.72155404090881,dot,[0.08],"[-0.30422713965878023, 0.0739284850406325]",density,black,,,N008,visual,8,[],"['1', '2', '3', '4']",1,2023.2.3,harveyvisual,2.1,[],8,0.75,
0,pause,0.4,None,None,None,0,259,259,259,,,,,,,,,,,,,N008,visual,8,[],"['1', '2', '3', '4']",1,2023.2.3,harveyvisual,2.1,[],8,0.75,
1,dot,0.3,['dot'],['density'],black,0,260,260,260,,,93.40023493766785,93.10488200187683,93.42155694961548,dot,[0.08],"[0.03111034986587176, -0.1137363894063533]",density,black,,,N008,visual,8,[],"['1', '2', '3', '4']",1,2023.2.3,harveyvisual,2.1,[],8,0.75,
0,pause,0.4,None,None,None,0,261,261,261,,,,,,,,,,,,,N008,visual,8,[],"['1', '2', '3', '4']",1,2023.2.3,harveyvisual,2.1,[],8,0.75,
1,dot,0.3,['dot'],['density'],black,0,262,262,262,,,94.10021996498108,93.80487895011902,94.1215238571167,dot,[0.08],"[0.1049869166116724, 0.1335000464341748]",density,black,,,N008,visual,8,[],"['1', '2', '3', '4']",1,2023.2.3,harveyvisual,2.1,[],8,0.75,
0,pause,0.4,None,None,None,0,263,263,263,,,,,,,,,,,,,N008,visual,8,[],"['1', '2', '3', '4']",1,2023.2.3,harveyvisual,2.1,[],8,0.75,
20,dot,0.3,['dot'],['density'],black,0,264,264,264,,,94.80022501945496,94.52244400978088,94.82152199745178,dot,"[0.06, 0.08, 0.1, 0.06, 0.08, 0.08, 0.06, 0.1, 0.1, 0.1, 0.1, 0.06, 0.08, 0.08, 0.06, 0.08, 0.06, 0.1, 0.08, 0.08]","[[-0.45475726904903335, -0.23846204116893047], [-0.6040333129256017, 0.011662247501423598], [0.5460073150053003, 0.07278929526954198], [0.1589655231039292, -0.4196922833052328], [0.3660138933041075, 0.0012508772754875053], [0.513576837697952, -0.17909367511129365], [-0.11047439027122685, -0.46651347460568704], [0.23739000147773626, -0.20073340047862903], [-0.08557008787584375, 0.39333867889450536], [-0.0073404740212026365, -0.03026265762987146], [-0.16247577114788259, -0.16124217859638285], [0.2134219044558977, 0.40068830177187775], [-0.2851826100016379, 0.07808486526120872], [-0.13115648879265535, 0.2018933681727939], [0.3406982132225619, 0.24929881968303902], [-0.42367500986806383, 0.4139071289788878], [0.05541264649087552, 0.5867822320526976], [0.3911745920431171, -0.4287917640082648], [-0.4410656655808417, 0.18708914048761133], [0.07577042371651244, 0.15189576028069995]]",density,black,,,N008,visual,8,[],"['1', '2', '3', '4']",1,2023.2.3,harveyvisual,2.1,[],8,0.75,
0,pause,0.4,None,None,None,0,265,265,265,,,,,,,,,,,,,N008,visual,8,[],"['1', '2', '3', '4']",1,2023.2.3,harveyvisual,2.1,[],8,0.75,
20,dot,0.3,['dot'],['density'],black,0,266,266,266,,,95.5002338886261,95.221510887146,95.52149105072021,dot,"[0.06, 0.08, 0.08, 0.08, 0.08, 0.06, 0.1, 0.06, 0.06, 0.08, 0.08, 0.08, 0.1, 0.06, 0.06, 0.1, 0.1, 0.06, 0.06, 0.06]","[[0.4578393870207932, -0.08954728629999614], [-0.20754678465433996, 0.2748907646200439], [-0.2852852670494832, -0.421187561856172], [0.12660823851714298, 0.3043982457513469], [-0.5900257014869624, 0.11503578409214982], [-0.4581381163990411, -0.2494359203442507], [-0.2613953031569017, -0.18350049274791314], [0.04035440387694211, -0.07938168242993415], [-0.020392828911789285, 0.5345841967497144], [0.4884273219739498, 0.24772647554653215], [-0.005591477997837657, -0.5330640077165659], [-0.3684938934612306, 0.42301054209186095], [0.18821514293252617, -0.26837275086000406], [0.5943301237816377, 0.06722589164265803], [0.32099145715098276, -0.4524397489370229], [0.03927801717980517, 0.1250288364055686], [-0.2772842763757316, 0.09271968869566949], [-0.06344471625839776, -0.3283244492872172], [0.22899704339630733, 0.5078733786794757], [0.23018717264338584, 0.056269031710690975]]",density,black,,,N008,visual,8,[],"['1', '2', '3', '4']",1,2023.2.3,harveyvisual,2.1,[],8,0.75,
0,pause,0.4,None,None,None,0,267,267,267,,,,,,,,,,,,,N008,visual,8,[],"['1', '2', '3', '4']",1,2023.2.3,harveyvisual,2.1,[],8,0.75,
