num,mod,duration,shape,ll_cond,colors,.thisRepN,.thisTrialN,.thisN,.thisIndex,thisRow.t,notes,raw_global_time,t_start,t_stop,shapes,size,pos,cond,color,button,RT,participant,session,starting_run,left button (match/odd),right button (non-match/even),samples_per_block,psychopy version,expName,offset,audio,number_runs,radius,
1,dot,0.3,['dot'],['density'],black,0,0,0,0,,,2.400207042694092,2.1133670806884766,2.4132940769195557,dot,[0.1],"[-0.4309303250570785, -0.37878052449928096]",density,black,,,N008,visual,1,[],"['1', '2', '3', '4']",1,2023.2.3,harveyvisual,2.1,[],8,0.75,
0,pause,0.4,None,None,None,0,1,1,1,,,,,,,,,,,,,N008,visual,1,[],"['1', '2', '3', '4']",1,2023.2.3,harveyvisual,2.1,[],8,0.75,
1,dot,0.3,['dot'],['density'],black,0,2,2,2,,,3.1002190113067627,2.8132901191711426,3.1137800216674805,dot,[0.08],"[0.2287398259034258, -0.3932960849464651]",density,black,,,N008,visual,1,[],"['1', '2', '3', '4']",1,2023.2.3,harveyvisual,2.1,[],8,0.75,
0,pause,0.4,None,None,None,0,3,3,3,,,,,,,,,,,,,N008,visual,1,[],"['1', '2', '3', '4']",1,2023.2.3,harveyvisual,2.1,[],8,0.75,
1,dot,0.3,['dot'],['density'],black,0,4,4,4,,,3.800220012664795,3.513777017593384,3.81376314163208,dot,[0.08],"[0.5668064281626585, -0.020013277593342628]",density,black,,,N008,visual,1,[],"['1', '2', '3', '4']",1,2023.2.3,harveyvisual,2.1,[],8,0.75,
0,pause,0.4,None,None,None,0,5,5,5,,,,,,,,,,,,,N008,visual,1,[],"['1', '2', '3', '4']",1,2023.2.3,harveyvisual,2.1,[],8,0.75,
1,dot,0.3,['dot'],['density'],black,0,6,6,6,,,4.5002281665802,4.2137579917907715,4.513741970062256,dot,[0.08],"[-0.00037526000000685745, -0.027921386894572527]",density,black,,,N008,visual,1,[],"['1', '2', '3', '4']",1,2023.2.3,harveyvisual,2.1,[],8,0.75,
0,pause,0.4,None,None,None,0,7,7,7,,,,,,,,,,,,,N008,visual,1,[],"['1', '2', '3', '4']",1,2023.2.3,harveyvisual,2.1,[],8,0.75,
1,dot,0.3,['dot'],['density'],black,0,8,8,8,,,5.200220108032227,4.913733959197998,5.2141430377960205,dot,[0.1],"[-0.2532192430475575, -0.5275431624831907]",density,black,,,N008,visual,1,[],"['1', '2', '3', '4']",1,2023.2.3,harveyvisual,2.1,[],8,0.75,
0,pause,0.4,None,None,None,0,9,9,9,,,,,,,,,,,,,N008,visual,1,[],"['1', '2', '3', '4']",1,2023.2.3,harveyvisual,2.1,[],8,0.75,
1,dot,0.3,['dot'],['density'],black,0,10,10,10,,,5.900228977203369,5.616230010986328,5.91621208190918,dot,[0.1],"[-0.00037526000000685745, -0.027921386894572527]",density,black,,,N008,visual,1,[],"['1', '2', '3', '4']",1,2023.2.3,harveyvisual,2.1,[],8,0.75,
0,pause,0.4,None,None,None,0,11,11,11,,,,,,,,,,,,,N008,visual,1,[],"['1', '2', '3', '4']",1,2023.2.3,harveyvisual,2.1,[],8,0.75,
2,dot,0.3,['dot'],['density'],black,0,12,12,12,,,6.60020112991333,6.316215991973877,6.6161949634552,dot,"[0.06, 0.1]","[[0.4101371699595759, -0.046236245446824746], [0.42481245787877703, -0.24684889303111815]]",density,black,,,N008,visual,1,[],"['1', '2', '3', '4']",1,2023.2.3,harveyvisual,2.1,[],8,0.75,
0,pause,0.4,None,None,None,0,13,13,13,,,,,,,,,,,,,N008,visual,1,[],"['1', '2', '3', '4']",1,2023.2.3,harveyvisual,2.1,[],8,0.75,
2,dot,0.3,['dot'],['density'],black,0,14,14,14,,,7.300223112106323,7.01604700088501,7.316040992736816,dot,"[0.06, 0.1]","[[-0.21141336561075566, 0.4273762957479495], [-0.1407142259739198, 0.23984948612333498]]",density,black,,,N008,visual,1,[],"['1', '2', '3', '4']",1,2023.2.3,harveyvisual,2.1,[],8,0.75,
0,pause,0.4,None,None,None,0,15,15,15,,,,,,,,,,,,,N008,visual,1,[],"['1', '2', '3', '4']",1,2023.2.3,harveyvisual,2.1,[],8,0.75,
2,dot,0.3,['dot'],['density'],black,0,16,16,16,,,8.000225067138672,7.716029167175293,8.016041994094849,dot,"[0.06, 0.1]","[[-0.40295961353468523, -0.33947470962363085], [-0.23663605411983973, -0.22749761394439932]]",density,black,,,N008,visual,1,[],"['1', '2', '3', '4']",1,2023.2.3,harveyvisual,2.1,[],8,0.75,
0,pause,0.4,None,None,None,0,17,17,17,,,,,,,,,,,,,N008,visual,1,[],"['1', '2', '3', '4']",1,2023.2.3,harveyvisual,2.1,[],8,0.75,
2,dot,0.3,['dot'],['density'],black,0,18,18,18,,,8.700212955474854,8.416049003601074,8.716148138046265,dot,"[0.1, 0.06]","[[-0.22226122312079244, -0.00806926593831646], [-0.023245446524914906, -0.037240983575548024]]",density,black,,,N008,visual,1,[],"['1', '2', '3', '4']",1,2023.2.3,harveyvisual,2.1,[],8,0.75,
0,pause,0.4,None,None,None,0,19,19,19,,,,,,,,,,,,,N008,visual,1,[],"['1', '2', '3', '4']",1,2023.2.3,harveyvisual,2.1,[],8,0.75,
2,dot,0.3,['dot'],['density'],black,0,20,20,20,,,9.400200128555298,9.116160154342651,9.415977001190186,dot,"[0.1, 0.08]","[[0.4298854344354601, 0.24556028782034023], [0.23727674624932948, 0.18886586315459258]]",density,black,,,N008,visual,1,[],"['1', '2', '3', '4']",1,2023.2.3,harveyvisual,2.1,[],8,0.75,
0,pause,0.4,None,None,None,0,21,21,21,,,,,,,,,,,,,N008,visual,1,[],"['1', '2', '3', '4']",1,2023.2.3,harveyvisual,2.1,[],8,0.75,
2,dot,0.3,['dot'],['density'],black,0,22,22,22,,,10.100212097167969,9.815948009490967,10.115957021713257,dot,"[0.1, 0.1]","[[0.09481659993656301, 0.43631713998557026], [0.0662189159667295, 0.23745101446818795]]",density,black,,,N008,visual,1,[],"['1', '2', '3', '4']",1,2023.2.3,harveyvisual,2.1,[],8,0.75,
0,pause,0.4,None,None,None,0,23,23,23,,,,,,,,,,,,,N008,visual,1,[],"['1', '2', '3', '4']",1,2023.2.3,harveyvisual,2.1,[],8,0.75,
3,dot,0.3,['dot'],['density'],black,0,24,24,24,,,10.800204992294312,10.515959978103638,10.815945148468018,dot,"[0.1, 0.08, 0.08]","[[0.29938275938101017, 0.44415474715472736], [0.13070782598704628, 0.5557174004537693], [0.11832456902218637, 0.3273615767427578]]",density,black,,,N008,visual,1,[],"['1', '2', '3', '4']",1,2023.2.3,harveyvisual,2.1,[],8,0.75,
0,pause,0.4,None,None,None,0,25,25,25,,,,,,,,,,,,,N008,visual,1,[],"['1', '2', '3', '4']",1,2023.2.3,harveyvisual,2.1,[],8,0.75,
3,dot,0.3,['dot'],['density'],black,0,26,26,26,,,11.500210046768188,11.215919017791748,11.515905141830444,dot,"[0.08, 0.06, 0.08]","[[-0.05604225559701161, -0.5082314702914299], [0.10137377066920354, -0.3837858820064252], [-0.12802807887251882, -0.3142638921214105]]",density,black,,,N008,visual,1,[],"['1', '2', '3', '4']",1,2023.2.3,harveyvisual,2.1,[],8,0.75,
0,pause,0.4,None,None,None,0,27,27,27,,,,,,,,,,,,,N008,visual,1,[],"['1', '2', '3', '4']",1,2023.2.3,harveyvisual,2.1,[],8,0.75,
3,dot,0.3,['dot'],['density'],black,0,28,28,28,,,12.200200080871582,11.91589617729187,12.21604609489441,dot,"[0.08, 0.06, 0.06]","[[-0.18534860244577742, 0.5145019772121514], [0.05660586421610542, 0.42456432010350276], [-0.11463700911578348, 0.31489985189225056]]",density,black,,,N008,visual,1,[],"['1', '2', '3', '4']",1,2023.2.3,harveyvisual,2.1,[],8,0.75,
0,pause,0.4,None,None,None,0,29,29,29,,,,,,,,,,,,,N008,visual,1,[],"['1', '2', '3', '4']",1,2023.2.3,harveyvisual,2.1,[],8,0.75,
3,dot,0.3,['dot'],['density'],black,0,30,30,30,,,12.900205135345459,12.61607313156128,12.916013956069946,dot,"[0.1, 0.08, 0.06]","[[0.3935061822875672, 0.2255916562549388], [0.5507663609445765, 0.05974239467682067], [0.33737455125106675, -0.013318187219183488]]",density,black,,,N008,visual,1,[],"['1', '2', '3', '4']",1,2023.2.3,harveyvisual,2.1,[],8,0.75,
0,pause,0.4,None,None,None,0,31,31,31,,,,,,,,,,,,,N008,visual,1,[],"['1', '2', '3', '4']",1,2023.2.3,harveyvisual,2.1,[],8,0.75,
3,dot,0.3,['dot'],['density'],black,0,32,32,32,,,13.600213050842285,13.316025018692017,13.616005182266235,dot,"[0.06, 0.1, 0.06]","[[0.35100391059830643, -0.4491085892346253], [0.13011513135189492, -0.5590284990295896], [0.16905753934955023, -0.35714526366544236]]",density,black,,,N008,visual,1,[],"['1', '2', '3', '4']",1,2023.2.3,harveyvisual,2.1,[],8,0.75,
0,pause,0.4,None,None,None,0,33,33,33,,,,,,,,,,,,,N008,visual,1,[],"['1', '2', '3', '4']",1,2023.2.3,harveyvisual,2.1,[],8,0.75,
3,dot,0.3,['dot'],['density'],black,0,34,34,34,,,14.300204038619995,14.016011953353882,14.315999031066895,dot,"[0.08, 0.08, 0.08]","[[-0.15674404860239688, -0.25078459247658497], [0.006578924124220241, -0.41324131210186005], [0.06959682433872849, -0.20549031443856539]]",density,black,,,N008,visual,1,[],"['1', '2', '3', '4']",1,2023.2.3,harveyvisual,2.1,[],8,0.75,
0,pause,0.4,None,None,None,0,35,35,35,,,,,,,,,,,,,N008,visual,1,[],"['1', '2', '3', '4']",1,2023.2.3,harveyvisual,2.1,[],8,0.75,
4,dot,0.3,['dot'],['density'],black,0,36,36,36,,,15.000219106674194,14.716009140014648,15.01597809791565,dot,"[0.08, 0.1, 0.06, 0.1]","[[0.2472118047986834, -0.10298318101898082], [0.5832669122255578, -0.0503561045998346], [0.411076479450662, -0.2641061246578253], [0.42907679660555237, 0.09101913809416001]]",density,black,,,N008,visual,1,[],"['1', '2', '3', '4']",1,2023.2.3,harveyvisual,2.1,[],8,0.75,
0,pause,0.4,None,None,None,0,37,37,37,,,,,,,,,,,,,N008,visual,1,[],"['1', '2', '3', '4']",1,2023.2.3,harveyvisual,2.1,[],8,0.75,
4,dot,0.3,['dot'],['density'],black,0,38,38,38,,,15.700227975845337,15.415977954864502,15.715960025787354,dot,"[0.1, 0.08, 0.06, 0.1]","[[0.06241226843583792, -0.3147100539198924], [0.2553405417111816, -0.24584579293690137], [0.0027514156828475403, -0.09786489187307437], [0.1660279615748852, 0.026007470517245626]]",density,black,,,N008,visual,1,[],"['1', '2', '3', '4']",1,2023.2.3,harveyvisual,2.1,[],8,0.75,
0,pause,0.4,None,None,None,0,39,39,39,,,,,,,,,,,,,N008,visual,1,[],"['1', '2', '3', '4']",1,2023.2.3,harveyvisual,2.1,[],8,0.75,
4,dot,0.3,['dot'],['density'],black,0,40,40,40,,,16.400200128555298,16.115966081619263,16.415950059890747,dot,"[0.1, 0.08, 0.06, 0.06]","[[0.2541297109701026, -0.03410267595110144], [0.396116024817599, -0.19002287009394117], [0.4303711222235913, 0.2602585224666286], [0.4446461975978109, 0.027516111316963392]]",density,black,,,N008,visual,1,[],"['1', '2', '3', '4']",1,2023.2.3,harveyvisual,2.1,[],8,0.75,
0,pause,0.4,None,None,None,0,41,41,41,,,,,,,,,,,,,N008,visual,1,[],"['1', '2', '3', '4']",1,2023.2.3,harveyvisual,2.1,[],8,0.75,
4,dot,0.3,['dot'],['density'],black,0,42,42,42,,,17.100216150283813,16.815958976745605,17.1159451007843,dot,"[0.08, 0.1, 0.06, 0.1]","[[-0.5372831058023291, 0.07679305146548565], [-0.47746952625478134, -0.11455356156484316], [-0.2888199447118168, 0.02804534169422597], [-0.3317661241759115, -0.2533775510137967]]",density,black,,,N008,visual,1,[],"['1', '2', '3', '4']",1,2023.2.3,harveyvisual,2.1,[],8,0.75,
0,pause,0.4,None,None,None,0,43,43,43,,,,,,,,,,,,,N008,visual,1,[],"['1', '2', '3', '4']",1,2023.2.3,harveyvisual,2.1,[],8,0.75,
4,dot,0.3,['dot'],['density'],black,0,44,44,44,,,17.800214052200317,17.515959978103638,17.815927982330322,dot,"[0.08, 0.1, 0.08, 0.06]","[[0.2593869086993074, -0.26887741013308497], [0.09674879007849839, -0.39609983087723066], [-0.011093693993988496, -0.14004324908426333], [0.28630805459639813, -0.4681830009867555]]",density,black,,,N008,visual,1,[],"['1', '2', '3', '4']",1,2023.2.3,harveyvisual,2.1,[],8,0.75,
0,pause,0.4,None,None,None,0,45,45,45,,,,,,,,,,,,,N008,visual,1,[],"['1', '2', '3', '4']",1,2023.2.3,harveyvisual,2.1,[],8,0.75,
4,dot,0.3,['dot'],['density'],black,0,46,46,46,,,18.500218152999878,18.215779066085815,18.515753984451294,dot,"[0.08, 0.1, 0.06, 0.1]","[[0.06326389353998313, -0.3457479010937814], [-0.07512051392095552, -0.02196355495157639], [0.09410934090401228, -0.14113260442523076], [-0.13717358852421138, -0.29916566844175635]]",density,black,,,N008,visual,1,[],"['1', '2', '3', '4']",1,2023.2.3,harveyvisual,2.1,[],8,0.75,
0,pause,0.4,None,None,None,0,47,47,47,,,,,,,,,,,,,N008,visual,1,[],"['1', '2', '3', '4']",1,2023.2.3,harveyvisual,2.1,[],8,0.75,
5,dot,0.3,['dot'],['density'],white,0,48,48,48,,,19.20021104812622,18.915709018707275,19.215708017349243,dot,"[0.06, 0.08, 0.08, 0.08, 0.08]","[[0.45108699871130137, 0.12052648913612102], [0.3120839015871755, -0.055344110322042436], [0.5361186937318446, -0.08608482415671545], [0.24926945818158194, 0.15209517992691748], [0.3855135356736719, -0.25840400127360613]]",density,white,,,N008,visual,1,[],"['1', '2', '3', '4']",1,2023.2.3,harveyvisual,2.1,[],8,0.75,
0,pause,0.4,None,None,None,0,49,49,49,,,,,,,,,,,1,19.302408933639526,N008,visual,1,[],"['1', '2', '3', '4']",1,2023.2.3,harveyvisual,2.1,[],8,0.75,
5,dot,0.3,['dot'],['density'],black,0,50,50,50,,,19.90021300315857,19.61574697494507,19.915735006332397,dot,"[0.08, 0.06, 0.08, 0.06, 0.06]","[[-0.0036269740154891753, 0.5431219823242713], [-0.2646325594942043, 0.5073179604697073], [-0.41902475937036154, 0.37311436690984484], [-0.007163214206743488, 0.2887893175302695], [-0.2156098228659233, 0.2684642371109035]]",density,black,,,N008,visual,1,[],"['1', '2', '3', '4']",1,2023.2.3,harveyvisual,2.1,[],8,0.75,
0,pause,0.4,None,None,None,0,51,51,51,,,,,,,,,,,,,N008,visual,1,[],"['1', '2', '3', '4']",1,2023.2.3,harveyvisual,2.1,[],8,0.75,
5,dot,0.3,['dot'],['density'],black,0,52,52,52,,,20.600221157073975,20.315714120864868,20.615692138671875,dot,"[0.08, 0.1, 0.08, 0.06, 0.08]","[[-0.4709100701083565, 0.02189337908226187], [-0.29145525575644754, 0.3795081276742083], [-0.23690205020139254, 0.016868774910060797], [-0.4278442329265702, 0.22919645259494104], [-0.09991604659712162, 0.23043195716445664]]",density,black,,,N008,visual,1,[],"['1', '2', '3', '4']",1,2023.2.3,harveyvisual,2.1,[],8,0.75,
0,pause,0.4,None,None,None,0,53,53,53,,,,,,,,,,,,,N008,visual,1,[],"['1', '2', '3', '4']",1,2023.2.3,harveyvisual,2.1,[],8,0.75,
5,dot,0.3,['dot'],['density'],black,0,54,54,54,,,21.300225973129272,21.01570415496826,21.315685033798218,dot,"[0.1, 0.1, 0.1, 0.1, 0.06]","[[-0.13250041589442924, 0.4634743177333449], [-0.03625216126902591, 0.28212032656479163], [0.10864293512180892, 0.5244886061775208], [-0.2806491611955352, 0.29160063440784684], [-0.17458602784440078, 0.11997474961663163]]",density,black,,,N008,visual,1,[],"['1', '2', '3', '4']",1,2023.2.3,harveyvisual,2.1,[],8,0.75,
0,pause,0.4,None,None,None,0,55,55,55,,,,,,,,,,,,,N008,visual,1,[],"['1', '2', '3', '4']",1,2023.2.3,harveyvisual,2.1,[],8,0.75,
5,dot,0.3,['dot'],['density'],white,0,56,56,56,,,22.000225067138672,21.715710163116455,22.015696048736572,dot,"[0.08, 0.08, 0.1, 0.1, 0.1]","[[-0.4702494158317004, 0.19352793081356498], [-0.36864189631283095, -0.2113573127283173], [-0.3573601989406874, -0.007363185939446715], [-0.15559938224235453, -0.02548680069503583], [-0.25069196230576396, 0.1747846118010945]]",density,white,,,N008,visual,1,[],"['1', '2', '3', '4']",1,2023.2.3,harveyvisual,2.1,[],8,0.75,
0,pause,0.4,None,None,None,0,57,57,57,,,,,,,,,,,1,22.12076497077942,N008,visual,1,[],"['1', '2', '3', '4']",1,2023.2.3,harveyvisual,2.1,[],8,0.75,
5,dot,0.3,['dot'],['density'],black,0,58,58,58,,,22.70023012161255,22.415675163269043,22.715636014938354,dot,"[0.06, 0.1, 0.1, 0.1, 0.08]","[[0.10176071415026891, -0.0029310292721688898], [0.32748853803000494, -0.2831003617774451], [0.10999898603900501, -0.23076615641811304], [0.2383494361888625, 0.16403485824849598], [0.3558293804179042, -0.08171974316418079]]",density,black,,,N008,visual,1,[],"['1', '2', '3', '4']",1,2023.2.3,harveyvisual,2.1,[],8,0.75,
0,pause,0.4,None,None,None,0,59,59,59,,,,,,,,,,,,,N008,visual,1,[],"['1', '2', '3', '4']",1,2023.2.3,harveyvisual,2.1,[],8,0.75,
6,dot,0.3,['dot'],['density'],black,0,60,60,60,,,23.400222063064575,23.115620136260986,23.415596961975098,dot,"[0.08, 0.1, 0.1, 0.06, 0.08, 0.1]","[[-0.362545063880459, -0.421860962952156], [-0.24010638466002518, -0.0327569241266412], [-0.22622339336134992, -0.23590116153186103], [-0.41823503972227205, -0.14060420183103206], [-0.028992295722001654, -0.1293578273409096], [-0.1459617666416116, -0.4591052827033254]]",density,black,,,N008,visual,1,[],"['1', '2', '3', '4']",1,2023.2.3,harveyvisual,2.1,[],8,0.75,
0,pause,0.4,None,None,None,0,61,61,61,,,,,,,,,,,,,N008,visual,1,[],"['1', '2', '3', '4']",1,2023.2.3,harveyvisual,2.1,[],8,0.75,
6,dot,0.3,['dot'],['density'],black,0,62,62,62,,,24.100221157073975,23.815690994262695,24.115787982940674,dot,"[0.08, 0.08, 0.08, 0.1, 0.08, 0.06]","[[0.23041567882598732, 0.45619944218456715], [0.5278859611842325, 0.18245830030246968], [0.08738225171760033, 0.1578384040678088], [0.20561463112105705, -0.03996865664556224], [0.3021721310554224, 0.21718230064421146], [0.4273755636869532, 0.38341374408431883]]",density,black,,,N008,visual,1,[],"['1', '2', '3', '4']",1,2023.2.3,harveyvisual,2.1,[],8,0.75,
0,pause,0.4,None,None,None,0,63,63,63,,,,,,,,,,,,,N008,visual,1,[],"['1', '2', '3', '4']",1,2023.2.3,harveyvisual,2.1,[],8,0.75,
6,dot,0.3,['dot'],['density'],black,0,64,64,64,,,24.8002290725708,24.515609979629517,24.815839052200317,dot,"[0.06, 0.06, 0.08, 0.1, 0.1, 0.06]","[[-0.36874454135919904, -0.07559312273534534], [-0.010504004432700158, -0.20559114413973084], [-0.17044584652251332, 0.17221059634863578], [-0.26251446752681207, -0.3074850979938877], [0.06633568674208327, -0.020893677029436595], [-0.1538914639536258, -0.02772778393149798]]",density,black,,,N008,visual,1,[],"['1', '2', '3', '4']",1,2023.2.3,harveyvisual,2.1,[],8,0.75,
0,pause,0.4,None,None,None,0,65,65,65,,,,,,,,,,,,,N008,visual,1,[],"['1', '2', '3', '4']",1,2023.2.3,harveyvisual,2.1,[],8,0.75,
6,dot,0.3,['dot'],['density'],black,0,66,66,66,,,25.500221967697144,25.215818166732788,25.51580309867859,dot,"[0.06, 0.08, 0.1, 0.08, 0.06, 0.08]","[[-0.060066269329224556, -0.3459973645598818], [-0.2267112282887438, -0.46433083725857055], [-0.03368736353914721, -0.0592740518520544], [0.1129416353875032, -0.20466059509733167], [0.13908697530976044, -0.42386339769443276], [-0.2931789080149146, -0.2669036372638095]]",density,black,,,N008,visual,1,[],"['1', '2', '3', '4']",1,2023.2.3,harveyvisual,2.1,[],8,0.75,
0,pause,0.4,None,None,None,0,67,67,67,,,,,,,,,,,,,N008,visual,1,[],"['1', '2', '3', '4']",1,2023.2.3,harveyvisual,2.1,[],8,0.75,
6,dot,0.3,['dot'],['density'],black,0,68,68,68,,,26.20022702217102,25.915784120559692,26.215821027755737,dot,"[0.06, 0.1, 0.06, 0.06, 0.1, 0.1]","[[0.3299424372810393, 0.4114780133894161], [0.051944887288218326, -0.03233758374135307], [0.4337222981537534, -0.07578498258626121], [0.10477943773033714, 0.1703675017914044], [0.3400878522727408, 0.20016066552806494], [0.2510029109880425, 0.01747244452819591]]",density,black,,,N008,visual,1,[],"['1', '2', '3', '4']",1,2023.2.3,harveyvisual,2.1,[],8,0.75,
0,pause,0.4,None,None,None,0,69,69,69,,,,,,,,,,,,,N008,visual,1,[],"['1', '2', '3', '4']",1,2023.2.3,harveyvisual,2.1,[],8,0.75,
6,dot,0.3,['dot'],['density'],black,0,70,70,70,,,26.90021014213562,26.615782976150513,26.915657997131348,dot,"[0.08, 0.06, 0.1, 0.06, 0.1, 0.1]","[[0.01776890784276672, 0.3448500499300058], [-0.18238616215991446, 0.4840889924469993], [-0.2129582374372363, 0.07157874559070018], [-0.41549008775918617, 0.14353268657608398], [0.019487844458329944, 0.1389587799501653], [-0.21004805074000235, 0.2837936954907191]]",density,black,,,N008,visual,1,[],"['1', '2', '3', '4']",1,2023.2.3,harveyvisual,2.1,[],8,0.75,
0,pause,0.4,None,None,None,0,71,71,71,,,,,,,,,,,,,N008,visual,1,[],"['1', '2', '3', '4']",1,2023.2.3,harveyvisual,2.1,[],8,0.75,
7,dot,0.3,['dot'],['density'],black,0,72,72,72,,,27.600226163864136,27.31567096710205,27.615653038024902,dot,"[0.08, 0.1, 0.1, 0.08, 0.1, 0.08, 0.08]","[[0.1318978468379982, 0.48780960721302624], [-0.15530952210580917, 0.2429536962773128], [0.21675324185561073, 0.09111206147250148], [0.13033099328542835, 0.28547066376201063], [0.3859901392997328, 0.20497483482614012], [0.014590257841440182, 0.0970646397970693], [0.1730960121663288, -0.1180805096677859]]",density,black,,,N008,visual,1,[],"['1', '2', '3', '4']",1,2023.2.3,harveyvisual,2.1,[],8,0.75,
0,pause,0.4,None,None,None,0,73,73,73,,,,,,,,,,,,,N008,visual,1,[],"['1', '2', '3', '4']",1,2023.2.3,harveyvisual,2.1,[],8,0.75,
7,dot,0.3,['dot'],['density'],black,0,74,74,74,,,28.300225973129272,28.015690088272095,28.31547999382019,dot,"[0.06, 0.08, 0.08, 0.1, 0.1, 0.06, 0.1]","[[-0.4260259763687212, 0.0015611622021723967], [-0.003169876971998007, 0.13415651360788267], [-0.2586764037849864, 0.4417783913692737], [-0.4397986643511286, 0.306274470342183], [-0.0069778791964768315, 0.3653924841843964], [-0.25662591460159173, 0.21046748777052526], [-0.17930648864359452, 0.007725268650954965]]",density,black,,,N008,visual,1,[],"['1', '2', '3', '4']",1,2023.2.3,harveyvisual,2.1,[],8,0.75,
0,pause,0.4,None,None,None,0,75,75,75,,,,,,,,,,,,,N008,visual,1,[],"['1', '2', '3', '4']",1,2023.2.3,harveyvisual,2.1,[],8,0.75,
7,dot,0.3,['dot'],['density'],black,0,76,76,76,,,29.00020718574524,28.715517044067383,29.01553201675415,dot,"[0.1, 0.08, 0.1, 0.1, 0.1, 0.08, 0.08]","[[0.2966712274604575, -0.2131825579980761], [-0.1186836204372937, -0.4965034514665913], [-0.01440301872015537, -0.0403072600505146], [0.1950017499803942, -0.04023412759326238], [0.279011892689379, -0.46996203863525404], [-0.05628257964606558, -0.24364929332980273], [0.11956786588335709, -0.3438640467385331]]",density,black,,,N008,visual,1,[],"['1', '2', '3', '4']",1,2023.2.3,harveyvisual,2.1,[],8,0.75,
0,pause,0.4,None,None,None,0,77,77,77,,,,,,,,,,,,,N008,visual,1,[],"['1', '2', '3', '4']",1,2023.2.3,harveyvisual,2.1,[],8,0.75,
7,dot,0.3,['dot'],['density'],black,0,78,78,78,,,29.700229167938232,29.415651082992554,29.7156879901886,dot,"[0.06, 0.06, 0.08, 0.1, 0.08, 0.08, 0.08]","[[-0.137089699111686, -0.0603537150230737], [-0.5113647139476066, -0.13847335204066147], [-0.15813839015967857, -0.36469710156031643], [-0.2936616210719107, -0.2141411575526577], [-0.32787652212665946, 0.04250548396893007], [0.004093135922799089, -0.22788394746255153], [-0.17456170860443615, 0.20133573380951708]]",density,black,,,N008,visual,1,[],"['1', '2', '3', '4']",1,2023.2.3,harveyvisual,2.1,[],8,0.75,
0,pause,0.4,None,None,None,0,79,79,79,,,,,,,,,,,,,N008,visual,1,[],"['1', '2', '3', '4']",1,2023.2.3,harveyvisual,2.1,[],8,0.75,
7,dot,0.3,['dot'],['density'],black,0,80,80,80,,,30.400223970413208,30.11567497253418,30.415685176849365,dot,"[0.1, 0.1, 0.06, 0.06, 0.1, 0.08, 0.06]","[[0.12902113605384963, -0.35167066519854956], [0.3838909825822851, -0.05572740120406059], [-0.02857767273637445, 0.1549795872955612], [0.19333287999408408, 0.10698923431715611], [-0.08146847087507005, -0.06064403559207536], [0.18020694687254563, -0.15550905334431223], [-0.07225335190945896, -0.28606481362007624]]",density,black,,,N008,visual,1,[],"['1', '2', '3', '4']",1,2023.2.3,harveyvisual,2.1,[],8,0.75,
0,pause,0.4,None,None,None,0,81,81,81,,,,,,,,,,,,,N008,visual,1,[],"['1', '2', '3', '4']",1,2023.2.3,harveyvisual,2.1,[],8,0.75,
7,dot,0.3,['dot'],['density'],black,0,82,82,82,,,31.100224018096924,30.8156840801239,31.115451097488403,dot,"[0.06, 0.08, 0.08, 0.08, 0.06, 0.08, 0.06]","[[-0.15204905838880944, -0.5333107186751418], [-0.1519936835116667, -0.2986813487337615], [0.3123805602017952, -0.370842296180838], [-0.04397638837772695, -0.01669328424437847], [0.11716920447009348, -0.14912816843546053], [0.1067198166566748, -0.5553575834591685], [0.04038917577175449, -0.3541606866516689]]",density,black,,,N008,visual,1,[],"['1', '2', '3', '4']",1,2023.2.3,harveyvisual,2.1,[],8,0.75,
0,pause,0.4,None,None,None,0,83,83,83,,,,,,,,,,,,,N008,visual,1,[],"['1', '2', '3', '4']",1,2023.2.3,harveyvisual,2.1,[],8,0.75,
8,dot,0.3,['dot'],['density'],black,0,84,84,84,,,31.80020499229431,31.515448093414307,31.815446138381958,dot,"[0.06, 0.1, 0.06, 0.06, 0.08, 0.1, 0.08, 0.1]","[[0.3364035831170529, 0.12390393923093283], [0.4336864367158133, 0.35981147627037974], [0.06743640335689947, 0.0759148581953004], [-0.079559988999742, 0.39531058321326396], [0.21309668101319243, 0.48855257098982907], [0.23478258025928536, -0.08446837776908474], [-0.12854716397353463, 0.17339976512773136], [0.14965136140762586, 0.26897313353206964]]",density,black,,,N008,visual,1,[],"['1', '2', '3', '4']",1,2023.2.3,harveyvisual,2.1,[],8,0.75,
0,pause,0.4,None,None,None,0,85,85,85,,,,,,,,,,,,,N008,visual,1,[],"['1', '2', '3', '4']",1,2023.2.3,harveyvisual,2.1,[],8,0.75,
8,dot,0.3,['dot'],['density'],black,0,86,86,86,,,32.50021815299988,32.21544313430786,32.515401124954224,dot,"[0.08, 0.06, 0.1, 0.1, 0.08, 0.1, 0.1, 0.1]","[[0.4694715163891994, 0.13329625263481096], [0.14358160208090395, 0.35167434699812705], [0.41559735975202405, 0.3690190921299561], [-0.041805684447173724, 0.4315913723966695], [-0.04993254304034498, 0.2285123563850015], [0.25337459258073897, 0.16365346604105616], [0.18476510797087844, 0.5481483313560797], [0.14868800337579569, -0.10349430855878591]]",density,black,,,N008,visual,1,[],"['1', '2', '3', '4']",1,2023.2.3,harveyvisual,2.1,[],8,0.75,
0,pause,0.4,None,None,None,0,87,87,87,,,,,,,,,,,,,N008,visual,1,[],"['1', '2', '3', '4']",1,2023.2.3,harveyvisual,2.1,[],8,0.75,
8,dot,0.3,['dot'],['density'],black,0,88,88,88,,,33.20022511482239,32.91539216041565,33.21537399291992,dot,"[0.06, 0.08, 0.1, 0.08, 0.08, 0.1, 0.08, 0.1]","[[-0.17382250058115215, 0.008030820220576582], [-0.5561520679887834, 0.09064024109159684], [-0.2322770524578434, -0.18818443710846813], [-0.41357291590276396, -0.2905316508268561], [-0.37423053416790164, -0.04064357687765813], [-0.014699175284411378, 0.15059198662288528], [-0.015485985535575739, -0.1348843831724925], [-0.36639977644872057, 0.228205681233079]]",density,black,,,N008,visual,1,[],"['1', '2', '3', '4']",1,2023.2.3,harveyvisual,2.1,[],8,0.75,
0,pause,0.4,None,None,None,0,89,89,89,,,,,,,,,,,,,N008,visual,1,[],"['1', '2', '3', '4']",1,2023.2.3,harveyvisual,2.1,[],8,0.75,
8,dot,0.3,['dot'],['density'],black,0,90,90,90,,,33.90022110939026,33.61533999443054,33.91534209251404,dot,"[0.06, 0.08, 0.1, 0.1, 0.06, 0.08, 0.06, 0.08]","[[0.3364035831170529, 0.12390393923093283], [0.4336864367158133, 0.35981147627037974], [0.06743640335689947, 0.0759148581953004], [-0.079559988999742, 0.39531058321326396], [0.21309668101319243, 0.48855257098982907], [0.23478258025928536, -0.08446837776908474], [-0.12854716397353463, 0.17339976512773136], [0.14965136140762586, 0.26897313353206964]]",density,black,,,N008,visual,1,[],"['1', '2', '3', '4']",1,2023.2.3,harveyvisual,2.1,[],8,0.75,
0,pause,0.4,None,None,None,0,91,91,91,,,,,,,,,,,,,N008,visual,1,[],"['1', '2', '3', '4']",1,2023.2.3,harveyvisual,2.1,[],8,0.75,
8,dot,0.3,['dot'],['density'],black,0,92,92,92,,,34.60021710395813,34.315407037734985,34.61535310745239,dot,"[0.1, 0.1, 0.1, 0.06, 0.06, 0.06, 0.1, 0.06]","[[0.43039348711459674, -0.2176132953198537], [0.11499515674856413, 0.2899266495440316], [0.12808102003139596, -0.009244067984354065], [-0.030386771168905473, -0.2551920291624523], [0.3118809155168881, 0.2081403981228026], [-0.06282563634610334, 0.11114412413027695], [0.22944900542930163, -0.23921835558115082], [0.33219925311336224, 0.0035410395788749187]]",density,black,,,N008,visual,1,[],"['1', '2', '3', '4']",1,2023.2.3,harveyvisual,2.1,[],8,0.75,
0,pause,0.4,None,None,None,0,93,93,93,,,,,,,,,,,,,N008,visual,1,[],"['1', '2', '3', '4']",1,2023.2.3,harveyvisual,2.1,[],8,0.75,
8,dot,0.3,['dot'],['density'],black,0,94,94,94,,,35.30021810531616,35.01531004905701,35.3152871131897,dot,"[0.08, 0.08, 0.06, 0.1, 0.1, 0.08, 0.08, 0.1]","[[0.3129921899656287, 0.2226642157048143], [0.41298599633021416, -0.001766323215076977], [0.013785601627645026, 0.39275307090924344], [-0.009407606244017683, 0.02333367620517349], [0.20163499737495916, -0.08731087547331118], [0.31235423233837933, 0.42762820752661124], [0.10705959187470679, 0.21318577255187057], [-0.13233007013452783, 0.20605257250075132]]",density,black,,,N008,visual,1,[],"['1', '2', '3', '4']",1,2023.2.3,harveyvisual,2.1,[],8,0.75,
0,pause,0.4,None,None,None,0,95,95,95,,,,,,,,,,,,,N008,visual,1,[],"['1', '2', '3', '4']",1,2023.2.3,harveyvisual,2.1,[],8,0.75,
9,dot,0.3,['dot'],['density'],black,0,96,96,96,,,36.00021195411682,35.71532201766968,36.01531004905701,dot,"[0.08, 0.08, 0.08, 0.1, 0.08, 0.1, 0.06, 0.1, 0.08]","[[0.23250081832313607, -0.03448075506690146], [0.3034476098774822, 0.1830296703973891], [-0.18904104685434053, 0.18833284185042862], [0.2553794676357457, 0.5314352583170906], [0.16363099535363254, 0.3461022642192175], [-0.0841935017478271, 0.3664174397160571], [-0.26748786402911323, -0.05736109653727262], [0.043842773669028334, 0.577246673499167], [0.02102957219118283, 0.0979254794926055]]",density,black,,,N008,visual,1,[],"['1', '2', '3', '4']",1,2023.2.3,harveyvisual,2.1,[],8,0.75,
0,pause,0.4,None,None,None,0,97,97,97,,,,,,,,,,,,,N008,visual,1,[],"['1', '2', '3', '4']",1,2023.2.3,harveyvisual,2.1,[],8,0.75,
9,dot,0.3,['dot'],['density'],black,0,98,98,98,,,36.700210094451904,36.41527795791626,36.71527910232544,dot,"[0.08, 0.08, 0.06, 0.08, 0.08, 0.08, 0.06, 0.08, 0.1]","[[0.1897356465634014, 0.5279682873488559], [0.32378874068874214, 0.21764355715549547], [-0.02258392144612686, 0.1538672511300514], [0.18768343673053406, 0.06258281167321837], [0.4001161654736714, 0.031858124591620046], [0.03700916369328307, 0.37047593331345124], [0.18810723797826276, -0.14148750743097815], [-0.1502435433980558, -0.03059561201510329], [-0.21808568641731116, 0.28352793851031305]]",density,black,,,N008,visual,1,[],"['1', '2', '3', '4']",1,2023.2.3,harveyvisual,2.1,[],8,0.75,
0,pause,0.4,None,None,None,0,99,99,99,,,,,,,,,,,,,N008,visual,1,[],"['1', '2', '3', '4']",1,2023.2.3,harveyvisual,2.1,[],8,0.75,
9,dot,0.3,['dot'],['density'],black,0,100,100,100,,,37.40022611618042,37.115281105041504,37.41533303260803,dot,"[0.06, 0.06, 0.1, 0.08, 0.08, 0.08, 0.06, 0.06, 0.1]","[[-0.03971785412685378, -0.013307253576883936], [-0.1795931736998084, 0.3973594317450326], [-0.3834375522639881, 0.20263766925149762], [-0.17272229141218848, -0.19949677387464254], [-0.5360333538572699, -0.009032368777402771], [-0.28286279854376034, -0.008232758075431683], [0.17411699897949384, -0.08382665075843401], [-0.16068367208365952, 0.1786486522774764], [0.029814794500374706, 0.34001547930781484]]",density,black,,,N008,visual,1,[],"['1', '2', '3', '4']",1,2023.2.3,harveyvisual,2.1,[],8,0.75,
0,pause,0.4,None,None,None,0,101,101,101,,,,,,,,,,,,,N008,visual,1,[],"['1', '2', '3', '4']",1,2023.2.3,harveyvisual,2.1,[],8,0.75,
9,dot,0.3,['dot'],['density'],black,0,102,102,102,,,38.100226163864136,37.81542611122131,38.11542510986328,dot,"[0.1, 0.08, 0.08, 0.08, 0.08, 0.1, 0.06, 0.08, 0.08]","[[0.23250081832313607, -0.03448075506690146], [0.3034476098774822, 0.1830296703973891], [-0.18904104685434053, 0.18833284185042862], [0.2553794676357457, 0.5314352583170906], [0.16363099535363254, 0.3461022642192175], [-0.0841935017478271, 0.3664174397160571], [-0.26748786402911323, -0.05736109653727262], [0.043842773669028334, 0.577246673499167], [0.02102957219118283, 0.0979254794926055]]",density,black,,,N008,visual,1,[],"['1', '2', '3', '4']",1,2023.2.3,harveyvisual,2.1,[],8,0.75,
0,pause,0.4,None,None,None,0,103,103,103,,,,,,,,,,,,,N008,visual,1,[],"['1', '2', '3', '4']",1,2023.2.3,harveyvisual,2.1,[],8,0.75,
9,dot,0.3,['dot'],['density'],white,0,104,104,104,,,38.80020499229431,38.51524996757507,38.815240144729614,dot,"[0.1, 0.08, 0.06, 0.06, 0.06, 0.08, 0.1, 0.06, 0.06]","[[0.02295687172906439, -0.4555612238154966], [0.343534432465795, -0.2595759245515751], [-0.16187815285083418, -0.09052449078383604], [0.11251247888811697, -0.27313237114007116], [0.30947849701411384, 0.04064216277921932], [0.06991680920562879, 0.010838090335221196], [-0.17538857600721916, -0.30040513178321704], [-0.11470383471809205, 0.10558329706542706], [-0.35883798189287325, -0.15372405551062507]]",density,white,,,N008,visual,1,[],"['1', '2', '3', '4']",1,2023.2.3,harveyvisual,2.1,[],8,0.75,
0,pause,0.4,None,None,None,0,105,105,105,,,,,,,,,,,1,39.02491092681885,N008,visual,1,[],"['1', '2', '3', '4']",1,2023.2.3,harveyvisual,2.1,[],8,0.75,
9,dot,0.3,['dot'],['density'],black,0,106,106,106,,,39.50021004676819,39.21535396575928,39.515220165252686,dot,"[0.08, 0.08, 0.06, 0.08, 0.08, 0.06, 0.08, 0.08, 0.08]","[[-0.2844843713072754, 0.22325415166673976], [-0.1819235275981482, -0.2724209396165719], [-0.4663757242286994, 0.0951888680112534], [-0.002662519752874684, 0.12526046944360225], [-0.2804516333182533, -0.07461618094684651], [-0.06266188203573825, -0.10246171469469513], [0.05562179911838863, -0.3774952117829348], [-0.29777175193284133, -0.43797360937606633], [-0.44596842075831894, -0.24145786298940805]]",density,black,,,N008,visual,1,[],"['1', '2', '3', '4']",1,2023.2.3,harveyvisual,2.1,[],8,0.75,
0,pause,0.4,None,None,None,0,107,107,107,,,,,,,,,,,,,N008,visual,1,[],"['1', '2', '3', '4']",1,2023.2.3,harveyvisual,2.1,[],8,0.75,
20,dot,0.3,['dot'],['density'],black,0,108,108,108,,,40.20020604133606,39.9152090549469,40.215332984924316,dot,"[0.06, 0.1, 0.08, 0.06, 0.1, 0.08, 0.08, 0.08, 0.08, 0.1, 0.08, 0.1, 0.08, 0.08, 0.1, 0.08, 0.08, 0.1, 0.1, 0.06]","[[0.4538478226126884, -0.3664405640066176], [0.3191657233618508, 0.33945407396043503], [0.4766444459256839, 0.04863334876917724], [-0.48464584989185794, -0.23709803293635548], [-0.14367460313313907, -0.5404207341676387], [0.004671958847107804, -0.2737763936231255], [-0.2488654284884766, 0.19456368937313495], [-0.2546710312526411, 0.4149344690824017], [-0.051601211965578986, 0.3824106160381825], [-0.5862906148898928, 0.10735611293819983], [0.09959540378729903, 0.56158861011849], [-0.18356053066621503, -0.30576837489662173], [0.25291895309547097, -0.3978597792196891], [-0.4591411981780786, 0.3126509229681062], [0.27047537779708875, -0.1045572600560733], [-0.27245071046521246, -0.00543727232757385], [-0.33103584699057176, -0.47894117650193535], [0.06775953244299548, -0.5999394953051065], [0.5919743827874603, -0.11231281480897458], [0.01874205045820143, 0.19408939491376098]]",density,black,,,N008,visual,1,[],"['1', '2', '3', '4']",1,2023.2.3,harveyvisual,2.1,[],8,0.75,
0,pause,0.4,None,None,None,0,109,109,109,,,,,,,,,,,,,N008,visual,1,[],"['1', '2', '3', '4']",1,2023.2.3,harveyvisual,2.1,[],8,0.75,
20,dot,0.3,['dot'],['density'],black,0,110,110,110,,,40.90022110939026,40.61531901359558,40.915327072143555,dot,"[0.08, 0.08, 0.1, 0.08, 0.08, 0.06, 0.1, 0.06, 0.06, 0.08, 0.06, 0.08, 0.08, 0.06, 0.08, 0.08, 0.08, 0.1, 0.08, 0.08]","[[-0.4080754522264936, 0.4067652968963657], [0.06324393150639096, -0.024720185381067572], [0.5285035416619269, -0.12321010658698664], [-0.3641419153508118, 0.024123209131655166], [0.14772797922647551, 0.31947671943485956], [-0.11622017963328019, 0.22950695273378963], [-0.057655011146064306, 0.5678306256506572], [0.43914225812962504, -0.3267707419899224], [0.09165945316689328, -0.4047275151848244], [0.4087154651643944, 0.06936783641022992], [-0.6033778208500356, -0.04675733737763541], [0.447638657964642, 0.3230929213157005], [0.14100767808782477, 0.5795680144503859], [-0.15193448612878363, -0.2029037467498816], [-0.5654114455837831, 0.18743665310579402], [-0.16065438914454738, -0.43329929793502], [-0.253322775692594, 0.5193344354288753], [-0.4430181511119342, -0.27881019228135234], [0.5725086897750492, 0.1800888914742988], [0.20631061230181968, -0.5682093422691297]]",density,black,,,N008,visual,1,[],"['1', '2', '3', '4']",1,2023.2.3,harveyvisual,2.1,[],8,0.75,
0,pause,0.4,None,None,None,0,111,111,111,,,,,,,,,,,,,N008,visual,1,[],"['1', '2', '3', '4']",1,2023.2.3,harveyvisual,2.1,[],8,0.75,
20,dot,0.3,['dot'],['density'],black,0,112,112,112,,,41.60022497177124,41.31521201133728,41.615297079086304,dot,"[0.06, 0.1, 0.1, 0.08, 0.08, 0.08, 0.06, 0.1, 0.08, 0.08, 0.08, 0.08, 0.06, 0.06, 0.1, 0.06, 0.1, 0.08, 0.08, 0.08]","[[-0.23613117081758134, -0.13335623585093725], [-0.32266637641209084, 0.30244615197269153], [0.21063544894169728, -0.0785751144132456], [-0.09250607882791662, -0.4429663532490802], [-0.3586438651479664, 0.08261086284091568], [-0.14579690820274743, 0.4241918954506678], [0.0923890070781459, 0.5672737400373014], [-0.5903683084856427, -0.07936549517477587], [0.5212440031859901, 0.08490552939750234], [0.16352493367625764, -0.33224691281096136], [0.44304867798894343, -0.10057268336607494], [-0.28169371226845075, -0.4535817825005388], [0.49357743425055467, -0.3125981434851295], [0.41094434083234066, 0.3651624599636308], [-0.05123682440453958, -0.23246755288293092], [0.07347807910204318, 0.34419562593527864], [-0.37705528928381615, -0.27436715594581673], [0.09911038044651843, -0.5905595666708755], [-0.030065256175520028, 0.17125611789965545], [0.31074015390766563, 0.12456135674388691]]",density,black,,,N008,visual,1,[],"['1', '2', '3', '4']",1,2023.2.3,harveyvisual,2.1,[],8,0.75,
0,pause,0.4,None,None,None,0,113,113,113,,,,,,,,,,,,,N008,visual,1,[],"['1', '2', '3', '4']",1,2023.2.3,harveyvisual,2.1,[],8,0.75,
20,dot,0.3,['dot'],['density'],black,0,114,114,114,,,42.30020713806152,42.01519703865051,42.315171003341675,dot,"[0.1, 0.08, 0.06, 0.06, 0.08, 0.06, 0.1, 0.08, 0.08, 0.06, 0.1, 0.06, 0.06, 0.1, 0.08, 0.06, 0.08, 0.08, 0.06, 0.08]","[[-0.10764323308524337, -0.12308738749480835], [0.5846400231533794, 0.11823590466347272], [-0.2683388731692799, -0.2934662030985557], [0.26585711107261745, -0.22640473638029107], [-0.08269513429793796, -0.3409383731216839], [0.44957588586576225, -0.3123251475159679], [-0.5218667637792658, -0.21637044236841302], [-0.33611143924309955, 0.3742504907785906], [0.31441232786317463, -0.4613515612916387], [-0.5842192250370633, 0.04216487656621806], [0.05603531667161521, -0.5035741288228577], [0.26774627211335, 0.07292210989745973], [0.15205250666581938, 0.40096937447554704], [-0.21699616355739765, 0.07146631218251376], [-0.04920204410621565, 0.5275362800530358], [0.05158869313041947, 0.1561404669153772], [-0.37009384807945067, -0.09064159866906285], [-0.4231573093214718, -0.42014699521091153], [0.4823878555657434, 0.29682963230408166], [0.46532826965703233, -0.04589250449177146]]",density,black,,,N008,visual,1,[],"['1', '2', '3', '4']",1,2023.2.3,harveyvisual,2.1,[],8,0.75,
0,pause,0.4,None,None,None,0,115,115,115,,,,,,,,,,,,,N008,visual,1,[],"['1', '2', '3', '4']",1,2023.2.3,harveyvisual,2.1,[],8,0.75,
20,dot,0.3,['dot'],['density'],black,0,116,116,116,,,43.00020909309387,42.7151939868927,43.01512908935547,dot,"[0.08, 0.08, 0.08, 0.06, 0.08, 0.06, 0.1, 0.08, 0.06, 0.1, 0.06, 0.1, 0.08, 0.1, 0.1, 0.08, 0.1, 0.06, 0.08, 0.08]","[[-0.22069650736473506, -0.3692948441056605], [-0.5632012934163008, -0.20152808631103006], [-0.09738604617992119, 0.16205059081006568], [-0.18740187942473518, -0.11195184638095512], [0.5521721012738036, 0.13943268403795878], [-0.29100390851766805, 0.07681194890345211], [-0.5998238733876871, 0.022523278834469654], [0.0688240147666268, -0.21261936051921082], [0.19120577484827783, 0.34031312016380266], [0.3960796214878731, -0.31386019861548176], [0.35002238845935774, 0.4540744951096035], [0.2775486785786144, 0.126202124492804], [-0.451546056081762, 0.2901915594461496], [-0.16684988993050343, 0.3655882814988083], [0.5104566035255672, -0.10539061837206917], [0.19917838517708197, -0.07447646239632127], [0.08511069629824575, 0.5011993783933821], [0.21501715280330458, -0.47393738494073884], [-0.024144145538182005, -0.41148937124728774], [-0.3821811437299924, -0.1223198122254956]]",density,black,,,N008,visual,1,[],"['1', '2', '3', '4']",1,2023.2.3,harveyvisual,2.1,[],8,0.75,
0,pause,0.4,None,None,None,0,117,117,117,,,,,,,,,,,,,N008,visual,1,[],"['1', '2', '3', '4']",1,2023.2.3,harveyvisual,2.1,[],8,0.75,
20,dot,0.3,['dot'],['density'],black,0,118,118,118,,,43.70021295547485,43.4152729511261,43.71510601043701,dot,"[0.1, 0.1, 0.08, 0.08, 0.06, 0.1, 0.1, 0.08, 0.1, 0.08, 0.1, 0.06, 0.06, 0.06, 0.08, 0.1, 0.06, 0.1, 0.1, 0.08]","[[-0.37217785425090144, 0.3759116385943519], [-0.5232162275613212, 0.10609221026745513], [0.5212453214038274, 0.2528397014280389], [-0.1423658440987099, 0.1200291112021108], [0.14452582889467824, 0.1501559976837058], [-0.46579682763213215, -0.2989673225184697], [0.5789701505189989, 0.016068692089099196], [0.4110090690297291, 0.4425889662657524], [0.3122676643437846, -0.4981054292729665], [0.5216953135134345, -0.23530220290550907], [0.1084204587430525, -0.5899218554542862], [0.12119295840993294, -0.23453759307870453], [-0.06192414698518289, 0.3549358167831055], [-0.5845110622915249, -0.1171295165904668], [-0.007927686112853771, -0.408960068461349], [0.18102370324185613, 0.5247400606286152], [-0.39276376827384907, -0.09981073759442344], [-0.2307405816276587, 0.5301794546655679], [-0.274247967385621, -0.4216999546723701], [0.1821662709764017, -0.052305703708159235]]",density,black,,,N008,visual,1,[],"['1', '2', '3', '4']",1,2023.2.3,harveyvisual,2.1,[],8,0.75,
0,pause,0.4,None,None,None,0,119,119,119,,,,,,,,,,,,,N008,visual,1,[],"['1', '2', '3', '4']",1,2023.2.3,harveyvisual,2.1,[],8,0.75,
20,dot,0.3,['dot'],['density'],black,0,120,120,120,,,44.4002320766449,44.11512017250061,44.41524004936218,dot,"[0.08, 0.1, 0.06, 0.1, 0.08, 0.06, 0.06, 0.06, 0.08, 0.08, 0.08, 0.08, 0.1, 0.1, 0.08, 0.06, 0.08, 0.08, 0.08, 0.08]","[[0.33183889658545696, -0.20897008938120737], [-0.4024393705631744, 0.06982871513116373], [-0.33170555864564444, -0.3815946981622192], [-0.22945546750081025, 0.4892188021557652], [0.12976214208560644, 0.27783635234741766], [-0.03214531814269472, 0.5265749585764057], [-0.48087118856237265, 0.25532357130198363], [0.3431852306745993, 0.32254213457279235], [-0.18745863980941613, -0.5520160940713223], [0.5534868013765527, 0.04320702955983696], [0.29836768640260725, 0.01084712945667421], [-0.16986757376869932, -0.26198536529036076], [-0.36285343213027577, -0.17557713351968085], [-0.6005786445590895, 0.012194608705288462], [-0.04701309424401878, -0.063205465298661], [0.24234500601640985, 0.5079076429857221], [0.08783208849165813, -0.46767802509729695], [0.3878880398692758, -0.46165967130414515], [0.5077667385265462, -0.3043506486160298], [-0.05879083688130471, 0.15646913984702382]]",density,black,,,N008,visual,1,[],"['1', '2', '3', '4']",1,2023.2.3,harveyvisual,2.1,[],8,0.75,
0,pause,0.4,None,None,None,0,121,121,121,,,,,,,,,,,,,N008,visual,1,[],"['1', '2', '3', '4']",1,2023.2.3,harveyvisual,2.1,[],8,0.75,
20,dot,0.3,['dot'],['density'],black,0,122,122,122,,,45.100218057632446,44.81526803970337,45.11510515213013,dot,"[0.06, 0.08, 0.1, 0.06, 0.08, 0.06, 0.06, 0.06, 0.06, 0.08, 0.08, 0.08, 0.1, 0.1, 0.1, 0.06, 0.06, 0.06, 0.08, 0.06]","[[0.30809847611781627, -0.27124587932179567], [0.11803872823444284, 0.14383510180425063], [0.33590361736128016, -0.4818377638743032], [0.42230334480779763, 0.41071197916574775], [-0.49677793747488025, -0.25998904723055405], [0.031242876297342126, -0.0952530273957286], [0.028708410124779205, 0.5633062826126893], [-0.019575491359153596, -0.5020039110034026], [0.4911648513715373, -0.085545415640433], [-0.27597384903795513, 0.014515162425900674], [-0.2074168237160225, -0.186877807498683], [0.05038529013492621, 0.3668035610103586], [0.5881156932516719, 0.12639281459435237], [0.2849724696556749, -0.013448575528729578], [-0.47735448444662754, 0.16343666350614505], [-0.349432650359607, 0.38844406043135077], [-0.6000486566786631, -0.04715591230981171], [-0.15227771717287186, 0.20479116464047764], [-0.34623357513462955, -0.49301535051901746], [0.3345086520101662, 0.17134583291700511]]",density,black,,,N008,visual,1,[],"['1', '2', '3', '4']",1,2023.2.3,harveyvisual,2.1,[],8,0.75,
0,pause,0.4,None,None,None,0,123,123,123,,,,,,,,,,,,,N008,visual,1,[],"['1', '2', '3', '4']",1,2023.2.3,harveyvisual,2.1,[],8,0.75,
20,dot,0.3,['dot'],['density'],black,0,124,124,124,,,45.80022215843201,45.515064001083374,45.81506896018982,dot,"[0.08, 0.1, 0.06, 0.08, 0.08, 0.08, 0.1, 0.08, 0.06, 0.1, 0.08, 0.08, 0.1, 0.1, 0.08, 0.08, 0.06, 0.08, 0.08, 0.1]","[[-0.60317579432443, -0.02861429846598888], [-0.22598111023357015, -0.10053788984122991], [0.0073188847626491915, 0.43588727661467364], [0.052630229992418176, 0.2500494579687512], [-0.36890241214496156, 0.09637653235608684], [0.4281157423746803, 0.2802846285390293], [0.20392291124593143, 0.0985554953558887], [0.4780891365970358, -0.18540042728930478], [0.2228981729218319, -0.545550567236627], [-0.46352108879885084, -0.3014097484747899], [0.061187981919154866, -0.3386290944915051], [-0.3933387729701755, 0.31299841413242996], [0.0186893186286351, -0.02302997069907431], [0.3035035291664947, 0.48204306448646195], [0.3861868212919065, 0.00942774424044085], [0.3700456320562566, -0.3953632783609739], [-0.2570875586658836, -0.3930052688601059], [-0.16181364449213004, 0.5435411596597122], [0.5931496329204488, 0.06338926663065458], [-0.14675805351613863, 0.2472058278536392]]",density,black,,,N008,visual,1,[],"['1', '2', '3', '4']",1,2023.2.3,harveyvisual,2.1,[],8,0.75,
0,pause,0.4,None,None,None,0,125,125,125,,,,,,,,,,,,,N008,visual,1,[],"['1', '2', '3', '4']",1,2023.2.3,harveyvisual,2.1,[],8,0.75,
20,dot,0.3,['dot'],['density'],black,0,126,126,126,,,46.500216007232666,46.21501708030701,46.515064001083374,dot,"[0.1, 0.08, 0.08, 0.1, 0.06, 0.1, 0.1, 0.06, 0.1, 0.06, 0.1, 0.1, 0.08, 0.1, 0.08, 0.1, 0.06, 0.08, 0.1, 0.06]","[[0.03981776193455966, 0.12317256985276215], [-0.4022181679792649, -0.44545084340669955], [-0.5680405042956181, -0.163258016320551], [-0.3744178112809247, 0.4165013400208741], [0.32807766860164245, 0.4617197145096693], [-0.2956280395462938, -0.10856631450714199], [0.5534442773206997, 0.2054716864261028], [0.3217124490608876, 0.2511853405742266], [-0.23156844068291554, -0.3187951914788735], [-0.21268345316384285, 0.11331862438787299], [0.12741194696159452, -0.22496296256328724], [-0.5908746097221449, 0.07000601927915787], [0.12044706193938204, 0.4371514114628827], [0.44024908104015215, -0.16360267121156552], [0.3115737302263466, 0.017799442273407795], [0.3494156525282015, -0.3955334910951963], [-0.09577006401558774, -0.06292340160179588], [-0.38135562490482905, 0.2163128195438208], [0.13114788134833633, -0.5391447225216311], [-0.04425996664130061, -0.4078811012467833]]",density,black,,,N008,visual,1,[],"['1', '2', '3', '4']",1,2023.2.3,harveyvisual,2.1,[],8,0.75,
0,pause,0.4,None,None,None,0,127,127,127,,,,,,,,,,,,,N008,visual,1,[],"['1', '2', '3', '4']",1,2023.2.3,harveyvisual,2.1,[],8,0.75,
20,dot,0.3,['dot'],['density'],black,0,128,128,128,,,47.20023012161255,46.91499900817871,47.21502113342285,dot,"[0.08, 0.08, 0.06, 0.06, 0.1, 0.08, 0.1, 0.08, 0.08, 0.08, 0.1, 0.06, 0.06, 0.1, 0.06, 0.1, 0.1, 0.08, 0.08, 0.1]","[[0.4773931999125035, 0.3100029176449407], [-0.2966139687050887, -0.007899519194735749], [0.5789825149510849, 0.04873403193885237], [-0.5070719077917889, -0.3188989047774682], [0.03913966904697708, 0.09201586810512397], [0.12248838462454203, -0.5719851847012949], [-0.5844314608021034, 0.0856123360774089], [-0.45058109240559735, 0.40213814169891027], [-0.2640956341091812, -0.4215556438392326], [0.020211247098291252, 0.301458215729699], [0.2959481272049922, 0.36856508067781046], [0.30318850918054474, -0.12452435940186557], [-0.1042557997370207, -0.5692814708153127], [0.36327162482153885, -0.3207892974865385], [0.5571032243011579, -0.18780043029979013], [0.3394062603520358, 0.06687113860139915], [-0.23159481480353022, 0.2742023018006319], [0.10648104582305107, -0.2330321259565924], [0.008292915515976218, 0.5020703160338545], [-0.28460812019916426, 0.5153082944419378]]",density,black,,,N008,visual,1,[],"['1', '2', '3', '4']",1,2023.2.3,harveyvisual,2.1,[],8,0.75,
0,pause,0.4,None,None,None,0,129,129,129,,,,,,,,,,,,,N008,visual,1,[],"['1', '2', '3', '4']",1,2023.2.3,harveyvisual,2.1,[],8,0.75,
20,dot,0.3,['dot'],['density'],black,0,130,130,130,,,47.90021204948425,47.614994049072266,47.91497302055359,dot,"[0.1, 0.08, 0.08, 0.08, 0.1, 0.06, 0.06, 0.06, 0.08, 0.06, 0.06, 0.06, 0.1, 0.06, 0.1, 0.1, 0.08, 0.06, 0.08, 0.06]","[[-0.4128586416948357, 0.14009415578015394], [-0.05475998654059644, -0.06638196500110527], [0.3354008386549795, 0.4367428230922289], [-0.17712756882256886, 0.21523927075183003], [0.023510659170415726, 0.5223974752519801], [0.3372979678308049, -0.49344903106769594], [-0.5769366125741066, -0.16953408109897794], [0.06691194051504801, 0.23456446236039574], [-0.5808046945001721, 0.048672152291828086], [0.11349817378617155, -0.16776552788469618], [-0.09686096642256703, -0.5374444992358564], [0.49553392896160353, -0.2970249344509188], [-0.19309196776716459, 0.49492423548656594], [0.5109770981995877, -0.01925116179179609], [-0.3867403289735988, 0.3559938280686645], [0.5375907725152974, 0.17503421075993286], [-0.3829600994517284, -0.17360510694674336], [-0.4505101563880569, -0.39448315075976864], [0.2637806937144792, 0.08916990810631176], [0.08501266444055955, -0.38368219384710944]]",density,black,,,N008,visual,1,[],"['1', '2', '3', '4']",1,2023.2.3,harveyvisual,2.1,[],8,0.75,
0,pause,0.4,None,None,None,0,131,131,131,,,,,,,,,,,,,N008,visual,1,[],"['1', '2', '3', '4']",1,2023.2.3,harveyvisual,2.1,[],8,0.75,
20,dot,0.3,['dot'],['density'],black,0,132,132,132,,,48.6002299785614,48.31497406959534,48.61501097679138,dot,"[0.1, 0.1, 0.06, 0.06, 0.06, 0.1, 0.1, 0.06, 0.1, 0.08, 0.06, 0.08, 0.06, 0.06, 0.08, 0.06, 0.1, 0.08, 0.08, 0.1]","[[-0.2741024183267225, 0.2893468229965669], [0.5393168162699312, 0.11006582262631376], [0.08175840819574265, -0.3713174580212143], [0.3745714257824314, -0.3112614505247795], [0.5731452389197808, -0.09371755169934695], [0.42100744817633917, 0.3071722080119751], [0.11115132453514287, -0.07008029100842228], [-0.14474845533608477, -0.40354714655941026], [-0.4578824964939346, -0.11898672224869417], [0.3543088938919866, 0.06730540290890186], [-0.274862058906755, -0.016893551921768335], [-0.06957621219825705, 0.20406618368818596], [-0.3785119743023647, -0.33297291120922834], [-0.13622204327236348, -0.18256390971141923], [-0.5448676303682104, 0.12848867510884515], [-0.16056283218660766, 0.5457644928284808], [-0.4773915710165279, 0.35320593362440633], [0.02649059039414048, 0.45149959310583176], [0.14501996769219017, 0.11772507053858428], [0.2315025964780527, 0.5180326001113053]]",density,black,,,N008,visual,1,[],"['1', '2', '3', '4']",1,2023.2.3,harveyvisual,2.1,[],8,0.75,
0,pause,0.4,None,None,None,0,133,133,133,,,,,,,,,,,,,N008,visual,1,[],"['1', '2', '3', '4']",1,2023.2.3,harveyvisual,2.1,[],8,0.75,
20,dot,0.3,['dot'],['density'],black,0,134,134,134,,,49.30023217201233,49.014944076538086,49.31493902206421,dot,"[0.08, 0.1, 0.08, 0.08, 0.08, 0.1, 0.08, 0.1, 0.08, 0.1, 0.1, 0.08, 0.06, 0.06, 0.06, 0.06, 0.06, 0.08, 0.08, 0.1]","[[0.5393591291448813, -0.14295985999749614], [0.2572253371881682, -0.36498002052817996], [-0.29558407241472184, 0.1339204520052426], [-0.5029352351054579, 0.0818199732008848], [-0.11119582468544859, 0.34905545117033987], [-0.18327937782837117, -0.04731439593141251], [0.0003750017375775405, -0.24686689568797154], [0.36869378019389853, 0.2983607055540181], [0.0513651560724252, 0.050386140086881914], [0.4764218035356701, 0.13058792720069284], [-0.16332903565180845, 0.5611740378339851], [-0.45018440834926976, -0.39876559515486887], [-0.5271253184559775, -0.15848859819900488], [0.12482069177596111, 0.2715062097433004], [-0.33127776302061257, -0.17242694989912943], [0.48190327973062363, -0.3257992095541206], [0.32243229110992866, -0.08606795066872713], [0.15354919982012105, 0.5084440574283975], [-0.1264185513491941, -0.5856311393353827], [-0.44769205907874815, 0.38346742620161495]]",density,black,,,N008,visual,1,[],"['1', '2', '3', '4']",1,2023.2.3,harveyvisual,2.1,[],8,0.75,
0,pause,0.4,None,None,None,0,135,135,135,,,,,,,,,,,,,N008,visual,1,[],"['1', '2', '3', '4']",1,2023.2.3,harveyvisual,2.1,[],8,0.75,
20,dot,0.3,['dot'],['density'],black,0,136,136,136,,,50.000226974487305,49.714930057525635,50.0149199962616,dot,"[0.06, 0.08, 0.08, 0.1, 0.06, 0.1, 0.1, 0.06, 0.1, 0.1, 0.1, 0.06, 0.1, 0.1, 0.08, 0.08, 0.06, 0.08, 0.08, 0.1]","[[-0.4282154790577364, 0.3232551693541922], [-0.10413983599893839, -0.350674605350185], [0.5049830674450889, -0.08937813824930196], [0.31017711178458485, 0.31569346222468053], [-0.06367824268058186, -0.16139452169185475], [-0.5037665878756643, -0.04204044170742888], [0.13326654779616454, -0.31764495086240707], [0.027146964110981053, 0.5041986020278161], [-0.33652831464361255, 0.05143911397436485], [0.4470997785251499, 0.1003495396242653], [-0.43186456450782473, -0.27273088089286346], [0.2281058253825785, -0.03506038973489489], [-0.33294187081925697, -0.46735692738861734], [-0.10320931407227085, 0.08562503846629699], [-0.5802840132366319, 0.17212759403359598], [0.06983911448246782, -0.5596089454369363], [-0.27088436751373635, -0.1299143319282473], [0.2593923819787505, -0.5052222009475361], [0.013729400907528722, 0.2992391830510345], [-0.23601112424833148, 0.38201165814898397]]",density,black,,,N008,visual,1,[],"['1', '2', '3', '4']",1,2023.2.3,harveyvisual,2.1,[],8,0.75,
0,pause,0.4,None,None,None,0,137,137,137,,,,,,,,,,,,,N008,visual,1,[],"['1', '2', '3', '4']",1,2023.2.3,harveyvisual,2.1,[],8,0.75,
20,dot,0.3,['dot'],['density'],black,0,138,138,138,,,50.70022511482239,50.41495203971863,50.71497416496277,dot,"[0.06, 0.06, 0.08, 0.08, 0.08, 0.06, 0.06, 0.06, 0.06, 0.1, 0.08, 0.06, 0.06, 0.08, 0.1, 0.06, 0.06, 0.06, 0.08, 0.06]","[[-0.3963932243319769, -0.352155597651845], [0.48812600894817637, 0.012711739775761344], [0.07449076854581638, -0.3150872139462296], [-0.07396559102506783, -0.48424141816516175], [-0.515898236410078, -0.0392392452023021], [0.16449561777709398, 0.28618245494015404], [-0.5616815740912191, 0.20704459184133994], [-0.27893160218602325, -0.5174121448430213], [-0.3420054544418843, 0.38508393866505103], [-0.17474717745266877, 0.5428417022863317], [0.2789509145518899, -0.467128254507045], [-0.06217559345976975, 0.1620343218816961], [0.5516670946043384, 0.24472176394212164], [-0.2988662503020126, 0.12153189935178554], [0.03947755291083366, 0.5720861057827892], [0.27142507043396713, -0.06773679901928875], [0.5539989729371074, -0.22455966073137254], [-0.3214706512557914, -0.16203383206039523], [0.2655285222726105, 0.5331987328677307], [-0.20640573827338704, -0.33368667273785896]]",density,black,,,N008,visual,1,[],"['1', '2', '3', '4']",1,2023.2.3,harveyvisual,2.1,[],8,0.75,
0,pause,0.4,None,None,None,0,139,139,139,,,,,,,,,,,,,N008,visual,1,[],"['1', '2', '3', '4']",1,2023.2.3,harveyvisual,2.1,[],8,0.75,
20,dot,0.3,['dot'],['density'],black,0,140,140,140,,,51.40022015571594,51.11495614051819,51.41488695144653,dot,"[0.06, 0.1, 0.1, 0.06, 0.08, 0.08, 0.08, 0.06, 0.06, 0.08, 0.08, 0.1, 0.06, 0.08, 0.06, 0.08, 0.1, 0.06, 0.08, 0.1]","[[0.4671764162002231, -0.29866707671160675], [-0.21191640714433052, -0.15549277053100613], [0.05612368955644553, -0.5460403128779402], [-0.4939414520329199, 0.03312784483652259], [0.5772811198149029, 0.1586499673261556], [0.3784126962884947, 0.2666467670724288], [0.009439281108692965, -0.054462545964752085], [0.273525150390176, -0.43145391140246403], [0.07764443824375011, 0.4691521110013669], [0.4265403370803441, -0.09665803417180369], [-0.41708208050691364, 0.3314205031950176], [-0.4323968364717202, -0.18147115351036802], [-0.2145734145488013, -0.43034688048909164], [0.056287971501182144, 0.22539580400550308], [0.1760940298219098, -0.24861494552207214], [-0.030649039667662525, -0.3470449498278195], [-0.11621457035773397, 0.5096680462071733], [-0.1719169871393894, 0.19937589647336385], [-0.4049147682534109, -0.4029192006344345], [0.22216791262056157, 0.10027802595462898]]",density,black,,,N008,visual,1,[],"['1', '2', '3', '4']",1,2023.2.3,harveyvisual,2.1,[],8,0.75,
0,pause,0.4,None,None,None,0,141,141,141,,,,,,,,,,,,,N008,visual,1,[],"['1', '2', '3', '4']",1,2023.2.3,harveyvisual,2.1,[],8,0.75,
20,dot,0.3,['dot'],['density'],black,0,142,142,142,,,52.10020709037781,51.814895153045654,52.11495399475098,dot,"[0.08, 0.1, 0.1, 0.08, 0.08, 0.08, 0.1, 0.1, 0.08, 0.08, 0.1, 0.08, 0.06, 0.06, 0.06, 0.06, 0.08, 0.06, 0.06, 0.08]","[[-0.1799128065979086, 0.5454885643192792], [-0.37932044936245546, -0.024675292816484895], [-0.23892640661711567, 0.1821037536113782], [0.25621674460930666, -0.0858003345670022], [-0.03704892087509282, -0.1664056522262488], [0.35221448843333936, -0.48927306350196087], [-0.48458291172963075, -0.3368463996653154], [0.1205950869382465, -0.33562485402213355], [-0.2117325743898939, -0.3766631525434426], [0.0983048266098574, 0.33507642421360984], [0.5013494690652788, -0.062397700814065815], [0.4063088730865626, 0.28789527570153695], [-0.5889433563508578, 0.04894324457480792], [-0.046332213499781116, 0.20833163309465064], [0.052720943904156825, 0.0004467109026773386], [-0.46754005170180973, 0.1985227567268878], [-0.40268291329778816, 0.3775427949217281], [0.26464928362734963, 0.5065945046552355], [0.12114687555860948, -0.5874175849910294], [0.40665019703271754, -0.3063125297745265]]",density,black,,,N008,visual,1,[],"['1', '2', '3', '4']",1,2023.2.3,harveyvisual,2.1,[],8,0.75,
0,pause,0.4,None,None,None,0,143,143,143,,,,,,,,,,,,,N008,visual,1,[],"['1', '2', '3', '4']",1,2023.2.3,harveyvisual,2.1,[],8,0.75,
20,dot,0.3,['dot'],['density'],black,0,144,144,144,,,52.800215005874634,52.514952182769775,52.81497097015381,dot,"[0.1, 0.08, 0.08, 0.1, 0.1, 0.08, 0.06, 0.08, 0.06, 0.1, 0.1, 0.08, 0.08, 0.1, 0.1, 0.1, 0.08, 0.1, 0.08, 0.1]","[[-0.5239060302931282, -0.08317202595856638], [0.25222143750804094, -0.23790172767476447], [0.10935241150938302, 0.11171366163686258], [0.3494872975891604, 0.278757177192183], [-0.17703235641799991, -0.3693087063344339], [0.5977301248933576, 0.05562286127044527], [0.23200053509201035, -0.49423015650462104], [-0.44151464068032253, 0.3599127645338111], [0.21166852467286323, 0.44703792938592235], [0.05156960562876822, -0.1661720898604177], [-0.05703746675253829, -0.5383317132460596], [-0.11218531766880491, 0.5854537721515299], [-0.16009739319371813, 0.045218311714781856], [0.3742281413875709, 0.08535214378447259], [-0.2906679794481182, -0.5248197726952324], [-0.11210396747616008, 0.37896544784923525], [-0.392255760601758, 0.10411085450700086], [0.5416661266538637, -0.21845968872947685], [-0.3483989997512318, -0.27669076887016153], [-0.18399905572268077, -0.15580587351703246]]",density,black,,,N008,visual,1,[],"['1', '2', '3', '4']",1,2023.2.3,harveyvisual,2.1,[],8,0.75,
0,pause,0.4,None,None,None,0,145,145,145,,,,,,,,,,,,,N008,visual,1,[],"['1', '2', '3', '4']",1,2023.2.3,harveyvisual,2.1,[],8,0.75,
20,dot,0.3,['dot'],['density'],black,0,146,146,146,,,53.50023317337036,53.214900970458984,53.514846086502075,dot,"[0.08, 0.1, 0.08, 0.06, 0.08, 0.1, 0.06, 0.1, 0.1, 0.1, 0.06, 0.1, 0.1, 0.06, 0.1, 0.1, 0.06, 0.1, 0.08, 0.08]","[[0.39216359320811367, 0.16996343548753295], [-0.5698307507972583, 0.01683635791865512], [0.40212418101776704, -0.28159324745334546], [0.2738447500326675, 0.4641296207505028], [-0.15866435581800453, 0.2683243743557181], [-0.32739476122199673, -0.25295147771007986], [0.5315168487575775, -0.100466154799664], [-0.4193850645718029, 0.23157362586959834], [-0.1442254120905403, -0.11397565797778758], [-0.18903000945625914, -0.3922831358367993], [0.16946754680851062, -0.35555768839956536], [0.08852657702026756, 0.001627988309871431], [-0.27794767111397256, 0.4945696796951211], [-0.010151888896675842, -0.5544605616119773], [0.09585888274089216, 0.34446995555100757], [-0.23677609177560482, 0.09231114320804634], [-0.39411533996152115, -0.07228355355010757], [-0.5307207145421906, -0.21327166755722426], [-0.07199059157143461, 0.4553316755847281], [0.3080737062640032, -0.0986165669899648]]",density,black,,,N008,visual,1,[],"['1', '2', '3', '4']",1,2023.2.3,harveyvisual,2.1,[],8,0.75,
0,pause,0.4,None,None,None,0,147,147,147,,,,,,,,,,,,,N008,visual,1,[],"['1', '2', '3', '4']",1,2023.2.3,harveyvisual,2.1,[],8,0.75,
20,dot,0.3,['dot'],['density'],black,0,148,148,148,,,54.200226068496704,53.91484308242798,54.214837074279785,dot,"[0.1, 0.06, 0.1, 0.08, 0.1, 0.1, 0.08, 0.06, 0.06, 0.06, 0.08, 0.06, 0.1, 0.08, 0.08, 0.08, 0.06, 0.06, 0.08, 0.1]","[[-0.14825341520864388, 0.37925171615865916], [-0.13945462015427562, -0.5369830038442746], [-0.591376424256167, -0.025608879416608513], [0.5155552864396474, 0.12881806514517846], [-0.5244620949438799, 0.21213509069033093], [0.047074867791740194, 0.3935195926558901], [-0.1428956908127953, -0.2535364148154219], [0.3264234800626583, -0.36796578946049774], [0.10309527800048057, -0.1870296767555153], [0.5421231011832778, -0.22307184560437882], [0.21968529878726462, 0.4790989864226921], [-0.3748955163838902, 0.40977177842188894], [0.3023821085970919, 0.04354898503107507], [-0.20216700977020158, 0.14915891332803244], [-0.38458899588424206, -0.31159019981027586], [0.4042110997121334, 0.38963609396594673], [0.11988813927410147, 0.20645333712145886], [-0.17943011234767675, -0.05061116191889625], [0.11088792365142097, -0.39367544040365804], [0.026913778583355308, 0.009535843281907708]]",density,black,,,N008,visual,1,[],"['1', '2', '3', '4']",1,2023.2.3,harveyvisual,2.1,[],8,0.75,
0,pause,0.4,None,None,None,0,149,149,149,,,,,,,,,,,,,N008,visual,1,[],"['1', '2', '3', '4']",1,2023.2.3,harveyvisual,2.1,[],8,0.75,
20,dot,0.3,['dot'],['density'],black,0,150,150,150,,,54.90023708343506,54.614824056625366,54.91481113433838,dot,"[0.08, 0.08, 0.06, 0.08, 0.1, 0.08, 0.06, 0.1, 0.06, 0.06, 0.08, 0.06, 0.06, 0.06, 0.1, 0.08, 0.08, 0.06, 0.08, 0.1]","[[-0.28871591529659574, 0.3021865164191496], [-0.33701795728342077, -0.48631464516095924], [-0.04643228981063541, -0.09471116001906943], [0.35926165805060584, 0.4293967159168903], [-0.10264509676071965, 0.13609522919005823], [0.358244812334214, -0.04578703400745554], [0.05262931525507264, 0.40806170786458384], [0.37222136219688295, -0.2978805905086318], [0.5362879180064425, 0.0729783697973655], [0.2559242735025581, 0.1632664179324308], [0.009700349261736574, -0.5957352225044968], [-0.19303362667052137, 0.5661089083727662], [-0.5066914039423194, -0.12594394535167575], [-0.29744096939216574, -0.1380986734880446], [0.20339820741517844, -0.447828553211822], [-0.17127614736805435, -0.3939920764226008], [-0.42827911681013187, 0.09538953377878046], [0.5828671996810754, -0.13112948171309316], [0.06641999807443977, 0.600220919887041], [0.0197456264630681, -0.2991535686324811]]",density,black,,,N008,visual,1,[],"['1', '2', '3', '4']",1,2023.2.3,harveyvisual,2.1,[],8,0.75,
0,pause,0.4,None,None,None,0,151,151,151,,,,,,,,,,,,,N008,visual,1,[],"['1', '2', '3', '4']",1,2023.2.3,harveyvisual,2.1,[],8,0.75,
20,dot,0.3,['dot'],['density'],black,0,152,152,152,,,55.6002311706543,55.31483316421509,55.614824056625366,dot,"[0.06, 0.06, 0.06, 0.1, 0.08, 0.08, 0.06, 0.1, 0.08, 0.1, 0.1, 0.1, 0.1, 0.1, 0.1, 0.08, 0.1, 0.1, 0.06, 0.06]","[[-0.07658469609007412, 0.0767158238012694], [-0.2195548371170874, -0.4524379392471358], [0.6019893680496836, 0.024127988401609887], [-0.4722932061662269, 0.3207721270828896], [-0.5834640288011861, 0.14929447784170957], [-0.5168050458385223, -0.12070607773029346], [0.1762861528970422, 0.1593589406422662], [0.0876408472548953, -0.3383696040340436], [0.2774403546295092, 0.5289785505076572], [0.2829011577663574, -0.15040353865374545], [-0.32343990424905833, 0.09983565996398969], [-0.01719633175748969, 0.3765722225012965], [-0.3960605950149365, -0.2690361386396158], [-0.20557281111201553, 0.25244110290198796], [0.40875232714878706, -0.35990865976991987], [-0.13058650572085578, -0.24456955044937934], [0.44777627069398107, 0.3556611639812857], [0.2556806791533144, -0.5183934328612007], [-0.23244075070100617, 0.4596817702671364], [0.3881888880303249, 0.09496286539617982]]",density,black,,,N008,visual,1,[],"['1', '2', '3', '4']",1,2023.2.3,harveyvisual,2.1,[],8,0.75,
0,pause,0.4,None,None,None,0,153,153,153,,,,,,,,,,,,,N008,visual,1,[],"['1', '2', '3', '4']",1,2023.2.3,harveyvisual,2.1,[],8,0.75,
20,dot,0.3,['dot'],['density'],white,0,154,154,154,,,56.300209045410156,56.014816999435425,56.31480097770691,dot,"[0.1, 0.1, 0.1, 0.08, 0.1, 0.1, 0.1, 0.08, 0.06, 0.1, 0.06, 0.1, 0.08, 0.08, 0.08, 0.08, 0.08, 0.06, 0.1, 0.1]","[[-0.21169060678951418, 0.00605261410533986], [0.5110410666636359, 0.17155240967235097], [-0.3819897569131271, -0.1774870062300119], [0.22435936279529378, 0.467106048676443], [-0.01493199747276508, -0.5058413484344146], [-0.1715452318229823, -0.2505146728676943], [0.5530600631629908, -0.2287694749172656], [-0.3913719618147277, -0.4293464601851163], [-0.5740044428393919, -0.03266088516743229], [0.26778129062870326, -0.4801165340163148], [0.2750592916059287, -0.10266114300795215], [0.1544284960994048, -0.3083330003864866], [-0.008241884735364247, 0.0846542988057224], [-0.33170759115368986, 0.48915020927040476], [-0.3331917224755819, 0.1852193064134655], [0.2852218876125642, 0.09863801543431294], [0.4016224811690742, 0.3472673340628916], [0.44395589697115756, -0.010989056296855315], [0.09152099174730532, 0.28432778045593154], [-0.5072981749187965, 0.26389767102773615]]",density,white,,,N008,visual,1,[],"['1', '2', '3', '4']",1,2023.2.3,harveyvisual,2.1,[],8,0.75,
0,pause,0.4,None,None,None,0,155,155,155,,,,,,,,,,,1,56.40398097038269,N008,visual,1,[],"['1', '2', '3', '4']",1,2023.2.3,harveyvisual,2.1,[],8,0.75,
9,dot,0.3,['dot'],['density'],black,0,156,156,156,,,57.000216007232666,56.71475696563721,57.01474118232727,dot,"[0.08, 0.06, 0.1, 0.08, 0.1, 0.1, 0.08, 0.06, 0.06]","[[0.15603996265512696, -0.0872053538661942], [-0.29211765964195757, -0.04110002513656992], [-0.071087909845803, -0.33174387981618686], [-0.13011395490928096, 0.2584597801106329], [-0.08364541374476576, -0.0980664528631432], [-0.26669569773039664, -0.25481833902542456], [-0.35582819085755485, -0.4494505046102014], [-0.1269674344078877, -0.5566175884613933], [0.011820482989003244, 0.07934247632600783]]",density,black,,,N008,visual,1,[],"['1', '2', '3', '4']",1,2023.2.3,harveyvisual,2.1,[],8,0.75,
0,pause,0.4,None,None,None,0,157,157,157,,,,,,,,,,,,,N008,visual,1,[],"['1', '2', '3', '4']",1,2023.2.3,harveyvisual,2.1,[],8,0.75,
9,dot,0.3,['dot'],['density'],black,0,158,158,158,,,57.70022201538086,57.41480207443237,57.71476912498474,dot,"[0.1, 0.1, 0.08, 0.08, 0.08, 0.06, 0.08, 0.08, 0.08]","[[0.4433726728065019, 0.22320554513198193], [0.1026133663954636, -0.050786049565613584], [0.20022034484770485, 0.4412403735117007], [0.45250313802570796, 0.010227273383000257], [0.037500571895399265, 0.24935285809920393], [0.23874579090912346, 0.11348512554989887], [0.25013734113836505, -0.23502010549412247], [0.4599692436892986, -0.2536974682823114], [0.04694731086691962, -0.2548367103293993]]",density,black,,,N008,visual,1,[],"['1', '2', '3', '4']",1,2023.2.3,harveyvisual,2.1,[],8,0.75,
0,pause,0.4,None,None,None,0,159,159,159,,,,,,,,,,,,,N008,visual,1,[],"['1', '2', '3', '4']",1,2023.2.3,harveyvisual,2.1,[],8,0.75,
9,dot,0.3,['dot'],['density'],black,0,160,160,160,,,58.40022110939026,58.11476802825928,58.41483116149902,dot,"[0.06, 0.1, 0.06, 0.1, 0.1, 0.1, 0.08, 0.1, 0.08]","[[-0.5242180236495622, 0.2097960018926228], [-0.2671382220306689, 0.3003190330968159], [-0.06183693718886379, 0.22592490829479475], [-0.2001015593906042, -0.14641750634996328], [-0.09246193223873551, 0.43765994221656135], [-0.29330373087767303, 0.05285487614136386], [0.007094383220706952, 0.008748553761596398], [0.1465325421295601, 0.294910430799518], [0.04425292235957525, -0.2230758375085622]]",density,black,,,N008,visual,1,[],"['1', '2', '3', '4']",1,2023.2.3,harveyvisual,2.1,[],8,0.75,
0,pause,0.4,None,None,None,0,161,161,161,,,,,,,,,,,,,N008,visual,1,[],"['1', '2', '3', '4']",1,2023.2.3,harveyvisual,2.1,[],8,0.75,
9,dot,0.3,['dot'],['density'],black,0,162,162,162,,,59.10020899772644,58.8147029876709,59.11474800109863,dot,"[0.1, 0.06, 0.06, 0.1, 0.08, 0.08, 0.08, 0.06, 0.08]","[[0.12352761201622256, -0.5468572532837559], [0.3269537579821693, -0.14821727133703638], [-0.17374906020363926, -0.07190913605219341], [-0.07646026346349713, -0.5341566642345157], [0.06446752128858728, 0.011530587655488696], [0.17734850627899523, -0.32847254707869106], [-0.01015131191695844, -0.24065236825376074], [-0.3732824370369478, -0.21519922319826376], [-0.23017550258214428, -0.35747389881463476]]",density,black,,,N008,visual,1,[],"['1', '2', '3', '4']",1,2023.2.3,harveyvisual,2.1,[],8,0.75,
0,pause,0.4,None,None,None,0,163,163,163,,,,,,,,,,,,,N008,visual,1,[],"['1', '2', '3', '4']",1,2023.2.3,harveyvisual,2.1,[],8,0.75,
9,dot,0.3,['dot'],['density'],black,0,164,164,164,,,59.800228118896484,59.514748096466064,59.81473898887634,dot,"[0.1, 0.1, 0.06, 0.08, 0.1, 0.08, 0.08, 0.08, 0.1]","[[0.16751238249231654, 0.5577961240465925], [-0.27296145406993233, 0.4862198967380745], [-0.029185467938656964, 0.15062746822878756], [-0.0646201772689005, 0.5687739076077192], [0.1739328392933146, 0.3418730943321047], [-0.141244529573345, 0.32572795328380527], [-0.5161698704605421, 0.1834233825743511], [0.21727962056556488, 0.12903401361548372], [-0.23724269532595021, 0.10991409904419316]]",density,black,,,N008,visual,1,[],"['1', '2', '3', '4']",1,2023.2.3,harveyvisual,2.1,[],8,0.75,
0,pause,0.4,None,None,None,0,165,165,165,,,,,,,,,,,,,N008,visual,1,[],"['1', '2', '3', '4']",1,2023.2.3,harveyvisual,2.1,[],8,0.75,
9,dot,0.3,['dot'],['density'],black,0,166,166,166,,,60.50023412704468,60.214728116989136,60.51464796066284,dot,"[0.08, 0.06, 0.06, 0.08, 0.1, 0.1, 0.1, 0.1, 0.1]","[[-0.3143165991636532, -0.4594448536910345], [-0.2552048841139852, -0.06866208597721758], [-0.4539914907372049, -0.019462523532982], [-0.0016330512078212595, -0.20036737320767878], [-0.1856154264835833, -0.2915493351998931], [-0.41369389823818076, -0.2734186166626005], [0.2388286227728169, -0.07063581723838416], [0.0412368179136257, 0.05808754956878123], [-0.37802967984412894, 0.19285536194211775]]",density,black,,,N008,visual,1,[],"['1', '2', '3', '4']",1,2023.2.3,harveyvisual,2.1,[],8,0.75,
0,pause,0.4,None,None,None,0,167,167,167,,,,,,,,,,,,,N008,visual,1,[],"['1', '2', '3', '4']",1,2023.2.3,harveyvisual,2.1,[],8,0.75,
8,dot,0.3,['dot'],['density'],black,0,168,168,168,,,61.20023012161255,60.914635181427,61.21466517448425,dot,"[0.06, 0.1, 0.1, 0.08, 0.08, 0.06, 0.06, 0.06]","[[-0.21605400050023119, -0.36806604112140096], [-0.4331556331222778, 0.1336594927324191], [-0.3157474098875971, -0.1371073420352747], [-0.10064365538588134, -0.10053754910436148], [0.10862445751928086, -0.04115753002163663], [-0.19663983546434133, 0.09424647547905109], [-0.5379272585723496, -0.06117038891009633], [0.023355790718173546, -0.2955553217846553]]",density,black,,,N008,visual,1,[],"['1', '2', '3', '4']",1,2023.2.3,harveyvisual,2.1,[],8,0.75,
0,pause,0.4,None,None,None,0,169,169,169,,,,,,,,,,,,,N008,visual,1,[],"['1', '2', '3', '4']",1,2023.2.3,harveyvisual,2.1,[],8,0.75,
8,dot,0.3,['dot'],['density'],white,0,170,170,170,,,61.90022611618042,61.61469602584839,61.914671182632446,dot,"[0.08, 0.06, 0.1, 0.1, 0.08, 0.06, 0.06, 0.08]","[[0.2564657333297123, -0.5164120873644681], [0.16207736998829034, -0.17430025554579232], [0.3801370228700199, -0.12440354324600712], [0.3861419762144276, -0.3474957963553726], [0.023072413076989942, -0.006703975881976366], [-0.07114697953604181, -0.35683211304459495], [0.45447188669532573, 0.06927659529933487], [0.23571610799738704, 0.02784742549372824]]",density,white,,,N008,visual,1,[],"['1', '2', '3', '4']",1,2023.2.3,harveyvisual,2.1,[],8,0.75,
0,pause,0.4,None,None,None,0,171,171,171,,,,,,,,,,,,,N008,visual,1,[],"['1', '2', '3', '4']",1,2023.2.3,harveyvisual,2.1,[],8,0.75,
8,dot,0.3,['dot'],['density'],black,0,172,172,172,,,62.60025596618652,62.3146550655365,62.614596128463745,dot,"[0.06, 0.08, 0.08, 0.08, 0.1, 0.08, 0.08, 0.06]","[[0.4107983822504989, -0.04783789354839145], [-0.06954892783911702, 0.20421019801840873], [0.19287329246680035, -0.23674413065931216], [-0.04658255687897442, -0.27568538913083557], [0.19478566210173015, -0.00965484605936359], [-0.04069516991009335, -0.04900998707948758], [0.17921022995035232, 0.2044367826380957], [-0.22871454517575843, 0.05025111546696341]]",density,black,1,62.410725116729736,N008,visual,1,[],"['1', '2', '3', '4']",1,2023.2.3,harveyvisual,2.1,[],8,0.75,
0,pause,0.4,None,None,None,0,173,173,173,,,,,,,,,,,,,N008,visual,1,[],"['1', '2', '3', '4']",1,2023.2.3,harveyvisual,2.1,[],8,0.75,
8,dot,0.3,['dot'],['density'],black,0,174,174,174,,,63.30022597312927,63.01466703414917,63.31463599205017,dot,"[0.08, 0.08, 0.06, 0.06, 0.08, 0.06, 0.1, 0.1]","[[-0.3306282708070712, -0.09459634407206743], [0.17708038186302957, -0.36794437316098305], [-0.34368294577136044, -0.39688855169369486], [-0.16397220561896333, 0.03033928826277653], [-0.08476975953586025, -0.41834960305423746], [-0.16765121495786453, -0.2265743681515788], [0.0449590487082352, -0.10546915507075137], [-0.5574709661459258, -0.15664368712912546]]",density,black,,,N008,visual,1,[],"['1', '2', '3', '4']",1,2023.2.3,harveyvisual,2.1,[],8,0.75,
0,pause,0.4,None,None,None,0,175,175,175,,,,,,,,,,,,,N008,visual,1,[],"['1', '2', '3', '4']",1,2023.2.3,harveyvisual,2.1,[],8,0.75,
8,dot,0.3,['dot'],['density'],black,0,176,176,176,,,64.00022006034851,63.71458315849304,64.01455307006836,dot,"[0.06, 0.1, 0.08, 0.08, 0.1, 0.06, 0.08, 0.08]","[[0.5011924336457421, -0.024432440978935197], [0.2806328112604475, -0.04317330297599672], [0.4832514634589159, 0.31109822070486504], [0.16408111659662816, 0.42847901077729456], [0.23688927214560462, 0.23559820796421724], [0.07772697954394367, 0.06196890701796274], [0.10192126774068293, -0.18867749580812243], [-0.012619648351882298, 0.24997239668137242]]",density,black,,,N008,visual,1,[],"['1', '2', '3', '4']",1,2023.2.3,harveyvisual,2.1,[],8,0.75,
0,pause,0.4,None,None,None,0,177,177,177,,,,,,,,,,,,,N008,visual,1,[],"['1', '2', '3', '4']",1,2023.2.3,harveyvisual,2.1,[],8,0.75,
8,dot,0.3,['dot'],['density'],black,0,178,178,178,,,64.70022797584534,64.41455411911011,64.71457505226135,dot,"[0.06, 0.08, 0.1, 0.06, 0.1, 0.06, 0.08, 0.1]","[[-0.30918623351354413, -0.2762980118811315], [0.03442122464869854, -0.32944299641312663], [0.20656618624830034, -0.4515266663928406], [0.20458815773351877, -0.002924552385479317], [-0.054765695239429084, -0.14491701700869716], [-0.0008776159608741382, 0.05441634750414142], [0.19975410704164612, -0.21252729673777132], [-0.19330391669800595, 0.14377227853430027]]",density,black,,,N008,visual,1,[],"['1', '2', '3', '4']",1,2023.2.3,harveyvisual,2.1,[],8,0.75,
0,pause,0.4,None,None,None,0,179,179,179,,,,,,,,,,,,,N008,visual,1,[],"['1', '2', '3', '4']",1,2023.2.3,harveyvisual,2.1,[],8,0.75,
7,dot,0.3,['dot'],['density'],white,0,180,180,180,,,65.40022206306458,65.11474108695984,65.41473698616028,dot,"[0.06, 0.06, 0.08, 0.08, 0.08, 0.06, 0.1]","[[0.3899189512010899, -0.40728696153528776], [0.20392863561369634, -0.3305625840210526], [0.31626985815109576, 0.13567824844623666], [0.5017338684339655, -0.028549680114735937], [0.11648855723187378, -0.1078833072829627], [0.07041138378868489, 0.08730219371944997], [0.32910598476010167, -0.13660711058181768]]",density,white,,,N008,visual,1,[],"['1', '2', '3', '4']",1,2023.2.3,harveyvisual,2.1,[],8,0.75,
0,pause,0.4,None,None,None,0,181,181,181,,,,,,,,,,,1,65.47320199012756,N008,visual,1,[],"['1', '2', '3', '4']",1,2023.2.3,harveyvisual,2.1,[],8,0.75,
7,dot,0.3,['dot'],['density'],black,0,182,182,182,,,66.1002311706543,65.81467700004578,66.11466908454895,dot,"[0.08, 0.1, 0.06, 0.1, 0.1, 0.1, 0.08]","[[0.12902113605384963, -0.35167066519854956], [0.3838909825822851, -0.05572740120406059], [-0.02857767273637445, 0.1549795872955612], [0.19333287999408408, 0.10698923431715611], [-0.08146847087507005, -0.06064403559207536], [0.18020694687254563, -0.15550905334431223], [-0.07225335190945896, -0.28606481362007624]]",density,black,,,N008,visual,1,[],"['1', '2', '3', '4']",1,2023.2.3,harveyvisual,2.1,[],8,0.75,
0,pause,0.4,None,None,None,0,183,183,183,,,,,,,,,,,,,N008,visual,1,[],"['1', '2', '3', '4']",1,2023.2.3,harveyvisual,2.1,[],8,0.75,
7,dot,0.3,['dot'],['density'],black,0,184,184,184,,,66.8002290725708,66.5145480632782,66.81457304954529,dot,"[0.06, 0.06, 0.08, 0.08, 0.06, 0.1, 0.1]","[[-0.39883248072855915, 0.30823732592088265], [-0.041341486549100435, 0.2390478988097413], [-0.013495537319202725, 0.5211111720540192], [-0.2415889716500472, 0.10795059447242317], [-0.023803066389735523, 0.02076064871433158], [0.14387498046506175, 0.3548008600093999], [-0.24331877599120405, 0.46521846842164205]]",density,black,,,N008,visual,1,[],"['1', '2', '3', '4']",1,2023.2.3,harveyvisual,2.1,[],8,0.75,
0,pause,0.4,None,None,None,0,185,185,185,,,,,,,,,,,,,N008,visual,1,[],"['1', '2', '3', '4']",1,2023.2.3,harveyvisual,2.1,[],8,0.75,
7,dot,0.3,['dot'],['density'],black,0,186,186,186,,,67.50021815299988,67.21466207504272,67.51451897621155,dot,"[0.1, 0.08, 0.1, 0.06, 0.08, 0.08, 0.08]","[[0.2966712274604575, -0.2131825579980761], [-0.1186836204372937, -0.4965034514665913], [-0.01440301872015537, -0.0403072600505146], [0.1950017499803942, -0.04023412759326238], [0.279011892689379, -0.46996203863525404], [-0.05628257964606558, -0.24364929332980273], [0.11956786588335709, -0.3438640467385331]]",density,black,,,N008,visual,1,[],"['1', '2', '3', '4']",1,2023.2.3,harveyvisual,2.1,[],8,0.75,
0,pause,0.4,None,None,None,0,187,187,187,,,,,,,,,,,,,N008,visual,1,[],"['1', '2', '3', '4']",1,2023.2.3,harveyvisual,2.1,[],8,0.75,
7,dot,0.3,['dot'],['density'],white,0,188,188,188,,,68.20023512840271,67.91465997695923,68.21448707580566,dot,"[0.08, 0.06, 0.06, 0.1, 0.08, 0.06, 0.06]","[[-0.3423230189937584, -0.41219609722212536], [-0.1182323968952694, -0.35552357509158045], [-0.4111032443031386, -0.006313161275750597], [-0.5095560862941229, -0.2529410328503813], [-0.2588176969072235, -0.18091026219072012], [-0.0026253510642934245, -0.12197054074907589], [-0.16586784627322051, 0.0941069694468023]]",density,white,,,N008,visual,1,[],"['1', '2', '3', '4']",1,2023.2.3,harveyvisual,2.1,[],8,0.75,
0,pause,0.4,None,None,None,0,189,189,189,,,,,,,,,,,1,68.25275707244873,N008,visual,1,[],"['1', '2', '3', '4']",1,2023.2.3,harveyvisual,2.1,[],8,0.75,
7,dot,0.3,['dot'],['density'],black,0,190,190,190,,,68.90023016929626,68.61460399627686,68.91459202766418,dot,"[0.1, 0.08, 0.06, 0.08, 0.1, 0.08, 0.08]","[[-0.3242652666020733, -0.24505345323409705], [-0.563286395470885, 0.11160295583497896], [-0.1647097641571906, 0.12111961656459011], [-0.36052488434271157, 0.18805397786199418], [-0.09510517377503278, -0.06720219285628748], [-0.3867432997129629, -0.05120750304069932], [-0.32798962767594847, 0.38554234766764234]]",density,black,,,N008,visual,1,[],"['1', '2', '3', '4']",1,2023.2.3,harveyvisual,2.1,[],8,0.75,
0,pause,0.4,None,None,None,0,191,191,191,,,,,,,,,,,,,N008,visual,1,[],"['1', '2', '3', '4']",1,2023.2.3,harveyvisual,2.1,[],8,0.75,
6,dot,0.3,['dot'],['density'],white,0,192,192,192,,,69.60023808479309,69.31446814537048,69.61446213722229,dot,"[0.06, 0.1, 0.08, 0.1, 0.08, 0.08]","[[-0.521575560759306, -0.09896409503936293], [-0.11005055439098525, 0.007412765662050641], [-0.2691644509192311, -0.32034241736757013], [-0.33082776037640693, 0.11579187391948328], [-0.031037041641207554, -0.21820435357846482], [-0.2943013415457968, -0.09543215727460275]]",density,white,,,N008,visual,1,[],"['1', '2', '3', '4']",1,2023.2.3,harveyvisual,2.1,[],8,0.75,
0,pause,0.4,None,None,None,0,193,193,193,,,,,,,,,,,1,69.67558693885803,N008,visual,1,[],"['1', '2', '3', '4']",1,2023.2.3,harveyvisual,2.1,[],8,0.75,
6,dot,0.3,['dot'],['density'],black,0,194,194,194,,,70.30022597312927,70.01447200775146,70.3144600391388,dot,"[0.1, 0.06, 0.1, 0.06, 0.08, 0.1]","[[-0.060066269329224556, -0.3459973645598818], [-0.2267112282887438, -0.46433083725857055], [-0.03368736353914721, -0.0592740518520544], [0.1129416353875032, -0.20466059509733167], [0.13908697530976044, -0.42386339769443276], [-0.2931789080149146, -0.2669036372638095]]",density,black,,,N008,visual,1,[],"['1', '2', '3', '4']",1,2023.2.3,harveyvisual,2.1,[],8,0.75,
0,pause,0.4,None,None,None,0,195,195,195,,,,,,,,,,,,,N008,visual,1,[],"['1', '2', '3', '4']",1,2023.2.3,harveyvisual,2.1,[],8,0.75,
6,dot,0.3,['dot'],['density'],black,0,196,196,196,,,71.00023698806763,70.71446108818054,71.01456618309021,dot,"[0.1, 0.06, 0.06, 0.06, 0.08, 0.08]","[[0.4838288853419304, 0.012393783640839304], [0.3357737587390128, 0.3939464288632381], [0.48781910936274964, 0.21484656822060386], [0.038497076365425514, 0.2266532147795764], [0.13074852606734502, 0.009493629341700475], [0.2855531954453259, 0.1811044151544938]]",density,black,,,N008,visual,1,[],"['1', '2', '3', '4']",1,2023.2.3,harveyvisual,2.1,[],8,0.75,
0,pause,0.4,None,None,None,0,197,197,197,,,,,,,,,,,,,N008,visual,1,[],"['1', '2', '3', '4']",1,2023.2.3,harveyvisual,2.1,[],8,0.75,
6,dot,0.3,['dot'],['density'],black,0,198,198,198,,,71.7002170085907,71.41453909873962,71.71456599235535,dot,"[0.08, 0.06, 0.06, 0.06, 0.08, 0.1]","[[-0.37443702985748106, 0.32648296684105377], [-0.5461381080049402, 0.20900463425646473], [-0.03667792491240075, 0.12745261621840673], [-0.13670974087354773, 0.4115775839407936], [-0.3800981804337871, 0.05314619565530939], [-0.23016292349935943, 0.18714801531232822]]",density,black,,,N008,visual,1,[],"['1', '2', '3', '4']",1,2023.2.3,harveyvisual,2.1,[],8,0.75,
0,pause,0.4,None,None,None,0,199,199,199,,,,,,,,,,,,,N008,visual,1,[],"['1', '2', '3', '4']",1,2023.2.3,harveyvisual,2.1,[],8,0.75,
6,dot,0.3,['dot'],['density'],black,0,200,200,200,,,72.40022206306458,72.11439609527588,72.41450309753418,dot,"[0.08, 0.1, 0.08, 0.06, 0.1, 0.08]","[[0.23625405956766557, 0.3892633732772463], [0.11760889656980711, -0.0038201085241890706], [0.42882153754783053, 0.07157264481568941], [0.22360409458703237, 0.16865996735680294], [-0.08582952339030024, 0.051003002567710905], [-0.0010028139275050567, 0.23222523166366787]]",density,black,,,N008,visual,1,[],"['1', '2', '3', '4']",1,2023.2.3,harveyvisual,2.1,[],8,0.75,
0,pause,0.4,None,None,None,0,201,201,201,,,,,,,,,,,,,N008,visual,1,[],"['1', '2', '3', '4']",1,2023.2.3,harveyvisual,2.1,[],8,0.75,
6,dot,0.3,['dot'],['density'],black,0,202,202,202,,,73.10022211074829,72.81435704231262,73.11435198783875,dot,"[0.06, 0.06, 0.1, 0.08, 0.06, 0.06]","[[0.5108460974500976, 0.10904555526594768], [0.5033362887342737, -0.29902707163897635], [0.3062164979741722, 0.05793810054487639], [0.22849736264613016, -0.28041776899433873], [0.12909977445373055, -0.06500178518750158], [0.41889526300287094, -0.11616960582105396]]",density,black,,,N008,visual,1,[],"['1', '2', '3', '4']",1,2023.2.3,harveyvisual,2.1,[],8,0.75,
0,pause,0.4,None,None,None,0,203,203,203,,,,,,,,,,,,,N008,visual,1,[],"['1', '2', '3', '4']",1,2023.2.3,harveyvisual,2.1,[],8,0.75,
5,dot,0.3,['dot'],['density'],black,0,204,204,204,,,73.80021905899048,73.51437616348267,73.81439304351807,dot,"[0.06, 0.08, 0.08, 0.1, 0.08]","[[-0.082153098152829, -0.06894165798345762], [0.016766770742065788, -0.42680196676869325], [0.2961099764235258, -0.14925166127785872], [-0.1456021726000032, -0.26669195071034546], [0.10213220283607832, -0.23321095001989858]]",density,black,,,N008,visual,1,[],"['1', '2', '3', '4']",1,2023.2.3,harveyvisual,2.1,[],8,0.75,
0,pause,0.4,None,None,None,0,205,205,205,,,,,,,,,,,,,N008,visual,1,[],"['1', '2', '3', '4']",1,2023.2.3,harveyvisual,2.1,[],8,0.75,
5,dot,0.3,['dot'],['density'],black,0,206,206,206,,,74.500235080719,74.21440815925598,74.51438498497009,dot,"[0.1, 0.08, 0.06, 0.08, 0.08]","[[0.2075830250205083, 0.5448960418430373], [0.010600229768786232, 0.45420498888786176], [-0.10187712889758427, 0.28364076042242115], [0.1691377395635631, 0.293820614486451], [-0.2596336492265815, 0.40815120909286945]]",density,black,,,N008,visual,1,[],"['1', '2', '3', '4']",1,2023.2.3,harveyvisual,2.1,[],8,0.75,
0,pause,0.4,None,None,None,0,207,207,207,,,,,,,,,,,,,N008,visual,1,[],"['1', '2', '3', '4']",1,2023.2.3,harveyvisual,2.1,[],8,0.75,
5,dot,0.3,['dot'],['density'],black,0,208,208,208,,,75.20022797584534,74.91439008712769,75.2143771648407,dot,"[0.1, 0.06, 0.08, 0.1, 0.08]","[[0.33660852042816714, -0.448935078303268], [0.16237328695183198, -0.028906365321866932], [0.003149504206933677, -0.1844463225559013], [0.4065340125681681, -0.22407981263326276], [0.20027486954239768, -0.2346061295568129]]",density,black,,,N008,visual,1,[],"['1', '2', '3', '4']",1,2023.2.3,harveyvisual,2.1,[],8,0.75,
0,pause,0.4,None,None,None,0,209,209,209,,,,,,,,,,,,,N008,visual,1,[],"['1', '2', '3', '4']",1,2023.2.3,harveyvisual,2.1,[],8,0.75,
5,dot,0.3,['dot'],['density'],black,0,210,210,210,,,75.90023016929626,75.61433506011963,75.91432809829712,dot,"[0.08, 0.06, 0.06, 0.06, 0.08]","[[0.2947939438731228, -0.23060267152592065], [-0.16069394766121817, -0.3416383267983795], [0.17571447256805817, -0.04795497140357211], [-0.06398416024856234, -0.043165972544212804], [0.046845399773749824, -0.2436216536023896]]",density,black,,,N008,visual,1,[],"['1', '2', '3', '4']",1,2023.2.3,harveyvisual,2.1,[],8,0.75,
0,pause,0.4,None,None,None,0,211,211,211,,,,,,,,,,,,,N008,visual,1,[],"['1', '2', '3', '4']",1,2023.2.3,harveyvisual,2.1,[],8,0.75,
5,dot,0.3,['dot'],['density'],black,0,212,212,212,,,76.60023999214172,76.31433415412903,76.61425304412842,dot,"[0.06, 0.06, 0.08, 0.1, 0.08]","[[-0.26965218803342234, -0.06061691990321757], [-0.44412238708790114, -0.1605793459593267], [-0.2738608688716076, -0.33598391440877745], [-0.06160694910013377, -0.19463283807086704], [-0.16469008497891707, 0.13324638745272324]]",density,black,,,N008,visual,1,[],"['1', '2', '3', '4']",1,2023.2.3,harveyvisual,2.1,[],8,0.75,
0,pause,0.4,None,None,None,0,213,213,213,,,,,,,,,,,,,N008,visual,1,[],"['1', '2', '3', '4']",1,2023.2.3,harveyvisual,2.1,[],8,0.75,
5,dot,0.3,['dot'],['density'],black,0,214,214,214,,,77.30021214485168,77.0143051147461,77.31428408622742,dot,"[0.08, 0.08, 0.1, 0.1, 0.1]","[[0.029171133319913545, -0.11913068329317353], [-0.2981845944788078, -0.46624640290839614], [-0.1844599491613969, -0.04126455345730423], [-0.2900988597239497, -0.2493716418714862], [-0.0791391532727178, -0.3057260733699829]]",density,black,,,N008,visual,1,[],"['1', '2', '3', '4']",1,2023.2.3,harveyvisual,2.1,[],8,0.75,
0,pause,0.4,None,None,None,0,215,215,215,,,,,,,,,,,,,N008,visual,1,[],"['1', '2', '3', '4']",1,2023.2.3,harveyvisual,2.1,[],8,0.75,
4,dot,0.3,['dot'],['density'],black,0,216,216,216,,,78.00022506713867,77.71421909332275,78.01423716545105,dot,"[0.1, 0.1, 0.06, 0.1]","[[0.0015408600658227804, 0.35051751062746694], [-0.20674122870780898, 0.3211588031025307], [-0.08430622538187964, 0.13383917563087117], [0.1780252705082131, 0.19175915241248492]]",density,black,,,N008,visual,1,[],"['1', '2', '3', '4']",1,2023.2.3,harveyvisual,2.1,[],8,0.75,
0,pause,0.4,None,None,None,0,217,217,217,,,,,,,,,,,,,N008,visual,1,[],"['1', '2', '3', '4']",1,2023.2.3,harveyvisual,2.1,[],8,0.75,
4,dot,0.3,['dot'],['density'],black,0,218,218,218,,,78.70021104812622,78.41421103477478,78.71419310569763,dot,"[0.1, 0.1, 0.08, 0.06]","[[0.0015408600658227804, 0.35051751062746694], [-0.20674122870780898, 0.3211588031025307], [-0.08430622538187964, 0.13383917563087117], [0.1780252705082131, 0.19175915241248492]]",density,black,,,N008,visual,1,[],"['1', '2', '3', '4']",1,2023.2.3,harveyvisual,2.1,[],8,0.75,
0,pause,0.4,None,None,None,0,219,219,219,,,,,,,,,,,,,N008,visual,1,[],"['1', '2', '3', '4']",1,2023.2.3,harveyvisual,2.1,[],8,0.75,
4,dot,0.3,['dot'],['density'],black,0,220,220,220,,,79.4002411365509,79.11428499221802,79.41417002677917,dot,"[0.06, 0.1, 0.1, 0.08]","[[0.0004228548582206217, 0.4437421379736539], [0.24572762857664815, 0.2260868474052859], [0.007756854070108054, 0.1846819218217072], [0.22099789303306372, 0.4278063517398125]]",density,black,,,N008,visual,1,[],"['1', '2', '3', '4']",1,2023.2.3,harveyvisual,2.1,[],8,0.75,
0,pause,0.4,None,None,None,0,221,221,221,,,,,,,,,,,,,N008,visual,1,[],"['1', '2', '3', '4']",1,2023.2.3,harveyvisual,2.1,[],8,0.75,
4,dot,0.3,['dot'],['density'],black,0,222,222,222,,,80.10023808479309,79.8143560886383,80.11435198783875,dot,"[0.1, 0.08, 0.08, 0.06]","[[0.2472118047986834, -0.10298318101898082], [0.5832669122255578, -0.0503561045998346], [0.411076479450662, -0.2641061246578253], [0.42907679660555237, 0.09101913809416001]]",density,black,,,N008,visual,1,[],"['1', '2', '3', '4']",1,2023.2.3,harveyvisual,2.1,[],8,0.75,
0,pause,0.4,None,None,None,0,223,223,223,,,,,,,,,,,,,N008,visual,1,[],"['1', '2', '3', '4']",1,2023.2.3,harveyvisual,2.1,[],8,0.75,
4,dot,0.3,['dot'],['density'],black,0,224,224,224,,,80.80021500587463,80.51431608200073,80.8142831325531,dot,"[0.06, 0.08, 0.08, 0.06]","[[-0.5133923796685119, -0.13567638448558317], [-0.3102378593599109, -0.17790160316510653], [-0.5338837235738882, 0.07316730980410076], [-0.255286731521037, 0.022123457211080083]]",density,black,,,N008,visual,1,[],"['1', '2', '3', '4']",1,2023.2.3,harveyvisual,2.1,[],8,0.75,
0,pause,0.4,None,None,None,0,225,225,225,,,,,,,,,,,,,N008,visual,1,[],"['1', '2', '3', '4']",1,2023.2.3,harveyvisual,2.1,[],8,0.75,
4,dot,0.3,['dot'],['density'],white,0,226,226,226,,,81.500235080719,81.21430802345276,81.51416301727295,dot,"[0.08, 0.06, 0.06, 0.1]","[[-0.34940937311115045, -0.11648702989399858], [-0.2695829051223266, -0.4589438614516443], [-0.4698604504367728, -0.3018413850444449], [-0.18849712946501163, -0.26902343222239633]]",density,white,,,N008,visual,1,[],"['1', '2', '3', '4']",1,2023.2.3,harveyvisual,2.1,[],8,0.75,
0,pause,0.4,None,None,None,0,227,227,227,,,,,,,,,,,1,81.61428594589233,N008,visual,1,[],"['1', '2', '3', '4']",1,2023.2.3,harveyvisual,2.1,[],8,0.75,
3,dot,0.3,['dot'],['density'],black,0,228,228,228,,,82.20021605491638,81.91432118415833,82.21430397033691,dot,"[0.06, 0.1, 0.08]","[[0.13574725429899362, -0.5423283227425341], [-0.036793286563257144, -0.3768814925557267], [0.16175487704753985, -0.3348017255345844]]",density,black,,,N008,visual,1,[],"['1', '2', '3', '4']",1,2023.2.3,harveyvisual,2.1,[],8,0.75,
0,pause,0.4,None,None,None,0,229,229,229,,,,,,,,,,,,,N008,visual,1,[],"['1', '2', '3', '4']",1,2023.2.3,harveyvisual,2.1,[],8,0.75,
3,dot,0.3,['dot'],['density'],black,0,230,230,230,,,82.9002320766449,82.61434602737427,82.91432213783264,dot,"[0.06, 0.1, 0.08]","[[-0.09236249555143743, 0.14437879021360575], [0.06053771141254397, 0.008702735453236923], [-0.17336599953316903, -0.04113967592870183]]",density,black,,,N008,visual,1,[],"['1', '2', '3', '4']",1,2023.2.3,harveyvisual,2.1,[],8,0.75,
0,pause,0.4,None,None,None,0,231,231,231,,,,,,,,,,,,,N008,visual,1,[],"['1', '2', '3', '4']",1,2023.2.3,harveyvisual,2.1,[],8,0.75,
3,dot,0.3,['dot'],['density'],black,0,232,232,232,,,83.60022711753845,83.31435108184814,83.6143090724945,dot,"[0.08, 0.08, 0.1]","[[-0.17592395544936776, 0.40510565415719324], [-0.30566154612550034, 0.21848422264492345], [-0.39822260978708685, 0.43144058222919995]]",density,black,,,N008,visual,1,[],"['1', '2', '3', '4']",1,2023.2.3,harveyvisual,2.1,[],8,0.75,
0,pause,0.4,None,None,None,0,233,233,233,,,,,,,,,,,,,N008,visual,1,[],"['1', '2', '3', '4']",1,2023.2.3,harveyvisual,2.1,[],8,0.75,
3,dot,0.3,['dot'],['density'],black,0,234,234,234,,,84.30022311210632,84.01436305046082,84.31409001350403,dot,"[0.08, 0.08, 0.1]","[[-0.5649268285189266, -0.02945458741690218], [-0.36332336008090005, 0.05160617148840915], [-0.5004673786076542, 0.20230308468415367]]",density,black,,,N008,visual,1,[],"['1', '2', '3', '4']",1,2023.2.3,harveyvisual,2.1,[],8,0.75,
0,pause,0.4,None,None,None,0,235,235,235,,,,,,,,,,,,,N008,visual,1,[],"['1', '2', '3', '4']",1,2023.2.3,harveyvisual,2.1,[],8,0.75,
3,dot,0.3,['dot'],['density'],black,0,236,236,236,,,85.00022315979004,84.7141101360321,85.01409697532654,dot,"[0.08, 0.1, 0.08]","[[-0.32624451712468355, -0.43854848545497693], [-0.39409142490376414, -0.22516425170789148], [-0.152352104904091, -0.33204091051628687]]",density,black,,,N008,visual,1,[],"['1', '2', '3', '4']",1,2023.2.3,harveyvisual,2.1,[],8,0.75,
0,pause,0.4,None,None,None,0,237,237,237,,,,,,,,,,,,,N008,visual,1,[],"['1', '2', '3', '4']",1,2023.2.3,harveyvisual,2.1,[],8,0.75,
3,dot,0.3,['dot'],['density'],black,0,238,238,238,,,85.70022797584534,85.41408705711365,85.71406698226929,dot,"[0.08, 0.08, 0.08]","[[-0.05604225559701161, -0.5082314702914299], [0.10137377066920354, -0.3837858820064252], [-0.12802807887251882, -0.3142638921214105]]",density,black,,,N008,visual,1,[],"['1', '2', '3', '4']",1,2023.2.3,harveyvisual,2.1,[],8,0.75,
0,pause,0.4,None,None,None,0,239,239,239,,,,,,,,,,,,,N008,visual,1,[],"['1', '2', '3', '4']",1,2023.2.3,harveyvisual,2.1,[],8,0.75,
2,dot,0.3,['dot'],['density'],white,0,240,240,240,,,86.40021705627441,86.11403918266296,86.4142050743103,dot,"[0.06, 0.06]","[[0.19540278997321237, -0.319457995891214], [0.34462774624387493, -0.4544903302695001]]",density,white,,,N008,visual,1,[],"['1', '2', '3', '4']",1,2023.2.3,harveyvisual,2.1,[],8,0.75,
0,pause,0.4,None,None,None,0,241,241,241,,,,,,,,,,,1,86.52491307258606,N008,visual,1,[],"['1', '2', '3', '4']",1,2023.2.3,harveyvisual,2.1,[],8,0.75,
2,dot,0.3,['dot'],['density'],black,0,242,242,242,,,87.10022902488708,86.8140161037445,87.11419200897217,dot,"[0.08, 0.06]","[[-0.4579128382498026, -0.013317831223324628], [-0.28624676016543393, -0.11681778735554697]]",density,black,,,N008,visual,1,[],"['1', '2', '3', '4']",1,2023.2.3,harveyvisual,2.1,[],8,0.75,
0,pause,0.4,None,None,None,0,243,243,243,,,,,,,,,,,,,N008,visual,1,[],"['1', '2', '3', '4']",1,2023.2.3,harveyvisual,2.1,[],8,0.75,
2,dot,0.3,['dot'],['density'],black,0,244,244,244,,,87.8002381324768,87.51423907279968,87.81421709060669,dot,"[0.1, 0.06]","[[0.21195259569903124, -0.4986433684978455], [0.023877440871594643, -0.42921284787985464]]",density,black,,,N008,visual,1,[],"['1', '2', '3', '4']",1,2023.2.3,harveyvisual,2.1,[],8,0.75,
0,pause,0.4,None,None,None,0,245,245,245,,,,,,,,,,,,,N008,visual,1,[],"['1', '2', '3', '4']",1,2023.2.3,harveyvisual,2.1,[],8,0.75,
2,dot,0.3,['dot'],['density'],black,0,246,246,246,,,88.5002281665802,88.21397709846497,88.51397800445557,dot,"[0.1, 0.1]","[[0.2713647219188039, -0.029235290058335472], [0.46697437826705046, 0.014145112521712659]]",density,black,,,N008,visual,1,[],"['1', '2', '3', '4']",1,2023.2.3,harveyvisual,2.1,[],8,0.75,
0,pause,0.4,None,None,None,0,247,247,247,,,,,,,,,,,,,N008,visual,1,[],"['1', '2', '3', '4']",1,2023.2.3,harveyvisual,2.1,[],8,0.75,
2,dot,0.3,['dot'],['density'],black,0,248,248,248,,,89.20022201538086,88.9140031337738,89.213947057724,dot,"[0.06, 0.06]","[[0.038501021189721846, -0.3380528513692932], [0.2360793696083702, -0.306423538752856]]",density,black,,,N008,visual,1,[],"['1', '2', '3', '4']",1,2023.2.3,harveyvisual,2.1,[],8,0.75,
0,pause,0.4,None,None,None,0,249,249,249,,,,,,,,,,,,,N008,visual,1,[],"['1', '2', '3', '4']",1,2023.2.3,harveyvisual,2.1,[],8,0.75,
2,dot,0.3,['dot'],['density'],white,0,250,250,250,,,89.90022802352905,89.6139440536499,89.91393709182739,dot,"[0.1, 0.06]","[[-0.21141336561075566, 0.4273762957479495], [-0.1407142259739198, 0.23984948612333498]]",density,white,,,N008,visual,1,[],"['1', '2', '3', '4']",1,2023.2.3,harveyvisual,2.1,[],8,0.75,
0,pause,0.4,None,None,None,0,251,251,251,,,,,,,,,,,1,90.10712504386902,N008,visual,1,[],"['1', '2', '3', '4']",1,2023.2.3,harveyvisual,2.1,[],8,0.75,
1,dot,0.3,['dot'],['density'],black,0,252,252,252,,,90.60022211074829,90.31396102905273,90.61408400535583,dot,[0.1],"[0.4123293050259286, 0.03564095151647579]",density,black,,,N008,visual,1,[],"['1', '2', '3', '4']",1,2023.2.3,harveyvisual,2.1,[],8,0.75,
0,pause,0.4,None,None,None,0,253,253,253,,,,,,,,,,,,,N008,visual,1,[],"['1', '2', '3', '4']",1,2023.2.3,harveyvisual,2.1,[],8,0.75,
1,dot,0.3,['dot'],['density'],black,0,254,254,254,,,91.3002359867096,91.01394009590149,91.31387114524841,dot,[0.08],"[0.2287398259034258, -0.3932960849464651]",density,black,,,N008,visual,1,[],"['1', '2', '3', '4']",1,2023.2.3,harveyvisual,2.1,[],8,0.75,
0,pause,0.4,None,None,None,0,255,255,255,,,,,,,,,,,,,N008,visual,1,[],"['1', '2', '3', '4']",1,2023.2.3,harveyvisual,2.1,[],8,0.75,
1,dot,0.3,['dot'],['density'],black,0,256,256,256,,,92.00022006034851,91.71386814117432,92.01385498046875,dot,[0.08],"[0.01430498756481247, 0.36429701967127975]",density,black,,,N008,visual,1,[],"['1', '2', '3', '4']",1,2023.2.3,harveyvisual,2.1,[],8,0.75,
0,pause,0.4,None,None,None,0,257,257,257,,,,,,,,,,,,,N008,visual,1,[],"['1', '2', '3', '4']",1,2023.2.3,harveyvisual,2.1,[],8,0.75,
1,dot,0.3,['dot'],['density'],black,0,258,258,258,,,92.70021915435791,92.41384696960449,92.71384310722351,dot,[0.1],"[0.01430498756481247, 0.36429701967127975]",density,black,,,N008,visual,1,[],"['1', '2', '3', '4']",1,2023.2.3,harveyvisual,2.1,[],8,0.75,
0,pause,0.4,None,None,None,0,259,259,259,,,,,,,,,,,,,N008,visual,1,[],"['1', '2', '3', '4']",1,2023.2.3,harveyvisual,2.1,[],8,0.75,
1,dot,0.3,['dot'],['density'],black,0,260,260,260,,,93.4002320766449,93.11384701728821,93.41380715370178,dot,[0.08],"[0.4230572171255965, 0.15564154118015242]",density,black,,,N008,visual,1,[],"['1', '2', '3', '4']",1,2023.2.3,harveyvisual,2.1,[],8,0.75,
0,pause,0.4,None,None,None,0,261,261,261,,,,,,,,,,,,,N008,visual,1,[],"['1', '2', '3', '4']",1,2023.2.3,harveyvisual,2.1,[],8,0.75,
1,dot,0.3,['dot'],['density'],black,0,262,262,262,,,94.10023903846741,93.81386995315552,94.11399006843567,dot,[0.08],"[0.46628601751002285, 0.12197617226191985]",density,black,,,N008,visual,1,[],"['1', '2', '3', '4']",1,2023.2.3,harveyvisual,2.1,[],8,0.75,
0,pause,0.4,None,None,None,0,263,263,263,,,,,,,,,,,,,N008,visual,1,[],"['1', '2', '3', '4']",1,2023.2.3,harveyvisual,2.1,[],8,0.75,
20,dot,0.3,['dot'],['density'],black,0,264,264,264,,,94.80024695396423,94.51397800445557,94.81381416320801,dot,"[0.08, 0.1, 0.08, 0.08, 0.08, 0.08, 0.1, 0.06, 0.1, 0.06, 0.08, 0.06, 0.1, 0.1, 0.1, 0.08, 0.1, 0.1, 0.1, 0.06]","[[-0.2908521507938063, -0.2141688608215449], [0.3012861741802787, 0.41442562222448176], [-0.5767766735238817, 0.1708704954611773], [0.36467104732083433, -0.35068482203968065], [-0.07997816433648852, -0.5297365453249696], [-0.4769907815572373, 0.36798342169809656], [-0.0031081011393625513, 0.31911410423502096], [-0.3850918835246765, 0.05693188512033892], [0.1630724645930799, 0.04945950615801087], [-0.19235687301761123, 0.09141285237600472], [0.538787841805222, 0.2690147361758518], [0.382974561643735, -0.1413500343385231], [0.2050026538685047, -0.24624932095345642], [0.10372586354820301, 0.5187895132102314], [-0.11869383518673993, 0.5443377238285896], [0.6033169210740575, 0.012764751831088564], [-0.10536031592145617, -0.1575361659921044], [-0.5602642224474524, -0.06051774197243259], [0.3842718615016919, 0.12165690015453201], [0.5377450322278062, -0.26969510323671536]]",density,black,,,N008,visual,1,[],"['1', '2', '3', '4']",1,2023.2.3,harveyvisual,2.1,[],8,0.75,
0,pause,0.4,None,None,None,0,265,265,265,,,,,,,,,,,,,N008,visual,1,[],"['1', '2', '3', '4']",1,2023.2.3,harveyvisual,2.1,[],8,0.75,
20,dot,0.3,['dot'],['density'],black,0,266,266,266,,,95.50022101402283,95.21377396583557,95.51381707191467,dot,"[0.1, 0.1, 0.06, 0.1, 0.06, 0.08, 0.08, 0.06, 0.06, 0.08, 0.08, 0.06, 0.1, 0.08, 0.06, 0.1, 0.08, 0.06, 0.06, 0.08]","[[-0.19347140744849528, -0.28523399101356295], [0.048244285535542164, 0.14333280030274587], [-0.1783536637424719, -0.03326465150546187], [0.2551189073019352, 0.3234687088793017], [0.6046089855297526, -0.022447756820779936], [0.46868326194014653, 0.31661348853261234], [-0.6038664731898323, -0.015107270549976057], [0.30713826466210115, 0.06009430979614627], [0.15399351080107437, -0.0963009546126194], [-0.32804988458938444, -0.49941925675633214], [0.19117331176401697, -0.29691313497199434], [-0.4523194752965648, -0.26049988225256115], [0.4488129674781337, -0.1862898913240729], [-0.556147220554566, 0.18365229408422706], [0.34889586462845346, -0.4562031468982753], [-0.37558666964269954, 0.4618446995782168], [-0.043984161677295464, 0.48914665824833947], [-0.004612085471730976, -0.581300011451349], [-0.11859293422831774, 0.23415066401091844], [0.1405004854195927, 0.5656698100493998]]",density,black,,,N008,visual,1,[],"['1', '2', '3', '4']",1,2023.2.3,harveyvisual,2.1,[],8,0.75,
0,pause,0.4,None,None,None,0,267,267,267,,,,,,,,,,,,,N008,visual,1,[],"['1', '2', '3', '4']",1,2023.2.3,harveyvisual,2.1,[],8,0.75,
