num,mod,duration,shape,ll_cond,colors,.thisRepN,.thisTrialN,.thisN,.thisIndex,thisRow.t,notes,raw_global_time,t_start,t_stop,shapes,size,pos,cond,color,button,RT,participant,session,starting_run,left button (match/odd),right button (non-match/even),samples_per_block,psychopy version,expName,offset,audio,number_runs,radius,
1,dot,0.3,['dot'],['density'],black,0,0,0,0,,,2.4001998901367188,2.114748954772949,2.414658784866333,dot,[0.1],"[0.03111034986587176, -0.1137363894063533]",density,black,,,N008,visual,1,[],"['1', '2', '3', '4']",1,2023.2.3,harveyvisual,2.1,[],8,0.75,
0,pause,0.4,None,None,None,0,1,1,1,,,,,,,,,,,,,N008,visual,1,[],"['1', '2', '3', '4']",1,2023.2.3,harveyvisual,2.1,[],8,0.75,
1,dot,0.3,['dot'],['density'],black,0,2,2,2,,,3.100221872329712,2.814685821533203,3.1151468753814697,dot,[0.08],"[-0.3678067964802796, -0.3513177213804687]",density,black,,,N008,visual,1,[],"['1', '2', '3', '4']",1,2023.2.3,harveyvisual,2.1,[],8,0.75,
0,pause,0.4,None,None,None,0,3,3,3,,,,,,,,,,,,,N008,visual,1,[],"['1', '2', '3', '4']",1,2023.2.3,harveyvisual,2.1,[],8,0.75,
1,dot,0.3,['dot'],['density'],black,0,4,4,4,,,3.8002049922943115,3.5151429176330566,3.8152079582214355,dot,[0.1],"[0.4230572171255965, 0.15564154118015242]",density,black,,,N008,visual,1,[],"['1', '2', '3', '4']",1,2023.2.3,harveyvisual,2.1,[],8,0.75,
0,pause,0.4,None,None,None,0,5,5,5,,,,,,,,,,,,,N008,visual,1,[],"['1', '2', '3', '4']",1,2023.2.3,harveyvisual,2.1,[],8,0.75,
1,dot,0.3,['dot'],['density'],black,0,6,6,6,,,4.500203847885132,4.215130805969238,4.515143871307373,dot,[0.06],"[0.2830289625583117, -0.03026882548871228]",density,black,,,N008,visual,1,[],"['1', '2', '3', '4']",1,2023.2.3,harveyvisual,2.1,[],8,0.75,
0,pause,0.4,None,None,None,0,7,7,7,,,,,,,,,,,,,N008,visual,1,[],"['1', '2', '3', '4']",1,2023.2.3,harveyvisual,2.1,[],8,0.75,
1,dot,0.3,['dot'],['density'],black,0,8,8,8,,,5.200200796127319,4.915109872817993,5.215085983276367,dot,[0.1],"[0.15956500649880873, 0.2640393008039057]",density,black,,,N008,visual,1,[],"['1', '2', '3', '4']",1,2023.2.3,harveyvisual,2.1,[],8,0.75,
0,pause,0.4,None,None,None,0,9,9,9,,,,,,,,,,,,,N008,visual,1,[],"['1', '2', '3', '4']",1,2023.2.3,harveyvisual,2.1,[],8,0.75,
1,dot,0.3,['dot'],['density'],black,0,10,10,10,,,5.900201797485352,5.6152098178863525,5.917448997497559,dot,[0.06],"[0.15956500649880873, 0.2640393008039057]",density,black,,,N008,visual,1,[],"['1', '2', '3', '4']",1,2023.2.3,harveyvisual,2.1,[],8,0.75,
0,pause,0.4,None,None,None,0,11,11,11,,,,,,,,,,,,,N008,visual,1,[],"['1', '2', '3', '4']",1,2023.2.3,harveyvisual,2.1,[],8,0.75,
2,dot,0.3,['dot'],['density'],black,0,12,12,12,,,6.600205898284912,6.317387819290161,6.6173858642578125,dot,"[0.06, 0.06]","[[-0.22226122312079244, -0.00806926593831646], [-0.023245446524914906, -0.037240983575548024]]",density,black,,,N008,visual,1,[],"['1', '2', '3', '4']",1,2023.2.3,harveyvisual,2.1,[],8,0.75,
0,pause,0.4,None,None,None,0,13,13,13,,,,,,,,,,,,,N008,visual,1,[],"['1', '2', '3', '4']",1,2023.2.3,harveyvisual,2.1,[],8,0.75,
2,dot,0.3,['dot'],['density'],black,0,14,14,14,,,7.300200939178467,7.017383813858032,7.317379951477051,dot,"[0.08, 0.08]","[[0.21195259569903124, -0.4986433684978455], [0.023877440871594643, -0.42921284787985464]]",density,black,,,N008,visual,1,[],"['1', '2', '3', '4']",1,2023.2.3,harveyvisual,2.1,[],8,0.75,
0,pause,0.4,None,None,None,0,15,15,15,,,,,,,,,,,,,N008,visual,1,[],"['1', '2', '3', '4']",1,2023.2.3,harveyvisual,2.1,[],8,0.75,
2,dot,0.3,['dot'],['density'],black,0,16,16,16,,,8.000221014022827,7.71741795539856,8.017359972000122,dot,"[0.06, 0.08]","[[-0.5356907773971091, -0.01454049690556478], [-0.3936553319468624, 0.1263392020735458]]",density,black,,,N008,visual,1,[],"['1', '2', '3', '4']",1,2023.2.3,harveyvisual,2.1,[],8,0.75,
0,pause,0.4,None,None,None,0,17,17,17,,,,,,,,,,,,,N008,visual,1,[],"['1', '2', '3', '4']",1,2023.2.3,harveyvisual,2.1,[],8,0.75,
2,dot,0.3,['dot'],['density'],black,0,18,18,18,,,8.700207948684692,8.417365789413452,8.717334985733032,dot,"[0.1, 0.1]","[[-0.1809096912417549, 0.4542701565657042], [0.018526046348631375, 0.4698330185089162]]",density,black,,,N008,visual,1,[],"['1', '2', '3', '4']",1,2023.2.3,harveyvisual,2.1,[],8,0.75,
0,pause,0.4,None,None,None,0,19,19,19,,,,,,,,,,,,,N008,visual,1,[],"['1', '2', '3', '4']",1,2023.2.3,harveyvisual,2.1,[],8,0.75,
2,dot,0.3,['dot'],['density'],black,0,20,20,20,,,9.400219917297363,9.11733889579773,9.417356014251709,dot,"[0.08, 0.06]","[[0.510744558366804, -0.07965895932329134], [0.5183014925016622, -0.2796299572401246]]",density,black,,,N008,visual,1,[],"['1', '2', '3', '4']",1,2023.2.3,harveyvisual,2.1,[],8,0.75,
0,pause,0.4,None,None,None,0,21,21,21,,,,,,,,,,,,,N008,visual,1,[],"['1', '2', '3', '4']",1,2023.2.3,harveyvisual,2.1,[],8,0.75,
2,dot,0.3,['dot'],['density'],black,0,22,22,22,,,10.10021185874939,9.81737494468689,10.117302894592285,dot,"[0.08, 0.08]","[[-0.4579128382498026, -0.013317831223324628], [-0.28624676016543393, -0.11681778735554697]]",density,black,,,N008,visual,1,[],"['1', '2', '3', '4']",1,2023.2.3,harveyvisual,2.1,[],8,0.75,
0,pause,0.4,None,None,None,0,23,23,23,,,,,,,,,,,,,N008,visual,1,[],"['1', '2', '3', '4']",1,2023.2.3,harveyvisual,2.1,[],8,0.75,
3,dot,0.3,['dot'],['density'],black,0,24,24,24,,,10.800220966339111,10.517301797866821,10.817287921905518,dot,"[0.08, 0.1, 0.1]","[[-0.5081709494874314, 0.1572673197774781], [-0.37009835501087307, 0.006965763417246156], [-0.5707172634768017, -0.07177594851347295]]",density,black,,,N008,visual,1,[],"['1', '2', '3', '4']",1,2023.2.3,harveyvisual,2.1,[],8,0.75,
0,pause,0.4,None,None,None,0,25,25,25,,,,,,,,,,,,,N008,visual,1,[],"['1', '2', '3', '4']",1,2023.2.3,harveyvisual,2.1,[],8,0.75,
3,dot,0.3,['dot'],['density'],black,0,26,26,26,,,11.500221014022827,11.217273950576782,11.517244815826416,dot,"[0.06, 0.06, 0.06]","[[0.5267872668145167, -0.16137547842759675], [0.3420119191573968, -0.036920749927643534], [0.3185462880061428, -0.2399114968218526]]",density,black,,,N008,visual,1,[],"['1', '2', '3', '4']",1,2023.2.3,harveyvisual,2.1,[],8,0.75,
0,pause,0.4,None,None,None,0,27,27,27,,,,,,,,,,,,,N008,visual,1,[],"['1', '2', '3', '4']",1,2023.2.3,harveyvisual,2.1,[],8,0.75,
3,dot,0.3,['dot'],['density'],black,0,28,28,28,,,12.200201988220215,11.917250871658325,12.21723198890686,dot,"[0.08, 0.06, 0.08]","[[0.348550694073714, -0.26372109460002424], [0.5073713069625243, -0.14206826334288786], [0.3419709386041379, 0.005891602819957491]]",density,black,,,N008,visual,1,[],"['1', '2', '3', '4']",1,2023.2.3,harveyvisual,2.1,[],8,0.75,
0,pause,0.4,None,None,None,0,29,29,29,,,,,,,,,,,,,N008,visual,1,[],"['1', '2', '3', '4']",1,2023.2.3,harveyvisual,2.1,[],8,0.75,
3,dot,0.3,['dot'],['density'],black,0,30,30,30,,,12.900202989578247,12.617313861846924,12.917316913604736,dot,"[0.1, 0.06, 0.1]","[[-0.015545778166788895, 0.3668732894324268], [-0.08169376046335623, 0.5804400028356697], [-0.24536523618143577, 0.46292967544173164]]",density,black,,,N008,visual,1,[],"['1', '2', '3', '4']",1,2023.2.3,harveyvisual,2.1,[],8,0.75,
0,pause,0.4,None,None,None,0,31,31,31,,,,,,,,,,,,,N008,visual,1,[],"['1', '2', '3', '4']",1,2023.2.3,harveyvisual,2.1,[],8,0.75,
3,dot,0.3,['dot'],['density'],black,0,32,32,32,,,13.600219964981079,13.318189859390259,13.61721682548523,dot,"[0.1, 0.06, 0.08]","[[-0.5081709494874314, 0.1572673197774781], [-0.37009835501087307, 0.006965763417246156], [-0.5707172634768017, -0.07177594851347295]]",density,black,,,N008,visual,1,[],"['1', '2', '3', '4']",1,2023.2.3,harveyvisual,2.1,[],8,0.75,
0,pause,0.4,None,None,None,0,33,33,33,,,,,,,,,,,,,N008,visual,1,[],"['1', '2', '3', '4']",1,2023.2.3,harveyvisual,2.1,[],8,0.75,
3,dot,0.3,['dot'],['density'],black,0,34,34,34,,,14.300197839736938,14.018128871917725,14.31724500656128,dot,"[0.1, 0.1, 0.06]","[[-0.3391924794566746, 0.43027756448319565], [-0.33080415183405026, 0.2112686575961512], [-0.14277619127331137, 0.29962579604826906]]",density,black,,,N008,visual,1,[],"['1', '2', '3', '4']",1,2023.2.3,harveyvisual,2.1,[],8,0.75,
0,pause,0.4,None,None,None,0,35,35,35,,,,,,,,,,,,,N008,visual,1,[],"['1', '2', '3', '4']",1,2023.2.3,harveyvisual,2.1,[],8,0.75,
4,dot,0.3,['dot'],['density'],black,0,36,36,36,,,15.000213861465454,14.71718978881836,15.01718282699585,dot,"[0.06, 0.1, 0.08, 0.06]","[[0.17852470546651972, -0.2012438881607824], [-0.031034799765910746, -0.12466087783573923], [0.008996399474264666, -0.3229379719524122], [0.15114343287780646, 0.03986859122442722]]",density,black,,,N008,visual,1,[],"['1', '2', '3', '4']",1,2023.2.3,harveyvisual,2.1,[],8,0.75,
0,pause,0.4,None,None,None,0,37,37,37,,,,,,,,,,,,,N008,visual,1,[],"['1', '2', '3', '4']",1,2023.2.3,harveyvisual,2.1,[],8,0.75,
4,dot,0.3,['dot'],['density'],black,0,38,38,38,,,15.700202941894531,15.417167901992798,15.717151880264282,dot,"[0.1, 0.08, 0.08, 0.08]","[[0.15462156444594843, 0.0379601134824338], [-0.046642739949193296, 0.06510400621286498], [0.12320708371464141, 0.2499967514902957], [-0.13279798436850673, 0.2624558601457805]]",density,black,,,N008,visual,1,[],"['1', '2', '3', '4']",1,2023.2.3,harveyvisual,2.1,[],8,0.75,
0,pause,0.4,None,None,None,0,39,39,39,,,,,,,,,,,,,N008,visual,1,[],"['1', '2', '3', '4']",1,2023.2.3,harveyvisual,2.1,[],8,0.75,
4,dot,0.3,['dot'],['density'],black,0,40,40,40,,,16.400219917297363,16.11894178390503,16.417158842086792,dot,"[0.06, 0.06, 0.08, 0.06]","[[0.041567121943163726, -0.05225384285034155], [-0.0805660347394345, -0.3501797602382367], [-0.1695568067340664, -0.0700859275369407], [0.1361950610904954, -0.2628340353233457]]",density,black,,,N008,visual,1,[],"['1', '2', '3', '4']",1,2023.2.3,harveyvisual,2.1,[],8,0.75,
0,pause,0.4,None,None,None,0,41,41,41,,,,,,,,,,,,,N008,visual,1,[],"['1', '2', '3', '4']",1,2023.2.3,harveyvisual,2.1,[],8,0.75,
4,dot,0.3,['dot'],['density'],black,0,42,42,42,,,17.100198984146118,16.81729292869568,17.11714482307434,dot,"[0.06, 0.08, 0.1, 0.08]","[[-0.22711054503220823, -0.5144049053218714], [-0.016307770745122817, -0.5558659767831347], [-0.26432457165568224, -0.2824025039497699], [-0.026303944553407815, -0.34464361634901186]]",density,black,,,N008,visual,1,[],"['1', '2', '3', '4']",1,2023.2.3,harveyvisual,2.1,[],8,0.75,
0,pause,0.4,None,None,None,0,43,43,43,,,,,,,,,,,,,N008,visual,1,[],"['1', '2', '3', '4']",1,2023.2.3,harveyvisual,2.1,[],8,0.75,
4,dot,0.3,['dot'],['density'],black,0,44,44,44,,,17.800211906433105,17.51714301109314,17.817144870758057,dot,"[0.1, 0.1, 0.08, 0.1]","[[-0.46485289602757673, 0.3603628353310837], [-0.30733625211232357, 0.21626236973196436], [-0.38991578213366157, 0.024479253410336757], [-0.570234662048439, 0.14093512067028166]]",density,black,,,N008,visual,1,[],"['1', '2', '3', '4']",1,2023.2.3,harveyvisual,2.1,[],8,0.75,
0,pause,0.4,None,None,None,0,45,45,45,,,,,,,,,,,,,N008,visual,1,[],"['1', '2', '3', '4']",1,2023.2.3,harveyvisual,2.1,[],8,0.75,
4,dot,0.3,['dot'],['density'],black,0,46,46,46,,,18.50021982192993,18.2171528339386,18.517140865325928,dot,"[0.08, 0.1, 0.1, 0.08]","[[0.13421512820946938, -0.5336194340609706], [0.2622623892029083, -0.3575253733063478], [0.024533045116508903, -0.3376850530006363], [0.166924465117498, -0.0963569090623874]]",density,black,,,N008,visual,1,[],"['1', '2', '3', '4']",1,2023.2.3,harveyvisual,2.1,[],8,0.75,
0,pause,0.4,None,None,None,0,47,47,47,,,,,,,,,,,,,N008,visual,1,[],"['1', '2', '3', '4']",1,2023.2.3,harveyvisual,2.1,[],8,0.75,
5,dot,0.3,['dot'],['density'],black,0,48,48,48,,,19.200206995010376,18.917118787765503,19.217118978500366,dot,"[0.06, 0.08, 0.1, 0.08, 0.08]","[[-0.053215572458232586, 0.27221330895143253], [0.10089702531331296, 0.1334794413224796], [0.12897289155288158, 0.4002796015157326], [0.3022660506716914, 0.02685289149411272], [0.2804295634962893, 0.24950018434757285]]",density,black,,,N008,visual,1,[],"['1', '2', '3', '4']",1,2023.2.3,harveyvisual,2.1,[],8,0.75,
0,pause,0.4,None,None,None,0,49,49,49,,,,,,,,,,,,,N008,visual,1,[],"['1', '2', '3', '4']",1,2023.2.3,harveyvisual,2.1,[],8,0.75,
5,dot,0.3,['dot'],['density'],black,0,50,50,50,,,19.90020990371704,19.61710786819458,19.91706085205078,dot,"[0.1, 0.1, 0.08, 0.1, 0.1]","[[-0.11834215492801986, 0.412508379109845], [0.31881799646300274, 0.30859303438359803], [-0.06368743078099719, 0.10105058071702504], [0.1133485112468387, 0.46262203184429457], [0.11957051434631445, 0.24197418837926052]]",density,black,,,N008,visual,1,[],"['1', '2', '3', '4']",1,2023.2.3,harveyvisual,2.1,[],8,0.75,
0,pause,0.4,None,None,None,0,51,51,51,,,,,,,,,,,,,N008,visual,1,[],"['1', '2', '3', '4']",1,2023.2.3,harveyvisual,2.1,[],8,0.75,
5,dot,0.3,['dot'],['density'],black,0,52,52,52,,,20.60020399093628,20.317205905914307,20.617172956466675,dot,"[0.08, 0.08, 0.08, 0.1, 0.08]","[[0.14370466841446422, -0.4636309982806098], [0.2961807471193908, -0.30487684838795487], [-0.08083516471444438, -0.49823911181902014], [0.057429843216129074, -0.22123310288296744], [-0.1653320673045236, -0.3160671692815837]]",density,black,,,N008,visual,1,[],"['1', '2', '3', '4']",1,2023.2.3,harveyvisual,2.1,[],8,0.75,
0,pause,0.4,None,None,None,0,53,53,53,,,,,,,,,,,,,N008,visual,1,[],"['1', '2', '3', '4']",1,2023.2.3,harveyvisual,2.1,[],8,0.75,
5,dot,0.3,['dot'],['density'],black,0,54,54,54,,,21.30022382736206,21.01707100868225,21.31707191467285,dot,"[0.1, 0.08, 0.06, 0.06, 0.1]","[[-0.18510638544872327, 0.41559840932892733], [-0.057175862535637494, 0.18304904272057057], [0.24003340414173915, 0.43371676657957026], [0.006490958465160464, 0.4770521622163581], [0.13658455045585424, 0.2476502540597336]]",density,black,,,N008,visual,1,[],"['1', '2', '3', '4']",1,2023.2.3,harveyvisual,2.1,[],8,0.75,
0,pause,0.4,None,None,None,0,55,55,55,,,,,,,,,,,,,N008,visual,1,[],"['1', '2', '3', '4']",1,2023.2.3,harveyvisual,2.1,[],8,0.75,
5,dot,0.3,['dot'],['density'],black,0,56,56,56,,,22.000203847885132,21.71705198287964,22.01704978942871,dot,"[0.08, 0.1, 0.06, 0.08, 0.08]","[[-0.13667773294397823, -0.4810836359727921], [0.22435054442879343, -0.38211739689247126], [0.18745946747878278, -0.17039478388844306], [0.024239655080151325, -0.29759851870815907], [0.08919077751561523, -0.5300131723353856]]",density,black,,,N008,visual,1,[],"['1', '2', '3', '4']",1,2023.2.3,harveyvisual,2.1,[],8,0.75,
0,pause,0.4,None,None,None,0,57,57,57,,,,,,,,,,,,,N008,visual,1,[],"['1', '2', '3', '4']",1,2023.2.3,harveyvisual,2.1,[],8,0.75,
5,dot,0.3,['dot'],['density'],black,0,58,58,58,,,22.700204849243164,22.417030811309814,22.71703600883484,dot,"[0.06, 0.08, 0.06, 0.08, 0.06]","[[-0.47409275164437775, -0.17842554437930905], [-0.28800513042966097, -0.4059597382025641], [-0.20075697267214665, 0.008887320625593834], [-0.2708677629513771, -0.1868162154653106], [-0.0886924353013077, -0.2820475711339636]]",density,black,,,N008,visual,1,[],"['1', '2', '3', '4']",1,2023.2.3,harveyvisual,2.1,[],8,0.75,
0,pause,0.4,None,None,None,0,59,59,59,,,,,,,,,,,,,N008,visual,1,[],"['1', '2', '3', '4']",1,2023.2.3,harveyvisual,2.1,[],8,0.75,
6,dot,0.3,['dot'],['density'],black,0,60,60,60,,,23.400222778320312,23.11699891090393,23.416982889175415,dot,"[0.06, 0.08, 0.08, 0.06, 0.1, 0.08]","[[-0.37443702985748106, 0.32648296684105377], [-0.5461381080049402, 0.20900463425646473], [-0.03667792491240075, 0.12745261621840673], [-0.13670974087354773, 0.4115775839407936], [-0.3800981804337871, 0.05314619565530939], [-0.23016292349935943, 0.18714801531232822]]",density,black,,,N008,visual,1,[],"['1', '2', '3', '4']",1,2023.2.3,harveyvisual,2.1,[],8,0.75,
0,pause,0.4,None,None,None,0,61,61,61,,,,,,,,,,,,,N008,visual,1,[],"['1', '2', '3', '4']",1,2023.2.3,harveyvisual,2.1,[],8,0.75,
6,dot,0.3,['dot'],['density'],black,0,62,62,62,,,24.10022783279419,23.81710982322693,24.116999864578247,dot,"[0.08, 0.06, 0.08, 0.1, 0.1, 0.06]","[[0.1442800129286608, -0.025670240792647715], [-0.253335145558221, 0.06312541807928282], [0.15340240856287354, 0.2410349392962658], [-0.1639657784688781, 0.25075335361279655], [-0.07910231793701084, -0.12784096878077061], [-0.011661193723423325, 0.11361106492824657]]",density,black,,,N008,visual,1,[],"['1', '2', '3', '4']",1,2023.2.3,harveyvisual,2.1,[],8,0.75,
0,pause,0.4,None,None,None,0,63,63,63,,,,,,,,,,,,,N008,visual,1,[],"['1', '2', '3', '4']",1,2023.2.3,harveyvisual,2.1,[],8,0.75,
6,dot,0.3,['dot'],['density'],black,0,64,64,64,,,24.800209999084473,24.516937971115112,24.816934823989868,dot,"[0.08, 0.08, 0.08, 0.1, 0.08, 0.1]","[[0.4838288853419304, 0.012393783640839304], [0.3357737587390128, 0.3939464288632381], [0.48781910936274964, 0.21484656822060386], [0.038497076365425514, 0.2266532147795764], [0.13074852606734502, 0.009493629341700475], [0.2855531954453259, 0.1811044151544938]]",density,black,,,N008,visual,1,[],"['1', '2', '3', '4']",1,2023.2.3,harveyvisual,2.1,[],8,0.75,
0,pause,0.4,None,None,None,0,65,65,65,,,,,,,,,,,,,N008,visual,1,[],"['1', '2', '3', '4']",1,2023.2.3,harveyvisual,2.1,[],8,0.75,
6,dot,0.3,['dot'],['density'],black,0,66,66,66,,,25.500211000442505,25.216928005218506,25.516891956329346,dot,"[0.1, 0.08, 0.06, 0.06, 0.08, 0.08]","[[-0.2715212558254698, 0.2586056842756752], [-0.41011716394998093, -0.23288273174477314], [-0.4259032553852052, 0.02963770343160952], [-0.037696467485790364, -0.07921729390734374], [-0.19058944014171011, 0.07565381115733183], [-0.22931220879523878, -0.14417898787482208]]",density,black,,,N008,visual,1,[],"['1', '2', '3', '4']",1,2023.2.3,harveyvisual,2.1,[],8,0.75,
0,pause,0.4,None,None,None,0,67,67,67,,,,,,,,,,,,,N008,visual,1,[],"['1', '2', '3', '4']",1,2023.2.3,harveyvisual,2.1,[],8,0.75,
6,dot,0.3,['dot'],['density'],black,0,68,68,68,,,26.200222969055176,25.916887998580933,26.21687889099121,dot,"[0.1, 0.1, 0.1, 0.08, 0.1, 0.06]","[[0.26568550625605564, -0.48823100126060537], [0.030589778490880962, -0.34307155488476027], [0.2920158589989485, -0.005481777194348812], [0.4969139129819881, -0.3034402107212153], [0.2924968692334099, -0.2393606426967254], [0.09404279540557291, -0.1505005030192783]]",density,black,,,N008,visual,1,[],"['1', '2', '3', '4']",1,2023.2.3,harveyvisual,2.1,[],8,0.75,
0,pause,0.4,None,None,None,0,69,69,69,,,,,,,,,,,,,N008,visual,1,[],"['1', '2', '3', '4']",1,2023.2.3,harveyvisual,2.1,[],8,0.75,
6,dot,0.3,['dot'],['density'],black,0,70,70,70,,,26.900223970413208,26.616883993148804,26.916873931884766,dot,"[0.08, 0.08, 0.06, 0.06, 0.06, 0.06]","[[-0.11553075830627273, 0.47698778124428043], [-0.1112787518129194, 0.10456141670764223], [-0.48855705683845824, 0.21494657582805063], [-0.2538299919008863, 0.2532006538804931], [-0.3271837865365474, 0.4662148945367939], [0.006792750312598743, 0.27345996435494924]]",density,black,,,N008,visual,1,[],"['1', '2', '3', '4']",1,2023.2.3,harveyvisual,2.1,[],8,0.75,
0,pause,0.4,None,None,None,0,71,71,71,,,,,,,,,,,,,N008,visual,1,[],"['1', '2', '3', '4']",1,2023.2.3,harveyvisual,2.1,[],8,0.75,
7,dot,0.3,['dot'],['density'],black,0,72,72,72,,,27.600221872329712,27.316895008087158,27.616841793060303,dot,"[0.08, 0.06, 0.08, 0.1, 0.1, 0.08, 0.08]","[[-0.16635260996794698, 0.28084462036912], [-0.40218122969076125, -0.17991686156932815], [-0.0845402480451966, 0.09445086570213204], [-0.12722724135381816, -0.176029296145206], [-0.3668576348978093, 0.24153552923633032], [-0.5374975881789634, 0.10465170418994485], [-0.31219932221879926, 0.029177302383891702]]",density,black,,,N008,visual,1,[],"['1', '2', '3', '4']",1,2023.2.3,harveyvisual,2.1,[],8,0.75,
0,pause,0.4,None,None,None,0,73,73,73,,,,,,,,,,,,,N008,visual,1,[],"['1', '2', '3', '4']",1,2023.2.3,harveyvisual,2.1,[],8,0.75,
7,dot,0.3,['dot'],['density'],white,0,74,74,74,,,28.300215005874634,28.01685094833374,28.31683588027954,dot,"[0.06, 0.06, 0.1, 0.06, 0.06, 0.1, 0.08]","[[-0.15204905838880944, -0.5333107186751418], [-0.1519936835116667, -0.2986813487337615], [0.3123805602017952, -0.370842296180838], [-0.04397638837772695, -0.01669328424437847], [0.11716920447009348, -0.14912816843546053], [0.1067198166566748, -0.5553575834591685], [0.04038917577175449, -0.3541606866516689]]",density,white,,,N008,visual,1,[],"['1', '2', '3', '4']",1,2023.2.3,harveyvisual,2.1,[],8,0.75,
0,pause,0.4,None,None,None,0,75,75,75,,,,,,,,,,,1,28.409016847610474,N008,visual,1,[],"['1', '2', '3', '4']",1,2023.2.3,harveyvisual,2.1,[],8,0.75,
7,dot,0.3,['dot'],['density'],black,0,76,76,76,,,29.000213861465454,28.716834783554077,29.016820907592773,dot,"[0.1, 0.1, 0.1, 0.06, 0.08, 0.08, 0.1]","[[-0.23895008888738212, 0.05027357720500052], [0.04847041368780161, 0.3376116924566045], [0.007425979130163878, -0.07582657330311053], [-0.16109724709992976, 0.33554312732420544], [-0.17199436159673825, -0.1887904434853683], [0.1858169564317131, 0.14031933770952934], [-0.038655615351801086, 0.15226176997737048]]",density,black,,,N008,visual,1,[],"['1', '2', '3', '4']",1,2023.2.3,harveyvisual,2.1,[],8,0.75,
0,pause,0.4,None,None,None,0,77,77,77,,,,,,,,,,,,,N008,visual,1,[],"['1', '2', '3', '4']",1,2023.2.3,harveyvisual,2.1,[],8,0.75,
7,dot,0.3,['dot'],['density'],black,0,78,78,78,,,29.700212955474854,29.4168119430542,29.71685791015625,dot,"[0.06, 0.06, 0.06, 0.08, 0.06, 0.08, 0.06]","[[0.3032073476866497, 0.39528308644852606], [0.12977480624643314, 0.5338553612741447], [-0.07830532742558233, 0.5277294273979773], [0.000705909343175084, 0.04538848857330666], [-0.11442247498636825, 0.3203087976624053], [0.11424952152856681, 0.31372813630522095], [0.2743618672110132, 0.19233036806743029]]",density,black,,,N008,visual,1,[],"['1', '2', '3', '4']",1,2023.2.3,harveyvisual,2.1,[],8,0.75,
0,pause,0.4,None,None,None,0,79,79,79,,,,,,,,,,,,,N008,visual,1,[],"['1', '2', '3', '4']",1,2023.2.3,harveyvisual,2.1,[],8,0.75,
7,dot,0.3,['dot'],['density'],black,0,80,80,80,,,30.40020489692688,30.116798877716064,30.416797876358032,dot,"[0.06, 0.1, 0.1, 0.1, 0.08, 0.06, 0.1]","[[-0.1635229753841098, 0.12186382262109141], [0.03437657187081179, 0.5178389267683822], [0.324184412335695, 0.17931743601205324], [0.08929018524031027, 0.11005745596178185], [-0.1318259817332877, 0.4026967659136047], [-0.053046683696667, -0.06058584598870606], [0.042745683665752716, 0.304616966822181]]",density,black,,,N008,visual,1,[],"['1', '2', '3', '4']",1,2023.2.3,harveyvisual,2.1,[],8,0.75,
0,pause,0.4,None,None,None,0,81,81,81,,,,,,,,,,,,,N008,visual,1,[],"['1', '2', '3', '4']",1,2023.2.3,harveyvisual,2.1,[],8,0.75,
7,dot,0.3,['dot'],['density'],black,0,82,82,82,,,31.10020685195923,30.816768884658813,31.116769790649414,dot,"[0.08, 0.1, 0.1, 0.08, 0.06, 0.08, 0.1]","[[-0.27819289690075527, 0.2483046813246476], [-0.5592260237138849, -0.07980801324287977], [-0.026637344717372308, -0.10521889364121585], [-0.16909952645659185, 0.05101222878256789], [-0.21868546305501066, -0.16482274839932262], [-0.3689572500107929, 0.03738969849335829], [-0.49227831811218986, 0.2063327632277477]]",density,black,,,N008,visual,1,[],"['1', '2', '3', '4']",1,2023.2.3,harveyvisual,2.1,[],8,0.75,
0,pause,0.4,None,None,None,0,83,83,83,,,,,,,,,,,,,N008,visual,1,[],"['1', '2', '3', '4']",1,2023.2.3,harveyvisual,2.1,[],8,0.75,
8,dot,0.3,['dot'],['density'],black,0,84,84,84,,,31.800209999084473,31.516763925552368,31.81674289703369,dot,"[0.08, 0.08, 0.06, 0.06, 0.1, 0.08, 0.1, 0.06]","[[-0.16499387414028463, -0.418455346753131], [0.031011941373623824, -0.006148034068666969], [-0.4150712424924157, -0.28668557629476243], [-0.199054958380199, -0.21375968732837633], [-0.4870789535587041, 0.00515905815181239], [-0.198479811208303, 0.006815000109153054], [-0.3273741662815474, 0.19008037141614484], [0.04340096687518584, -0.25044408321713213]]",density,black,,,N008,visual,1,[],"['1', '2', '3', '4']",1,2023.2.3,harveyvisual,2.1,[],8,0.75,
0,pause,0.4,None,None,None,0,85,85,85,,,,,,,,,,,,,N008,visual,1,[],"['1', '2', '3', '4']",1,2023.2.3,harveyvisual,2.1,[],8,0.75,
8,dot,0.3,['dot'],['density'],white,0,86,86,86,,,32.500218868255615,32.21676278114319,32.51672697067261,dot,"[0.08, 0.1, 0.1, 0.1, 0.08, 0.1, 0.1, 0.06]","[[-0.3167478768396544, -0.2124469325344782], [0.11150510454677101, -0.25361932254341324], [0.17657050060311263, -0.496926349220185], [0.20833757931744315, -0.0002320808252021913], [-0.0015234955214533466, 0.034722119540356526], [-0.10690598217119997, -0.19846612199298916], [0.32498422138424443, -0.23444872628509345], [-0.054741640541526956, -0.4230750989992696]]",density,white,,,N008,visual,1,[],"['1', '2', '3', '4']",1,2023.2.3,harveyvisual,2.1,[],8,0.75,
0,pause,0.4,None,None,None,0,87,87,87,,,,,,,,,,,1,32.571539878845215,N008,visual,1,[],"['1', '2', '3', '4']",1,2023.2.3,harveyvisual,2.1,[],8,0.75,
8,dot,0.3,['dot'],['density'],black,0,88,88,88,,,33.200206995010376,32.916746854782104,33.21672797203064,dot,"[0.06, 0.08, 0.06, 0.08, 0.08, 0.06, 0.1, 0.1]","[[0.12411109391386341, -0.5343823995123961], [-0.21238427398525783, -0.3197389486612228], [-0.06551876445787266, 0.032183079599910736], [0.22034046694826517, 0.05676208929132721], [0.31747551588691986, -0.13046885784073625], [0.01834943727978222, -0.34316474661021057], [0.10776215616131694, -0.12386070969881222], [-0.2386971922539417, -0.09256206635527232]]",density,black,,,N008,visual,1,[],"['1', '2', '3', '4']",1,2023.2.3,harveyvisual,2.1,[],8,0.75,
0,pause,0.4,None,None,None,0,89,89,89,,,,,,,,,,,,,N008,visual,1,[],"['1', '2', '3', '4']",1,2023.2.3,harveyvisual,2.1,[],8,0.75,
8,dot,0.3,['dot'],['density'],black,0,90,90,90,,,33.90020489692688,33.61670684814453,33.916730880737305,dot,"[0.06, 0.08, 0.1, 0.08, 0.1, 0.1, 0.1, 0.08]","[[-0.21605400050023119, -0.36806604112140096], [-0.4331556331222778, 0.1336594927324191], [-0.3157474098875971, -0.1371073420352747], [-0.10064365538588134, -0.10053754910436148], [0.10862445751928086, -0.04115753002163663], [-0.19663983546434133, 0.09424647547905109], [-0.5379272585723496, -0.06117038891009633], [0.023355790718173546, -0.2955553217846553]]",density,black,,,N008,visual,1,[],"['1', '2', '3', '4']",1,2023.2.3,harveyvisual,2.1,[],8,0.75,
0,pause,0.4,None,None,None,0,91,91,91,,,,,,,,,,,,,N008,visual,1,[],"['1', '2', '3', '4']",1,2023.2.3,harveyvisual,2.1,[],8,0.75,
8,dot,0.3,['dot'],['density'],black,0,92,92,92,,,34.60020399093628,34.31668281555176,34.61667084693909,dot,"[0.06, 0.06, 0.1, 0.06, 0.06, 0.06, 0.06, 0.08]","[[0.3129921899656287, 0.2226642157048143], [0.41298599633021416, -0.001766323215076977], [0.013785601627645026, 0.39275307090924344], [-0.009407606244017683, 0.02333367620517349], [0.20163499737495916, -0.08731087547331118], [0.31235423233837933, 0.42762820752661124], [0.10705959187470679, 0.21318577255187057], [-0.13233007013452783, 0.20605257250075132]]",density,black,,,N008,visual,1,[],"['1', '2', '3', '4']",1,2023.2.3,harveyvisual,2.1,[],8,0.75,
0,pause,0.4,None,None,None,0,93,93,93,,,,,,,,,,,,,N008,visual,1,[],"['1', '2', '3', '4']",1,2023.2.3,harveyvisual,2.1,[],8,0.75,
8,dot,0.3,['dot'],['density'],white,0,94,94,94,,,35.30020594596863,35.01667785644531,35.31663799285889,dot,"[0.06, 0.1, 0.06, 0.08, 0.08, 0.06, 0.08, 0.1]","[[0.4359105889063985, -0.17362457700912998], [-0.10421753759268779, -0.0599030042764737], [0.3870326705858601, 0.24174009796940588], [0.2566713073165989, 0.014561377540278508], [0.2306797840234149, -0.3263374489921181], [0.47690301692068965, 0.04601699051563034], [0.08674944532705724, -0.15383855565976665], [0.03609124925759635, 0.09790267139194009]]",density,white,,,N008,visual,1,[],"['1', '2', '3', '4']",1,2023.2.3,harveyvisual,2.1,[],8,0.75,
0,pause,0.4,None,None,None,0,95,95,95,,,,,,,,,,,1,35.42289185523987,N008,visual,1,[],"['1', '2', '3', '4']",1,2023.2.3,harveyvisual,2.1,[],8,0.75,
9,dot,0.3,['dot'],['density'],black,0,96,96,96,,,36.00020480155945,35.71669888496399,36.01661491394043,dot,"[0.06, 0.06, 0.06, 0.08, 0.06, 0.1, 0.08, 0.08, 0.08]","[[-0.4219467838066047, -0.18114019941065054], [-0.2081543488995217, -0.4860059455967178], [-0.008274735502094755, -0.3457533902190916], [0.02376323820852766, -0.0891001390581758], [-0.4116277839025775, 0.058108040724694845], [-0.18144554169200455, -0.05292133149533743], [0.21944315682242976, -0.26450239569476724], [0.11466821484809545, 0.13327019789913197], [-0.2288148866166432, -0.2599929378926301]]",density,black,,,N008,visual,1,[],"['1', '2', '3', '4']",1,2023.2.3,harveyvisual,2.1,[],8,0.75,
0,pause,0.4,None,None,None,0,97,97,97,,,,,,,,,,,,,N008,visual,1,[],"['1', '2', '3', '4']",1,2023.2.3,harveyvisual,2.1,[],8,0.75,
9,dot,0.3,['dot'],['density'],black,0,98,98,98,,,36.70022487640381,36.41664791107178,36.7167809009552,dot,"[0.08, 0.1, 0.06, 0.06, 0.1, 0.06, 0.1, 0.1, 0.06]","[[0.4907720478217397, -0.04420899316542184], [0.34945142516086164, 0.15252383324094793], [0.5574461082468273, 0.19132091369540322], [0.27860246559707486, -0.040271372914082004], [0.05137088633600719, 0.3166781443626957], [0.3859483744724672, 0.35594746641407654], [0.08124150308634055, -0.11830714188255424], [-0.07254784919135501, 0.1430213671552253], [0.33979531306265204, -0.26214422422440126]]",density,black,,,N008,visual,1,[],"['1', '2', '3', '4']",1,2023.2.3,harveyvisual,2.1,[],8,0.75,
0,pause,0.4,None,None,None,0,99,99,99,,,,,,,,,,,,,N008,visual,1,[],"['1', '2', '3', '4']",1,2023.2.3,harveyvisual,2.1,[],8,0.75,
9,dot,0.3,['dot'],['density'],black,0,100,100,100,,,37.40020680427551,37.11668801307678,37.416597843170166,dot,"[0.08, 0.1, 0.1, 0.06, 0.06, 0.08, 0.1, 0.1, 0.08]","[[0.4433726728065019, 0.22320554513198193], [0.1026133663954636, -0.050786049565613584], [0.20022034484770485, 0.4412403735117007], [0.45250313802570796, 0.010227273383000257], [0.037500571895399265, 0.24935285809920393], [0.23874579090912346, 0.11348512554989887], [0.25013734113836505, -0.23502010549412247], [0.4599692436892986, -0.2536974682823114], [0.04694731086691962, -0.2548367103293993]]",density,black,,,N008,visual,1,[],"['1', '2', '3', '4']",1,2023.2.3,harveyvisual,2.1,[],8,0.75,
0,pause,0.4,None,None,None,0,101,101,101,,,,,,,,,,,,,N008,visual,1,[],"['1', '2', '3', '4']",1,2023.2.3,harveyvisual,2.1,[],8,0.75,
9,dot,0.3,['dot'],['density'],black,0,102,102,102,,,38.10021686553955,37.81658577919006,38.11656594276428,dot,"[0.1, 0.1, 0.06, 0.08, 0.08, 0.06, 0.08, 0.08, 0.06]","[[-0.08830733675648182, -0.32541118850070216], [0.2573655446525002, -0.0029570100823114536], [0.27547652153196345, -0.34332263321768475], [-0.10322368112243578, -0.12113330350182801], [-0.09512634339583304, 0.07974184968350245], [0.1087639633701519, -0.14934854126711464], [-0.2976800736237512, -0.022953619774800198], [0.014308470788770018, -0.5004438889851849], [-0.3557422450128242, -0.24953541402881954]]",density,black,,,N008,visual,1,[],"['1', '2', '3', '4']",1,2023.2.3,harveyvisual,2.1,[],8,0.75,
0,pause,0.4,None,None,None,0,103,103,103,,,,,,,,,,,,,N008,visual,1,[],"['1', '2', '3', '4']",1,2023.2.3,harveyvisual,2.1,[],8,0.75,
9,dot,0.3,['dot'],['density'],black,0,104,104,104,,,38.800222873687744,38.51658296585083,38.818166971206665,dot,"[0.1, 0.06, 0.1, 0.06, 0.08, 0.08, 0.06, 0.08, 0.08]","[[-0.08351644510687262, 0.021707353155035948], [0.11173555070370329, 0.3931220271068859], [-0.15396522232717408, 0.3423719725559184], [0.23829169989725132, 0.186218803300476], [-0.29008049122260166, 0.17395274189193027], [0.2491440638781109, -0.04662568063892593], [-0.2854023508218629, -0.06307984259985559], [0.003596708871689959, 0.21717875760955796], [-0.47489413548496523, 0.030788186259843496]]",density,black,,,N008,visual,1,[],"['1', '2', '3', '4']",1,2023.2.3,harveyvisual,2.1,[],8,0.75,
0,pause,0.4,None,None,None,0,105,105,105,,,,,,,,,,,,,N008,visual,1,[],"['1', '2', '3', '4']",1,2023.2.3,harveyvisual,2.1,[],8,0.75,
9,dot,0.3,['dot'],['density'],black,0,106,106,106,,,39.50023078918457,39.216816902160645,39.5167019367218,dot,"[0.08, 0.08, 0.06, 0.1, 0.08, 0.1, 0.06, 0.06, 0.1]","[[-0.03413633707233166, 0.539775862693792], [0.03045342777742709, 0.14881397110038386], [0.3968101769942594, 0.3516381959676015], [-0.12464897846505978, 0.27513009849494485], [0.24828272947848068, 0.13372878599656182], [0.1825630446668698, 0.5466865974155928], [-0.40057775338259505, 0.3148646888607764], [0.06988801613907401, -0.06658504348068199], [0.07277149512897427, 0.3699912437376705]]",density,black,,,N008,visual,1,[],"['1', '2', '3', '4']",1,2023.2.3,harveyvisual,2.1,[],8,0.75,
0,pause,0.4,None,None,None,0,107,107,107,,,,,,,,,,,,,N008,visual,1,[],"['1', '2', '3', '4']",1,2023.2.3,harveyvisual,2.1,[],8,0.75,
20,dot,0.3,['dot'],['density'],black,0,108,108,108,,,40.20022678375244,39.91659379005432,40.21657180786133,dot,"[0.08, 0.1, 0.06, 0.06, 0.1, 0.06, 0.08, 0.08, 0.1, 0.06, 0.08, 0.08, 0.06, 0.06, 0.1, 0.08, 0.06, 0.08, 0.1, 0.06]","[[-0.19611822312213273, -0.517816995356724], [0.4823822089854207, 0.29507116153762925], [0.18747615705443343, -0.1768121579535895], [-0.43751634359992075, -0.20058810264059312], [0.2683215673725948, 0.025603682216281287], [0.3531045812234175, -0.39390280757030394], [0.518623305596538, -0.2737371558335135], [0.06278131978078794, 0.448753316314926], [-0.2703501362473574, 0.4514464490656508], [0.5977854208444725, 0.016208339703173466], [-0.5321287754906686, 0.27745655469616437], [-0.46242196649952216, 0.020725459906052623], [0.4029095976096845, -0.11495456752346167], [-0.40262381091945343, -0.40621076059044076], [-0.0817595232221826, 0.25437231884934575], [-0.30670502638443253, 0.21671757821491722], [0.21927373752041346, 0.2786484484557773], [-0.10729453464133049, 0.04208674176214788], [-0.1061015969419255, -0.15529527296732204], [0.1031133966638933, -0.5306240767569195]]",density,black,,,N008,visual,1,[],"['1', '2', '3', '4']",1,2023.2.3,harveyvisual,2.1,[],8,0.75,
0,pause,0.4,None,None,None,0,109,109,109,,,,,,,,,,,,,N008,visual,1,[],"['1', '2', '3', '4']",1,2023.2.3,harveyvisual,2.1,[],8,0.75,
20,dot,0.3,['dot'],['density'],black,0,110,110,110,,,40.90021991729736,40.616562843322754,40.91656494140625,dot,"[0.1, 0.1, 0.08, 0.08, 0.06, 0.06, 0.1, 0.06, 0.08, 0.08, 0.06, 0.08, 0.1, 0.1, 0.06, 0.08, 0.08, 0.06, 0.06, 0.08]","[[-0.10947139742960899, 0.5793146919134677], [-0.1181730256208337, -0.1084190134317427], [0.22376847519314091, 0.27087245776858027], [0.3750263869691942, -0.04901332106737705], [0.021258321693806703, -0.5333327244648272], [0.23256640565270337, -0.41448260489105804], [-0.5553088739030171, -0.18629697789007604], [-0.16357709573779933, 0.3636608363833772], [-0.3446130548419056, -0.1304069090997243], [-0.09590158972398688, 0.17316246698258697], [0.5703377973512155, -0.15449994321140653], [-0.39192443516742986, 0.34105302433638396], [-0.5848853202292476, 0.11852825459271796], [-0.254313380599957, -0.339274251179044], [0.029992908156617704, 0.33146650266885647], [-0.35355062678200366, 0.09228010298788852], [0.48676545415882033, 0.22645010006484367], [0.2928033337595083, 0.5036321576564229], [0.47085459797941975, -0.35486113408509506], [0.1401464161347754, 0.03377268539784706]]",density,black,,,N008,visual,1,[],"['1', '2', '3', '4']",1,2023.2.3,harveyvisual,2.1,[],8,0.75,
0,pause,0.4,None,None,None,0,111,111,111,,,,,,,,,,,,,N008,visual,1,[],"['1', '2', '3', '4']",1,2023.2.3,harveyvisual,2.1,[],8,0.75,
20,dot,0.3,['dot'],['density'],black,0,112,112,112,,,41.60022592544556,41.316547870635986,41.61648082733154,dot,"[0.1, 0.1, 0.08, 0.08, 0.08, 0.08, 0.08, 0.06, 0.06, 0.1, 0.1, 0.1, 0.1, 0.1, 0.1, 0.1, 0.08, 0.08, 0.08, 0.1]","[[-0.4825488783875811, -0.00770285374044033], [0.19989699031978236, -0.23611198430632657], [0.5222731758086717, -0.10959894803645595], [0.42180634946127016, -0.33730897063430393], [-0.3049188718533411, -0.4515637738823347], [-0.4558947549112766, 0.29330439321929486], [-0.14243233559269508, 0.10262551614918958], [-0.44034398908234207, -0.2826998556952653], [-0.058180539460563896, -0.15235407235490123], [0.24839954249208285, 0.06072589260679906], [0.12599915681948182, 0.34487736463422036], [0.51683648075672, 0.28238144359950806], [0.3684574973867508, 0.47507069769561144], [-0.061364667431618725, 0.3953454980264628], [-0.2932162177268331, 0.4885955096566209], [0.07922410523653789, 0.5752469330015982], [0.03192903242007361, -0.43256237231601047], [-0.14059327260565985, -0.3407618407934623], [0.2940679423117196, -0.5107164470154282], [0.05230155631348976, 0.04749746092324014]]",density,black,,,N008,visual,1,[],"['1', '2', '3', '4']",1,2023.2.3,harveyvisual,2.1,[],8,0.75,
0,pause,0.4,None,None,None,0,113,113,113,,,,,,,,,,,,,N008,visual,1,[],"['1', '2', '3', '4']",1,2023.2.3,harveyvisual,2.1,[],8,0.75,
20,dot,0.3,['dot'],['density'],black,0,114,114,114,,,42.30021286010742,42.01648497581482,42.31647181510925,dot,"[0.08, 0.06, 0.1, 0.1, 0.08, 0.08, 0.1, 0.08, 0.1, 0.1, 0.08, 0.06, 0.1, 0.08, 0.08, 0.06, 0.08, 0.1, 0.06, 0.06]","[[-0.32950208810852505, 0.13792051504721314], [-0.26142923177756766, -0.08266622918977784], [-0.3861223718221364, -0.31673243943632234], [0.39805874235320327, -0.26401503691132877], [-0.10367425197996638, 0.5564061253148397], [0.5232043156568001, 0.2190065339006277], [-0.5204501320103605, 0.19613564090083957], [0.18315128112731005, -0.46530033141114635], [0.08510593692235091, 0.09963323215043818], [0.022229623084769057, 0.4028215938630517], [0.29367971921571745, 0.33305156434564287], [0.42849247390571954, -0.03328968030025853], [-0.5944422293356645, -0.08174481782775195], [-0.3222690364174706, 0.5114432900514889], [0.24016489340630276, -0.14744190340820662], [0.004745970905357444, -0.32052825965093296], [-0.46480591814131444, 0.38254870106203215], [-0.0876928836840023, 0.2126613524298575], [-0.06930926333442922, -0.5361503585916854], [-0.27872232179951495, -0.5024415586565363]]",density,black,,,N008,visual,1,[],"['1', '2', '3', '4']",1,2023.2.3,harveyvisual,2.1,[],8,0.75,
0,pause,0.4,None,None,None,0,115,115,115,,,,,,,,,,,,,N008,visual,1,[],"['1', '2', '3', '4']",1,2023.2.3,harveyvisual,2.1,[],8,0.75,
20,dot,0.3,['dot'],['density'],black,0,116,116,116,,,43.000211000442505,42.71647000312805,43.01645493507385,dot,"[0.06, 0.08, 0.06, 0.1, 0.06, 0.1, 0.06, 0.1, 0.08, 0.06, 0.1, 0.08, 0.08, 0.1, 0.06, 0.08, 0.06, 0.06, 0.06, 0.08]","[[0.24879577202534697, -0.13194805926008485], [-0.06572142066676101, -0.10117861697443953], [-0.4802806325294967, 0.3242673448189881], [-0.2793418261200179, 0.07485706300006412], [0.5896035018740647, -0.03714081909826504], [-0.48478388556505964, -0.18999776048793374], [0.4442812505044761, 0.14268613997628304], [0.17393716335987885, 0.051419071687113904], [-0.05939033560549245, -0.4147496325617701], [0.4095385934979995, 0.3964801068984916], [0.21620668392246067, 0.5094274944086141], [0.26028684213291653, -0.43965828617752933], [-0.02687230349001224, 0.16071102050847585], [-0.22285813198878518, 0.5624602841720959], [-0.2741077342915887, -0.1431666224109856], [0.3866289093429025, -0.2849107630603409], [0.06645402609023565, 0.3807533847450021], [-0.13514276837425426, 0.33985578930750115], [-0.5603663556775744, 0.043009363016049434], [-0.2933243550001627, -0.39743997526905417]]",density,black,,,N008,visual,1,[],"['1', '2', '3', '4']",1,2023.2.3,harveyvisual,2.1,[],8,0.75,
0,pause,0.4,None,None,None,0,117,117,117,,,,,,,,,,,,,N008,visual,1,[],"['1', '2', '3', '4']",1,2023.2.3,harveyvisual,2.1,[],8,0.75,
20,dot,0.3,['dot'],['density'],black,0,118,118,118,,,43.70022678375244,43.416430950164795,43.71643280982971,dot,"[0.1, 0.06, 0.08, 0.1, 0.1, 0.06, 0.1, 0.1, 0.1, 0.08, 0.06, 0.08, 0.1, 0.06, 0.1, 0.08, 0.08, 0.1, 0.1, 0.08]","[[-0.3745120530314067, -0.1271996722712771], [-0.13442739560764738, 0.25429975470040034], [0.0338772114181668, -0.3266028351048998], [-0.2727373144530507, 0.4252322269624057], [0.3383237663119729, -0.31863594570839526], [-0.235445470660688, -0.4216721858321726], [0.05739628988438328, 0.46359994786469194], [0.33271621982356014, 0.33701685794406433], [-0.45889005396376464, 0.29922655393466285], [0.5826422046904413, -0.007153050135030953], [0.13446103241424712, -0.12372411429482277], [0.4904158000100515, -0.19125923493110078], [-0.0369745748858864, -0.03820073175960448], [0.3592578767749196, 0.1320067027456579], [-0.5884501953839547, -0.08246352216098593], [-0.43498195045830074, 0.06984173278668332], [0.5330635464914498, 0.23611150373680978], [-0.11351440621155967, -0.5894731401534143], [0.06062512201162118, 0.24478487683359684], [0.24970493093541757, -0.4914185449544332]]",density,black,,,N008,visual,1,[],"['1', '2', '3', '4']",1,2023.2.3,harveyvisual,2.1,[],8,0.75,
0,pause,0.4,None,None,None,0,119,119,119,,,,,,,,,,,,,N008,visual,1,[],"['1', '2', '3', '4']",1,2023.2.3,harveyvisual,2.1,[],8,0.75,
20,dot,0.3,['dot'],['density'],black,0,120,120,120,,,44.40021586418152,44.11644101142883,44.41640591621399,dot,"[0.06, 0.08, 0.1, 0.06, 0.1, 0.1, 0.08, 0.08, 0.08, 0.08, 0.08, 0.08, 0.08, 0.06, 0.1, 0.06, 0.1, 0.06, 0.08, 0.1]","[[0.06812334664098563, 0.19478392705464065], [-0.3333196239136253, 0.34572162584130783], [-0.42325242897518356, -0.11185065884002121], [0.34189352363324477, 0.41280161263070986], [0.11637162904436071, -0.01944499629336438], [0.23471783682815317, -0.40029484632780565], [0.5654037046762647, 0.08628393306650059], [-0.03240779979816788, -0.39304881765864597], [-0.5397850729579384, 0.0803753203379663], [0.44981980643475283, -0.39459594631939565], [-0.22488565700726026, -0.5087659191908225], [-0.16565145719749058, 0.4404497418955051], [0.050332115621460116, 0.4639105735875224], [0.4539850877318773, -0.08317843607239755], [-0.43221141265827734, -0.3528919450524137], [-0.21023890356044334, -0.30270417065463534], [-0.2548949710049695, 0.03286001458282184], [0.35343232638036104, 0.1554230863992156], [-0.08759289700652884, -0.0926551608068017], [0.08101647912620136, -0.5733461195401891]]",density,black,,,N008,visual,1,[],"['1', '2', '3', '4']",1,2023.2.3,harveyvisual,2.1,[],8,0.75,
0,pause,0.4,None,None,None,0,121,121,121,,,,,,,,,,,,,N008,visual,1,[],"['1', '2', '3', '4']",1,2023.2.3,harveyvisual,2.1,[],8,0.75,
20,dot,0.3,['dot'],['density'],black,0,122,122,122,,,45.10021686553955,44.816401958465576,45.11639881134033,dot,"[0.08, 0.08, 0.1, 0.06, 0.06, 0.1, 0.08, 0.06, 0.08, 0.1, 0.08, 0.06, 0.1, 0.06, 0.06, 0.06, 0.08, 0.1, 0.08, 0.06]","[[-0.4132629171570999, -0.04206467799214403], [0.07581660863250517, 0.5570188365895029], [0.4988568286557288, 0.07752854249560232], [-0.3854045128684113, 0.4602645416084947], [-0.15850959522923946, -0.011422009379819298], [-0.54087053697073, 0.19062910891210738], [0.2291325294210148, -0.3931243509126577], [0.3199010208844536, -0.17351331755592092], [-0.579592557061398, -0.16156101048543758], [-0.03018062697571955, -0.4601790760256696], [0.1294388481827966, 0.132787350311245], [0.24885574301863067, 0.43208545671739285], [0.4172896655812971, -0.4303848052578028], [-0.3201486590445797, -0.4293769096906232], [-0.07291201286899207, 0.254470372459364], [-0.07900874728603702, -0.20150723377165725], [-0.16852226535770454, 0.4678779282337062], [0.5496643436248595, -0.23060875731700564], [0.45191164283697793, 0.28241408479541735], [-0.32378509324226074, 0.16981319024855746]]",density,black,,,N008,visual,1,[],"['1', '2', '3', '4']",1,2023.2.3,harveyvisual,2.1,[],8,0.75,
0,pause,0.4,None,None,None,0,123,123,123,,,,,,,,,,,,,N008,visual,1,[],"['1', '2', '3', '4']",1,2023.2.3,harveyvisual,2.1,[],8,0.75,
20,dot,0.3,['dot'],['density'],black,0,124,124,124,,,45.80022978782654,45.51646399497986,45.81639099121094,dot,"[0.06, 0.06, 0.06, 0.08, 0.06, 0.06, 0.08, 0.06, 0.08, 0.08, 0.1, 0.08, 0.08, 0.06, 0.06, 0.1, 0.1, 0.08, 0.08, 0.08]","[[-0.09074470431339021, -0.271887476590821], [-0.31979453470553254, 0.44334007292062116], [-0.31560674882644235, -0.11807878885515455], [0.5554439255759386, 0.16212205303250188], [-0.09447868172940443, 0.48940674173999965], [-0.3273073910115371, 0.22911230679460803], [0.2677702368680578, -0.19699047586943724], [0.5083408074052628, -0.17400875228321558], [-0.39554947902064963, -0.435473719761535], [-0.010477287505537447, 0.036860725092963786], [0.38527680107973905, 0.0603384115160972], [-0.0219221855642856, 0.254989543478767], [-0.5970999347348573, -0.02932517224072398], [0.25424470577209124, 0.4522074146617727], [-0.5652499752575315, 0.1609739929429614], [0.3836509440931911, 0.2933168018353694], [-0.0800086605149658, -0.5926448716166498], [0.1832944739761776, 0.09997833245496235], [-0.19505132905747619, -0.4354974258201647], [0.30861997814733655, -0.4401011580266912]]",density,black,,,N008,visual,1,[],"['1', '2', '3', '4']",1,2023.2.3,harveyvisual,2.1,[],8,0.75,
0,pause,0.4,None,None,None,0,125,125,125,,,,,,,,,,,,,N008,visual,1,[],"['1', '2', '3', '4']",1,2023.2.3,harveyvisual,2.1,[],8,0.75,
20,dot,0.3,['dot'],['density'],black,0,126,126,126,,,46.500226974487305,46.216373920440674,46.51635193824768,dot,"[0.08, 0.08, 0.08, 0.1, 0.1, 0.06, 0.06, 0.08, 0.08, 0.08, 0.06, 0.1, 0.06, 0.06, 0.08, 0.06, 0.1, 0.06, 0.08, 0.1]","[[0.506495793402609, 0.2476013445685552], [-0.10378943534723006, 0.02438433489536118], [-0.5876970979040095, -0.016485231398628675], [0.22212691576587817, 0.5401079661476484], [0.39791949525920034, -0.060515711436766095], [0.12089674820266394, -0.2912289985817383], [0.08756302728020215, 0.2072963979431245], [-0.44371983732269876, 0.1756842238417181], [0.3964820270189636, -0.3939875284158055], [-0.19378776444683626, 0.4491919733113384], [-0.3760231843011629, 0.374342266667835], [0.0327552131153338, 0.4510585142008824], [-0.3847509923098783, -0.32173657748680684], [-0.20220343057828183, -0.1930698405714507], [-0.1250396272582523, -0.5665904030237454], [0.1639285361078725, -0.4876568588949343], [0.5998165847239222, -0.0397161943789351], [0.18906841036897193, -0.06369420394525849], [0.5467361843490331, -0.2297188189383054], [0.26479760840272293, 0.3124014006471513]]",density,black,,,N008,visual,1,[],"['1', '2', '3', '4']",1,2023.2.3,harveyvisual,2.1,[],8,0.75,
0,pause,0.4,None,None,None,0,127,127,127,,,,,,,,,,,,,N008,visual,1,[],"['1', '2', '3', '4']",1,2023.2.3,harveyvisual,2.1,[],8,0.75,
20,dot,0.3,['dot'],['density'],black,0,128,128,128,,,47.200214862823486,46.91635799407959,47.216367959976196,dot,"[0.08, 0.08, 0.08, 0.06, 0.06, 0.08, 0.08, 0.08, 0.1, 0.08, 0.06, 0.1, 0.08, 0.08, 0.06, 0.08, 0.06, 0.1, 0.08, 0.1]","[[0.5633726014234514, 0.13495369247002972], [0.10163942398147674, -0.05568192130071248], [-0.32323743847385145, -0.13174873732578601], [-0.5214145164522426, -0.18581313023591972], [-0.1274644743980446, -0.5189277581327162], [0.31046721793380305, -0.43166318274574944], [0.12709387796310334, 0.2595608919300548], [0.4583463202549095, -0.21970345559658527], [-0.07838110669156761, 0.5667327743726026], [-0.5954834321040999, 0.057849235146345074], [-0.29413105868837086, 0.5172040559553961], [-0.25279199881067715, 0.10289868604940045], [-0.12973358940205781, 0.31551616987957065], [-0.352508634586795, -0.4279287338061757], [0.3278389894005843, -0.06465853166429736], [0.4208069765930532, 0.39905820390924346], [0.16477592313025302, 0.5371137726912941], [0.30943937745792993, 0.1635025629862512], [-0.3924402051027981, 0.2576030057250524], [-0.1299660124320326, -0.13382121751991227]]",density,black,,,N008,visual,1,[],"['1', '2', '3', '4']",1,2023.2.3,harveyvisual,2.1,[],8,0.75,
0,pause,0.4,None,None,None,0,129,129,129,,,,,,,,,,,,,N008,visual,1,[],"['1', '2', '3', '4']",1,2023.2.3,harveyvisual,2.1,[],8,0.75,
20,dot,0.3,['dot'],['density'],black,0,130,130,130,,,47.90022277832031,47.61634397506714,47.91633081436157,dot,"[0.06, 0.08, 0.06, 0.08, 0.08, 0.08, 0.08, 0.08, 0.08, 0.06, 0.1, 0.08, 0.06, 0.1, 0.08, 0.06, 0.08, 0.08, 0.08, 0.06]","[[0.18423093834455495, -0.5498499587737367], [0.2175987078919538, 0.38496468407679063], [-0.5487594637622035, 0.15723124263056998], [-0.020771018385954743, -0.2775696308001391], [-0.23915126059220193, 0.36366336861658777], [0.5258137960557571, -0.1585442840565137], [0.456000329101624, 0.11554512777463227], [0.026274701118005006, 0.5411583288361624], [0.3959039864586563, -0.31845316703263515], [-0.35343851163844026, -0.05540020557016884], [-0.39483949657874673, -0.24950518130036717], [-0.0613496435812767, 0.054400056310280775], [-0.16614635884653922, -0.5117841994936809], [-0.5836791595195716, -0.08910102400060367], [0.27350130809982587, 0.20313921707056493], [-0.17075820841934275, -0.14520637504094086], [0.2662249389418606, -0.05698516533559911], [0.18365302980292997, -0.28190666922192653], [-0.4299476074086952, 0.3762436268914278], [0.05007364237673895, 0.2920886973364768]]",density,black,,,N008,visual,1,[],"['1', '2', '3', '4']",1,2023.2.3,harveyvisual,2.1,[],8,0.75,
0,pause,0.4,None,None,None,0,131,131,131,,,,,,,,,,,,,N008,visual,1,[],"['1', '2', '3', '4']",1,2023.2.3,harveyvisual,2.1,[],8,0.75,
20,dot,0.3,['dot'],['density'],black,0,132,132,132,,,48.600212812423706,48.31637001037598,48.61743998527527,dot,"[0.08, 0.06, 0.06, 0.1, 0.06, 0.08, 0.06, 0.08, 0.1, 0.1, 0.1, 0.08, 0.06, 0.08, 0.1, 0.1, 0.06, 0.1, 0.08, 0.06]","[[-0.48302159192701444, 0.08939300396905586], [0.046549154070916976, -0.4306310165341948], [-0.23474672695387339, 0.08571537015236663], [0.4073815062597591, -0.16807838143310355], [-0.11460895873117194, 0.26286958577416386], [0.5938136996516287, -0.017566235943884942], [0.19828344741001525, -0.00013080311636326503], [0.246212642494247, 0.4211670368294228], [-0.3202298175753003, 0.28292550697150876], [-0.1400058190279439, -0.348006714891978], [-0.12392156583482883, 0.4855787959808663], [-0.36106424711124974, -0.377815926992228], [0.3817908564889477, 0.05846044865663691], [-0.5362595582680045, -0.1196864448224231], [0.06485953657109889, 0.5694155439337057], [0.13718503069981247, 0.18643673063079935], [-0.12457525946919046, -0.0698187909666187], [0.41058457465745446, -0.440786778992381], [0.47417195911247234, 0.35224876624466633], [-0.32022506001150985, -0.12290455336670447]]",density,black,,,N008,visual,1,[],"['1', '2', '3', '4']",1,2023.2.3,harveyvisual,2.1,[],8,0.75,
0,pause,0.4,None,None,None,0,133,133,133,,,,,,,,,,,,,N008,visual,1,[],"['1', '2', '3', '4']",1,2023.2.3,harveyvisual,2.1,[],8,0.75,
20,dot,0.3,['dot'],['density'],black,0,134,134,134,,,49.30022192001343,49.01644778251648,49.31644296646118,dot,"[0.1, 0.1, 0.08, 0.06, 0.1, 0.1, 0.08, 0.08, 0.08, 0.08, 0.08, 0.06, 0.1, 0.06, 0.1, 0.1, 0.06, 0.06, 0.08, 0.06]","[[-0.3402505038983957, 0.05055123538296935], [0.562500112723301, 0.18815546538774505], [0.10049078513414555, -0.4792158907223446], [0.2805131361255091, 0.13866831775459487], [0.39590873835833873, -0.30798855545559195], [-0.4210610076821215, 0.39724582042466194], [-0.021692161156965595, 0.3270625953349807], [0.05313929726315747, 0.11986328535161583], [-0.15590591166808315, -0.23391664696684789], [-0.6007359268535301, -0.05962679977999731], [0.3210928910710984, -0.05655535477833551], [0.5174480742786521, -0.0767620920604237], [-0.2994458985167149, -0.4059583832228311], [-0.4333435182456321, -0.2081999665620044], [-0.5637890968704261, 0.1272840456598015], [-0.172051237267681, 0.18617839331893982], [-0.2792440267275358, 0.5246355018369764], [-0.12704476056877984, -0.5719336396165412], [0.41466146124052894, 0.30853890056922967], [0.021486744605182517, -0.1461437496362591]]",density,black,,,N008,visual,1,[],"['1', '2', '3', '4']",1,2023.2.3,harveyvisual,2.1,[],8,0.75,
0,pause,0.4,None,None,None,0,135,135,135,,,,,,,,,,,,,N008,visual,1,[],"['1', '2', '3', '4']",1,2023.2.3,harveyvisual,2.1,[],8,0.75,
20,dot,0.3,['dot'],['density'],black,0,136,136,136,,,50.00020694732666,49.71630787849426,50.016297817230225,dot,"[0.1, 0.08, 0.1, 0.08, 0.08, 0.08, 0.1, 0.08, 0.08, 0.06, 0.06, 0.06, 0.06, 0.06, 0.06, 0.06, 0.1, 0.1, 0.08, 0.1]","[[-0.08609505969299491, -0.169948644505591], [-0.5561107872927001, -0.15578825818813113], [-0.017438065055171315, 0.5172219780694075], [0.4850039219539738, -0.24671914379639037], [0.3305913561891338, 0.4967598296041975], [0.22920172202860833, -0.5022851155789184], [0.4837409839592536, 0.1085371038731145], [-0.3501707622408926, 0.47409081028051453], [-0.23273382770166112, -0.4919418158849747], [0.05818951123801952, 0.25946082824326955], [-0.24217999936488738, 0.1341424419495565], [-0.48186340565873664, -0.36356474913231146], [0.2939724112639066, 0.08475147061081256], [0.15197515390517802, -0.2603220235214671], [0.0972378260049035, 0.022291573432216105], [-0.4223218741313437, 0.2341502084480318], [-0.2726917501255628, -0.2579750839071676], [0.3174316394931378, -0.14757685967594436], [-0.5931872339036707, 0.07274299884664351], [-0.35596974500719347, -0.03427617065060029]]",density,black,,,N008,visual,1,[],"['1', '2', '3', '4']",1,2023.2.3,harveyvisual,2.1,[],8,0.75,
0,pause,0.4,None,None,None,0,137,137,137,,,,,,,,,,,,,N008,visual,1,[],"['1', '2', '3', '4']",1,2023.2.3,harveyvisual,2.1,[],8,0.75,
20,dot,0.3,['dot'],['density'],black,0,138,138,138,,,50.70020580291748,50.4162859916687,50.71624779701233,dot,"[0.08, 0.08, 0.08, 0.1, 0.1, 0.1, 0.08, 0.08, 0.06, 0.06, 0.1, 0.1, 0.08, 0.1, 0.06, 0.08, 0.06, 0.08, 0.1, 0.08]","[[0.4310286539416822, 0.31089715537739465], [-0.5573598523083385, 0.19743606295067156], [-0.24892574062383, 0.5513742789399754], [-0.17364945612824068, 0.033901536430604784], [0.4154775280891917, -0.42779828514863], [0.42072308134386394, -0.18652209064458233], [0.3457388331569705, 0.023662630418176955], [0.17254735096918628, -0.30881342670350864], [-0.12179558198354612, -0.3761181401233603], [-0.03853546135408392, 0.3113154790677167], [-0.5594630282258716, -0.17025580882639368], [0.008940751212528686, 0.5338692685856207], [0.2644222482496764, 0.45873582672124835], [0.5409291985963501, 0.02750480370492714], [-0.3074164558638801, -0.44292408539635714], [0.12177569630336882, 0.19402163197267708], [-0.3484429880211083, -0.21751218819706525], [-0.42143848089446373, 0.03150015398057848], [-0.011351435399694965, -0.5464644753876223], [0.00948698869696607, -0.05819037207145772]]",density,black,,,N008,visual,1,[],"['1', '2', '3', '4']",1,2023.2.3,harveyvisual,2.1,[],8,0.75,
0,pause,0.4,None,None,None,0,139,139,139,,,,,,,,,,,,,N008,visual,1,[],"['1', '2', '3', '4']",1,2023.2.3,harveyvisual,2.1,[],8,0.75,
20,dot,0.3,['dot'],['density'],black,0,140,140,140,,,51.400216817855835,51.116249799728394,51.41623282432556,dot,"[0.08, 0.1, 0.08, 0.1, 0.06, 0.1, 0.08, 0.08, 0.06, 0.06, 0.08, 0.1, 0.1, 0.08, 0.06, 0.08, 0.06, 0.08, 0.08, 0.06]","[[-0.5116402721023807, 0.24672046741784226], [-0.576031043032137, -0.02067525907578513], [-0.2714718829572719, -0.011781174088499768], [-0.04983224742014647, 0.3234661536945289], [0.1385835050155919, 0.19251537555132225], [0.018636484740188197, -0.036977500087413184], [0.4268142719512721, 0.3171073056220375], [-0.03145700701776455, 0.5255319127738052], [0.22903870685154004, -0.43549434049266805], [-0.27905938308154915, 0.3501809532357375], [0.3547503576927197, -0.1264602897257982], [0.031320404724462736, -0.40104881585347085], [0.11534378996156947, -0.2267735767044255], [0.4877950183837422, -0.28343449612495564], [-0.49930710007385426, -0.1981199212765449], [0.5823650008650169, -0.023445435883357957], [-0.11062839386151357, -0.5835801446292668], [-0.2860167664474622, -0.40253837614221244], [0.2352811423473694, 0.46367471446226927], [0.4139083756863887, 0.10502621549171681]]",density,black,,,N008,visual,1,[],"['1', '2', '3', '4']",1,2023.2.3,harveyvisual,2.1,[],8,0.75,
0,pause,0.4,None,None,None,0,141,141,141,,,,,,,,,,,,,N008,visual,1,[],"['1', '2', '3', '4']",1,2023.2.3,harveyvisual,2.1,[],8,0.75,
20,dot,0.3,['dot'],['density'],black,0,142,142,142,,,52.10022497177124,51.816399812698364,52.11623692512512,dot,"[0.06, 0.1, 0.1, 0.06, 0.08, 0.08, 0.1, 0.08, 0.06, 0.1, 0.08, 0.1, 0.08, 0.08, 0.08, 0.06, 0.1, 0.08, 0.1, 0.1]","[[-0.528409308839591, -0.037296367756924464], [0.32441501367420644, -0.028939107213508286], [0.5665099431068229, 0.13939127335413362], [0.03209466186747467, -0.2046932765836036], [-0.33687799746777775, -0.335373428732135], [-0.36262896587398286, 0.34047476595579496], [0.43888221012464135, -0.2693148357798444], [0.32767776026515005, 0.16929290291887455], [-0.12612582771834252, 0.5226984417344948], [-0.185221497792873, -0.13558781916622215], [0.09265029120667578, -0.38474308569016546], [0.010749450548768746, 0.39146493427706797], [0.19204197166899584, -0.5691032023278647], [0.23287840663008907, 0.4126975672513209], [-0.10917379774812608, -0.5087882173312213], [-0.5497200312532989, 0.19236252389985992], [-0.1834099960315223, 0.08616252939680813], [0.0669008286473789, 0.005637004851876792], [0.09446178963647667, 0.5637374326014507], [0.5386935041349435, -0.06687052397273646]]",density,black,,,N008,visual,1,[],"['1', '2', '3', '4']",1,2023.2.3,harveyvisual,2.1,[],8,0.75,
0,pause,0.4,None,None,None,0,143,143,143,,,,,,,,,,,,,N008,visual,1,[],"['1', '2', '3', '4']",1,2023.2.3,harveyvisual,2.1,[],8,0.75,
20,dot,0.3,['dot'],['density'],white,0,144,144,144,,,52.800227880477905,52.516361951828,52.816250801086426,dot,"[0.06, 0.06, 0.08, 0.1, 0.1, 0.06, 0.06, 0.06, 0.06, 0.06, 0.08, 0.1, 0.08, 0.1, 0.1, 0.06, 0.08, 0.1, 0.1, 0.08]","[[0.45385823435711103, 0.19070286832942046], [-0.0010594375300825298, 0.46952698294211503], [-0.3738221466634234, 0.31614393592254314], [0.22010844087032133, 0.05706544196051144], [-0.10956489791164703, -0.4071531461396317], [0.168998630942508, 0.36020615197903805], [-0.2636480111865363, -0.19431070408203877], [0.2943368371491276, -0.32739920269221207], [-0.4630414252374698, -0.2967735850610376], [-0.26042884366845065, 0.10527723309757442], [-0.5584822736897389, 0.1218258671081254], [0.5065404194475221, -0.053333614778841354], [0.044083306132168265, -0.5711549639680199], [0.029582139474943148, -0.1686658691932329], [-0.015132034802417649, 0.12511219485994973], [-0.5563301043879243, -0.12810433151441297], [0.34344753730765176, 0.47462001328734194], [0.4957306875933035, -0.2784808132677781], [0.2818043534630338, -0.5180683972207552], [-0.31833320531513937, -0.4239173322889747]]",density,white,,,N008,visual,1,[],"['1', '2', '3', '4']",1,2023.2.3,harveyvisual,2.1,[],8,0.75,
0,pause,0.4,None,None,None,0,145,145,145,,,,,,,,,,,1,52.999017000198364,N008,visual,1,[],"['1', '2', '3', '4']",1,2023.2.3,harveyvisual,2.1,[],8,0.75,
20,dot,0.3,['dot'],['density'],black,0,146,146,146,,,53.500229835510254,53.21619486808777,53.51618790626526,dot,"[0.08, 0.08, 0.08, 0.06, 0.1, 0.06, 0.06, 0.06, 0.1, 0.08, 0.1, 0.08, 0.06, 0.08, 0.1, 0.1, 0.1, 0.08, 0.1, 0.1]","[[0.5214183048800679, -0.17633955322090372], [0.2939001539549, 0.5139611307027039], [0.12469564660803811, -0.3527170838477307], [0.5287636520165976, 0.06977137420144713], [0.04753145959597349, 0.033768705292508416], [-0.549448448866457, -0.03555611810575687], [0.022732114516390234, 0.4426115937135121], [0.34978507037537254, 0.20374261786135128], [0.38411980471682794, -0.3853753219989872], [0.27324804034623673, -0.21585670107000404], [-0.4694208683036105, 0.1560699071598003], [-0.1790798870433894, -0.5328346901240514], [-0.4884166548263998, -0.21855120878123332], [-0.15389198233589702, 0.3334612232187091], [-0.06616375993586399, -0.19169375293281127], [-0.42686635791571104, 0.37712260024428274], [0.24620309293893827, -0.0005223156731662959], [-0.2844914091539305, 0.0657325288049656], [0.0192932386220126, -0.5454402512983854], [-0.24553719026481935, 0.5287370905365764]]",density,black,,,N008,visual,1,[],"['1', '2', '3', '4']",1,2023.2.3,harveyvisual,2.1,[],8,0.75,
0,pause,0.4,None,None,None,0,147,147,147,,,,,,,,,,,,,N008,visual,1,[],"['1', '2', '3', '4']",1,2023.2.3,harveyvisual,2.1,[],8,0.75,
20,dot,0.3,['dot'],['density'],black,0,148,148,148,,,54.200217962265015,53.916159868240356,54.21614980697632,dot,"[0.06, 0.08, 0.06, 0.08, 0.1, 0.1, 0.06, 0.1, 0.06, 0.1, 0.06, 0.08, 0.08, 0.1, 0.06, 0.06, 0.06, 0.06, 0.1, 0.08]","[[0.024936913295202867, 0.054879030950003016], [0.3533105874797208, 0.17025689584319947], [0.05497049119099795, 0.275033471034721], [-0.2961291578633431, 0.41530388189149947], [-0.35285379213053003, -0.0028714635083280093], [0.5135965109711799, 0.049802434541645346], [-0.10094326517358199, -0.4423481526384381], [-0.1063901525442345, -0.18064209275506604], [0.420002969541838, 0.3620522941830666], [0.1594296688972091, 0.46927944977076386], [-0.4399674379527645, -0.19154325443287584], [0.3683491821713871, -0.19340286111160188], [-0.5888075424613847, 0.08148006803291871], [-0.08655900800718586, 0.5758708901545684], [0.2156670147351769, -0.45756947353043886], [-0.22884383968976202, 0.19873650200123916], [0.5626212516078827, -0.13404386872573754], [0.11814353296211111, -0.27450916170515044], [0.4061042185490268, -0.43543657103562183], [-0.5250056871585882, 0.2802327744608226]]",density,black,,,N008,visual,1,[],"['1', '2', '3', '4']",1,2023.2.3,harveyvisual,2.1,[],8,0.75,
0,pause,0.4,None,None,None,0,149,149,149,,,,,,,,,,,,,N008,visual,1,[],"['1', '2', '3', '4']",1,2023.2.3,harveyvisual,2.1,[],8,0.75,
20,dot,0.3,['dot'],['density'],black,0,150,150,150,,,54.90022897720337,54.61621594429016,54.91612792015076,dot,"[0.08, 0.06, 0.1, 0.06, 0.06, 0.08, 0.08, 0.1, 0.08, 0.1, 0.08, 0.1, 0.08, 0.08, 0.08, 0.06, 0.1, 0.06, 0.08, 0.08]","[[0.025420437724398726, -0.38660712724691804], [-0.035701417053354834, -0.12245624904586772], [0.2744759021086407, 0.3214302971361729], [-0.15170929748759138, 0.5657950499660264], [-0.24533599558730207, 0.27922671661944787], [0.01879559429275468, 0.27760044836230324], [0.3788300374507436, -0.20933353646906888], [-0.2461850934861219, 0.04410931974615473], [0.3117077426727415, -0.44705815097421664], [-0.2611317587703655, -0.30493115164475293], [0.20708517066112397, -0.03006896513365087], [0.35744547537339133, 0.09765732470918598], [-0.4918260649850931, 0.21691331195390418], [-0.43271749313623586, -0.003507434676292054], [0.0671978815774601, 0.5092893090427358], [-0.036723617136724784, -0.5740403037961528], [-0.5677871476565888, -0.1670820967174593], [0.5925509196546416, 0.06732656617620744], [-0.3442403724014803, 0.4602327408633621], [-0.47144437209008583, -0.33044141539187155]]",density,black,,,N008,visual,1,[],"['1', '2', '3', '4']",1,2023.2.3,harveyvisual,2.1,[],8,0.75,
0,pause,0.4,None,None,None,0,151,151,151,,,,,,,,,,,,,N008,visual,1,[],"['1', '2', '3', '4']",1,2023.2.3,harveyvisual,2.1,[],8,0.75,
20,dot,0.3,['dot'],['density'],black,0,152,152,152,,,55.60023880004883,55.31613278388977,55.616117000579834,dot,"[0.06, 0.08, 0.06, 0.06, 0.06, 0.06, 0.08, 0.1, 0.06, 0.08, 0.06, 0.08, 0.08, 0.1, 0.06, 0.08, 0.08, 0.1, 0.08, 0.06]","[[0.4955908304993063, -0.2225227838709775], [-0.01605689221378348, -0.34369387932274004], [-0.5746336191427583, 0.13106372101672067], [-0.3861933025645433, -0.16128133796135735], [-0.18039389707607634, 0.19041881715979703], [0.320043991823987, -0.13967036634790897], [0.19534172450661147, -0.4315056875047588], [0.23977276895815847, 0.4718002101166828], [-0.38640573561322183, 0.32847600682772315], [0.49293855756297733, 0.058044049203640646], [-0.13368223193643886, -0.5451072875622499], [-0.23375924870418535, 0.5511406147429503], [0.2729969572009918, 0.20696230060847554], [-0.006898643174892749, 0.09919859029544276], [-7.661234760314439e-05, 0.5732724859580093], [0.41193591834222854, -0.4433328121388374], [-0.03207884147336093, 0.3396923929265845], [-0.1882138354703244, -0.0620326243829078], [-0.40991170426588674, -0.4106122846759931], [-0.3774398458424753, 0.04759895086810073]]",density,black,,,N008,visual,1,[],"['1', '2', '3', '4']",1,2023.2.3,harveyvisual,2.1,[],8,0.75,
0,pause,0.4,None,None,None,0,153,153,153,,,,,,,,,,,,,N008,visual,1,[],"['1', '2', '3', '4']",1,2023.2.3,harveyvisual,2.1,[],8,0.75,
20,dot,0.3,['dot'],['density'],black,0,154,154,154,,,56.300211906433105,56.01610279083252,56.31609797477722,dot,"[0.08, 0.06, 0.06, 0.1, 0.1, 0.08, 0.06, 0.06, 0.06, 0.1, 0.1, 0.06, 0.08, 0.06, 0.1, 0.1, 0.1, 0.06, 0.06, 0.08]","[[0.24461680155099774, 0.027736513949261576], [0.41506733103810045, -0.3836697367498858], [-0.36442398968109757, -0.4724918375760915], [0.3414361336562183, -0.1556013553812669], [-0.41406982385641156, -0.28642954235284845], [0.01888107490880564, -0.47964117398720596], [0.5610169962890562, -0.08456590324376231], [-0.38453220652970765, 0.3683477221741754], [-0.06221923378372218, -0.3074378685067159], [0.19268222774156407, -0.3684466127955419], [-0.2716168881217549, -0.08576524830077609], [-0.46265824489232077, 0.039945801772743206], [-0.5539344722333358, 0.2260405461311174], [0.2930360299582464, 0.3361243767168721], [0.4633518723163209, 0.21490209828557222], [0.07520069978682364, 0.19804912968298038], [0.021226020784799182, 0.6009640688760223], [-0.18461489106123546, 0.3086220333936188], [-0.17671313788405074, 0.08405724613347632], [0.025337405412232505, -0.05232320558762349]]",density,black,,,N008,visual,1,[],"['1', '2', '3', '4']",1,2023.2.3,harveyvisual,2.1,[],8,0.75,
0,pause,0.4,None,None,None,0,155,155,155,,,,,,,,,,,,,N008,visual,1,[],"['1', '2', '3', '4']",1,2023.2.3,harveyvisual,2.1,[],8,0.75,
9,dot,0.3,['dot'],['density'],black,0,156,156,156,,,57.000229835510254,56.71610689163208,57.0160858631134,dot,"[0.08, 0.1, 0.06, 0.06, 0.06, 0.08, 0.08, 0.1, 0.06]","[[0.4433726728065019, 0.22320554513198193], [0.1026133663954636, -0.050786049565613584], [0.20022034484770485, 0.4412403735117007], [0.45250313802570796, 0.010227273383000257], [0.037500571895399265, 0.24935285809920393], [0.23874579090912346, 0.11348512554989887], [0.25013734113836505, -0.23502010549412247], [0.4599692436892986, -0.2536974682823114], [0.04694731086691962, -0.2548367103293993]]",density,black,,,N008,visual,1,[],"['1', '2', '3', '4']",1,2023.2.3,harveyvisual,2.1,[],8,0.75,
0,pause,0.4,None,None,None,0,157,157,157,,,,,,,,,,,,,N008,visual,1,[],"['1', '2', '3', '4']",1,2023.2.3,harveyvisual,2.1,[],8,0.75,
9,dot,0.3,['dot'],['density'],black,0,158,158,158,,,57.70022892951965,57.416074991226196,57.716126918792725,dot,"[0.06, 0.06, 0.1, 0.1, 0.06, 0.06, 0.08, 0.06, 0.06]","[[-0.08858128315591524, -0.3480052213079807], [0.37291707470974605, -0.0809562497479422], [-0.04311872097798103, 0.23152249840731254], [0.1734412630875083, -0.16491363602164627], [-0.024044713080900382, -0.04824256513196188], [0.126438571592319, 0.09122014985587756], [-0.2168202887682383, 0.11190421567656858], [-0.23215605484234547, -0.20356583507002532], [0.291417597339289, 0.24351333182926893]]",density,black,,,N008,visual,1,[],"['1', '2', '3', '4']",1,2023.2.3,harveyvisual,2.1,[],8,0.75,
0,pause,0.4,None,None,None,0,159,159,159,,,,,,,,,,,,,N008,visual,1,[],"['1', '2', '3', '4']",1,2023.2.3,harveyvisual,2.1,[],8,0.75,
9,dot,0.3,['dot'],['density'],black,0,160,160,160,,,58.400205850601196,58.1161208152771,58.41610097885132,dot,"[0.1, 0.06, 0.06, 0.06, 0.08, 0.1, 0.06, 0.06, 0.06]","[[0.050129075631511706, -0.29659829200500587], [0.1522424042566208, -0.02012498145544232], [-0.31773020450764894, 0.09756431981266957], [-0.25388767024787284, -0.20865833148222632], [-0.06549152868915667, -0.10253084504872755], [-0.047012852932693645, 0.11741599898337682], [0.26526013051082903, -0.18996189821299347], [0.2442588296558726, 0.17404051307925203], [0.053323608967773835, 0.34462047536600726]]",density,black,,,N008,visual,1,[],"['1', '2', '3', '4']",1,2023.2.3,harveyvisual,2.1,[],8,0.75,
0,pause,0.4,None,None,None,0,161,161,161,,,,,,,,,,,,,N008,visual,1,[],"['1', '2', '3', '4']",1,2023.2.3,harveyvisual,2.1,[],8,0.75,
9,dot,0.3,['dot'],['density'],black,0,162,162,162,,,59.1002299785614,58.816195011138916,59.1161949634552,dot,"[0.08, 0.1, 0.06, 0.08, 0.08, 0.1, 0.1, 0.1, 0.06]","[[-0.4219467838066047, -0.18114019941065054], [-0.2081543488995217, -0.4860059455967178], [-0.008274735502094755, -0.3457533902190916], [0.02376323820852766, -0.0891001390581758], [-0.4116277839025775, 0.058108040724694845], [-0.18144554169200455, -0.05292133149533743], [0.21944315682242976, -0.26450239569476724], [0.11466821484809545, 0.13327019789913197], [-0.2288148866166432, -0.2599929378926301]]",density,black,,,N008,visual,1,[],"['1', '2', '3', '4']",1,2023.2.3,harveyvisual,2.1,[],8,0.75,
0,pause,0.4,None,None,None,0,163,163,163,,,,,,,,,,,,,N008,visual,1,[],"['1', '2', '3', '4']",1,2023.2.3,harveyvisual,2.1,[],8,0.75,
9,dot,0.3,['dot'],['density'],black,0,164,164,164,,,59.80020880699158,59.51619482040405,59.81617188453674,dot,"[0.08, 0.08, 0.08, 0.06, 0.06, 0.08, 0.06, 0.08, 0.06]","[[0.5633060189111645, -0.020447411670609934], [0.24486306384976717, 0.44476630120442473], [0.18428866344346043, -0.051083701103786204], [0.30165572131442664, 0.2239114093385097], [-0.0017431279865323516, 0.11759053127645673], [0.36864926730470376, 0.029118730319846676], [0.08307425003498874, 0.31712463906399285], [0.26393370779995823, -0.24286541122091637], [0.5109425385251136, 0.2557989077594731]]",density,black,,,N008,visual,1,[],"['1', '2', '3', '4']",1,2023.2.3,harveyvisual,2.1,[],8,0.75,
0,pause,0.4,None,None,None,0,165,165,165,,,,,,,,,,,,,N008,visual,1,[],"['1', '2', '3', '4']",1,2023.2.3,harveyvisual,2.1,[],8,0.75,
9,dot,0.3,['dot'],['density'],black,0,166,166,166,,,60.500231981277466,60.21607780456543,60.516026973724365,dot,"[0.08, 0.1, 0.08, 0.06, 0.06, 0.1, 0.1, 0.08, 0.1]","[[-0.08830733675648182, -0.32541118850070216], [0.2573655446525002, -0.0029570100823114536], [0.27547652153196345, -0.34332263321768475], [-0.10322368112243578, -0.12113330350182801], [-0.09512634339583304, 0.07974184968350245], [0.1087639633701519, -0.14934854126711464], [-0.2976800736237512, -0.022953619774800198], [0.014308470788770018, -0.5004438889851849], [-0.3557422450128242, -0.24953541402881954]]",density,black,,,N008,visual,1,[],"['1', '2', '3', '4']",1,2023.2.3,harveyvisual,2.1,[],8,0.75,
0,pause,0.4,None,None,None,0,167,167,167,,,,,,,,,,,,,N008,visual,1,[],"['1', '2', '3', '4']",1,2023.2.3,harveyvisual,2.1,[],8,0.75,
8,dot,0.3,['dot'],['density'],black,0,168,168,168,,,61.200225830078125,60.91598200798035,61.21598482131958,dot,"[0.1, 0.08, 0.06, 0.08, 0.06, 0.06, 0.08, 0.1]","[[0.48529715144174124, -0.2697678579736521], [0.37309741842769656, 0.0699077870123373], [0.051182379473491794, 0.02141531407813483], [0.5234917469593858, 0.26578075419350655], [0.558201411832675, -0.037120345964853765], [0.22738215197141995, 0.24608732841731215], [0.3038957292845804, -0.12934366054116395], [0.024689158081869923, 0.25216756052328354]]",density,black,,,N008,visual,1,[],"['1', '2', '3', '4']",1,2023.2.3,harveyvisual,2.1,[],8,0.75,
0,pause,0.4,None,None,None,0,169,169,169,,,,,,,,,,,,,N008,visual,1,[],"['1', '2', '3', '4']",1,2023.2.3,harveyvisual,2.1,[],8,0.75,
8,dot,0.3,['dot'],['density'],black,0,170,170,170,,,61.90021896362305,61.61602997779846,61.915955781936646,dot,"[0.1, 0.06, 0.06, 0.06, 0.1, 0.06, 0.08, 0.08]","[[-0.2875956673588428, -0.37608972473646446], [0.1738442798715151, -0.5418380206356169], [-0.005791994605287101, -0.36400925298789194], [0.15381919852689818, -0.2106776783026027], [-0.02243369038452208, -0.11017027562433494], [-0.1375601387891928, -0.5383184991665005], [0.3481619806761259, -0.4256719133417836], [-0.2437856683810358, -0.16373273019932677]]",density,black,,,N008,visual,1,[],"['1', '2', '3', '4']",1,2023.2.3,harveyvisual,2.1,[],8,0.75,
0,pause,0.4,None,None,None,0,171,171,171,,,,,,,,,,,,,N008,visual,1,[],"['1', '2', '3', '4']",1,2023.2.3,harveyvisual,2.1,[],8,0.75,
8,dot,0.3,['dot'],['density'],black,0,172,172,172,,,62.60020899772644,62.31596279144287,62.61594295501709,dot,"[0.06, 0.06, 0.1, 0.08, 0.06, 0.08, 0.1, 0.1]","[[-0.24177141476747963, 0.37227001522147646], [0.022885153928237218, 0.26973630011126315], [-0.028424808126663318, 0.474031493095366], [-0.14677856605916886, 0.1510981622513803], [-0.33541894344674456, 0.07730913931898181], [0.10840621230513336, 0.04997884008138209], [0.30094222783758756, 0.17024461371702543], [-0.056701880949321645, -0.08542646800774611]]",density,black,,,N008,visual,1,[],"['1', '2', '3', '4']",1,2023.2.3,harveyvisual,2.1,[],8,0.75,
0,pause,0.4,None,None,None,0,173,173,173,,,,,,,,,,,,,N008,visual,1,[],"['1', '2', '3', '4']",1,2023.2.3,harveyvisual,2.1,[],8,0.75,
8,dot,0.3,['dot'],['density'],black,0,174,174,174,,,63.3002347946167,63.0159227848053,63.315916776657104,dot,"[0.1, 0.1, 0.1, 0.1, 0.06, 0.08, 0.08, 0.08]","[[0.3364035831170529, 0.12390393923093283], [0.4336864367158133, 0.35981147627037974], [0.06743640335689947, 0.0759148581953004], [-0.079559988999742, 0.39531058321326396], [0.21309668101319243, 0.48855257098982907], [0.23478258025928536, -0.08446837776908474], [-0.12854716397353463, 0.17339976512773136], [0.14965136140762586, 0.26897313353206964]]",density,black,,,N008,visual,1,[],"['1', '2', '3', '4']",1,2023.2.3,harveyvisual,2.1,[],8,0.75,
0,pause,0.4,None,None,None,0,175,175,175,,,,,,,,,,,,,N008,visual,1,[],"['1', '2', '3', '4']",1,2023.2.3,harveyvisual,2.1,[],8,0.75,
8,dot,0.3,['dot'],['density'],black,0,176,176,176,,,64.00021290779114,63.7159059047699,64.01590085029602,dot,"[0.08, 0.08, 0.08, 0.06, 0.06, 0.06, 0.1, 0.06]","[[-0.3306282708070712, -0.09459634407206743], [0.17708038186302957, -0.36794437316098305], [-0.34368294577136044, -0.39688855169369486], [-0.16397220561896333, 0.03033928826277653], [-0.08476975953586025, -0.41834960305423746], [-0.16765121495786453, -0.2265743681515788], [0.0449590487082352, -0.10546915507075137], [-0.5574709661459258, -0.15664368712912546]]",density,black,,,N008,visual,1,[],"['1', '2', '3', '4']",1,2023.2.3,harveyvisual,2.1,[],8,0.75,
0,pause,0.4,None,None,None,0,177,177,177,,,,,,,,,,,,,N008,visual,1,[],"['1', '2', '3', '4']",1,2023.2.3,harveyvisual,2.1,[],8,0.75,
8,dot,0.3,['dot'],['density'],black,0,178,178,178,,,64.70022392272949,64.41592597961426,64.71590185165405,dot,"[0.06, 0.08, 0.06, 0.08, 0.08, 0.06, 0.08, 0.06]","[[-0.30918623351354413, -0.2762980118811315], [0.03442122464869854, -0.32944299641312663], [0.20656618624830034, -0.4515266663928406], [0.20458815773351877, -0.002924552385479317], [-0.054765695239429084, -0.14491701700869716], [-0.0008776159608741382, 0.05441634750414142], [0.19975410704164612, -0.21252729673777132], [-0.19330391669800595, 0.14377227853430027]]",density,black,,,N008,visual,1,[],"['1', '2', '3', '4']",1,2023.2.3,harveyvisual,2.1,[],8,0.75,
0,pause,0.4,None,None,None,0,179,179,179,,,,,,,,,,,,,N008,visual,1,[],"['1', '2', '3', '4']",1,2023.2.3,harveyvisual,2.1,[],8,0.75,
7,dot,0.3,['dot'],['density'],black,0,180,180,180,,,65.40022492408752,65.11593699455261,65.41586780548096,dot,"[0.08, 0.08, 0.08, 0.08, 0.06, 0.08, 0.08]","[[0.3302081014073935, 0.19448071361351732], [-0.22286629369238187, 0.3450023392305547], [-0.11533339293480348, 0.13926201039730488], [0.12023407780451623, 0.21240672508650668], [0.2659789407074307, 0.3894086603790018], [0.026604934602130894, 0.39133200849180605], [0.212400253920387, 0.027377351413115796]]",density,black,,,N008,visual,1,[],"['1', '2', '3', '4']",1,2023.2.3,harveyvisual,2.1,[],8,0.75,
0,pause,0.4,None,None,None,0,181,181,181,,,,,,,,,,,,,N008,visual,1,[],"['1', '2', '3', '4']",1,2023.2.3,harveyvisual,2.1,[],8,0.75,
7,dot,0.3,['dot'],['density'],black,0,182,182,182,,,66.10023593902588,65.81700682640076,66.1158709526062,dot,"[0.1, 0.08, 0.08, 0.06, 0.1, 0.06, 0.06]","[[0.21536278937261513, -0.01733091677764761], [-0.08931035591216824, -0.05246349631749078], [0.21870610454298933, 0.21067491250041093], [-0.1587576617113587, 0.26068369883413384], [0.04623079518225047, 0.4568527369480977], [0.022942391481424712, 0.13939122930077608], [-0.27674911739568203, 0.09730719745121558]]",density,black,,,N008,visual,1,[],"['1', '2', '3', '4']",1,2023.2.3,harveyvisual,2.1,[],8,0.75,
0,pause,0.4,None,None,None,0,183,183,183,,,,,,,,,,,,,N008,visual,1,[],"['1', '2', '3', '4']",1,2023.2.3,harveyvisual,2.1,[],8,0.75,
7,dot,0.3,['dot'],['density'],black,0,184,184,184,,,66.80021786689758,66.51586985588074,66.8158688545227,dot,"[0.1, 0.06, 0.06, 0.08, 0.06, 0.1, 0.06]","[[0.19245168201499255, -0.1876960705048169], [-0.3381443552002159, -0.23329338142126996], [-0.10497405195571721, -0.20200038512761503], [-0.19215049966389516, -0.01485034356210763], [-0.14804808022624072, 0.20187381879058183], [0.049390412829639754, -0.0077734514623590935], [0.08212821656350888, 0.19234027401595055]]",density,black,,,N008,visual,1,[],"['1', '2', '3', '4']",1,2023.2.3,harveyvisual,2.1,[],8,0.75,
0,pause,0.4,None,None,None,0,185,185,185,,,,,,,,,,,,,N008,visual,1,[],"['1', '2', '3', '4']",1,2023.2.3,harveyvisual,2.1,[],8,0.75,
7,dot,0.3,['dot'],['density'],black,0,186,186,186,,,67.50023484230042,67.21585178375244,67.51582384109497,dot,"[0.1, 0.06, 0.06, 0.06, 0.06, 0.08, 0.08]","[[0.12902113605384963, -0.35167066519854956], [0.3838909825822851, -0.05572740120406059], [-0.02857767273637445, 0.1549795872955612], [0.19333287999408408, 0.10698923431715611], [-0.08146847087507005, -0.06064403559207536], [0.18020694687254563, -0.15550905334431223], [-0.07225335190945896, -0.28606481362007624]]",density,black,,,N008,visual,1,[],"['1', '2', '3', '4']",1,2023.2.3,harveyvisual,2.1,[],8,0.75,
0,pause,0.4,None,None,None,0,187,187,187,,,,,,,,,,,,,N008,visual,1,[],"['1', '2', '3', '4']",1,2023.2.3,harveyvisual,2.1,[],8,0.75,
7,dot,0.3,['dot'],['density'],black,0,188,188,188,,,68.2002329826355,67.9158718585968,68.21586298942566,dot,"[0.06, 0.1, 0.08, 0.1, 0.1, 0.08, 0.08]","[[0.06935229908748385, 0.4911641494940837], [-0.19266199922505295, 0.07836852906048222], [0.055274369019684175, 0.020452523162812593], [0.26239471350362015, 0.1001529216481179], [-0.06036973858781391, 0.3360513952533211], [-0.2638544135394649, 0.29089327984911306], [0.14813816713374972, 0.28344041791591096]]",density,black,,,N008,visual,1,[],"['1', '2', '3', '4']",1,2023.2.3,harveyvisual,2.1,[],8,0.75,
0,pause,0.4,None,None,None,0,189,189,189,,,,,,,,,,,,,N008,visual,1,[],"['1', '2', '3', '4']",1,2023.2.3,harveyvisual,2.1,[],8,0.75,
7,dot,0.3,['dot'],['density'],black,0,190,190,190,,,68.90022087097168,68.61586499214172,68.91585493087769,dot,"[0.1, 0.08, 0.06, 0.08, 0.1, 0.06, 0.1]","[[-0.2822174821233986, 0.002117056236134186], [-0.10673242512413421, 0.4781556216085482], [-0.18432519539246728, 0.19072201575640843], [-0.4524596318479574, 0.13966285650530724], [0.06907010423411483, 0.2912708813513049], [-0.07412436007020941, -0.021022205933558278], [-0.3208835015251209, 0.3986768431743725]]",density,black,,,N008,visual,1,[],"['1', '2', '3', '4']",1,2023.2.3,harveyvisual,2.1,[],8,0.75,
0,pause,0.4,None,None,None,0,191,191,191,,,,,,,,,,,,,N008,visual,1,[],"['1', '2', '3', '4']",1,2023.2.3,harveyvisual,2.1,[],8,0.75,
6,dot,0.3,['dot'],['density'],black,0,192,192,192,,,69.60021591186523,69.31584882736206,69.61577582359314,dot,"[0.08, 0.1, 0.06, 0.06, 0.06, 0.1]","[[-0.560843418842529, -0.11752527585456686], [-0.31277608783648175, 0.04003545118838376], [-0.18207900664359264, -0.3652956678781814], [-0.41442909117718774, -0.4038021739217259], [-0.14446849917993246, -0.07035639226176245], [-0.3420415871796019, -0.1631057353810994]]",density,black,,,N008,visual,1,[],"['1', '2', '3', '4']",1,2023.2.3,harveyvisual,2.1,[],8,0.75,
0,pause,0.4,None,None,None,0,193,193,193,,,,,,,,,,,,,N008,visual,1,[],"['1', '2', '3', '4']",1,2023.2.3,harveyvisual,2.1,[],8,0.75,
6,dot,0.3,['dot'],['density'],black,0,194,194,194,,,70.30021095275879,70.01581001281738,70.31574892997742,dot,"[0.06, 0.08, 0.06, 0.1, 0.1, 0.06]","[[0.2333794889108542, 0.5108688068097712], [0.17720399199515413, 0.06488002481085814], [0.3526024925964592, 0.16961020277143707], [0.1596713132306006, 0.321837067503818], [0.0007438407140586783, 0.18344495120876914], [0.42757463853404776, 0.37786691715169374]]",density,black,,,N008,visual,1,[],"['1', '2', '3', '4']",1,2023.2.3,harveyvisual,2.1,[],8,0.75,
0,pause,0.4,None,None,None,0,195,195,195,,,,,,,,,,,,,N008,visual,1,[],"['1', '2', '3', '4']",1,2023.2.3,harveyvisual,2.1,[],8,0.75,
6,dot,0.3,['dot'],['density'],black,0,196,196,196,,,71.00022387504578,70.7157518863678,71.01571989059448,dot,"[0.08, 0.1, 0.06, 0.08, 0.1, 0.1]","[[-0.3075905201299059, -0.4396409988488083], [-0.19740249700094745, -0.17714391351551703], [0.053731853964380204, -0.5240815929277938], [0.045148855841778586, -0.17580561296456876], [0.17596231810730836, -0.3386358025171148], [-0.08995737585576556, -0.36423659604885134]]",density,black,,,N008,visual,1,[],"['1', '2', '3', '4']",1,2023.2.3,harveyvisual,2.1,[],8,0.75,
0,pause,0.4,None,None,None,0,197,197,197,,,,,,,,,,,,,N008,visual,1,[],"['1', '2', '3', '4']",1,2023.2.3,harveyvisual,2.1,[],8,0.75,
6,dot,0.3,['dot'],['density'],black,0,198,198,198,,,71.70022583007812,71.41570091247559,71.71569490432739,dot,"[0.06, 0.1, 0.06, 0.06, 0.06, 0.1]","[[-0.25052904509636076, -0.46440103658729176], [-0.12772535636451293, 0.010821502090106766], [-0.031043743050516784, -0.3649555915866845], [-0.3754529733759062, -0.18839395716731677], [0.07378414788444272, -0.15062955699655364], [-0.17220243018048728, -0.20498996683935267]]",density,black,,,N008,visual,1,[],"['1', '2', '3', '4']",1,2023.2.3,harveyvisual,2.1,[],8,0.75,
0,pause,0.4,None,None,None,0,199,199,199,,,,,,,,,,,,,N008,visual,1,[],"['1', '2', '3', '4']",1,2023.2.3,harveyvisual,2.1,[],8,0.75,
6,dot,0.3,['dot'],['density'],black,0,200,200,200,,,72.40020895004272,72.11569881439209,72.41569399833679,dot,"[0.08, 0.1, 0.1, 0.08, 0.1, 0.08]","[[0.404576257273406, 0.0700140295133255], [0.16236872381874318, -0.0021128728600973284], [0.5529541989122894, -0.15659614737169442], [0.13702497511457395, -0.2589057080071786], [0.36740063964394665, -0.3636528069500345], [0.3132750905084481, -0.159771579268986]]",density,black,,,N008,visual,1,[],"['1', '2', '3', '4']",1,2023.2.3,harveyvisual,2.1,[],8,0.75,
0,pause,0.4,None,None,None,0,201,201,201,,,,,,,,,,,,,N008,visual,1,[],"['1', '2', '3', '4']",1,2023.2.3,harveyvisual,2.1,[],8,0.75,
6,dot,0.3,['dot'],['density'],black,0,202,202,202,,,73.10023593902588,72.81567001342773,73.11566400527954,dot,"[0.1, 0.06, 0.08, 0.06, 0.08, 0.06]","[[0.2333794889108542, 0.5108688068097712], [0.17720399199515413, 0.06488002481085814], [0.3526024925964592, 0.16961020277143707], [0.1596713132306006, 0.321837067503818], [0.0007438407140586783, 0.18344495120876914], [0.42757463853404776, 0.37786691715169374]]",density,black,,,N008,visual,1,[],"['1', '2', '3', '4']",1,2023.2.3,harveyvisual,2.1,[],8,0.75,
0,pause,0.4,None,None,None,0,203,203,203,,,,,,,,,,,,,N008,visual,1,[],"['1', '2', '3', '4']",1,2023.2.3,harveyvisual,2.1,[],8,0.75,
5,dot,0.3,['dot'],['density'],black,0,204,204,204,,,73.80022287368774,73.51567697525024,73.8156509399414,dot,"[0.08, 0.1, 0.06, 0.1, 0.1]","[[0.14370466841446422, -0.4636309982806098], [0.2961807471193908, -0.30487684838795487], [-0.08083516471444438, -0.49823911181902014], [0.057429843216129074, -0.22123310288296744], [-0.1653320673045236, -0.3160671692815837]]",density,black,,,N008,visual,1,[],"['1', '2', '3', '4']",1,2023.2.3,harveyvisual,2.1,[],8,0.75,
0,pause,0.4,None,None,None,0,205,205,205,,,,,,,,,,,,,N008,visual,1,[],"['1', '2', '3', '4']",1,2023.2.3,harveyvisual,2.1,[],8,0.75,
5,dot,0.3,['dot'],['density'],black,0,206,206,206,,,74.5002269744873,74.21563792228699,74.51562786102295,dot,"[0.08, 0.1, 0.1, 0.08, 0.06]","[[-0.5348211864270219, -0.08335004612931018], [-0.428892633085643, 0.14758700623805307], [-0.3277098387322906, -0.27887202276080253], [-0.29687101947458117, -0.03792463078145938], [-0.23363771935579355, 0.21194794904782605]]",density,black,,,N008,visual,1,[],"['1', '2', '3', '4']",1,2023.2.3,harveyvisual,2.1,[],8,0.75,
0,pause,0.4,None,None,None,0,207,207,207,,,,,,,,,,,,,N008,visual,1,[],"['1', '2', '3', '4']",1,2023.2.3,harveyvisual,2.1,[],8,0.75,
5,dot,0.3,['dot'],['density'],black,0,208,208,208,,,75.20023679733276,74.91563677787781,75.2156069278717,dot,"[0.08, 0.06, 0.1, 0.08, 0.08]","[[0.2075830250205083, 0.5448960418430373], [0.010600229768786232, 0.45420498888786176], [-0.10187712889758427, 0.28364076042242115], [0.1691377395635631, 0.293820614486451], [-0.2596336492265815, 0.40815120909286945]]",density,black,,,N008,visual,1,[],"['1', '2', '3', '4']",1,2023.2.3,harveyvisual,2.1,[],8,0.75,
0,pause,0.4,None,None,None,0,209,209,209,,,,,,,,,,,,,N008,visual,1,[],"['1', '2', '3', '4']",1,2023.2.3,harveyvisual,2.1,[],8,0.75,
5,dot,0.3,['dot'],['density'],black,0,210,210,210,,,75.90021586418152,75.61559987068176,75.91558599472046,dot,"[0.1, 0.06, 0.08, 0.1, 0.1]","[[-0.15120343604734773, 0.13880483605515373], [-0.27543704003083597, 0.3074941448909677], [-0.47853302670601033, 0.30949922786165307], [-0.3682774975032249, -0.13900280599659498], [-0.34692227301900613, 0.0889564565184539]]",density,black,,,N008,visual,1,[],"['1', '2', '3', '4']",1,2023.2.3,harveyvisual,2.1,[],8,0.75,
0,pause,0.4,None,None,None,0,211,211,211,,,,,,,,,,,,,N008,visual,1,[],"['1', '2', '3', '4']",1,2023.2.3,harveyvisual,2.1,[],8,0.75,
5,dot,0.3,['dot'],['density'],black,0,212,212,212,,,76.60021591186523,76.31558084487915,76.61557197570801,dot,"[0.1, 0.08, 0.08, 0.08, 0.08]","[[-0.08906257038347729, 0.3326351968500321], [0.2173987091792188, 0.026220721131276364], [0.07996259445097068, 0.4821024141609844], [0.14345365083950706, 0.2501481494916038], [-0.03323208063638199, 0.08804517681276208]]",density,black,,,N008,visual,1,[],"['1', '2', '3', '4']",1,2023.2.3,harveyvisual,2.1,[],8,0.75,
0,pause,0.4,None,None,None,0,213,213,213,,,,,,,,,,,,,N008,visual,1,[],"['1', '2', '3', '4']",1,2023.2.3,harveyvisual,2.1,[],8,0.75,
5,dot,0.3,['dot'],['density'],black,0,214,214,214,,,77.30021786689758,77.01582098007202,77.31559991836548,dot,"[0.1, 0.06, 0.1, 0.1, 0.08]","[[0.4409169755572007, 0.017856988789309493], [0.10933872532765951, -0.20637645515835812], [0.27728831588229885, 0.198954967346464], [0.3100556643305453, -0.16532657838491105], [0.11148968869271939, 0.006469487304542018]]",density,black,,,N008,visual,1,[],"['1', '2', '3', '4']",1,2023.2.3,harveyvisual,2.1,[],8,0.75,
0,pause,0.4,None,None,None,0,215,215,215,,,,,,,,,,,,,N008,visual,1,[],"['1', '2', '3', '4']",1,2023.2.3,harveyvisual,2.1,[],8,0.75,
4,dot,0.3,['dot'],['density'],black,0,216,216,216,,,78.00022292137146,77.71571588516235,78.01570677757263,dot,"[0.06, 0.06, 0.08, 0.06]","[[0.3428963381299033, -0.004396565162037705], [0.42558881424794154, 0.18301493672810298], [0.5687630200397232, 0.01721079717795714], [0.4301208405972816, -0.23499851958356296]]",density,black,,,N008,visual,1,[],"['1', '2', '3', '4']",1,2023.2.3,harveyvisual,2.1,[],8,0.75,
0,pause,0.4,None,None,None,0,217,217,217,,,,,,,,,,,,,N008,visual,1,[],"['1', '2', '3', '4']",1,2023.2.3,harveyvisual,2.1,[],8,0.75,
4,dot,0.3,['dot'],['density'],white,0,218,218,218,,,78.70022988319397,78.41556978225708,78.71557998657227,dot,"[0.06, 0.06, 0.08, 0.1]","[[0.3510671072586959, 0.39105757673094776], [0.13754249634966464, 0.24690230999823115], [0.2791454519284172, 0.028997379515453933], [0.42442503262497266, 0.18132357243737673]]",density,white,,,N008,visual,1,[],"['1', '2', '3', '4']",1,2023.2.3,harveyvisual,2.1,[],8,0.75,
0,pause,0.4,None,None,None,0,219,219,219,,,,,,,,,,,1,78.92621302604675,N008,visual,1,[],"['1', '2', '3', '4']",1,2023.2.3,harveyvisual,2.1,[],8,0.75,
4,dot,0.3,['dot'],['density'],white,0,220,220,220,,,79.40022587776184,79.11557078361511,79.41555380821228,dot,"[0.08, 0.1, 0.06, 0.08]","[[0.3510671072586959, 0.39105757673094776], [0.13754249634966464, 0.24690230999823115], [0.2791454519284172, 0.028997379515453933], [0.42442503262497266, 0.18132357243737673]]",density,white,,,N008,visual,1,[],"['1', '2', '3', '4']",1,2023.2.3,harveyvisual,2.1,[],8,0.75,
0,pause,0.4,None,None,None,0,221,221,221,,,,,,,,,,,1,79.61028599739075,N008,visual,1,[],"['1', '2', '3', '4']",1,2023.2.3,harveyvisual,2.1,[],8,0.75,
4,dot,0.3,['dot'],['density'],black,0,222,222,222,,,80.10022187232971,79.8155357837677,80.11552286148071,dot,"[0.08, 0.1, 0.1, 0.06]","[[-0.045256114861740894, 0.2798656300268403], [-0.02131053084637037, 0.4849425601475732], [0.17666180860848907, 0.34430389164600056], [0.0747630441556118, 0.10387908342824508]]",density,black,,,N008,visual,1,[],"['1', '2', '3', '4']",1,2023.2.3,harveyvisual,2.1,[],8,0.75,
0,pause,0.4,None,None,None,0,223,223,223,,,,,,,,,,,,,N008,visual,1,[],"['1', '2', '3', '4']",1,2023.2.3,harveyvisual,2.1,[],8,0.75,
4,dot,0.3,['dot'],['density'],black,0,224,224,224,,,80.80022478103638,80.51552891731262,80.8155210018158,dot,"[0.08, 0.08, 0.08, 0.08]","[[0.14909032788103166, -0.4768554918693636], [0.26071220381864263, -0.20018841858473793], [0.02634252458519163, -0.30967292471165575], [0.3541358554053611, -0.43808560323820217]]",density,black,,,N008,visual,1,[],"['1', '2', '3', '4']",1,2023.2.3,harveyvisual,2.1,[],8,0.75,
0,pause,0.4,None,None,None,0,225,225,225,,,,,,,,,,,,,N008,visual,1,[],"['1', '2', '3', '4']",1,2023.2.3,harveyvisual,2.1,[],8,0.75,
4,dot,0.3,['dot'],['density'],black,0,226,226,226,,,81.50021195411682,81.21550488471985,81.51547479629517,dot,"[0.08, 0.06, 0.06, 0.08]","[[0.06241226843583792, -0.3147100539198924], [0.2553405417111816, -0.24584579293690137], [0.0027514156828475403, -0.09786489187307437], [0.1660279615748852, 0.026007470517245626]]",density,black,,,N008,visual,1,[],"['1', '2', '3', '4']",1,2023.2.3,harveyvisual,2.1,[],8,0.75,
0,pause,0.4,None,None,None,0,227,227,227,,,,,,,,,,,,,N008,visual,1,[],"['1', '2', '3', '4']",1,2023.2.3,harveyvisual,2.1,[],8,0.75,
3,dot,0.3,['dot'],['density'],white,0,228,228,228,,,82.20023584365845,81.91546893119812,82.21558499336243,dot,"[0.1, 0.08, 0.08]","[[0.06695044750400271, -0.4036822973150869], [0.2898428615912539, -0.43752325319744867], [0.2484486434572057, -0.2241911098289173]]",density,white,,,N008,visual,1,[],"['1', '2', '3', '4']",1,2023.2.3,harveyvisual,2.1,[],8,0.75,
0,pause,0.4,None,None,None,0,229,229,229,,,,,,,,,,,1,82.2798159122467,N008,visual,1,[],"['1', '2', '3', '4']",1,2023.2.3,harveyvisual,2.1,[],8,0.75,
3,dot,0.3,['dot'],['density'],black,0,230,230,230,,,82.90023398399353,82.61544895172119,82.91544485092163,dot,"[0.1, 0.1, 0.08]","[[0.35100391059830643, -0.4491085892346253], [0.13011513135189492, -0.5590284990295896], [0.16905753934955023, -0.35714526366544236]]",density,black,,,N008,visual,1,[],"['1', '2', '3', '4']",1,2023.2.3,harveyvisual,2.1,[],8,0.75,
0,pause,0.4,None,None,None,0,231,231,231,,,,,,,,,,,,,N008,visual,1,[],"['1', '2', '3', '4']",1,2023.2.3,harveyvisual,2.1,[],8,0.75,
3,dot,0.3,['dot'],['density'],black,0,232,232,232,,,83.60023999214172,83.31542491912842,83.61540699005127,dot,"[0.06, 0.1, 0.1]","[[-0.04083818552357515, -0.522177599776496], [0.2241586230204485, -0.5188142294055383], [0.09506152973916207, -0.364648334381489]]",density,black,,,N008,visual,1,[],"['1', '2', '3', '4']",1,2023.2.3,harveyvisual,2.1,[],8,0.75,
0,pause,0.4,None,None,None,0,233,233,233,,,,,,,,,,,,,N008,visual,1,[],"['1', '2', '3', '4']",1,2023.2.3,harveyvisual,2.1,[],8,0.75,
3,dot,0.3,['dot'],['density'],white,0,234,234,234,,,84.30022096633911,84.01541781425476,84.31540083885193,dot,"[0.08, 0.06, 0.1]","[[-0.31319101668702665, 0.019781348947723338], [-0.5473895760332308, 0.024991247927059115], [-0.4494119348059314, -0.1602141851013313]]",density,white,,,N008,visual,1,[],"['1', '2', '3', '4']",1,2023.2.3,harveyvisual,2.1,[],8,0.75,
0,pause,0.4,None,None,None,0,235,235,235,,,,,,,,,,,1,84.43787002563477,N008,visual,1,[],"['1', '2', '3', '4']",1,2023.2.3,harveyvisual,2.1,[],8,0.75,
3,dot,0.3,['dot'],['density'],black,0,236,236,236,,,85.00020980834961,84.715402841568,85.015389919281,dot,"[0.06, 0.1, 0.06]","[[0.35100391059830643, -0.4491085892346253], [0.13011513135189492, -0.5590284990295896], [0.16905753934955023, -0.35714526366544236]]",density,black,,,N008,visual,1,[],"['1', '2', '3', '4']",1,2023.2.3,harveyvisual,2.1,[],8,0.75,
0,pause,0.4,None,None,None,0,237,237,237,,,,,,,,,,,,,N008,visual,1,[],"['1', '2', '3', '4']",1,2023.2.3,harveyvisual,2.1,[],8,0.75,
3,dot,0.3,['dot'],['density'],black,0,238,238,238,,,85.70023488998413,85.41538381576538,85.71549987792969,dot,"[0.1, 0.08, 0.1]","[[-0.015545778166788895, 0.3668732894324268], [-0.08169376046335623, 0.5804400028356697], [-0.24536523618143577, 0.46292967544173164]]",density,black,,,N008,visual,1,[],"['1', '2', '3', '4']",1,2023.2.3,harveyvisual,2.1,[],8,0.75,
0,pause,0.4,None,None,None,0,239,239,239,,,,,,,,,,,,,N008,visual,1,[],"['1', '2', '3', '4']",1,2023.2.3,harveyvisual,2.1,[],8,0.75,
2,dot,0.3,['dot'],['density'],black,0,240,240,240,,,86.40023899078369,86.11543679237366,86.415354013443,dot,"[0.08, 0.06]","[[0.5159928458027473, 0.13749655768121952], [0.38343727829172375, 0.28833164788761484]]",density,black,,,N008,visual,1,[],"['1', '2', '3', '4']",1,2023.2.3,harveyvisual,2.1,[],8,0.75,
0,pause,0.4,None,None,None,0,241,241,241,,,,,,,,,,,,,N008,visual,1,[],"['1', '2', '3', '4']",1,2023.2.3,harveyvisual,2.1,[],8,0.75,
2,dot,0.3,['dot'],['density'],white,0,242,242,242,,,87.10024285316467,86.81534695625305,87.1153450012207,dot,"[0.1, 0.06]","[[-0.4579128382498026, -0.013317831223324628], [-0.28624676016543393, -0.11681778735554697]]",density,white,,,N008,visual,1,[],"['1', '2', '3', '4']",1,2023.2.3,harveyvisual,2.1,[],8,0.75,
0,pause,0.4,None,None,None,0,243,243,243,,,,,,,,,,,1,87.1582179069519,N008,visual,1,[],"['1', '2', '3', '4']",1,2023.2.3,harveyvisual,2.1,[],8,0.75,
2,dot,0.3,['dot'],['density'],black,0,244,244,244,,,87.80023694038391,87.5153329372406,87.8153247833252,dot,"[0.08, 0.06]","[[-0.4149324818804315, 0.28007444048998836], [-0.5260390884397633, 0.11347960973083408]]",density,black,,,N008,visual,1,[],"['1', '2', '3', '4']",1,2023.2.3,harveyvisual,2.1,[],8,0.75,
0,pause,0.4,None,None,None,0,245,245,245,,,,,,,,,,,,,N008,visual,1,[],"['1', '2', '3', '4']",1,2023.2.3,harveyvisual,2.1,[],8,0.75,
2,dot,0.3,['dot'],['density'],black,0,246,246,246,,,88.50022292137146,88.21531581878662,88.5152518749237,dot,"[0.1, 0.08]","[[0.002249876020969301, 0.20442088447143333], [-0.056293345030126195, 0.39599742374220376]]",density,black,,,N008,visual,1,[],"['1', '2', '3', '4']",1,2023.2.3,harveyvisual,2.1,[],8,0.75,
0,pause,0.4,None,None,None,0,247,247,247,,,,,,,,,,,,,N008,visual,1,[],"['1', '2', '3', '4']",1,2023.2.3,harveyvisual,2.1,[],8,0.75,
2,dot,0.3,['dot'],['density'],black,0,248,248,248,,,89.20023679733276,88.91526699066162,89.21528387069702,dot,"[0.06, 0.08]","[[-0.21141336561075566, 0.4273762957479495], [-0.1407142259739198, 0.23984948612333498]]",density,black,,,N008,visual,1,[],"['1', '2', '3', '4']",1,2023.2.3,harveyvisual,2.1,[],8,0.75,
0,pause,0.4,None,None,None,0,249,249,249,,,,,,,,,,,,,N008,visual,1,[],"['1', '2', '3', '4']",1,2023.2.3,harveyvisual,2.1,[],8,0.75,
2,dot,0.3,['dot'],['density'],black,0,250,250,250,,,89.9002377986908,89.61541891098022,89.91541600227356,dot,"[0.1, 0.06]","[[0.07059805578258149, -0.2458188734665979], [0.058763118304238846, -0.4455693812784497]]",density,black,,,N008,visual,1,[],"['1', '2', '3', '4']",1,2023.2.3,harveyvisual,2.1,[],8,0.75,
0,pause,0.4,None,None,None,0,251,251,251,,,,,,,,,,,,,N008,visual,1,[],"['1', '2', '3', '4']",1,2023.2.3,harveyvisual,2.1,[],8,0.75,
1,dot,0.3,['dot'],['density'],black,0,252,252,252,,,90.60021591186523,90.31525492668152,90.61521887779236,dot,[0.1],"[0.4230572171255965, 0.15564154118015242]",density,black,,,N008,visual,1,[],"['1', '2', '3', '4']",1,2023.2.3,harveyvisual,2.1,[],8,0.75,
0,pause,0.4,None,None,None,0,253,253,253,,,,,,,,,,,,,N008,visual,1,[],"['1', '2', '3', '4']",1,2023.2.3,harveyvisual,2.1,[],8,0.75,
1,dot,0.3,['dot'],['density'],black,0,254,254,254,,,91.30021286010742,91.01520991325378,91.3151957988739,dot,[0.06],"[0.5286010678554951, -0.2554598500704326]",density,black,,,N008,visual,1,[],"['1', '2', '3', '4']",1,2023.2.3,harveyvisual,2.1,[],8,0.75,
0,pause,0.4,None,None,None,0,255,255,255,,,,,,,,,,,,,N008,visual,1,[],"['1', '2', '3', '4']",1,2023.2.3,harveyvisual,2.1,[],8,0.75,
1,dot,0.3,['dot'],['density'],white,0,256,256,256,,,92.00021886825562,91.7151939868927,92.0151789188385,dot,[0.06],"[-0.43105706563061386, -0.18359692062194616]",density,white,,,N008,visual,1,[],"['1', '2', '3', '4']",1,2023.2.3,harveyvisual,2.1,[],8,0.75,
0,pause,0.4,None,None,None,0,257,257,257,,,,,,,,,,,1,92.19181084632874,N008,visual,1,[],"['1', '2', '3', '4']",1,2023.2.3,harveyvisual,2.1,[],8,0.75,
1,dot,0.3,['dot'],['density'],black,0,258,258,258,,,92.7002329826355,92.41518187522888,92.71515989303589,dot,[0.08],"[0.1771264825789444, 0.012298414170669998]",density,black,,,N008,visual,1,[],"['1', '2', '3', '4']",1,2023.2.3,harveyvisual,2.1,[],8,0.75,
0,pause,0.4,None,None,None,0,259,259,259,,,,,,,,,,,,,N008,visual,1,[],"['1', '2', '3', '4']",1,2023.2.3,harveyvisual,2.1,[],8,0.75,
1,dot,0.3,['dot'],['density'],white,0,260,260,260,,,93.400221824646,93.11514687538147,93.41529297828674,dot,[0.06],"[-0.2532192430475575, -0.5275431624831907]",density,white,,,N008,visual,1,[],"['1', '2', '3', '4']",1,2023.2.3,harveyvisual,2.1,[],8,0.75,
0,pause,0.4,None,None,None,0,261,261,261,,,,,,,,,,,1,93.54203295707703,N008,visual,1,[],"['1', '2', '3', '4']",1,2023.2.3,harveyvisual,2.1,[],8,0.75,
1,dot,0.3,['dot'],['density'],black,0,262,262,262,,,94.10023999214172,93.81516289710999,94.11518383026123,dot,[0.1],"[0.25023401086931774, -0.3984124620602511]",density,black,,,N008,visual,1,[],"['1', '2', '3', '4']",1,2023.2.3,harveyvisual,2.1,[],8,0.75,
0,pause,0.4,None,None,None,0,263,263,263,,,,,,,,,,,,,N008,visual,1,[],"['1', '2', '3', '4']",1,2023.2.3,harveyvisual,2.1,[],8,0.75,
20,dot,0.3,['dot'],['density'],black,0,264,264,264,,,94.80022978782654,94.51515483856201,94.81514477729797,dot,"[0.08, 0.1, 0.08, 0.06, 0.06, 0.08, 0.08, 0.1, 0.1, 0.06, 0.06, 0.06, 0.1, 0.08, 0.08, 0.1, 0.1, 0.06, 0.08, 0.06]","[[-0.15647342470348935, -0.05937256189167717], [0.3138634696538991, 0.1385001468234015], [-0.10999361850881534, -0.37633297272570276], [-0.4778217931119598, -0.19083067672626042], [-0.2815966187898, 0.4144394219275275], [-0.390375233022858, 0.14915708148490026], [0.37584640245634005, -0.285740234014617], [0.5830419012378033, -0.06064318969946046], [-0.07637830386724731, 0.36811517216523104], [0.15607010571987534, 0.31523364474684035], [-0.3243529927302397, -0.397897085587805], [0.3621885067560271, 0.33089272747711235], [0.2133579830225143, 0.5374612935948538], [0.04160424237704019, -0.1263490462715396], [-0.13804330378466045, -0.5730204529339884], [0.17410764822109204, -0.41290236444245754], [-0.587070938596912, 0.02573914557454207], [0.541531787966473, 0.25666870656136026], [0.02300115881287379, 0.07211278533940224], [0.3484321265967474, -0.08323417383506754]]",density,black,,,N008,visual,1,[],"['1', '2', '3', '4']",1,2023.2.3,harveyvisual,2.1,[],8,0.75,
0,pause,0.4,None,None,None,0,265,265,265,,,,,,,,,,,,,N008,visual,1,[],"['1', '2', '3', '4']",1,2023.2.3,harveyvisual,2.1,[],8,0.75,
20,dot,0.3,['dot'],['density'],black,0,266,266,266,,,95.5002179145813,95.21513986587524,95.51512289047241,dot,"[0.06, 0.06, 0.06, 0.06, 0.1, 0.06, 0.08, 0.08, 0.08, 0.08, 0.08, 0.08, 0.1, 0.06, 0.1, 0.06, 0.1, 0.08, 0.1, 0.08]","[[0.2444886506104812, -0.11930224252967936], [-0.3859837424165523, -0.38341061111408425], [-0.052751864762148215, -0.16100506153742183], [0.23268622486610302, 0.3001168478253762], [0.3867723154127257, 0.0057743280979143385], [-0.5857843881190165, 0.0251549580145225], [-0.46250269938109756, 0.38846907790215307], [0.5537090774342756, -0.10097786660825844], [-0.12394022146753592, -0.5570720093793192], [0.4407734454714317, 0.3040363163027622], [-0.07090924026285617, 0.1432528736243135], [-0.23119200433751602, -0.09618827162151239], [-0.06864885733616899, 0.5188553907458419], [-0.3655467689013281, 0.052516844657856], [-0.2746899567923918, 0.23561099824285825], [0.1449966856761311, -0.4370113602739213], [0.5884111436090774, 0.10220049734816014], [0.04240921276386689, 0.3502880340351401], [0.37614979464127674, -0.27004559437570613], [-0.45073286103351073, -0.1541305029209735]]",density,black,,,N008,visual,1,[],"['1', '2', '3', '4']",1,2023.2.3,harveyvisual,2.1,[],8,0.75,
0,pause,0.4,None,None,None,0,267,267,267,,,,,,,,,,,,,N008,visual,1,[],"['1', '2', '3', '4']",1,2023.2.3,harveyvisual,2.1,[],8,0.75,
