num,mod,duration,shape,ll_cond,colors,.thisRepN,.thisTrialN,.thisN,.thisIndex,thisRow.t,notes,raw_global_time,t_start,t_stop,shapes,size,pos,cond,color,button,RT,participant,session,starting_run,left button (match/odd),right button (non-match/even),samples_per_block,psychopy version,expName,offset,audio,number_runs,radius,
1,dot,0.3,['dot'],['density'],black,0,0,0,0,,,2.400214910507202,2.114042043685913,2.414047956466675,dot,[0.06],"[-0.1989246115662565, -0.15069844343359862]",density,black,,,N008,visual,1,[],"['1', '2', '3', '4']",1,2023.2.3,harveyvisual,2.1,[],8,0.75,
0,pause,0.4,None,None,None,0,1,1,1,,,,,,,,,,,,,N008,visual,1,[],"['1', '2', '3', '4']",1,2023.2.3,harveyvisual,2.1,[],8,0.75,
1,dot,0.3,['dot'],['density'],black,0,2,2,2,,,3.1002118587493896,2.813904047012329,3.113891839981079,dot,[0.08],"[-0.4913090862596544, 0.31587628757091063]",density,black,,,N008,visual,1,[],"['1', '2', '3', '4']",1,2023.2.3,harveyvisual,2.1,[],8,0.75,
0,pause,0.4,None,None,None,0,3,3,3,,,,,,,,,,,,,N008,visual,1,[],"['1', '2', '3', '4']",1,2023.2.3,harveyvisual,2.1,[],8,0.75,
1,dot,0.3,['dot'],['density'],black,0,4,4,4,,,3.800191879272461,3.514030933380127,3.8138790130615234,dot,[0.08],"[0.1049869166116724, 0.1335000464341748]",density,black,,,N008,visual,1,[],"['1', '2', '3', '4']",1,2023.2.3,harveyvisual,2.1,[],8,0.75,
0,pause,0.4,None,None,None,0,5,5,5,,,,,,,,,,,,,N008,visual,1,[],"['1', '2', '3', '4']",1,2023.2.3,harveyvisual,2.1,[],8,0.75,
1,dot,0.3,['dot'],['density'],black,0,6,6,6,,,4.500198841094971,4.213871955871582,4.513869047164917,dot,[0.1],"[0.46628601751002285, 0.12197617226191985]",density,black,,,N008,visual,1,[],"['1', '2', '3', '4']",1,2023.2.3,harveyvisual,2.1,[],8,0.75,
0,pause,0.4,None,None,None,0,7,7,7,,,,,,,,,,,,,N008,visual,1,[],"['1', '2', '3', '4']",1,2023.2.3,harveyvisual,2.1,[],8,0.75,
1,dot,0.3,['dot'],['density'],black,0,8,8,8,,,5.200194835662842,4.913869857788086,5.213846921920776,dot,[0.08],"[-0.13294789447644317, -0.0050084293737640015]",density,black,,,N008,visual,1,[],"['1', '2', '3', '4']",1,2023.2.3,harveyvisual,2.1,[],8,0.75,
0,pause,0.4,None,None,None,0,9,9,9,,,,,,,,,,,,,N008,visual,1,[],"['1', '2', '3', '4']",1,2023.2.3,harveyvisual,2.1,[],8,0.75,
1,dot,0.3,['dot'],['density'],black,0,10,10,10,,,5.900205850601196,5.613839864730835,5.913825988769531,dot,[0.06],"[0.1049869166116724, 0.1335000464341748]",density,black,,,N008,visual,1,[],"['1', '2', '3', '4']",1,2023.2.3,harveyvisual,2.1,[],8,0.75,
0,pause,0.4,None,None,None,0,11,11,11,,,,,,,,,,,,,N008,visual,1,[],"['1', '2', '3', '4']",1,2023.2.3,harveyvisual,2.1,[],8,0.75,
2,dot,0.3,['dot'],['density'],black,0,12,12,12,,,6.600214958190918,6.313853979110718,6.613803863525391,dot,"[0.1, 0.08]","[[0.06661886780735636, -0.3109770134588511], [-0.03502229105109153, -0.4833380692870097]]",density,black,,,N008,visual,1,[],"['1', '2', '3', '4']",1,2023.2.3,harveyvisual,2.1,[],8,0.75,
0,pause,0.4,None,None,None,0,13,13,13,,,,,,,,,,,,,N008,visual,1,[],"['1', '2', '3', '4']",1,2023.2.3,harveyvisual,2.1,[],8,0.75,
2,dot,0.3,['dot'],['density'],black,0,14,14,14,,,7.300207853317261,7.013803958892822,7.31378698348999,dot,"[0.1, 0.1]","[[-0.21141336561075566, 0.4273762957479495], [-0.1407142259739198, 0.23984948612333498]]",density,black,,,N008,visual,1,[],"['1', '2', '3', '4']",1,2023.2.3,harveyvisual,2.1,[],8,0.75,
0,pause,0.4,None,None,None,0,15,15,15,,,,,,,,,,,,,N008,visual,1,[],"['1', '2', '3', '4']",1,2023.2.3,harveyvisual,2.1,[],8,0.75,
2,dot,0.3,['dot'],['density'],white,0,16,16,16,,,8.000211000442505,7.7137579917907715,8.013772964477539,dot,"[0.08, 0.06]","[[0.07059805578258149, -0.2458188734665979], [0.058763118304238846, -0.4455693812784497]]",density,white,,,N008,visual,1,[],"['1', '2', '3', '4']",1,2023.2.3,harveyvisual,2.1,[],8,0.75,
0,pause,0.4,None,None,None,0,17,17,17,,,,,,,,,,,1,7.714716911315918,N008,visual,1,[],"['1', '2', '3', '4']",1,2023.2.3,harveyvisual,2.1,[],8,0.75,
2,dot,0.3,['dot'],['density'],black,0,18,18,18,,,8.700202941894531,8.413902044296265,8.713892936706543,dot,"[0.1, 0.06]","[[-0.22226122312079244, -0.00806926593831646], [-0.023245446524914906, -0.037240983575548024]]",density,black,,,N008,visual,1,[],"['1', '2', '3', '4']",1,2023.2.3,harveyvisual,2.1,[],8,0.75,
0,pause,0.4,None,None,None,0,19,19,19,,,,,,,,,,,,,N008,visual,1,[],"['1', '2', '3', '4']",1,2023.2.3,harveyvisual,2.1,[],8,0.75,
2,dot,0.3,['dot'],['density'],black,0,20,20,20,,,9.400212049484253,9.11379098892212,9.41381287574768,dot,"[0.06, 0.08]","[[0.5590929928249944, 0.05901985638302875], [0.5065513741473344, -0.13409141480534237]]",density,black,,,N008,visual,1,[],"['1', '2', '3', '4']",1,2023.2.3,harveyvisual,2.1,[],8,0.75,
0,pause,0.4,None,None,None,0,21,21,21,,,,,,,,,,,,,N008,visual,1,[],"['1', '2', '3', '4']",1,2023.2.3,harveyvisual,2.1,[],8,0.75,
2,dot,0.3,['dot'],['density'],black,0,22,22,22,,,10.100203037261963,9.813742876052856,10.113729000091553,dot,"[0.06, 0.06]","[[0.3054529246123127, 0.4455278178545299], [0.3548458028228903, 0.2510588499170468]]",density,black,,,N008,visual,1,[],"['1', '2', '3', '4']",1,2023.2.3,harveyvisual,2.1,[],8,0.75,
0,pause,0.4,None,None,None,0,23,23,23,,,,,,,,,,,,,N008,visual,1,[],"['1', '2', '3', '4']",1,2023.2.3,harveyvisual,2.1,[],8,0.75,
3,dot,0.3,['dot'],['density'],black,0,24,24,24,,,10.800196886062622,10.513676881790161,10.813709020614624,dot,"[0.1, 0.08, 0.06]","[[-0.09236249555143743, 0.14437879021360575], [0.06053771141254397, 0.008702735453236923], [-0.17336599953316903, -0.04113967592870183]]",density,black,,,N008,visual,1,[],"['1', '2', '3', '4']",1,2023.2.3,harveyvisual,2.1,[],8,0.75,
0,pause,0.4,None,None,None,0,25,25,25,,,,,,,,,,,,,N008,visual,1,[],"['1', '2', '3', '4']",1,2023.2.3,harveyvisual,2.1,[],8,0.75,
3,dot,0.3,['dot'],['density'],black,0,26,26,26,,,11.500200033187866,11.213709831237793,11.513659954071045,dot,"[0.1, 0.08, 0.08]","[[-0.32034981165049564, 0.18083778238314796], [-0.3344619052850136, -0.04022521570367012], [-0.13485517643248812, 0.10330846540140716]]",density,black,,,N008,visual,1,[],"['1', '2', '3', '4']",1,2023.2.3,harveyvisual,2.1,[],8,0.75,
0,pause,0.4,None,None,None,0,27,27,27,,,,,,,,,,,,,N008,visual,1,[],"['1', '2', '3', '4']",1,2023.2.3,harveyvisual,2.1,[],8,0.75,
3,dot,0.3,['dot'],['density'],black,0,28,28,28,,,12.200212001800537,11.913686037063599,12.213685035705566,dot,"[0.06, 0.1, 0.08]","[[0.5383732683216915, 0.24050044654635605], [0.337973319445641, 0.36292363064724675], [0.3422154310588786, 0.14570949010333048]]",density,black,,,N008,visual,1,[],"['1', '2', '3', '4']",1,2023.2.3,harveyvisual,2.1,[],8,0.75,
0,pause,0.4,None,None,None,0,29,29,29,,,,,,,,,,,,,N008,visual,1,[],"['1', '2', '3', '4']",1,2023.2.3,harveyvisual,2.1,[],8,0.75,
3,dot,0.3,['dot'],['density'],white,0,30,30,30,,,12.900203943252563,12.61362886428833,12.913655042648315,dot,"[0.08, 0.06, 0.06]","[[0.5267872668145167, -0.16137547842759675], [0.3420119191573968, -0.036920749927643534], [0.3185462880061428, -0.2399114968218526]]",density,white,,,N008,visual,1,[],"['1', '2', '3', '4']",1,2023.2.3,harveyvisual,2.1,[],8,0.75,
0,pause,0.4,None,None,None,0,31,31,31,,,,,,,,,,,1,12.571265935897827,N008,visual,1,[],"['1', '2', '3', '4']",1,2023.2.3,harveyvisual,2.1,[],8,0.75,
3,dot,0.3,['dot'],['density'],black,0,32,32,32,,,13.600204944610596,13.313632011413574,13.613603830337524,dot,"[0.06, 0.06, 0.1]","[[-0.3391924794566746, 0.43027756448319565], [-0.33080415183405026, 0.2112686575961512], [-0.14277619127331137, 0.29962579604826906]]",density,black,,,N008,visual,1,[],"['1', '2', '3', '4']",1,2023.2.3,harveyvisual,2.1,[],8,0.75,
0,pause,0.4,None,None,None,0,33,33,33,,,,,,,,,,,,,N008,visual,1,[],"['1', '2', '3', '4']",1,2023.2.3,harveyvisual,2.1,[],8,0.75,
3,dot,0.3,['dot'],['density'],black,0,34,34,34,,,14.30019998550415,14.01361894607544,14.313604831695557,dot,"[0.06, 0.08, 0.06]","[[-0.18534860244577742, 0.5145019772121514], [0.05660586421610542, 0.42456432010350276], [-0.11463700911578348, 0.31489985189225056]]",density,black,,,N008,visual,1,[],"['1', '2', '3', '4']",1,2023.2.3,harveyvisual,2.1,[],8,0.75,
0,pause,0.4,None,None,None,0,35,35,35,,,,,,,,,,,,,N008,visual,1,[],"['1', '2', '3', '4']",1,2023.2.3,harveyvisual,2.1,[],8,0.75,
4,dot,0.3,['dot'],['density'],black,0,36,36,36,,,15.000200033187866,14.713598012924194,15.013581991195679,dot,"[0.1, 0.08, 0.1, 0.08]","[[0.010836700166572746, 0.3385055392368038], [-0.21755291078517647, 0.23172276430217797], [0.04881011250022837, 0.13413393103699342], [-0.16894730197854985, 0.4434327172909165]]",density,black,,,N008,visual,1,[],"['1', '2', '3', '4']",1,2023.2.3,harveyvisual,2.1,[],8,0.75,
0,pause,0.4,None,None,None,0,37,37,37,,,,,,,,,,,,,N008,visual,1,[],"['1', '2', '3', '4']",1,2023.2.3,harveyvisual,2.1,[],8,0.75,
4,dot,0.3,['dot'],['density'],black,0,38,38,38,,,15.700202941894531,15.413638830184937,15.713589906692505,dot,"[0.08, 0.08, 0.06, 0.1]","[[0.0015408600658227804, 0.35051751062746694], [-0.20674122870780898, 0.3211588031025307], [-0.08430622538187964, 0.13383917563087117], [0.1780252705082131, 0.19175915241248492]]",density,black,,,N008,visual,1,[],"['1', '2', '3', '4']",1,2023.2.3,harveyvisual,2.1,[],8,0.75,
0,pause,0.4,None,None,None,0,39,39,39,,,,,,,,,,,,,N008,visual,1,[],"['1', '2', '3', '4']",1,2023.2.3,harveyvisual,2.1,[],8,0.75,
4,dot,0.3,['dot'],['density'],black,0,40,40,40,,,16.40021586418152,16.113574028015137,16.413614988327026,dot,"[0.06, 0.1, 0.06, 0.06]","[[0.3225849294362846, -0.13157286681700714], [0.2615083713376798, -0.38790318245483907], [0.48399895238698887, -0.2981397300552969], [0.514252162939949, -0.043630752066028525]]",density,black,,,N008,visual,1,[],"['1', '2', '3', '4']",1,2023.2.3,harveyvisual,2.1,[],8,0.75,
0,pause,0.4,None,None,None,0,41,41,41,,,,,,,,,,,,,N008,visual,1,[],"['1', '2', '3', '4']",1,2023.2.3,harveyvisual,2.1,[],8,0.75,
4,dot,0.3,['dot'],['density'],black,0,42,42,42,,,17.100215911865234,16.813560009002686,17.11354088783264,dot,"[0.08, 0.06, 0.06, 0.06]","[[0.2593869086993074, -0.26887741013308497], [0.09674879007849839, -0.39609983087723066], [-0.011093693993988496, -0.14004324908426333], [0.28630805459639813, -0.4681830009867555]]",density,black,,,N008,visual,1,[],"['1', '2', '3', '4']",1,2023.2.3,harveyvisual,2.1,[],8,0.75,
0,pause,0.4,None,None,None,0,43,43,43,,,,,,,,,,,,,N008,visual,1,[],"['1', '2', '3', '4']",1,2023.2.3,harveyvisual,2.1,[],8,0.75,
4,dot,0.3,['dot'],['density'],black,0,44,44,44,,,17.80019783973694,17.51358389854431,17.813529014587402,dot,"[0.1, 0.08, 0.06, 0.1]","[[-0.24231220575667195, -0.22966258239168486], [-0.5136420973432148, -0.13696856920477488], [-0.4300726721285167, 0.13088957628356482], [-0.3148289313469241, -0.03851715211982174]]",density,black,,,N008,visual,1,[],"['1', '2', '3', '4']",1,2023.2.3,harveyvisual,2.1,[],8,0.75,
0,pause,0.4,None,None,None,0,45,45,45,,,,,,,,,,,,,N008,visual,1,[],"['1', '2', '3', '4']",1,2023.2.3,harveyvisual,2.1,[],8,0.75,
4,dot,0.3,['dot'],['density'],black,0,46,46,46,,,18.500212907791138,18.21352505683899,18.5135600566864,dot,"[0.1, 0.1, 0.1, 0.08]","[[-0.4116264312708952, 0.16775371224632304], [-0.5618780911112883, -0.04134114392370045], [-0.3363713887364365, -0.04915619770205748], [-0.48212301157369764, -0.2249233832905235]]",density,black,,,N008,visual,1,[],"['1', '2', '3', '4']",1,2023.2.3,harveyvisual,2.1,[],8,0.75,
0,pause,0.4,None,None,None,0,47,47,47,,,,,,,,,,,,,N008,visual,1,[],"['1', '2', '3', '4']",1,2023.2.3,harveyvisual,2.1,[],8,0.75,
5,dot,0.3,['dot'],['density'],black,0,48,48,48,,,19.200212001800537,18.913506984710693,19.21349596977234,dot,"[0.06, 0.06, 0.1, 0.08, 0.06]","[[0.10176071415026891, -0.0029310292721688898], [0.32748853803000494, -0.2831003617774451], [0.10999898603900501, -0.23076615641811304], [0.2383494361888625, 0.16403485824849598], [0.3558293804179042, -0.08171974316418079]]",density,black,,,N008,visual,1,[],"['1', '2', '3', '4']",1,2023.2.3,harveyvisual,2.1,[],8,0.75,
0,pause,0.4,None,None,None,0,49,49,49,,,,,,,,,,,,,N008,visual,1,[],"['1', '2', '3', '4']",1,2023.2.3,harveyvisual,2.1,[],8,0.75,
5,dot,0.3,['dot'],['density'],black,0,50,50,50,,,19.90020203590393,19.613489866256714,19.9134738445282,dot,"[0.1, 0.1, 0.06, 0.1, 0.06]","[[-0.3632963637400461, -0.33792544526642676], [-0.48189922448633543, -0.036156829306921726], [-0.2958020468624338, 0.07292024124872273], [-0.10639492237515816, -0.0008972940205680791], [-0.20818262001932955, -0.17666930306052683]]",density,black,,,N008,visual,1,[],"['1', '2', '3', '4']",1,2023.2.3,harveyvisual,2.1,[],8,0.75,
0,pause,0.4,None,None,None,0,51,51,51,,,,,,,,,,,,,N008,visual,1,[],"['1', '2', '3', '4']",1,2023.2.3,harveyvisual,2.1,[],8,0.75,
5,dot,0.3,['dot'],['density'],black,0,52,52,52,,,20.6002140045166,20.31346297264099,20.613456964492798,dot,"[0.06, 0.08, 0.06, 0.06, 0.1]","[[0.27183890960736007, -0.2807898153303064], [0.09520185447546438, -0.14661409162522948], [0.4811798017999712, -0.08799056171856828], [0.2824926782126669, -0.029701986940959574], [0.07325476391384783, 0.10525290151012107]]",density,black,,,N008,visual,1,[],"['1', '2', '3', '4']",1,2023.2.3,harveyvisual,2.1,[],8,0.75,
0,pause,0.4,None,None,None,0,53,53,53,,,,,,,,,,,,,N008,visual,1,[],"['1', '2', '3', '4']",1,2023.2.3,harveyvisual,2.1,[],8,0.75,
5,dot,0.3,['dot'],['density'],black,0,54,54,54,,,21.300196886062622,21.013450860977173,21.31343698501587,dot,"[0.08, 0.1, 0.1, 0.08, 0.1]","[[0.34746533592570195, 0.16118282603596082], [0.14457128296481445, 0.28865621170929245], [0.4549189851861922, 0.34228556952890804], [0.008483415068308318, 0.44103246018778014], [0.27150044131742485, 0.4621652121832405]]",density,black,,,N008,visual,1,[],"['1', '2', '3', '4']",1,2023.2.3,harveyvisual,2.1,[],8,0.75,
0,pause,0.4,None,None,None,0,55,55,55,,,,,,,,,,,,,N008,visual,1,[],"['1', '2', '3', '4']",1,2023.2.3,harveyvisual,2.1,[],8,0.75,
5,dot,0.3,['dot'],['density'],black,0,56,56,56,,,22.000195026397705,21.7134850025177,22.01342487335205,dot,"[0.1, 0.08, 0.06, 0.1, 0.08]","[[-0.13250041589442924, 0.4634743177333449], [-0.03625216126902591, 0.28212032656479163], [0.10864293512180892, 0.5244886061775208], [-0.2806491611955352, 0.29160063440784684], [-0.17458602784440078, 0.11997474961663163]]",density,black,,,N008,visual,1,[],"['1', '2', '3', '4']",1,2023.2.3,harveyvisual,2.1,[],8,0.75,
0,pause,0.4,None,None,None,0,57,57,57,,,,,,,,,,,,,N008,visual,1,[],"['1', '2', '3', '4']",1,2023.2.3,harveyvisual,2.1,[],8,0.75,
5,dot,0.3,['dot'],['density'],black,0,58,58,58,,,22.7002010345459,22.413426876068115,22.71340799331665,dot,"[0.06, 0.06, 0.06, 0.06, 0.08]","[[-0.0036269740154891753, 0.5431219823242713], [-0.2646325594942043, 0.5073179604697073], [-0.41902475937036154, 0.37311436690984484], [-0.007163214206743488, 0.2887893175302695], [-0.2156098228659233, 0.2684642371109035]]",density,black,,,N008,visual,1,[],"['1', '2', '3', '4']",1,2023.2.3,harveyvisual,2.1,[],8,0.75,
0,pause,0.4,None,None,None,0,59,59,59,,,,,,,,,,,,,N008,visual,1,[],"['1', '2', '3', '4']",1,2023.2.3,harveyvisual,2.1,[],8,0.75,
6,dot,0.3,['dot'],['density'],black,0,60,60,60,,,23.40021586418152,23.113399028778076,23.41343092918396,dot,"[0.1, 0.06, 0.1, 0.06, 0.08, 0.1]","[[0.1982846419110591, -0.5292804859653952], [-0.09533153174900855, -0.5647367288422243], [-0.1659446600366624, -0.36958438178462333], [0.23572970018209544, -0.2476946313124468], [-0.023160452264027947, -0.17140847685647978], [0.035419311136148636, -0.3737635646361638]]",density,black,,,N008,visual,1,[],"['1', '2', '3', '4']",1,2023.2.3,harveyvisual,2.1,[],8,0.75,
0,pause,0.4,None,None,None,0,61,61,61,,,,,,,,,,,,,N008,visual,1,[],"['1', '2', '3', '4']",1,2023.2.3,harveyvisual,2.1,[],8,0.75,
6,dot,0.3,['dot'],['density'],black,0,62,62,62,,,24.10020089149475,23.81338405609131,24.11337184906006,dot,"[0.08, 0.1, 0.06, 0.1, 0.1, 0.08]","[[-0.37443702985748106, 0.32648296684105377], [-0.5461381080049402, 0.20900463425646473], [-0.03667792491240075, 0.12745261621840673], [-0.13670974087354773, 0.4115775839407936], [-0.3800981804337871, 0.05314619565530939], [-0.23016292349935943, 0.18714801531232822]]",density,black,,,N008,visual,1,[],"['1', '2', '3', '4']",1,2023.2.3,harveyvisual,2.1,[],8,0.75,
0,pause,0.4,None,None,None,0,63,63,63,,,,,,,,,,,,,N008,visual,1,[],"['1', '2', '3', '4']",1,2023.2.3,harveyvisual,2.1,[],8,0.75,
6,dot,0.3,['dot'],['density'],black,0,64,64,64,,,24.80021095275879,24.51339101791382,24.813889026641846,dot,"[0.08, 0.1, 0.08, 0.08, 0.1, 0.08]","[[-0.21871154593458392, 0.523205648483303], [-0.10311842393244862, 0.3355489225101837], [0.008055670172287269, 0.5366903261171385], [0.1303263863168633, 0.3782575370349718], [0.03185769749340688, 0.17145177849191712], [-0.2810167974491763, 0.15418865533644557]]",density,black,,,N008,visual,1,[],"['1', '2', '3', '4']",1,2023.2.3,harveyvisual,2.1,[],8,0.75,
0,pause,0.4,None,None,None,0,65,65,65,,,,,,,,,,,,,N008,visual,1,[],"['1', '2', '3', '4']",1,2023.2.3,harveyvisual,2.1,[],8,0.75,
6,dot,0.3,['dot'],['density'],black,0,66,66,66,,,25.50021505355835,25.213841915130615,25.51392102241516,dot,"[0.06, 0.1, 0.06, 0.06, 0.08, 0.08]","[[-0.25052904509636076, -0.46440103658729176], [-0.12772535636451293, 0.010821502090106766], [-0.031043743050516784, -0.3649555915866845], [-0.3754529733759062, -0.18839395716731677], [0.07378414788444272, -0.15062955699655364], [-0.17220243018048728, -0.20498996683935267]]",density,black,,,N008,visual,1,[],"['1', '2', '3', '4']",1,2023.2.3,harveyvisual,2.1,[],8,0.75,
0,pause,0.4,None,None,None,0,67,67,67,,,,,,,,,,,,,N008,visual,1,[],"['1', '2', '3', '4']",1,2023.2.3,harveyvisual,2.1,[],8,0.75,
6,dot,0.3,['dot'],['density'],black,0,68,68,68,,,26.200196027755737,25.9138400554657,26.213820934295654,dot,"[0.1, 0.06, 0.1, 0.08, 0.06, 0.06]","[[-0.08086177951302478, 0.2470577028799217], [0.17809040740055945, 0.25721690350386706], [0.248993691455746, -0.144418230259854], [0.04260816027356476, -0.17251108440570345], [0.26201279645255604, 0.07253913185781388], [-0.0017619790798508912, 0.027830886297901026]]",density,black,,,N008,visual,1,[],"['1', '2', '3', '4']",1,2023.2.3,harveyvisual,2.1,[],8,0.75,
0,pause,0.4,None,None,None,0,69,69,69,,,,,,,,,,,,,N008,visual,1,[],"['1', '2', '3', '4']",1,2023.2.3,harveyvisual,2.1,[],8,0.75,
6,dot,0.3,['dot'],['density'],black,0,70,70,70,,,26.900197982788086,26.613818883895874,26.91383194923401,dot,"[0.1, 0.08, 0.06, 0.06, 0.06, 0.1]","[[-0.25199583264674774, 0.1645076628059283], [-0.30980015185235615, -0.30059811601219943], [-0.3416104032120793, -0.08609002542292095], [-0.44539923421558947, 0.10453038353258776], [-0.10444623085343022, 0.0009067836503606603], [-0.5495015018291214, -0.1770200348029928]]",density,black,,,N008,visual,1,[],"['1', '2', '3', '4']",1,2023.2.3,harveyvisual,2.1,[],8,0.75,
0,pause,0.4,None,None,None,0,71,71,71,,,,,,,,,,,,,N008,visual,1,[],"['1', '2', '3', '4']",1,2023.2.3,harveyvisual,2.1,[],8,0.75,
7,dot,0.3,['dot'],['density'],black,0,72,72,72,,,27.6002140045166,27.313849925994873,27.616111993789673,dot,"[0.1, 0.1, 0.06, 0.06, 0.06, 0.1, 0.1]","[[-0.2877807563129739, -0.2392998172879968], [-0.4930284393840153, 0.02918626900802282], [-0.13307942101536208, -0.4135874564509098], [-0.1727922191076213, -0.04289663127052677], [-0.3943840059764042, -0.4351600913800347], [-0.03321109949484203, -0.21096883087625085], [-0.5418728138863746, -0.1990057631286019]]",density,black,,,N008,visual,1,[],"['1', '2', '3', '4']",1,2023.2.3,harveyvisual,2.1,[],8,0.75,
0,pause,0.4,None,None,None,0,73,73,73,,,,,,,,,,,,,N008,visual,1,[],"['1', '2', '3', '4']",1,2023.2.3,harveyvisual,2.1,[],8,0.75,
7,dot,0.3,['dot'],['density'],black,0,74,74,74,,,28.300209045410156,28.016108989715576,28.316093921661377,dot,"[0.08, 0.08, 0.1, 0.1, 0.08, 0.08, 0.08]","[[-0.16635260996794698, 0.28084462036912], [-0.40218122969076125, -0.17991686156932815], [-0.0845402480451966, 0.09445086570213204], [-0.12722724135381816, -0.176029296145206], [-0.3668576348978093, 0.24153552923633032], [-0.5374975881789634, 0.10465170418994485], [-0.31219932221879926, 0.029177302383891702]]",density,black,,,N008,visual,1,[],"['1', '2', '3', '4']",1,2023.2.3,harveyvisual,2.1,[],8,0.75,
0,pause,0.4,None,None,None,0,75,75,75,,,,,,,,,,,,,N008,visual,1,[],"['1', '2', '3', '4']",1,2023.2.3,harveyvisual,2.1,[],8,0.75,
7,dot,0.3,['dot'],['density'],black,0,76,76,76,,,29.000216960906982,28.717938899993896,29.016235828399658,dot,"[0.08, 0.1, 0.06, 0.1, 0.06, 0.1, 0.08]","[[0.3350011905151264, 0.09255159473130091], [-0.07424962927914175, -0.2643067362759337], [-0.0068732696698998825, 0.04948606721470151], [0.12855319879406235, -0.3381192636220083], [0.11551090787938859, 0.24000211478775196], [0.3415900712266813, -0.1269386107563701], [0.14228147320501944, -0.08533637750285226]]",density,black,,,N008,visual,1,[],"['1', '2', '3', '4']",1,2023.2.3,harveyvisual,2.1,[],8,0.75,
0,pause,0.4,None,None,None,0,77,77,77,,,,,,,,,,,,,N008,visual,1,[],"['1', '2', '3', '4']",1,2023.2.3,harveyvisual,2.1,[],8,0.75,
7,dot,0.3,['dot'],['density'],black,0,78,78,78,,,29.700214862823486,29.416234970092773,29.716099977493286,dot,"[0.1, 0.08, 0.1, 0.1, 0.1, 0.1, 0.08]","[[-0.27882252076513336, 0.33055409005240166], [-0.4957633793454142, -0.06140876275196145], [-0.0066404743852866415, -0.09326226909207957], [-0.0437417051997281, 0.24568157295930956], [-0.4653499650939929, 0.1386387143322748], [-0.23664853702636232, 0.07695828400639043], [-0.2650254833014284, -0.12289079349875774]]",density,black,,,N008,visual,1,[],"['1', '2', '3', '4']",1,2023.2.3,harveyvisual,2.1,[],8,0.75,
0,pause,0.4,None,None,None,0,79,79,79,,,,,,,,,,,,,N008,visual,1,[],"['1', '2', '3', '4']",1,2023.2.3,harveyvisual,2.1,[],8,0.75,
7,dot,0.3,['dot'],['density'],black,0,80,80,80,,,30.40019702911377,30.11710786819458,30.416010856628418,dot,"[0.08, 0.06, 0.1, 0.06, 0.06, 0.06, 0.06]","[[0.36124702795982905, 0.02861074637729004], [0.035495459613383976, -0.03736980990239832], [0.4545067059830119, -0.22475560039862832], [0.21831658066582188, 0.20471036725638603], [0.23621436127430617, -0.13960795011418334], [0.5606656921354746, -0.047865395727918474], [0.5468561378002438, 0.2161657569851178]]",density,black,,,N008,visual,1,[],"['1', '2', '3', '4']",1,2023.2.3,harveyvisual,2.1,[],8,0.75,
0,pause,0.4,None,None,None,0,81,81,81,,,,,,,,,,,,,N008,visual,1,[],"['1', '2', '3', '4']",1,2023.2.3,harveyvisual,2.1,[],8,0.75,
7,dot,0.3,['dot'],['density'],black,0,82,82,82,,,31.100198984146118,30.816033840179443,31.116037845611572,dot,"[0.08, 0.08, 0.1, 0.06, 0.06, 0.1, 0.1]","[[-0.137089699111686, -0.0603537150230737], [-0.5113647139476066, -0.13847335204066147], [-0.15813839015967857, -0.36469710156031643], [-0.2936616210719107, -0.2141411575526577], [-0.32787652212665946, 0.04250548396893007], [0.004093135922799089, -0.22788394746255153], [-0.17456170860443615, 0.20133573380951708]]",density,black,,,N008,visual,1,[],"['1', '2', '3', '4']",1,2023.2.3,harveyvisual,2.1,[],8,0.75,
0,pause,0.4,None,None,None,0,83,83,83,,,,,,,,,,,,,N008,visual,1,[],"['1', '2', '3', '4']",1,2023.2.3,harveyvisual,2.1,[],8,0.75,
8,dot,0.3,['dot'],['density'],black,0,84,84,84,,,31.800212860107422,31.516034841537476,31.817126035690308,dot,"[0.08, 0.1, 0.1, 0.1, 0.06, 0.08, 0.06, 0.1]","[[-0.13214754069031825, -0.5402677255150703], [0.1288984478000013, -0.5519726475135984], [0.27401725229332, -0.34994268047279037], [-0.052680844420756816, 0.006786609240531098], [0.03557367748195712, -0.3699094958310016], [-0.23170140006741713, -0.18198058676873416], [-0.33504621301322857, -0.3611685350886627], [0.0760940577115827, -0.14857148175569432]]",density,black,,,N008,visual,1,[],"['1', '2', '3', '4']",1,2023.2.3,harveyvisual,2.1,[],8,0.75,
0,pause,0.4,None,None,None,0,85,85,85,,,,,,,,,,,,,N008,visual,1,[],"['1', '2', '3', '4']",1,2023.2.3,harveyvisual,2.1,[],8,0.75,
8,dot,0.3,['dot'],['density'],black,0,86,86,86,,,32.500223875045776,32.21612596511841,32.51601004600525,dot,"[0.1, 0.06, 0.1, 0.1, 0.1, 0.06, 0.06, 0.1]","[[-0.43120034012996816, -0.3965796075128045], [0.1478983624034229, -0.46770986256388064], [-0.23058307999139557, -0.3238539366063682], [-0.07988642296593639, -0.13993938361429092], [-0.08664795903044427, -0.5418074813242995], [0.11879255589163208, -0.1637425359681226], [-0.09873641234556067, 0.08705286872936738], [-0.025120016651009644, -0.34045580780112095]]",density,black,,,N008,visual,1,[],"['1', '2', '3', '4']",1,2023.2.3,harveyvisual,2.1,[],8,0.75,
0,pause,0.4,None,None,None,0,87,87,87,,,,,,,,,,,,,N008,visual,1,[],"['1', '2', '3', '4']",1,2023.2.3,harveyvisual,2.1,[],8,0.75,
8,dot,0.3,['dot'],['density'],black,0,88,88,88,,,33.20020294189453,32.91603398323059,33.21708583831787,dot,"[0.1, 0.08, 0.06, 0.08, 0.08, 0.1, 0.06, 0.06]","[[-0.24177141476747963, 0.37227001522147646], [0.022885153928237218, 0.26973630011126315], [-0.028424808126663318, 0.474031493095366], [-0.14677856605916886, 0.1510981622513803], [-0.33541894344674456, 0.07730913931898181], [0.10840621230513336, 0.04997884008138209], [0.30094222783758756, 0.17024461371702543], [-0.056701880949321645, -0.08542646800774611]]",density,black,,,N008,visual,1,[],"['1', '2', '3', '4']",1,2023.2.3,harveyvisual,2.1,[],8,0.75,
0,pause,0.4,None,None,None,0,89,89,89,,,,,,,,,,,,,N008,visual,1,[],"['1', '2', '3', '4']",1,2023.2.3,harveyvisual,2.1,[],8,0.75,
8,dot,0.3,['dot'],['density'],black,0,90,90,90,,,33.90021085739136,33.615933895111084,33.91596698760986,dot,"[0.08, 0.06, 0.08, 0.1, 0.06, 0.1, 0.08, 0.06]","[[-0.19469543066458847, -0.326291241472255], [0.30343637985980976, -0.10925869102227477], [-0.1969922581528186, -0.11664339975312436], [0.2570255161168456, -0.3247060146943647], [0.10684135558856425, -0.18174565546534566], [0.03482742583321104, -0.4893606045609451], [-0.015658395544436696, -0.0001692298399926468], [0.11980560642279467, 0.15585563517441894]]",density,black,,,N008,visual,1,[],"['1', '2', '3', '4']",1,2023.2.3,harveyvisual,2.1,[],8,0.75,
0,pause,0.4,None,None,None,0,91,91,91,,,,,,,,,,,,,N008,visual,1,[],"['1', '2', '3', '4']",1,2023.2.3,harveyvisual,2.1,[],8,0.75,
8,dot,0.3,['dot'],['density'],black,0,92,92,92,,,34.600215911865234,34.315969944000244,34.61592197418213,dot,"[0.06, 0.1, 0.1, 0.1, 0.1, 0.1, 0.06, 0.1]","[[-0.012034279999911439, 0.06556808781241986], [-0.3446774290598954, 0.11122635080299646], [0.22428040003470762, 0.1796687910302273], [-0.037221971777983635, 0.5300244249381355], [-0.1456717336157172, 0.2672263832914442], [0.040508406505222534, 0.3412803201140432], [-0.26975617824218623, 0.48628578621654683], [0.24128509790231628, 0.4122343446782376]]",density,black,,,N008,visual,1,[],"['1', '2', '3', '4']",1,2023.2.3,harveyvisual,2.1,[],8,0.75,
0,pause,0.4,None,None,None,0,93,93,93,,,,,,,,,,,,,N008,visual,1,[],"['1', '2', '3', '4']",1,2023.2.3,harveyvisual,2.1,[],8,0.75,
8,dot,0.3,['dot'],['density'],black,0,94,94,94,,,35.30021595954895,35.01595592498779,35.31594705581665,dot,"[0.08, 0.08, 0.1, 0.08, 0.1, 0.08, 0.06, 0.08]","[[0.11895989691250043, -0.4531686673706004], [-0.16516506104640707, -0.03240926074491446], [0.03539791161122963, 0.017706842047032937], [0.2602726326243711, -0.2021454296306109], [-0.07993394910368964, -0.42305571474287856], [-0.2833532244481061, -0.22994433794129646], [0.3633812293108319, -0.4186270945829863], [-0.04042382183071007, -0.1991401458565282]]",density,black,,,N008,visual,1,[],"['1', '2', '3', '4']",1,2023.2.3,harveyvisual,2.1,[],8,0.75,
0,pause,0.4,None,None,None,0,95,95,95,,,,,,,,,,,,,N008,visual,1,[],"['1', '2', '3', '4']",1,2023.2.3,harveyvisual,2.1,[],8,0.75,
9,dot,0.3,['dot'],['density'],black,0,96,96,96,,,36.000202894210815,35.71591091156006,36.01770091056824,dot,"[0.1, 0.08, 0.08, 0.08, 0.08, 0.08, 0.1, 0.08, 0.08]","[[-0.011980588702785358, -0.14271344386551676], [-0.15345504415890063, -0.3599837049237609], [0.2909474261289129, -0.3591516282942406], [0.16239073734315843, -0.5386624114967425], [0.2227638828830022, -0.11271380419745088], [0.06426208015886789, 0.04859175461581491], [-0.3648571389210414, -0.3413683676300365], [0.3831858227582706, 0.019718563726728144], [0.06479696894599615, -0.3534524636945761]]",density,black,,,N008,visual,1,[],"['1', '2', '3', '4']",1,2023.2.3,harveyvisual,2.1,[],8,0.75,
0,pause,0.4,None,None,None,0,97,97,97,,,,,,,,,,,,,N008,visual,1,[],"['1', '2', '3', '4']",1,2023.2.3,harveyvisual,2.1,[],8,0.75,
9,dot,0.3,['dot'],['density'],black,0,98,98,98,,,36.70020890235901,36.415897846221924,36.71588492393494,dot,"[0.08, 0.08, 0.1, 0.08, 0.06, 0.1, 0.06, 0.06, 0.08]","[[-0.4007656520072294, -0.25517300445391483], [-0.002534053661406415, -0.03841937385778563], [0.03867088550537559, -0.37109058839216275], [0.14298263539714814, -0.19121790068267305], [-0.18592892280395246, 0.09800459324165622], [-0.17114407793371844, -0.47763389460370764], [0.20594417137152282, 0.033112046987541804], [-0.3669302527083935, -0.010624696365658668], [-0.20182203610849478, -0.19970173151634407]]",density,black,,,N008,visual,1,[],"['1', '2', '3', '4']",1,2023.2.3,harveyvisual,2.1,[],8,0.75,
0,pause,0.4,None,None,None,0,99,99,99,,,,,,,,,,,,,N008,visual,1,[],"['1', '2', '3', '4']",1,2023.2.3,harveyvisual,2.1,[],8,0.75,
9,dot,0.3,['dot'],['density'],black,0,100,100,100,,,37.40021085739136,37.11589598655701,37.415849924087524,dot,"[0.06, 0.08, 0.06, 0.08, 0.06, 0.06, 0.08, 0.06, 0.06]","[[0.17250841666444466, -0.5173949811024123], [-0.03744062107829021, -0.3895067986023326], [0.30010350549611725, -0.35742528465303014], [0.33064876224298684, -0.08057424749072183], [-0.16743636965090838, -0.09291053242622109], [0.1226827020066543, -0.24711763375004436], [0.047527772487498496, -0.037432207059122605], [0.20928928941955194, 0.09999474740890861], [-0.30040876562534896, -0.42726910911839744]]",density,black,,,N008,visual,1,[],"['1', '2', '3', '4']",1,2023.2.3,harveyvisual,2.1,[],8,0.75,
0,pause,0.4,None,None,None,0,101,101,101,,,,,,,,,,,,,N008,visual,1,[],"['1', '2', '3', '4']",1,2023.2.3,harveyvisual,2.1,[],8,0.75,
9,dot,0.3,['dot'],['density'],black,0,102,102,102,,,38.10022497177124,37.815845012664795,38.11587691307068,dot,"[0.08, 0.06, 0.08, 0.06, 0.08, 0.08, 0.08, 0.06, 0.1]","[[0.21556792455118703, 0.37642033042102185], [0.14366510572844648, -0.18651452926789283], [0.49642287684820396, -0.0794158383055628], [-0.04770628609247857, -0.12519201939426747], [0.20310136493979325, 0.154094551714378], [-0.004065485174475974, 0.09100382633055243], [-0.018053901421587658, 0.34918523294118026], [0.29624623666919286, -0.053344657000752645], [-0.2018857737562037, 0.01971770186205045]]",density,black,,,N008,visual,1,[],"['1', '2', '3', '4']",1,2023.2.3,harveyvisual,2.1,[],8,0.75,
0,pause,0.4,None,None,None,0,103,103,103,,,,,,,,,,,,,N008,visual,1,[],"['1', '2', '3', '4']",1,2023.2.3,harveyvisual,2.1,[],8,0.75,
9,dot,0.3,['dot'],['density'],black,0,104,104,104,,,38.800211906433105,38.51582384109497,38.815804958343506,dot,"[0.08, 0.08, 0.1, 0.1, 0.08, 0.08, 0.08, 0.1, 0.06]","[[0.019793807854907846, -0.43234396454466956], [-0.19026732246162045, -0.30921043426246514], [0.04019268118281429, 0.04496242893187172], [-0.3995051790572048, -0.35321755636659735], [-0.3855517065125252, -0.10705750392277943], [0.08372722599267078, -0.1679482296571974], [0.2622756688563642, -0.3928589043728353], [-0.14305193053609555, -0.047108980659819465], [-0.27076529918092873, 0.10825753519043561]]",density,black,,,N008,visual,1,[],"['1', '2', '3', '4']",1,2023.2.3,harveyvisual,2.1,[],8,0.75,
0,pause,0.4,None,None,None,0,105,105,105,,,,,,,,,,,,,N008,visual,1,[],"['1', '2', '3', '4']",1,2023.2.3,harveyvisual,2.1,[],8,0.75,
9,dot,0.3,['dot'],['density'],white,0,106,106,106,,,39.500211000442505,39.216941833496094,39.5157790184021,dot,"[0.1, 0.08, 0.1, 0.08, 0.1, 0.06, 0.1, 0.1, 0.1]","[[0.019793807854907846, -0.43234396454466956], [-0.19026732246162045, -0.30921043426246514], [0.04019268118281429, 0.04496242893187172], [-0.3995051790572048, -0.35321755636659735], [-0.3855517065125252, -0.10705750392277943], [0.08372722599267078, -0.1679482296571974], [0.2622756688563642, -0.3928589043728353], [-0.14305193053609555, -0.047108980659819465], [-0.27076529918092873, 0.10825753519043561]]",density,white,,,N008,visual,1,[],"['1', '2', '3', '4']",1,2023.2.3,harveyvisual,2.1,[],8,0.75,
0,pause,0.4,None,None,None,0,107,107,107,,,,,,,,,,,1,39.2044460773468,N008,visual,1,[],"['1', '2', '3', '4']",1,2023.2.3,harveyvisual,2.1,[],8,0.75,
20,dot,0.3,['dot'],['density'],black,0,108,108,108,,,40.20021986961365,39.91578698158264,40.21708297729492,dot,"[0.06, 0.06, 0.08, 0.06, 0.1, 0.1, 0.1, 0.08, 0.1, 0.08, 0.1, 0.1, 0.1, 0.08, 0.08, 0.08, 0.06, 0.06, 0.1, 0.08]","[[-0.16913097459119247, -0.01429910426978509], [-0.5664307796721753, 0.1895925093025146], [0.29508935486373755, -0.024329431512391975], [0.18378498423369505, 0.3405190500925711], [-0.2920420103707448, -0.4037303669220579], [0.005225804527971056, 0.12567722991138675], [0.11998837533901208, -0.4305940413736656], [0.13078783383522874, -0.18811153053265445], [-0.08083288191584415, 0.5515693286452464], [-0.10636254196258343, 0.34061775217753454], [0.5525157084389519, 0.22273335809198821], [-0.12262514617810732, -0.560863869555585], [-0.5247407783561346, -0.07041219006457936], [0.471896540369389, -0.2192127109805507], [0.1317363437086858, 0.5636918736342514], [0.5908247540885866, -0.04196525600199087], [-0.2984970326170786, 0.5213828789095196], [0.3312321960523822, -0.44264011008122567], [-0.45377288832873036, 0.36457479620861083], [-0.22524527685520834, -0.1959462804210938]]",density,black,,,N008,visual,1,[],"['1', '2', '3', '4']",1,2023.2.3,harveyvisual,2.1,[],8,0.75,
0,pause,0.4,None,None,None,0,109,109,109,,,,,,,,,,,,,N008,visual,1,[],"['1', '2', '3', '4']",1,2023.2.3,harveyvisual,2.1,[],8,0.75,
20,dot,0.3,['dot'],['density'],black,0,110,110,110,,,40.90021300315857,40.615800857543945,40.915748834609985,dot,"[0.06, 0.06, 0.08, 0.08, 0.06, 0.1, 0.1, 0.08, 0.06, 0.08, 0.06, 0.06, 0.1, 0.08, 0.06, 0.08, 0.08, 0.06, 0.1, 0.06]","[[0.5103747090764407, -0.2905809260410249], [0.09906355225098906, 0.03509837971451624], [-0.2846356007349173, 0.23501311402366054], [0.5190019177024235, 0.07025281546619488], [-0.32780211266350445, -0.053635503757753444], [0.26086172741449964, -0.0896677807354126], [0.05114989366635314, -0.37866649096243543], [0.25115134491927993, 0.3576777506308034], [0.19887763823780302, -0.5439236814447528], [0.060187897213402675, 0.5674034802759135], [-0.4088668790148119, 0.4411832109960464], [-0.13792997667567475, -0.5548636640965974], [-0.18912000976085797, -0.2386974447349402], [-0.4795211358013803, -0.19961767727322416], [-0.38594758777511073, -0.4317652302406098], [0.04039833924367908, 0.3288126920365535], [-0.5158290990259115, 0.26354156253861866], [-0.6014897556500676, 0.013981336192337615], [-0.1762746270464851, 0.4620447295941785], [0.52532741263524, 0.29287705030145933]]",density,black,,,N008,visual,1,[],"['1', '2', '3', '4']",1,2023.2.3,harveyvisual,2.1,[],8,0.75,
0,pause,0.4,None,None,None,0,111,111,111,,,,,,,,,,,,,N008,visual,1,[],"['1', '2', '3', '4']",1,2023.2.3,harveyvisual,2.1,[],8,0.75,
20,dot,0.3,['dot'],['density'],black,0,112,112,112,,,41.60020089149475,41.315770864486694,41.615763902664185,dot,"[0.06, 0.06, 0.1, 0.08, 0.06, 0.08, 0.1, 0.06, 0.08, 0.1, 0.1, 0.06, 0.1, 0.06, 0.06, 0.08, 0.06, 0.06, 0.1, 0.08]","[[-0.030532600635250096, -0.3714822602136849], [0.04034355325447336, -0.5715975923544766], [0.18164491439471198, -0.37943687191106834], [-0.19565335225540076, 0.411475400817676], [-0.45787419285335873, 0.338150734810602], [0.031957328571888044, 0.5668654992689551], [-0.4033593161883257, -0.08052146789745296], [0.5706983125024855, -0.14858348960947257], [0.2734027202860827, -0.13070434665860436], [-0.11025154955924577, 0.22507947999758138], [0.2144655512148096, 0.05936923598555277], [0.5130244057556258, 0.18904189333105764], [-0.5941862863584065, 0.03658211432605844], [0.3351114821559801, 0.47256508919888485], [0.012458740714047067, -0.0712053158012328], [-0.24374390683517455, -0.31582868937735276], [-0.1935424475987202, -0.5279952320570246], [0.3317328375918518, 0.2692436106970635], [-0.3888613413314508, 0.14959750309536118], [0.06558878648132915, 0.3357888122079762]]",density,black,,,N008,visual,1,[],"['1', '2', '3', '4']",1,2023.2.3,harveyvisual,2.1,[],8,0.75,
0,pause,0.4,None,None,None,0,113,113,113,,,,,,,,,,,,,N008,visual,1,[],"['1', '2', '3', '4']",1,2023.2.3,harveyvisual,2.1,[],8,0.75,
20,dot,0.3,['dot'],['density'],black,0,114,114,114,,,42.30020499229431,42.015727043151855,42.315717935562134,dot,"[0.08, 0.06, 0.08, 0.08, 0.08, 0.06, 0.08, 0.08, 0.1, 0.08, 0.1, 0.1, 0.06, 0.06, 0.08, 0.06, 0.1, 0.06, 0.08, 0.08]","[[-0.21479407936037137, -0.18754576141711304], [-0.44229544230344253, -0.05669628127109705], [-0.451266257351816, 0.3725945944821249], [0.2610063794667725, -0.001797737994750137], [-0.22960239983684028, -0.43685765582382174], [-0.2273034042301083, 0.09335725808660011], [-0.5349191395631011, -0.24015455828489363], [-0.03966573135914919, -0.4836591858572988], [0.40798332153132766, -0.4392769102871607], [0.18195666338112204, -0.21078284116257368], [0.12106155947099317, 0.22717560654143798], [-0.2136938909058596, 0.4119383057860896], [0.40963559524912296, 0.30680023356689956], [-0.5602000940823944, 0.16952279012698834], [0.1533564173132701, 0.500833031324965], [0.5293787265340234, -0.2864805896939889], [-0.009978596131973716, 0.025651532822930756], [-0.05394985196470792, 0.5618948130152566], [0.565254516277126, -0.017683156871577815], [0.1824178743730378, -0.41241265960288553]]",density,black,,,N008,visual,1,[],"['1', '2', '3', '4']",1,2023.2.3,harveyvisual,2.1,[],8,0.75,
0,pause,0.4,None,None,None,0,115,115,115,,,,,,,,,,,,,N008,visual,1,[],"['1', '2', '3', '4']",1,2023.2.3,harveyvisual,2.1,[],8,0.75,
20,dot,0.3,['dot'],['density'],black,0,116,116,116,,,43.00020790100098,42.715713024139404,43.015704870224,dot,"[0.08, 0.1, 0.06, 0.08, 0.06, 0.06, 0.06, 0.1, 0.1, 0.1, 0.08, 0.08, 0.06, 0.06, 0.06, 0.1, 0.1, 0.1, 0.1, 0.08]","[[-0.26089682175830653, 0.18586282669885013], [0.35116425056144995, 0.3404116272508083], [0.2985746214736682, -0.35164519389884485], [-0.3190206753405796, -0.24299396917062238], [0.046647308257024456, -0.16863927788919902], [-0.530015595947391, -0.18948501547619329], [-0.39499740034551134, 0.3246770820952229], [0.39625799331213873, 0.12326801075979477], [0.5323427189051025, -0.029742015848624126], [-0.1749513971247723, -0.5062356674323407], [0.2664303960882869, -0.07062065920027621], [-0.37072062719177107, -0.05857123388214158], [0.06376240627093932, 0.5315578382501204], [-0.5931816233145129, 0.08546530908422693], [0.15970276742368472, 0.1569748407391771], [-0.1875398130349002, -0.0061760094500616924], [0.07715530333720089, -0.433985041519641], [-0.22971057184337945, 0.4700356580380325], [0.50501725057502, -0.2950659520647479], [-0.3596230230942471, -0.4289016022583479]]",density,black,,,N008,visual,1,[],"['1', '2', '3', '4']",1,2023.2.3,harveyvisual,2.1,[],8,0.75,
0,pause,0.4,None,None,None,0,117,117,117,,,,,,,,,,,,,N008,visual,1,[],"['1', '2', '3', '4']",1,2023.2.3,harveyvisual,2.1,[],8,0.75,
20,dot,0.3,['dot'],['density'],black,0,118,118,118,,,43.700201988220215,43.41573095321655,43.71570301055908,dot,"[0.06, 0.06, 0.08, 0.08, 0.06, 0.1, 0.08, 0.1, 0.08, 0.06, 0.06, 0.08, 0.1, 0.1, 0.08, 0.06, 0.1, 0.08, 0.1, 0.1]","[[0.3650448163670381, 0.12012477079658279], [0.032466152576520524, -0.5972255451701077], [-0.23919584863641113, 0.08608793245476964], [-0.47200119238808025, 0.0954903740238181], [-0.4302120281481333, -0.11242241900310274], [0.15537934581293245, 0.45072594059483806], [0.5443767978973041, -0.05567718645223621], [-0.03321722327195231, 0.3467459003156258], [-0.15460729243775473, -0.24308293120833108], [0.2730425728154088, -0.239560759115947], [-0.2675648080312651, 0.33661885752811804], [0.05819365935847198, -0.06319881176664721], [-0.1546864400128497, -0.5395966180218953], [0.5637375195653448, 0.17738773725433724], [-0.49058513891070504, -0.30841669787213005], [0.22360164131493254, -0.5446877772140508], [-0.003821405992095017, -0.39054185155384746], [0.15059637899545142, 0.1606210506970328], [-0.15476957952965942, 0.5723399008502703], [0.30922574392625, 0.3181384373303545]]",density,black,,,N008,visual,1,[],"['1', '2', '3', '4']",1,2023.2.3,harveyvisual,2.1,[],8,0.75,
0,pause,0.4,None,None,None,0,119,119,119,,,,,,,,,,,,,N008,visual,1,[],"['1', '2', '3', '4']",1,2023.2.3,harveyvisual,2.1,[],8,0.75,
20,dot,0.3,['dot'],['density'],black,0,120,120,120,,,44.40020704269409,44.11566996574402,44.4156699180603,dot,"[0.06, 0.06, 0.1, 0.1, 0.08, 0.1, 0.08, 0.1, 0.06, 0.08, 0.1, 0.1, 0.1, 0.06, 0.1, 0.08, 0.06, 0.06, 0.08, 0.08]","[[-0.10399857092622555, -0.3417139549099264], [0.4724391976946961, -0.18729095669330378], [-0.25398034507886497, -0.06087350412638809], [0.04927059865724559, 0.06284444799871369], [0.1093655415661432, 0.5355303077597934], [-0.5226548882209018, 0.03775450935502267], [0.3577849189945813, 0.24863152775276426], [-0.41099220071578413, 0.36274764294794687], [0.2611057514700812, -0.33469694521438587], [-0.298083095866798, -0.4726463591697657], [-0.06475010082753907, 0.34115404952824946], [0.4792554307999949, 0.07475068248708594], [0.4478575939751367, -0.40453433901569286], [0.04743012875031061, -0.15469708336790022], [-0.08040067127322348, 0.5723159630788467], [-0.48797202660364164, -0.34897141557382844], [0.1378517749259507, 0.2917512846787994], [-0.15666566040637198, 0.11014322672954857], [-0.2648698613928473, 0.5208690700885745], [0.19434794567013902, -0.5684829240012022]]",density,black,,,N008,visual,1,[],"['1', '2', '3', '4']",1,2023.2.3,harveyvisual,2.1,[],8,0.75,
0,pause,0.4,None,None,None,0,121,121,121,,,,,,,,,,,,,N008,visual,1,[],"['1', '2', '3', '4']",1,2023.2.3,harveyvisual,2.1,[],8,0.75,
20,dot,0.3,['dot'],['density'],white,0,122,122,122,,,45.100215911865234,44.81566286087036,45.1156439781189,dot,"[0.08, 0.08, 0.1, 0.08, 0.06, 0.08, 0.08, 0.08, 0.08, 0.08, 0.06, 0.1, 0.06, 0.06, 0.1, 0.1, 0.06, 0.1, 0.08, 0.1]","[[0.101495485283419, -0.2681441890454195], [-0.5229838024109585, 0.26727126734698964], [-0.2833387107645407, 0.2716530861542723], [-0.598704251332605, -0.02310883120054824], [0.28219883043214644, 0.04465718986808043], [0.5670996041198776, 0.18343543139552942], [0.30656334937465124, -0.22561051773278723], [-0.33540704207914324, 0.46486330594326974], [-0.5261908218883214, -0.21568367840099945], [-0.33306025598257905, -0.15962891698891052], [-0.0419658835404646, -0.1087757206703282], [0.4859549372890607, 0.0006572049138354186], [0.2159715468057748, 0.36355431787745685], [-0.07680327387203567, 0.14685593855451662], [-0.2987042152015194, -0.3880725346276034], [0.3882957909554088, -0.4457129885507909], [-0.009998560152784552, -0.4856791095430679], [0.038226909658436226, 0.5951291478519078], [0.5004770575031438, -0.21019850735080114], [-0.29619923081933813, 0.05954691721569161]]",density,white,,,N008,visual,1,[],"['1', '2', '3', '4']",1,2023.2.3,harveyvisual,2.1,[],8,0.75,
0,pause,0.4,None,None,None,0,123,123,123,,,,,,,,,,,1,44.80413794517517,N008,visual,1,[],"['1', '2', '3', '4']",1,2023.2.3,harveyvisual,2.1,[],8,0.75,
20,dot,0.3,['dot'],['density'],black,0,124,124,124,,,45.80021786689758,45.516777992248535,45.8167679309845,dot,"[0.06, 0.06, 0.08, 0.06, 0.06, 0.08, 0.1, 0.08, 0.1, 0.08, 0.08, 0.1, 0.06, 0.1, 0.08, 0.06, 0.08, 0.06, 0.08, 0.08]","[[-0.5359807111056136, -0.2452568127886557], [0.10028514408625522, -0.014675765815176045], [-0.043977525300124554, 0.16321042376976969], [0.21868385264278034, 0.5115361635167042], [0.5270461190997441, 0.016305953207743473], [-0.29265851685929, -0.0033077716889777786], [0.47011187155906276, 0.23353865706343507], [-0.14568404368360688, -0.44507180707674004], [0.1238720420180145, -0.4750830236966547], [-0.353373936596082, -0.43200611037763487], [-0.45147110140399693, 0.10536421536468699], [0.07890278524403027, -0.28285111579784905], [-0.15445558578815094, 0.46736906131959943], [0.4614190549477265, -0.28596835337756454], [0.2743363996929059, -0.3361021634970368], [-0.1519350774864226, -0.15563024682580334], [0.009226112455329005, 0.5758134166676444], [0.31198109626671544, -0.08580859711763278], [0.2576263113836923, 0.31294995500398926], [-0.3269829552894135, 0.2805817499973636]]",density,black,,,N008,visual,1,[],"['1', '2', '3', '4']",1,2023.2.3,harveyvisual,2.1,[],8,0.75,
0,pause,0.4,None,None,None,0,125,125,125,,,,,,,,,,,,,N008,visual,1,[],"['1', '2', '3', '4']",1,2023.2.3,harveyvisual,2.1,[],8,0.75,
20,dot,0.3,['dot'],['density'],black,0,126,126,126,,,46.500197887420654,46.215641021728516,46.51563096046448,dot,"[0.1, 0.06, 0.1, 0.06, 0.08, 0.08, 0.06, 0.1, 0.08, 0.08, 0.06, 0.08, 0.06, 0.08, 0.08, 0.1, 0.08, 0.08, 0.08, 0.1]","[[-0.1878959782821224, 0.5329124503600898], [0.11931325510639323, 0.37807703358948064], [-0.192049633013, -0.2753650810664308], [0.2937917785217793, -0.2852192930286485], [-0.38476403750074906, 0.36744605351635645], [0.06014249515473291, 0.1850279467400514], [-0.5622169063486696, -0.0700688551250701], [-0.363647416548629, 0.009022134779714697], [-0.0049177917432238205, -0.20771901512308094], [0.37535281302395085, -0.07402196554048684], [-0.15529073058484122, 0.16573567680928836], [0.4603417985312718, 0.38190331486620877], [0.5680371208641474, 0.08635817987752831], [-0.48920397547080086, 0.17931568513089646], [-0.1701082012387467, -0.5213376319650567], [0.5720164990574242, -0.10602573114220691], [0.2007371466034097, -0.486616383682326], [-0.427380359284868, -0.4060912450049879], [-0.04701763250070923, -0.010797867637170944], [0.2686715895828997, 0.20896078273877539]]",density,black,,,N008,visual,1,[],"['1', '2', '3', '4']",1,2023.2.3,harveyvisual,2.1,[],8,0.75,
0,pause,0.4,None,None,None,0,127,127,127,,,,,,,,,,,,,N008,visual,1,[],"['1', '2', '3', '4']",1,2023.2.3,harveyvisual,2.1,[],8,0.75,
20,dot,0.3,['dot'],['density'],black,0,128,128,128,,,47.200209856033325,46.91564202308655,47.21563792228699,dot,"[0.1, 0.06, 0.08, 0.1, 0.08, 0.1, 0.08, 0.1, 0.06, 0.1, 0.08, 0.1, 0.06, 0.06, 0.08, 0.08, 0.08, 0.06, 0.08, 0.08]","[[-0.03291908854923886, -0.30543450388072685], [-0.36191568245591654, 0.4049243260417664], [0.02797136546483514, 0.4155581327174622], [-0.025592120310770294, 0.22520370432514614], [0.5544543905707183, 0.21263954098189605], [0.1284699748930367, -0.06755005830299643], [0.5374189910864494, -0.09164438258084182], [-0.4640902197583423, 0.19193331453975926], [0.41598249800960996, -0.29567534554016406], [-0.4517675421978206, -0.09538283281267151], [-0.23851461372459615, -0.06956724724386454], [-0.2795279211260942, -0.2613602127974145], [0.432570566062766, 0.35808597180873425], [-0.08445623484901821, -0.5962962600018655], [0.3236157680300762, -0.08455371822869412], [-0.48095470807661356, -0.33951290886969543], [0.17323671252360517, 0.2593452196216579], [0.19074646506505533, -0.4447273510358445], [-0.5954638981586521, 0.03635191392465831], [-0.12643299721543821, 0.5431965282360108]]",density,black,,,N008,visual,1,[],"['1', '2', '3', '4']",1,2023.2.3,harveyvisual,2.1,[],8,0.75,
0,pause,0.4,None,None,None,0,129,129,129,,,,,,,,,,,,,N008,visual,1,[],"['1', '2', '3', '4']",1,2023.2.3,harveyvisual,2.1,[],8,0.75,
20,dot,0.3,['dot'],['density'],black,0,130,130,130,,,47.90020799636841,47.61561703681946,47.9156060218811,dot,"[0.06, 0.08, 0.08, 0.1, 0.08, 0.06, 0.1, 0.06, 0.08, 0.06, 0.08, 0.08, 0.08, 0.08, 0.1, 0.1, 0.08, 0.1, 0.1, 0.08]","[[0.15290315457673676, -0.12620247156410336], [-0.2655040534652277, 0.014279626025181846], [-0.34344002706613114, -0.30030287149683255], [-0.5199938502631309, -0.08966875090450382], [-0.17225279104361707, 0.261686661656112], [0.37939232917497356, -0.22732958697822941], [0.17184853598118732, 0.3101686944200833], [0.3084586182005601, -0.0038615537905200004], [0.5763229409677301, -0.1339293599683053], [-0.13885689203401225, -0.45646219611529143], [-0.3733638874925065, 0.46560692927295866], [0.02697152046188489, -0.3567057905251816], [-0.5510334053461775, 0.13603521350731285], [-0.07131752471886255, 0.5292538719231082], [0.4002107375250329, 0.448260784535758], [0.24428175455242984, -0.4243832335081627], [0.1343876371852275, 0.5660224315454236], [0.5842086222712127, 0.14648480701862557], [0.06212617819911348, 0.04634996490996868], [0.08741173036362948, -0.5497693373722711]]",density,black,,,N008,visual,1,[],"['1', '2', '3', '4']",1,2023.2.3,harveyvisual,2.1,[],8,0.75,
0,pause,0.4,None,None,None,0,131,131,131,,,,,,,,,,,,,N008,visual,1,[],"['1', '2', '3', '4']",1,2023.2.3,harveyvisual,2.1,[],8,0.75,
20,dot,0.3,['dot'],['density'],black,0,132,132,132,,,48.60021185874939,48.315733909606934,48.6174418926239,dot,"[0.08, 0.08, 0.1, 0.1, 0.06, 0.1, 0.06, 0.1, 0.06, 0.1, 0.1, 0.08, 0.1, 0.1, 0.1, 0.06, 0.08, 0.1, 0.06, 0.1]","[[0.40388121159992163, -0.05559714791552012], [-0.18050958265641953, -0.34191743850996426], [0.2392645834205932, 0.3508834846037797], [-0.3040603877379918, -0.11942785267935224], [-0.05102929709941806, 0.5201839023164382], [-0.31828633859358935, 0.07315193178213886], [0.35707727272764067, -0.2686607718067277], [-0.4737386616092446, -0.2961429805209399], [-0.20897288291386046, 0.32832829481946313], [-0.5850311257734503, 0.15496791116870087], [-0.06598334560732066, 0.1482460238802249], [-0.40027908978930304, 0.33319964130048174], [0.07435805158145348, -0.48007286303093827], [-0.3530422726791867, -0.48318078533502024], [0.008394996886203043, -0.1346734818371617], [0.557253486292102, -0.19202162905637213], [0.2599758187666744, 0.12489853238202497], [0.5977803600152226, 0.049793959435526405], [0.46086637220915916, 0.2273457280013645], [-0.5250987155478976, -0.07198251871360284]]",density,black,,,N008,visual,1,[],"['1', '2', '3', '4']",1,2023.2.3,harveyvisual,2.1,[],8,0.75,
0,pause,0.4,None,None,None,0,133,133,133,,,,,,,,,,,,,N008,visual,1,[],"['1', '2', '3', '4']",1,2023.2.3,harveyvisual,2.1,[],8,0.75,
20,dot,0.3,['dot'],['density'],black,0,134,134,134,,,49.30020999908447,49.015599966049194,49.315579891204834,dot,"[0.06, 0.06, 0.1, 0.08, 0.06, 0.06, 0.06, 0.1, 0.06, 0.06, 0.06, 0.06, 0.06, 0.08, 0.06, 0.1, 0.08, 0.1, 0.06, 0.1]","[[-0.5224873232263054, -0.23417949455444004], [0.1731829950645294, 0.5743618076997877], [-0.45458929805289006, 0.3771080612902382], [0.21666514334185027, 0.17148060743458693], [0.48182833428397454, 0.006746352686225865], [0.5204633805292397, 0.21379341118224532], [0.4049610368885693, -0.24268448778817744], [-0.23469039151001098, -0.4956533627249834], [0.02339627644792719, -0.277770148647197], [-0.17057547422235075, 0.4302947666604583], [-0.5849458807323407, 0.018219634526840472], [-0.09679565188013983, -0.09368670204127827], [-0.32104623907955854, -0.07380477143579561], [0.07006419626596705, -0.5319409730812094], [0.17560236201973056, -0.02463846653321422], [-0.20454163786660484, 0.11438092269595668], [-0.4011130066082635, 0.12895581232617115], [0.11495052512631887, 0.3396497099865994], [0.27990765153957187, -0.47418361356377964], [0.02950141885101787, 0.09793645445588972]]",density,black,,,N008,visual,1,[],"['1', '2', '3', '4']",1,2023.2.3,harveyvisual,2.1,[],8,0.75,
0,pause,0.4,None,None,None,0,135,135,135,,,,,,,,,,,,,N008,visual,1,[],"['1', '2', '3', '4']",1,2023.2.3,harveyvisual,2.1,[],8,0.75,
20,dot,0.3,['dot'],['density'],black,0,136,136,136,,,50.000202894210815,49.71561002731323,50.01556396484375,dot,"[0.06, 0.1, 0.08, 0.06, 0.08, 0.08, 0.06, 0.1, 0.08, 0.06, 0.06, 0.08, 0.1, 0.1, 0.1, 0.06, 0.08, 0.06, 0.1, 0.06]","[[0.11316809623191881, 0.4677517234791878], [0.5993031945181228, 0.03252814603473779], [0.11509717258540408, 0.16910135230243784], [-0.05415228565521524, -0.5499748982545852], [-0.2709549358256391, 0.23732773619900194], [-0.16164932503210971, 0.5439769784835773], [-0.30467611169013176, -0.012938400931568728], [0.4830189898545526, -0.30018201020791657], [0.23949065583901508, -0.5018714456176013], [-0.5371170703357472, 0.14434399328579173], [0.44239071344814007, 0.26348534650567085], [-0.3619326965071954, -0.23140159052016368], [0.2551681284646802, -0.24564681090960416], [-0.5572276663233994, -0.1085895953503378], [0.3224925231045208, 0.4432189767318252], [-0.12357707707498522, -0.2668204403767716], [0.3391233201929229, 0.03694483777303004], [-0.08967161771848475, 0.1299688912478726], [-0.3463718371583154, -0.4868172673871338], [0.03842683019986182, -0.12842137872752724]]",density,black,,,N008,visual,1,[],"['1', '2', '3', '4']",1,2023.2.3,harveyvisual,2.1,[],8,0.75,
0,pause,0.4,None,None,None,0,137,137,137,,,,,,,,,,,,,N008,visual,1,[],"['1', '2', '3', '4']",1,2023.2.3,harveyvisual,2.1,[],8,0.75,
20,dot,0.3,['dot'],['density'],white,0,138,138,138,,,50.70021295547485,50.41554498672485,50.71553993225098,dot,"[0.08, 0.08, 0.1, 0.08, 0.1, 0.06, 0.06, 0.06, 0.08, 0.1, 0.08, 0.08, 0.08, 0.08, 0.08, 0.08, 0.08, 0.08, 0.08, 0.1]","[[0.3860581043702901, -0.0011994313607597284], [-0.04339951221940419, -0.5332053878644791], [-0.35405566257387455, 0.3656752011241675], [-0.012962232645393867, -0.09296970319145559], [-0.3516086906442048, -0.2290078415208308], [-0.5438444378292897, 0.15802873511041915], [-0.057544937285938236, 0.2737920876794707], [0.6034133541406571, -0.0010186073284250072], [0.37839138529904937, -0.32931179308681147], [0.046784824212314224, -0.2948459562303268], [0.19359454570707213, 0.2405266044589408], [-0.5436973591061082, -0.24771819804952042], [-0.2178984869644342, 0.11530647201111421], [0.5526034456458507, -0.24589678124851302], [-0.09902171677691551, 0.5799329336314804], [0.3027468646645657, 0.4181197024463501], [0.24435608462154068, -0.18572728191888743], [0.2599918578050996, -0.5342457772463992], [0.4072850790403598, 0.23299324539624044], [-0.2678041883700773, -0.4732352875764334]]",density,white,,,N008,visual,1,[],"['1', '2', '3', '4']",1,2023.2.3,harveyvisual,2.1,[],8,0.75,
0,pause,0.4,None,None,None,0,139,139,139,,,,,,,,,,,1,50.370808124542236,N008,visual,1,[],"['1', '2', '3', '4']",1,2023.2.3,harveyvisual,2.1,[],8,0.75,
20,dot,0.3,['dot'],['density'],black,0,140,140,140,,,51.400221824645996,51.133240938186646,51.416630029678345,dot,"[0.1, 0.1, 0.1, 0.06, 0.1, 0.1, 0.08, 0.1, 0.1, 0.1, 0.1, 0.06, 0.08, 0.08, 0.08, 0.1, 0.08, 0.08, 0.06, 0.06]","[[-0.42238274762303474, -0.03217034880896541], [-0.45433719068192574, 0.293886002288006], [-0.22180160058551907, -0.21892872803727714], [0.4094324937154846, 0.04268057340316511], [0.28978738090134837, -0.5069151703139176], [-0.15876097888479285, 0.2187423389524915], [0.11499210938829763, -0.010350567420693846], [0.21479165015069057, -0.18317518328163707], [-0.01390503720954972, 0.34696189633234453], [0.519026984808887, -0.22064435748039915], [0.2476613298431174, 0.18926906751861172], [0.14373331709975135, 0.5044206470555611], [0.4828447097030607, 0.32999648067270304], [-0.3532921960999011, 0.4572949942431381], [-0.21495040925459852, -0.4298142520508833], [-0.42061653583816216, -0.3297378640492891], [-0.5959938114927996, 0.06952945071183139], [0.012034683853561878, -0.3885593575742355], [-0.088673165883428, 0.03932933629354929], [-0.1675745310272007, 0.5103646845298879]]",density,black,,,N008,visual,1,[],"['1', '2', '3', '4']",1,2023.2.3,harveyvisual,2.1,[],8,0.75,
0,pause,0.4,None,None,None,0,141,141,141,,,,,,,,,,,,,N008,visual,1,[],"['1', '2', '3', '4']",1,2023.2.3,harveyvisual,2.1,[],8,0.75,
20,dot,0.3,['dot'],['density'],black,0,142,142,142,,,52.10021495819092,51.81564998626709,52.11549186706543,dot,"[0.06, 0.06, 0.1, 0.08, 0.06, 0.08, 0.1, 0.06, 0.08, 0.1, 0.1, 0.1, 0.1, 0.08, 0.1, 0.1, 0.1, 0.06, 0.1, 0.1]","[[0.2821199014765774, -0.08403175286118186], [0.5674857559599401, 0.15718937942408365], [-0.5869948381843025, -0.09818567965110327], [-0.07135904001626203, 0.2519831002277554], [0.19342988975554476, 0.27251203296176973], [0.30853174936239713, -0.43882347263783217], [-0.269705286280102, 0.4868054899803056], [0.5416756889897677, -0.10527903151475324], [-0.42839289384527146, -0.4115266451026527], [-0.3665998753115417, 0.1998943593578078], [-0.1738422679709511, -0.16125684744400626], [-0.5768409939520115, 0.15432953065383764], [0.15322480146128792, -0.2857200046616913], [-0.10545438026494602, 0.03637056101048963], [0.08977417032225044, 0.06080743522820642], [0.08249489486077655, 0.5826494627418635], [0.4322360293227764, 0.4147382943202135], [-0.3731605249202752, -0.005851510805531368], [-0.07522742077025846, -0.4828188764968575], [0.35251285166669244, 0.11077555848256043]]",density,black,,,N008,visual,1,[],"['1', '2', '3', '4']",1,2023.2.3,harveyvisual,2.1,[],8,0.75,
0,pause,0.4,None,None,None,0,143,143,143,,,,,,,,,,,,,N008,visual,1,[],"['1', '2', '3', '4']",1,2023.2.3,harveyvisual,2.1,[],8,0.75,
20,dot,0.3,['dot'],['density'],black,0,144,144,144,,,52.80021286010742,52.517565965652466,52.815507888793945,dot,"[0.08, 0.1, 0.06, 0.1, 0.06, 0.06, 0.06, 0.1, 0.1, 0.06, 0.06, 0.1, 0.1, 0.08, 0.1, 0.06, 0.08, 0.1, 0.08, 0.1]","[[0.34824193286748184, 0.21020733975214023], [0.2113917322870359, 0.36011853615746625], [-0.26407485080924836, -0.16249263818035947], [0.38027448658664376, -0.010586863087917953], [0.06768768416075621, -0.5863217750389464], [-0.4821437264151969, 0.1516978448712492], [0.0028133904113445407, -0.3283815298082994], [-0.20506792390380424, 0.167377277126731], [-0.10378008427918517, -0.0032250453676849755], [-0.3687063484072683, 0.3345063728372328], [-0.46987454005241125, -0.040366219499548994], [0.3206987120126936, -0.2649371040896369], [-0.17848054595245744, -0.5692766695159109], [-0.09910343747643768, 0.3590280128304183], [-0.3472444161844342, -0.4000412029309905], [0.6046974498893786, 0.00737019060837666], [0.17645032116899606, 0.5586611386247078], [-0.5474038655838352, -0.23485258771700546], [0.19076319889564175, -0.015692225979170082], [0.5028885413866787, 0.32336480872789114]]",density,black,,,N008,visual,1,[],"['1', '2', '3', '4']",1,2023.2.3,harveyvisual,2.1,[],8,0.75,
0,pause,0.4,None,None,None,0,145,145,145,,,,,,,,,,,,,N008,visual,1,[],"['1', '2', '3', '4']",1,2023.2.3,harveyvisual,2.1,[],8,0.75,
20,dot,0.3,['dot'],['density'],black,0,146,146,146,,,53.50022482872009,53.215476989746094,53.51546788215637,dot,"[0.1, 0.06, 0.1, 0.08, 0.1, 0.06, 0.1, 0.06, 0.06, 0.08, 0.1, 0.08, 0.06, 0.08, 0.08, 0.1, 0.06, 0.1, 0.1, 0.08]","[[0.03569367429263981, -0.14851550082650056], [0.49881971424493543, -0.04160305155722843], [-0.2761573556101813, 0.3328637885653517], [0.07487278770201711, 0.44836697175707974], [-0.2999487803839217, -0.3588049233472014], [-0.1441811826599103, 0.4830799438643043], [0.2803114628901151, 0.27385681991403965], [0.06492522374503618, -0.6013080895559029], [0.41516840214031936, -0.3039566191140776], [-0.5889585359799976, 0.01313790288142122], [-0.4872409840628993, -0.27778086109886996], [-0.08838986298056883, 0.12287663180022612], [0.3014534510907081, 0.46575415092155026], [0.24469228237313534, -0.14098997496755883], [0.571632721160979, 0.14009636958210128], [0.10548033780635391, 0.09265521419311196], [-0.43627502032409926, 0.1716528359554919], [0.02398325890110653, -0.38801670365257945], [-0.1945500533238505, -0.15040174625098518], [0.29033240453828335, -0.4592876218406309]]",density,black,,,N008,visual,1,[],"['1', '2', '3', '4']",1,2023.2.3,harveyvisual,2.1,[],8,0.75,
0,pause,0.4,None,None,None,0,147,147,147,,,,,,,,,,,,,N008,visual,1,[],"['1', '2', '3', '4']",1,2023.2.3,harveyvisual,2.1,[],8,0.75,
20,dot,0.3,['dot'],['density'],white,0,148,148,148,,,54.200225830078125,53.91560983657837,54.21543097496033,dot,"[0.08, 0.1, 0.06, 0.1, 0.1, 0.06, 0.1, 0.1, 0.06, 0.1, 0.08, 0.08, 0.08, 0.06, 0.08, 0.08, 0.06, 0.1, 0.06, 0.06]","[[-0.17588976407098433, 0.030924549491765596], [0.05755537206477446, -0.029849321483244373], [-0.23831436574368164, -0.33700086058913226], [-0.5243808846966387, -0.1424720015443478], [-0.10855930769646677, 0.5244753300176814], [0.3083450109435263, -0.42186480126601], [-0.5957857643913124, 0.04953759650924444], [0.2757067999167915, 0.37268252418053016], [-0.47816053081084975, 0.2662683465178289], [0.5700275667336937, -0.1776995038232785], [-0.22797648272593812, 0.22811063463212544], [0.1198849035271029, 0.15591699141941606], [0.24064184522190557, -0.12619898044029104], [0.4064615156126551, 0.12439075024185181], [-0.04425039037141498, -0.21327540220959912], [-0.47087905020320336, -0.33897822035994873], [-0.130601685109201, -0.5339926201765698], [0.09049036371226937, 0.49042805124226807], [0.10366198575484975, -0.43501788128030144], [-0.3712679857951747, 0.44072249453354845]]",density,white,,,N008,visual,1,[],"['1', '2', '3', '4']",1,2023.2.3,harveyvisual,2.1,[],8,0.75,
0,pause,0.4,None,None,None,0,149,149,149,,,,,,,,,,,1,53.99025011062622,N008,visual,1,[],"['1', '2', '3', '4']",1,2023.2.3,harveyvisual,2.1,[],8,0.75,
20,dot,0.3,['dot'],['density'],black,0,150,150,150,,,54.900208950042725,54.6165509223938,54.91539287567139,dot,"[0.06, 0.08, 0.08, 0.08, 0.06, 0.1, 0.1, 0.06, 0.06, 0.06, 0.08, 0.06, 0.06, 0.08, 0.1, 0.06, 0.08, 0.06, 0.08, 0.06]","[[-0.01955191979221127, 0.2384633944118164], [-0.3470433086556337, 0.37634460924257135], [-0.5201971408431734, 0.21759149764507296], [0.5969396726968564, -0.02098525315127224], [0.3664652722324997, -0.10470993481231416], [0.5631804934187025, 0.2049967285238522], [-0.5830875998304157, -0.10810917272321047], [-0.08934482101750474, -0.18586927284480087], [-0.12201071443905309, -0.5041873833523789], [0.06757534974571311, 0.06870709788700424], [0.09592609953874343, -0.28666905378384244], [-0.41109451879946646, -0.3012323211443542], [-0.1979193868623676, 0.5606673906331496], [-0.34548785527648057, 0.0772689191296469], [0.2551431017309541, 0.4220748135737761], [0.24809261389465653, -0.4572542452491689], [0.3249109227742334, 0.1795356698765873], [0.48182848789429233, -0.33238152645047847], [-0.16025344997582036, 0.03207550843199147], [0.08617224363550668, 0.5901739486538062]]",density,black,,,N008,visual,1,[],"['1', '2', '3', '4']",1,2023.2.3,harveyvisual,2.1,[],8,0.75,
0,pause,0.4,None,None,None,0,151,151,151,,,,,,,,,,,,,N008,visual,1,[],"['1', '2', '3', '4']",1,2023.2.3,harveyvisual,2.1,[],8,0.75,
20,dot,0.3,['dot'],['density'],black,0,152,152,152,,,55.600204944610596,55.315824031829834,55.615402936935425,dot,"[0.08, 0.08, 0.1, 0.08, 0.06, 0.06, 0.1, 0.08, 0.06, 0.1, 0.06, 0.06, 0.1, 0.06, 0.08, 0.08, 0.06, 0.08, 0.08, 0.08]","[[-0.18073122461599855, -0.5731855165237236], [-0.14379447130929152, 0.27183733388874554], [-0.3893203672092048, 0.3968564058656059], [-0.4714178015415421, -0.33016849362409373], [-0.17242879827501106, -0.03031389117718375], [0.04274824963367452, 0.21417716199450165], [0.32907542432632386, 0.24031349981359773], [-0.5465751836908824, 0.11359798925453285], [0.558759410400936, 0.09214144417725101], [0.3138521989056011, -0.44108638362138136], [0.030213075172634718, -0.5457281981822281], [0.0256301551317073, -0.22035852407201706], [0.3112419522366111, -0.1498659199233187], [0.5890231579882145, -0.11990037336552864], [0.1269363551527738, 0.028455280149099815], [-0.19673461658886632, -0.33012642549840776], [0.20270688979561013, 0.4298881058697678], [0.015935258642329142, 0.4618820427970636], [-0.40999945119625003, -0.145672072361539], [-0.3592074197951407, 0.17458469573048357]]",density,black,,,N008,visual,1,[],"['1', '2', '3', '4']",1,2023.2.3,harveyvisual,2.1,[],8,0.75,
0,pause,0.4,None,None,None,0,153,153,153,,,,,,,,,,,,,N008,visual,1,[],"['1', '2', '3', '4']",1,2023.2.3,harveyvisual,2.1,[],8,0.75,
20,dot,0.3,['dot'],['density'],black,0,154,154,154,,,56.300209045410156,56.01568603515625,56.315423011779785,dot,"[0.06, 0.06, 0.08, 0.08, 0.08, 0.06, 0.1, 0.06, 0.08, 0.1, 0.08, 0.1, 0.1, 0.08, 0.06, 0.1, 0.08, 0.06, 0.06, 0.06]","[[0.3304757144052449, -0.3955993843352027], [-0.5159037937402122, -0.2540601104705306], [-0.09480855647128494, -0.26978509282126995], [0.5907764110468398, -0.114558010126323], [0.13840410684078008, 0.3214019936034228], [0.1987122190608559, 0.11918210488251202], [0.39677182240396724, 0.0605166042961775], [-0.30132019497597406, 0.2059673983367485], [0.04450327641362917, -0.49171409613955974], [0.17507207597630292, -0.15028589193615893], [-0.014880072412049472, 0.14724596585346317], [-0.49685575485319006, 0.12956752673466226], [0.24915500885939446, 0.5314161825755567], [-0.1575531993067379, 0.53690978448117], [-0.12273560141115974, -0.07602040400714893], [0.35736586838419315, 0.25565765737201657], [-0.5984117550483458, -0.05853726971580346], [-0.18967812196317985, -0.5629657344454346], [-0.3244014523920131, -0.2811330745515686], [-0.36177943412756375, -0.07994755264908815]]",density,black,,,N008,visual,1,[],"['1', '2', '3', '4']",1,2023.2.3,harveyvisual,2.1,[],8,0.75,
0,pause,0.4,None,None,None,0,155,155,155,,,,,,,,,,,,,N008,visual,1,[],"['1', '2', '3', '4']",1,2023.2.3,harveyvisual,2.1,[],8,0.75,
9,dot,0.3,['dot'],['density'],black,0,156,156,156,,,57.00022602081299,56.715412855148315,57.01541185379028,dot,"[0.08, 0.1, 0.06, 0.06, 0.08, 0.06, 0.06, 0.06, 0.1]","[[0.5176022259896301, 0.07013652950073157], [0.29073914382076843, 0.49095716113391286], [0.25755010907869064, 0.10321661572421419], [0.11549350267606502, 0.37871636325142816], [-0.040248060121338324, 0.07603447111469516], [0.35733910828644905, -0.07238149579930037], [0.09184169877402729, -0.10424630849328012], [-0.10934901156313583, -0.14911132891814113], [0.4158094160330474, 0.26019999263529187]]",density,black,,,N008,visual,1,[],"['1', '2', '3', '4']",1,2023.2.3,harveyvisual,2.1,[],8,0.75,
0,pause,0.4,None,None,None,0,157,157,157,,,,,,,,,,,,,N008,visual,1,[],"['1', '2', '3', '4']",1,2023.2.3,harveyvisual,2.1,[],8,0.75,
9,dot,0.3,['dot'],['density'],black,0,158,158,158,,,57.70021295547485,57.41541004180908,57.71539902687073,dot,"[0.06, 0.1, 0.1, 0.08, 0.1, 0.1, 0.08, 0.08, 0.1]","[[0.26246064217380705, -0.20881461689055444], [-0.05738061480455322, -0.2104867327221427], [-0.15279665209492657, -0.4570696492981838], [-0.25848085101471047, 0.03539482855188907], [0.05438928923437074, -0.041842351158073866], [-0.266438460152573, -0.22510974363943476], [-0.08630847597628627, 0.16925380219028288], [0.1378984379274782, 0.16880467564350782], [0.14927440204233722, -0.41110624343475755]]",density,black,,,N008,visual,1,[],"['1', '2', '3', '4']",1,2023.2.3,harveyvisual,2.1,[],8,0.75,
0,pause,0.4,None,None,None,0,159,159,159,,,,,,,,,,,,,N008,visual,1,[],"['1', '2', '3', '4']",1,2023.2.3,harveyvisual,2.1,[],8,0.75,
9,dot,0.3,['dot'],['density'],black,0,160,160,160,,,58.400221824645996,58.11540484428406,58.41534399986267,dot,"[0.1, 0.1, 0.06, 0.08, 0.08, 0.06, 0.06, 0.1, 0.08]","[[-0.4219467838066047, -0.18114019941065054], [-0.2081543488995217, -0.4860059455967178], [-0.008274735502094755, -0.3457533902190916], [0.02376323820852766, -0.0891001390581758], [-0.4116277839025775, 0.058108040724694845], [-0.18144554169200455, -0.05292133149533743], [0.21944315682242976, -0.26450239569476724], [0.11466821484809545, 0.13327019789913197], [-0.2288148866166432, -0.2599929378926301]]",density,black,,,N008,visual,1,[],"['1', '2', '3', '4']",1,2023.2.3,harveyvisual,2.1,[],8,0.75,
0,pause,0.4,None,None,None,0,161,161,161,,,,,,,,,,,,,N008,visual,1,[],"['1', '2', '3', '4']",1,2023.2.3,harveyvisual,2.1,[],8,0.75,
9,dot,0.3,['dot'],['density'],black,0,162,162,162,,,59.10020589828491,58.81536602973938,59.11530303955078,dot,"[0.1, 0.06, 0.06, 0.08, 0.08, 0.06, 0.08, 0.08, 0.06]","[[-0.01550530976013749, -0.4685693709261764], [-0.18673980358629047, -0.03677939788938074], [-0.492500386343057, -0.31631588298646995], [-0.31211872613566405, -0.49615226168915794], [-0.29213402726227655, -0.2779210730957987], [-0.48141959868665407, -0.11483975315711048], [0.2805727548720413, -0.20550850813502752], [-0.0662162642732561, -0.2200496541038322], [0.06776853683421198, -0.046300179137656175]]",density,black,,,N008,visual,1,[],"['1', '2', '3', '4']",1,2023.2.3,harveyvisual,2.1,[],8,0.75,
0,pause,0.4,None,None,None,0,163,163,163,,,,,,,,,,,,,N008,visual,1,[],"['1', '2', '3', '4']",1,2023.2.3,harveyvisual,2.1,[],8,0.75,
9,dot,0.3,['dot'],['density'],black,0,164,164,164,,,59.80021786689758,59.51528787612915,59.81527090072632,dot,"[0.08, 0.1, 0.1, 0.06, 0.06, 0.08, 0.1, 0.08, 0.06]","[[0.17250841666444466, -0.5173949811024123], [-0.03744062107829021, -0.3895067986023326], [0.30010350549611725, -0.35742528465303014], [0.33064876224298684, -0.08057424749072183], [-0.16743636965090838, -0.09291053242622109], [0.1226827020066543, -0.24711763375004436], [0.047527772487498496, -0.037432207059122605], [0.20928928941955194, 0.09999474740890861], [-0.30040876562534896, -0.42726910911839744]]",density,black,,,N008,visual,1,[],"['1', '2', '3', '4']",1,2023.2.3,harveyvisual,2.1,[],8,0.75,
0,pause,0.4,None,None,None,0,165,165,165,,,,,,,,,,,,,N008,visual,1,[],"['1', '2', '3', '4']",1,2023.2.3,harveyvisual,2.1,[],8,0.75,
9,dot,0.3,['dot'],['density'],black,0,166,166,166,,,60.50022101402283,60.21528196334839,60.515262842178345,dot,"[0.1, 0.06, 0.1, 0.1, 0.08, 0.08, 0.08, 0.06, 0.06]","[[0.27429149071172837, 0.34251676390746333], [0.46797507249945486, 0.005491811463162166], [0.21235580877939833, 0.08757146436558581], [0.046223583492975936, 0.2932249054251131], [0.07051592556679111, -0.0704922843318231], [0.30438918969270623, -0.13028831600800136], [0.11534598117609637, 0.5236829685630697], [-0.06673610159464062, 0.12515255452502297], [-0.14439101605953233, -0.1332028051536465]]",density,black,,,N008,visual,1,[],"['1', '2', '3', '4']",1,2023.2.3,harveyvisual,2.1,[],8,0.75,
0,pause,0.4,None,None,None,0,167,167,167,,,,,,,,,,,,,N008,visual,1,[],"['1', '2', '3', '4']",1,2023.2.3,harveyvisual,2.1,[],8,0.75,
8,dot,0.3,['dot'],['density'],black,0,168,168,168,,,61.200222969055176,60.9152729511261,61.21524095535278,dot,"[0.06, 0.1, 0.08, 0.08, 0.08, 0.06, 0.1, 0.06]","[[-0.3290570048964025, 0.45712517183014534], [-0.12351728740192595, 0.19722326774196852], [-0.44617383739254307, -0.0315435053038489], [0.05824565693526591, 0.08769012542188236], [-0.4904255353169048, 0.31423420558286136], [-0.32491150822629034, 0.16696319418744587], [-0.12614658653380179, 0.4043789036591275], [0.10044097339982726, 0.3130264767685494]]",density,black,,,N008,visual,1,[],"['1', '2', '3', '4']",1,2023.2.3,harveyvisual,2.1,[],8,0.75,
0,pause,0.4,None,None,None,0,169,169,169,,,,,,,,,,,,,N008,visual,1,[],"['1', '2', '3', '4']",1,2023.2.3,harveyvisual,2.1,[],8,0.75,
8,dot,0.3,['dot'],['density'],black,0,170,170,170,,,61.90022397041321,61.61525797843933,61.915225982666016,dot,"[0.08, 0.06, 0.08, 0.06, 0.08, 0.06, 0.06, 0.06]","[[-0.4639556696772753, 0.10472599959088454], [-0.22970357876872852, 0.24758381400794424], [-0.060094057158436125, -0.14613975383200573], [-0.022569829209962654, 0.2677975872319761], [-0.3077859326170116, -0.10488986274105515], [-0.16040535020917, 0.031608708128470005], [-0.5175577931920246, -0.20517812764611504], [0.1194024413118107, 0.007837779916585986]]",density,black,,,N008,visual,1,[],"['1', '2', '3', '4']",1,2023.2.3,harveyvisual,2.1,[],8,0.75,
0,pause,0.4,None,None,None,0,171,171,171,,,,,,,,,,,,,N008,visual,1,[],"['1', '2', '3', '4']",1,2023.2.3,harveyvisual,2.1,[],8,0.75,
8,dot,0.3,['dot'],['density'],white,0,172,172,172,,,62.60022497177124,62.31522083282471,62.61521291732788,dot,"[0.1, 0.1, 0.08, 0.06, 0.08, 0.08, 0.1, 0.08]","[[-0.08486713456805763, -0.4233549652310786], [-0.34121661687321897, 0.009931669871959016], [0.06179899905610707, -0.01287726204627424], [-0.01080387642187049, -0.20774715314808884], [-0.2259787915635077, -0.2257096572683263], [-0.31087639520469923, -0.4457762681120083], [-0.07938707884489006, 0.17996906985975966], [-0.13919465900414296, -0.03133413505419433]]",density,white,,,N008,visual,1,[],"['1', '2', '3', '4']",1,2023.2.3,harveyvisual,2.1,[],8,0.75,
0,pause,0.4,None,None,None,0,173,173,173,,,,,,,,,,,1,62.26928997039795,N008,visual,1,[],"['1', '2', '3', '4']",1,2023.2.3,harveyvisual,2.1,[],8,0.75,
8,dot,0.3,['dot'],['density'],white,0,174,174,174,,,63.30022883415222,63.01518797874451,63.31518197059631,dot,"[0.06, 0.1, 0.1, 0.1, 0.06, 0.1, 0.08, 0.06]","[[0.08034727882022866, 0.21485544138691295], [0.4485208087802622, -0.24912681836757106], [0.26129939989417056, 0.09257513963058502], [0.557413308755299, 0.1511846349250138], [0.2634990941728302, -0.1333032593777782], [0.3632073825345479, 0.269269938976799], [-0.13869722159995554, 0.017464377414806956], [0.4339652718412117, -0.009910074233595774]]",density,white,,,N008,visual,1,[],"['1', '2', '3', '4']",1,2023.2.3,harveyvisual,2.1,[],8,0.75,
0,pause,0.4,None,None,None,0,175,175,175,,,,,,,,,,,1,63.116360902786255,N008,visual,1,[],"['1', '2', '3', '4']",1,2023.2.3,harveyvisual,2.1,[],8,0.75,
8,dot,0.3,['dot'],['density'],white,0,176,176,176,,,64.00022888183594,63.715184926986694,64.01517391204834,dot,"[0.06, 0.08, 0.06, 0.08, 0.06, 0.08, 0.1, 0.08]","[[0.3364035831170529, 0.12390393923093283], [0.4336864367158133, 0.35981147627037974], [0.06743640335689947, 0.0759148581953004], [-0.079559988999742, 0.39531058321326396], [0.21309668101319243, 0.48855257098982907], [0.23478258025928536, -0.08446837776908474], [-0.12854716397353463, 0.17339976512773136], [0.14965136140762586, 0.26897313353206964]]",density,white,,,N008,visual,1,[],"['1', '2', '3', '4']",1,2023.2.3,harveyvisual,2.1,[],8,0.75,
0,pause,0.4,None,None,None,0,177,177,177,,,,,,,,,,,1,63.83444809913635,N008,visual,1,[],"['1', '2', '3', '4']",1,2023.2.3,harveyvisual,2.1,[],8,0.75,
8,dot,0.3,['dot'],['density'],black,0,178,178,178,,,64.70022797584534,64.41516399383545,64.71517086029053,dot,"[0.08, 0.06, 0.06, 0.08, 0.1, 0.06, 0.08, 0.06]","[[-0.17001050475317317, -0.17367687575201368], [0.3600613666554234, 0.010096468830953859], [-0.08326222131596324, 0.04242117989324811], [0.04296950773068638, 0.29875887990525135], [0.04919814700692566, -0.23206276490508926], [0.2733682510361541, 0.19343137942482672], [0.15974695196996483, -0.02827404827190698], [-0.2919014881818027, 0.0006738684867251376]]",density,black,,,N008,visual,1,[],"['1', '2', '3', '4']",1,2023.2.3,harveyvisual,2.1,[],8,0.75,
0,pause,0.4,None,None,None,0,179,179,179,,,,,,,,,,,,,N008,visual,1,[],"['1', '2', '3', '4']",1,2023.2.3,harveyvisual,2.1,[],8,0.75,
7,dot,0.3,['dot'],['density'],black,0,180,180,180,,,65.40022492408752,65.11520099639893,65.41517400741577,dot,"[0.1, 0.06, 0.1, 0.1, 0.1, 0.08, 0.08]","[[-0.39883248072855915, 0.30823732592088265], [-0.041341486549100435, 0.2390478988097413], [-0.013495537319202725, 0.5211111720540192], [-0.2415889716500472, 0.10795059447242317], [-0.023803066389735523, 0.02076064871433158], [0.14387498046506175, 0.3548008600093999], [-0.24331877599120405, 0.46521846842164205]]",density,black,,,N008,visual,1,[],"['1', '2', '3', '4']",1,2023.2.3,harveyvisual,2.1,[],8,0.75,
0,pause,0.4,None,None,None,0,181,181,181,,,,,,,,,,,,,N008,visual,1,[],"['1', '2', '3', '4']",1,2023.2.3,harveyvisual,2.1,[],8,0.75,
7,dot,0.3,['dot'],['density'],black,0,182,182,182,,,66.10022282600403,65.81515884399414,66.11517095565796,dot,"[0.06, 0.06, 0.1, 0.06, 0.06, 0.1, 0.1]","[[0.3899189512010899, -0.40728696153528776], [0.20392863561369634, -0.3305625840210526], [0.31626985815109576, 0.13567824844623666], [0.5017338684339655, -0.028549680114735937], [0.11648855723187378, -0.1078833072829627], [0.07041138378868489, 0.08730219371944997], [0.32910598476010167, -0.13660711058181768]]",density,black,,,N008,visual,1,[],"['1', '2', '3', '4']",1,2023.2.3,harveyvisual,2.1,[],8,0.75,
0,pause,0.4,None,None,None,0,183,183,183,,,,,,,,,,,,,N008,visual,1,[],"['1', '2', '3', '4']",1,2023.2.3,harveyvisual,2.1,[],8,0.75,
7,dot,0.3,['dot'],['density'],white,0,184,184,184,,,66.80020499229431,66.5151150226593,66.8151068687439,dot,"[0.08, 0.1, 0.06, 0.06, 0.1, 0.06, 0.06]","[[-0.3616029487054454, 0.4456424486886853], [-0.1496406170718537, 0.08450683720449656], [-0.4229793897960434, 0.19545916586121675], [-0.050735401720141765, 0.4582308035931027], [-0.23416009772798219, 0.28880413379285297], [0.00916417092529717, 0.20866532064640267], [0.0895043828575618, 0.020292244516940467]]",density,white,,,N008,visual,1,[],"['1', '2', '3', '4']",1,2023.2.3,harveyvisual,2.1,[],8,0.75,
0,pause,0.4,None,None,None,0,185,185,185,,,,,,,,,,,1,66.66183304786682,N008,visual,1,[],"['1', '2', '3', '4']",1,2023.2.3,harveyvisual,2.1,[],8,0.75,
7,dot,0.3,['dot'],['density'],black,0,186,186,186,,,67.50021195411682,67.21510195732117,67.51507782936096,dot,"[0.06, 0.08, 0.1, 0.06, 0.06, 0.1, 0.06]","[[-0.026372969700101213, 0.05085620782211805], [-0.16304282038196347, -0.3616501386780019], [-0.013762327205412121, -0.14910430285435466], [0.14729449770710015, -0.3647544547161306], [-0.22494517313234175, -0.12035103032643314], [-0.36514670174418407, -0.33057163197754225], [0.21417125919861074, -0.06627923590771367]]",density,black,,,N008,visual,1,[],"['1', '2', '3', '4']",1,2023.2.3,harveyvisual,2.1,[],8,0.75,
0,pause,0.4,None,None,None,0,187,187,187,,,,,,,,,,,,,N008,visual,1,[],"['1', '2', '3', '4']",1,2023.2.3,harveyvisual,2.1,[],8,0.75,
7,dot,0.3,['dot'],['density'],black,0,188,188,188,,,68.20020890235901,67.91619801521301,68.21506094932556,dot,"[0.08, 0.06, 0.1, 0.08, 0.1, 0.1, 0.06]","[[0.43636558899465056, -0.019888822856555858], [0.3422654810486562, -0.28596623187093184], [0.19265053263460555, -0.4439876245838232], [0.13726272111749335, -0.2453614523272762], [0.002381890354708078, -0.04768315945896726], [0.5336827108411983, -0.21507725682246784], [0.22437755209563529, -0.002563521851875305]]",density,black,,,N008,visual,1,[],"['1', '2', '3', '4']",1,2023.2.3,harveyvisual,2.1,[],8,0.75,
0,pause,0.4,None,None,None,0,189,189,189,,,,,,,,,,,,,N008,visual,1,[],"['1', '2', '3', '4']",1,2023.2.3,harveyvisual,2.1,[],8,0.75,
7,dot,0.3,['dot'],['density'],black,0,190,190,190,,,68.90021300315857,68.61505794525146,68.91507196426392,dot,"[0.1, 0.06, 0.08, 0.08, 0.1, 0.08, 0.08]","[[-0.0015444251822213466, 0.17452400993182896], [-0.3864233363803332, 0.3856338194384884], [-0.45841970572989144, 0.11901701190004808], [-0.23552014845846486, 0.11986313412455778], [-0.06694767956243396, -0.029831379541550785], [-0.3576154478026905, -0.11072010138878656], [-0.17113735677840214, 0.37123035181888253]]",density,black,,,N008,visual,1,[],"['1', '2', '3', '4']",1,2023.2.3,harveyvisual,2.1,[],8,0.75,
0,pause,0.4,None,None,None,0,191,191,191,,,,,,,,,,,,,N008,visual,1,[],"['1', '2', '3', '4']",1,2023.2.3,harveyvisual,2.1,[],8,0.75,
6,dot,0.3,['dot'],['density'],white,0,192,192,192,,,69.60020899772644,69.31503295898438,69.6150279045105,dot,"[0.08, 0.1, 0.08, 0.06, 0.06, 0.1]","[[-0.2715212558254698, 0.2586056842756752], [-0.41011716394998093, -0.23288273174477314], [-0.4259032553852052, 0.02963770343160952], [-0.037696467485790364, -0.07921729390734374], [-0.19058944014171011, 0.07565381115733183], [-0.22931220879523878, -0.14417898787482208]]",density,white,,,N008,visual,1,[],"['1', '2', '3', '4']",1,2023.2.3,harveyvisual,2.1,[],8,0.75,
0,pause,0.4,None,None,None,0,193,193,193,,,,,,,,,,,1,69.37515997886658,N008,visual,1,[],"['1', '2', '3', '4']",1,2023.2.3,harveyvisual,2.1,[],8,0.75,
6,dot,0.3,['dot'],['density'],black,0,194,194,194,,,70.30021691322327,70.01505088806152,70.31501889228821,dot,"[0.1, 0.06, 0.08, 0.1, 0.1, 0.08]","[[0.23041567882598732, 0.45619944218456715], [0.5278859611842325, 0.18245830030246968], [0.08738225171760033, 0.1578384040678088], [0.20561463112105705, -0.03996865664556224], [0.3021721310554224, 0.21718230064421146], [0.4273755636869532, 0.38341374408431883]]",density,black,,,N008,visual,1,[],"['1', '2', '3', '4']",1,2023.2.3,harveyvisual,2.1,[],8,0.75,
0,pause,0.4,None,None,None,0,195,195,195,,,,,,,,,,,,,N008,visual,1,[],"['1', '2', '3', '4']",1,2023.2.3,harveyvisual,2.1,[],8,0.75,
6,dot,0.3,['dot'],['density'],black,0,196,196,196,,,71.0002019405365,70.71502184867859,71.01581001281738,dot,"[0.1, 0.1, 0.08, 0.1, 0.06, 0.08]","[[-0.37443702985748106, 0.32648296684105377], [-0.5461381080049402, 0.20900463425646473], [-0.03667792491240075, 0.12745261621840673], [-0.13670974087354773, 0.4115775839407936], [-0.3800981804337871, 0.05314619565530939], [-0.23016292349935943, 0.18714801531232822]]",density,black,,,N008,visual,1,[],"['1', '2', '3', '4']",1,2023.2.3,harveyvisual,2.1,[],8,0.75,
0,pause,0.4,None,None,None,0,197,197,197,,,,,,,,,,,,,N008,visual,1,[],"['1', '2', '3', '4']",1,2023.2.3,harveyvisual,2.1,[],8,0.75,
6,dot,0.3,['dot'],['density'],black,0,198,198,198,,,71.70021796226501,71.41600394248962,71.71497702598572,dot,"[0.06, 0.08, 0.1, 0.06, 0.1, 0.06]","[[0.285926512064941, -0.24481785515673876], [0.418595730147314, -0.41068201076939437], [0.08023911914447063, -0.2907744195836184], [0.5255309086764915, -0.21900298349449057], [0.21619509519697316, -0.004828458463526469], [0.21043770887025895, -0.4594541383061854]]",density,black,,,N008,visual,1,[],"['1', '2', '3', '4']",1,2023.2.3,harveyvisual,2.1,[],8,0.75,
0,pause,0.4,None,None,None,0,199,199,199,,,,,,,,,,,,,N008,visual,1,[],"['1', '2', '3', '4']",1,2023.2.3,harveyvisual,2.1,[],8,0.75,
6,dot,0.3,['dot'],['density'],black,0,200,200,200,,,72.40020990371704,72.11497783660889,72.41501688957214,dot,"[0.08, 0.08, 0.08, 0.06, 0.1, 0.08]","[[-0.06594826066790033, 0.1051940440944823], [0.15491437476435005, 0.24610541937573027], [-0.07004887042171212, 0.3755397070333221], [0.22920853754483062, 0.04629278748534093], [0.14611265926610215, 0.46549762069565603], [0.352938231914746, 0.33060025924169734]]",density,black,,,N008,visual,1,[],"['1', '2', '3', '4']",1,2023.2.3,harveyvisual,2.1,[],8,0.75,
0,pause,0.4,None,None,None,0,201,201,201,,,,,,,,,,,,,N008,visual,1,[],"['1', '2', '3', '4']",1,2023.2.3,harveyvisual,2.1,[],8,0.75,
6,dot,0.3,['dot'],['density'],black,0,202,202,202,,,73.10023283958435,72.81502294540405,73.11501693725586,dot,"[0.08, 0.1, 0.1, 0.08, 0.1, 0.1]","[[-0.08086177951302478, 0.2470577028799217], [0.17809040740055945, 0.25721690350386706], [0.248993691455746, -0.144418230259854], [0.04260816027356476, -0.17251108440570345], [0.26201279645255604, 0.07253913185781388], [-0.0017619790798508912, 0.027830886297901026]]",density,black,,,N008,visual,1,[],"['1', '2', '3', '4']",1,2023.2.3,harveyvisual,2.1,[],8,0.75,
0,pause,0.4,None,None,None,0,203,203,203,,,,,,,,,,,,,N008,visual,1,[],"['1', '2', '3', '4']",1,2023.2.3,harveyvisual,2.1,[],8,0.75,
5,dot,0.3,['dot'],['density'],black,0,204,204,204,,,73.80022597312927,73.51493692398071,73.81492400169373,dot,"[0.08, 0.1, 0.06, 0.06, 0.06]","[[0.2447541601906441, 0.3086669061463178], [0.2085849672204031, -0.04267428248465989], [0.44393754570968663, -0.061602228714441105], [0.027125763574429876, 0.05764502161176834], [0.36879828001487897, 0.1310025380577708]]",density,black,,,N008,visual,1,[],"['1', '2', '3', '4']",1,2023.2.3,harveyvisual,2.1,[],8,0.75,
0,pause,0.4,None,None,None,0,205,205,205,,,,,,,,,,,,,N008,visual,1,[],"['1', '2', '3', '4']",1,2023.2.3,harveyvisual,2.1,[],8,0.75,
5,dot,0.3,['dot'],['density'],black,0,206,206,206,,,74.50022482872009,74.21494793891907,74.51492500305176,dot,"[0.06, 0.08, 0.06, 0.06, 0.06]","[[0.36014554898799966, 0.387810422325294], [0.055757472799778995, 0.16941293674392635], [0.2210739480460382, 0.008175952352481365], [0.48495712857242873, 0.07425785546611247], [0.25975240449222103, 0.2092734881649904]]",density,black,,,N008,visual,1,[],"['1', '2', '3', '4']",1,2023.2.3,harveyvisual,2.1,[],8,0.75,
0,pause,0.4,None,None,None,0,207,207,207,,,,,,,,,,,,,N008,visual,1,[],"['1', '2', '3', '4']",1,2023.2.3,harveyvisual,2.1,[],8,0.75,
5,dot,0.3,['dot'],['density'],black,0,208,208,208,,,75.20021104812622,74.9149169921875,75.21489691734314,dot,"[0.06, 0.1, 0.1, 0.06, 0.1]","[[-0.17224806752104949, 0.21128771658676965], [-0.35983128753182364, -0.1328600505582573], [-0.33716814897054914, 0.09708697582185674], [-0.044562237693599294, -0.03778919281981133], [-0.17109626387405982, -0.21732524013947077]]",density,black,,,N008,visual,1,[],"['1', '2', '3', '4']",1,2023.2.3,harveyvisual,2.1,[],8,0.75,
0,pause,0.4,None,None,None,0,209,209,209,,,,,,,,,,,,,N008,visual,1,[],"['1', '2', '3', '4']",1,2023.2.3,harveyvisual,2.1,[],8,0.75,
5,dot,0.3,['dot'],['density'],black,0,210,210,210,,,75.90022587776184,75.61493992805481,75.91487288475037,dot,"[0.1, 0.08, 0.1, 0.1, 0.1]","[[-0.006164932418690097, -0.4528126201229341], [-0.1681524682570009, -0.11721653268637569], [-0.1959903964051736, -0.3710708837277218], [0.03544926667602863, -0.1302589477940128], [0.16830580561999814, -0.32298356607012285]]",density,black,,,N008,visual,1,[],"['1', '2', '3', '4']",1,2023.2.3,harveyvisual,2.1,[],8,0.75,
0,pause,0.4,None,None,None,0,211,211,211,,,,,,,,,,,,,N008,visual,1,[],"['1', '2', '3', '4']",1,2023.2.3,harveyvisual,2.1,[],8,0.75,
5,dot,0.3,['dot'],['density'],black,0,212,212,212,,,76.60021996498108,76.31489896774292,76.61488795280457,dot,"[0.1, 0.06, 0.08, 0.08, 0.1]","[[-0.0036269740154891753, 0.5431219823242713], [-0.2646325594942043, 0.5073179604697073], [-0.41902475937036154, 0.37311436690984484], [-0.007163214206743488, 0.2887893175302695], [-0.2156098228659233, 0.2684642371109035]]",density,black,,,N008,visual,1,[],"['1', '2', '3', '4']",1,2023.2.3,harveyvisual,2.1,[],8,0.75,
0,pause,0.4,None,None,None,0,213,213,213,,,,,,,,,,,,,N008,visual,1,[],"['1', '2', '3', '4']",1,2023.2.3,harveyvisual,2.1,[],8,0.75,
5,dot,0.3,['dot'],['density'],black,0,214,214,214,,,77.3002200126648,77.01488399505615,77.31484699249268,dot,"[0.08, 0.08, 0.08, 0.1, 0.08]","[[0.36014554898799966, 0.387810422325294], [0.055757472799778995, 0.16941293674392635], [0.2210739480460382, 0.008175952352481365], [0.48495712857242873, 0.07425785546611247], [0.25975240449222103, 0.2092734881649904]]",density,black,,,N008,visual,1,[],"['1', '2', '3', '4']",1,2023.2.3,harveyvisual,2.1,[],8,0.75,
0,pause,0.4,None,None,None,0,215,215,215,,,,,,,,,,,,,N008,visual,1,[],"['1', '2', '3', '4']",1,2023.2.3,harveyvisual,2.1,[],8,0.75,
4,dot,0.3,['dot'],['density'],black,0,216,216,216,,,78.00020503997803,77.71482682228088,78.01488089561462,dot,"[0.1, 0.1, 0.1, 0.08]","[[-0.1266132934267609, -0.4419116806690939], [0.09906976576587005, -0.33923851916676484], [0.1053941350115203, -0.5768907290059295], [0.29145715672269834, -0.49787884973145785]]",density,black,,,N008,visual,1,[],"['1', '2', '3', '4']",1,2023.2.3,harveyvisual,2.1,[],8,0.75,
0,pause,0.4,None,None,None,0,217,217,217,,,,,,,,,,,,,N008,visual,1,[],"['1', '2', '3', '4']",1,2023.2.3,harveyvisual,2.1,[],8,0.75,
4,dot,0.3,['dot'],['density'],black,0,218,218,218,,,78.70020389556885,78.41486692428589,78.71486282348633,dot,"[0.08, 0.06, 0.1, 0.06]","[[-0.22375678750486633, 0.16938766720995918], [-0.03438308412182927, 0.2632029670309489], [0.15312837370161694, 0.1265605786946886], [-0.035433382102469414, 0.014828983441921377]]",density,black,,,N008,visual,1,[],"['1', '2', '3', '4']",1,2023.2.3,harveyvisual,2.1,[],8,0.75,
0,pause,0.4,None,None,None,0,219,219,219,,,,,,,,,,,,,N008,visual,1,[],"['1', '2', '3', '4']",1,2023.2.3,harveyvisual,2.1,[],8,0.75,
4,dot,0.3,['dot'],['density'],black,0,220,220,220,,,79.40021800994873,79.11486196517944,79.41486597061157,dot,"[0.1, 0.08, 0.06, 0.06]","[[0.06241226843583792, -0.3147100539198924], [0.2553405417111816, -0.24584579293690137], [0.0027514156828475403, -0.09786489187307437], [0.1660279615748852, 0.026007470517245626]]",density,black,,,N008,visual,1,[],"['1', '2', '3', '4']",1,2023.2.3,harveyvisual,2.1,[],8,0.75,
0,pause,0.4,None,None,None,0,221,221,221,,,,,,,,,,,,,N008,visual,1,[],"['1', '2', '3', '4']",1,2023.2.3,harveyvisual,2.1,[],8,0.75,
4,dot,0.3,['dot'],['density'],black,0,222,222,222,,,80.1002049446106,79.8159339427948,80.11476182937622,dot,"[0.08, 0.1, 0.08, 0.1]","[[-0.3130108772186628, 0.4658633188731559], [0.06875292536802097, 0.3619778545149697], [-0.12928423743784842, 0.28835211797578114], [-0.08764786508193922, 0.5151731075523892]]",density,black,,,N008,visual,1,[],"['1', '2', '3', '4']",1,2023.2.3,harveyvisual,2.1,[],8,0.75,
0,pause,0.4,None,None,None,0,223,223,223,,,,,,,,,,,,,N008,visual,1,[],"['1', '2', '3', '4']",1,2023.2.3,harveyvisual,2.1,[],8,0.75,
4,dot,0.3,['dot'],['density'],white,0,224,224,224,,,80.8002278804779,80.51475405693054,80.81589984893799,dot,"[0.08, 0.08, 0.1, 0.1]","[[-0.03907102058372138, -0.1723346686752248], [0.13255167928633116, -0.03782047714335622], [0.2720101467217329, -0.23443565690461937], [0.07080951743106016, -0.35239766365090747]]",density,white,,,N008,visual,1,[],"['1', '2', '3', '4']",1,2023.2.3,harveyvisual,2.1,[],8,0.75,
0,pause,0.4,None,None,None,0,225,225,225,,,,,,,,,,,1,80.54351711273193,N008,visual,1,[],"['1', '2', '3', '4']",1,2023.2.3,harveyvisual,2.1,[],8,0.75,
4,dot,0.3,['dot'],['density'],white,0,226,226,226,,,81.50020694732666,81.21473288536072,81.51472687721252,dot,"[0.1, 0.08, 0.06, 0.1]","[[0.06241226843583792, -0.3147100539198924], [0.2553405417111816, -0.24584579293690137], [0.0027514156828475403, -0.09786489187307437], [0.1660279615748852, 0.026007470517245626]]",density,white,,,N008,visual,1,[],"['1', '2', '3', '4']",1,2023.2.3,harveyvisual,2.1,[],8,0.75,
0,pause,0.4,None,None,None,0,227,227,227,,,,,,,,,,,1,81.20063996315002,N008,visual,1,[],"['1', '2', '3', '4']",1,2023.2.3,harveyvisual,2.1,[],8,0.75,
3,dot,0.3,['dot'],['density'],black,0,228,228,228,,,82.20023488998413,81.91722702980042,82.21476984024048,dot,"[0.06, 0.06, 0.08]","[[0.026071599024748527, -0.32860913997604846], [-0.11834724389398482, -0.18584523127985947], [0.10068982493997472, -0.12518245043845455]]",density,black,,,N008,visual,1,[],"['1', '2', '3', '4']",1,2023.2.3,harveyvisual,2.1,[],8,0.75,
0,pause,0.4,None,None,None,0,229,229,229,,,,,,,,,,,,,N008,visual,1,[],"['1', '2', '3', '4']",1,2023.2.3,harveyvisual,2.1,[],8,0.75,
3,dot,0.3,['dot'],['density'],black,0,230,230,230,,,82.90023183822632,82.6147689819336,82.91475200653076,dot,"[0.06, 0.08, 0.1]","[[0.1555504186016049, 0.15532406847092056], [-0.0680535881648269, 0.26220909641571793], [0.08533315121688807, 0.39122308779032533]]",density,black,,,N008,visual,1,[],"['1', '2', '3', '4']",1,2023.2.3,harveyvisual,2.1,[],8,0.75,
0,pause,0.4,None,None,None,0,231,231,231,,,,,,,,,,,,,N008,visual,1,[],"['1', '2', '3', '4']",1,2023.2.3,harveyvisual,2.1,[],8,0.75,
3,dot,0.3,['dot'],['density'],black,0,232,232,232,,,83.60021901130676,83.31476092338562,83.61471605300903,dot,"[0.06, 0.06, 0.1]","[[0.348550694073714, -0.26372109460002424], [0.5073713069625243, -0.14206826334288786], [0.3419709386041379, 0.005891602819957491]]",density,black,,,N008,visual,1,[],"['1', '2', '3', '4']",1,2023.2.3,harveyvisual,2.1,[],8,0.75,
0,pause,0.4,None,None,None,0,233,233,233,,,,,,,,,,,,,N008,visual,1,[],"['1', '2', '3', '4']",1,2023.2.3,harveyvisual,2.1,[],8,0.75,
3,dot,0.3,['dot'],['density'],black,0,234,234,234,,,84.30021595954895,84.01568984985352,84.31472301483154,dot,"[0.06, 0.1, 0.06]","[[-0.1599523582230929, -0.020289166781496174], [-0.3458010015304564, -0.14250622038001895], [-0.3538668896253721, 0.08903610231223419]]",density,black,,,N008,visual,1,[],"['1', '2', '3', '4']",1,2023.2.3,harveyvisual,2.1,[],8,0.75,
0,pause,0.4,None,None,None,0,235,235,235,,,,,,,,,,,,,N008,visual,1,[],"['1', '2', '3', '4']",1,2023.2.3,harveyvisual,2.1,[],8,0.75,
3,dot,0.3,['dot'],['density'],black,0,236,236,236,,,85.00021982192993,84.7146909236908,85.014643907547,dot,"[0.08, 0.06, 0.08]","[[0.348550694073714, -0.26372109460002424], [0.5073713069625243, -0.14206826334288786], [0.3419709386041379, 0.005891602819957491]]",density,black,,,N008,visual,1,[],"['1', '2', '3', '4']",1,2023.2.3,harveyvisual,2.1,[],8,0.75,
0,pause,0.4,None,None,None,0,237,237,237,,,,,,,,,,,,,N008,visual,1,[],"['1', '2', '3', '4']",1,2023.2.3,harveyvisual,2.1,[],8,0.75,
3,dot,0.3,['dot'],['density'],black,0,238,238,238,,,85.70020985603333,85.41466188430786,85.71466183662415,dot,"[0.1, 0.08, 0.06]","[[-0.3391924794566746, 0.43027756448319565], [-0.33080415183405026, 0.2112686575961512], [-0.14277619127331137, 0.29962579604826906]]",density,black,,,N008,visual,1,[],"['1', '2', '3', '4']",1,2023.2.3,harveyvisual,2.1,[],8,0.75,
0,pause,0.4,None,None,None,0,239,239,239,,,,,,,,,,,,,N008,visual,1,[],"['1', '2', '3', '4']",1,2023.2.3,harveyvisual,2.1,[],8,0.75,
2,dot,0.3,['dot'],['density'],black,0,240,240,240,,,86.40023398399353,86.11462903022766,86.41462302207947,dot,"[0.06, 0.06]","[[0.17083311991776792, -0.05558111512160733], [0.1461049568064877, -0.25438559320493304]]",density,black,,,N008,visual,1,[],"['1', '2', '3', '4']",1,2023.2.3,harveyvisual,2.1,[],8,0.75,
0,pause,0.4,None,None,None,0,241,241,241,,,,,,,,,,,,,N008,visual,1,[],"['1', '2', '3', '4']",1,2023.2.3,harveyvisual,2.1,[],8,0.75,
2,dot,0.3,['dot'],['density'],black,0,242,242,242,,,87.10022902488708,86.81462097167969,87.1145749092102,dot,"[0.08, 0.06]","[[0.28379985726396956, 0.19228106150028407], [0.10160376615595414, 0.2763535177041957]]",density,black,,,N008,visual,1,[],"['1', '2', '3', '4']",1,2023.2.3,harveyvisual,2.1,[],8,0.75,
0,pause,0.4,None,None,None,0,243,243,243,,,,,,,,,,,,,N008,visual,1,[],"['1', '2', '3', '4']",1,2023.2.3,harveyvisual,2.1,[],8,0.75,
2,dot,0.3,['dot'],['density'],white,0,244,244,244,,,87.80020904541016,87.51572704315186,87.81459593772888,dot,"[0.08, 0.1]","[[-0.3970652553054307, 0.36151140161898554], [-0.22306532646831484, 0.26288994227005946]]",density,white,,,N008,visual,1,[],"['1', '2', '3', '4']",1,2023.2.3,harveyvisual,2.1,[],8,0.75,
0,pause,0.4,None,None,None,0,245,245,245,,,,,,,,,,,1,87.59838891029358,N008,visual,1,[],"['1', '2', '3', '4']",1,2023.2.3,harveyvisual,2.1,[],8,0.75,
2,dot,0.3,['dot'],['density'],white,0,246,246,246,,,88.50022792816162,88.2145688533783,88.51454305648804,dot,"[0.1, 0.08]","[[0.17083311991776792, -0.05558111512160733], [0.1461049568064877, -0.25438559320493304]]",density,white,,,N008,visual,1,[],"['1', '2', '3', '4']",1,2023.2.3,harveyvisual,2.1,[],8,0.75,
0,pause,0.4,None,None,None,0,247,247,247,,,,,,,,,,,1,88.19145512580872,N008,visual,1,[],"['1', '2', '3', '4']",1,2023.2.3,harveyvisual,2.1,[],8,0.75,
2,dot,0.3,['dot'],['density'],black,0,248,248,248,,,89.20023393630981,88.91455483436584,89.21453785896301,dot,"[0.1, 0.08]","[[-0.15489633838679245, 0.20775043904852977], [-0.02477214636975436, 0.05468251249351026]]",density,black,,,N008,visual,1,[],"['1', '2', '3', '4']",1,2023.2.3,harveyvisual,2.1,[],8,0.75,
0,pause,0.4,None,None,None,0,249,249,249,,,,,,,,,,,,,N008,visual,1,[],"['1', '2', '3', '4']",1,2023.2.3,harveyvisual,2.1,[],8,0.75,
2,dot,0.3,['dot'],['density'],white,0,250,250,250,,,89.90022897720337,89.61458802223206,89.9145119190216,dot,"[0.08, 0.1]","[[0.3859848860398513, -0.03650274153894256], [0.5613034441480618, 0.06134992989862206]]",density,white,,,N008,visual,1,[],"['1', '2', '3', '4']",1,2023.2.3,harveyvisual,2.1,[],8,0.75,
0,pause,0.4,None,None,None,0,251,251,251,,,,,,,,,,,1,89.65061593055725,N008,visual,1,[],"['1', '2', '3', '4']",1,2023.2.3,harveyvisual,2.1,[],8,0.75,
1,dot,0.3,['dot'],['density'],black,0,252,252,252,,,90.60022592544556,90.31451201438904,90.6145088672638,dot,[0.06],"[0.1600937909388646, -0.5041032805904762]",density,black,,,N008,visual,1,[],"['1', '2', '3', '4']",1,2023.2.3,harveyvisual,2.1,[],8,0.75,
0,pause,0.4,None,None,None,0,253,253,253,,,,,,,,,,,,,N008,visual,1,[],"['1', '2', '3', '4']",1,2023.2.3,harveyvisual,2.1,[],8,0.75,
1,dot,0.3,['dot'],['density'],black,0,254,254,254,,,91.30020904541016,91.01454591751099,91.31452298164368,dot,[0.06],"[-0.045934412585722416, -0.12236734128406912]",density,black,,,N008,visual,1,[],"['1', '2', '3', '4']",1,2023.2.3,harveyvisual,2.1,[],8,0.75,
0,pause,0.4,None,None,None,0,255,255,255,,,,,,,,,,,,,N008,visual,1,[],"['1', '2', '3', '4']",1,2023.2.3,harveyvisual,2.1,[],8,0.75,
1,dot,0.3,['dot'],['density'],black,0,256,256,256,,,92.00020503997803,91.71447587013245,92.01449990272522,dot,[0.06],"[0.1600937909388646, -0.5041032805904762]",density,black,,,N008,visual,1,[],"['1', '2', '3', '4']",1,2023.2.3,harveyvisual,2.1,[],8,0.75,
0,pause,0.4,None,None,None,0,257,257,257,,,,,,,,,,,,,N008,visual,1,[],"['1', '2', '3', '4']",1,2023.2.3,harveyvisual,2.1,[],8,0.75,
1,dot,0.3,['dot'],['density'],black,0,258,258,258,,,92.70020890235901,92.41450190544128,92.71446895599365,dot,[0.1],"[-0.22364231775977078, 0.4637426405669522]",density,black,,,N008,visual,1,[],"['1', '2', '3', '4']",1,2023.2.3,harveyvisual,2.1,[],8,0.75,
0,pause,0.4,None,None,None,0,259,259,259,,,,,,,,,,,,,N008,visual,1,[],"['1', '2', '3', '4']",1,2023.2.3,harveyvisual,2.1,[],8,0.75,
1,dot,0.3,['dot'],['density'],black,0,260,260,260,,,93.40022897720337,93.114511013031,93.41448593139648,dot,[0.06],"[0.0038807231877187303, -0.2777732366953785]",density,black,,,N008,visual,1,[],"['1', '2', '3', '4']",1,2023.2.3,harveyvisual,2.1,[],8,0.75,
0,pause,0.4,None,None,None,0,261,261,261,,,,,,,,,,,,,N008,visual,1,[],"['1', '2', '3', '4']",1,2023.2.3,harveyvisual,2.1,[],8,0.75,
1,dot,0.3,['dot'],['density'],black,0,262,262,262,,,94.10022401809692,93.81449294090271,94.11550188064575,dot,[0.08],"[0.1049869166116724, 0.1335000464341748]",density,black,,,N008,visual,1,[],"['1', '2', '3', '4']",1,2023.2.3,harveyvisual,2.1,[],8,0.75,
0,pause,0.4,None,None,None,0,263,263,263,,,,,,,,,,,,,N008,visual,1,[],"['1', '2', '3', '4']",1,2023.2.3,harveyvisual,2.1,[],8,0.75,
20,dot,0.3,['dot'],['density'],black,0,264,264,264,,,94.80021595954895,94.51442694664001,94.81442284584045,dot,"[0.06, 0.08, 0.08, 0.08, 0.1, 0.1, 0.06, 0.1, 0.06, 0.08, 0.06, 0.06, 0.1, 0.1, 0.06, 0.06, 0.1, 0.06, 0.1, 0.06]","[[0.39841678753477805, 0.2855510750123686], [0.16710903458590642, 0.36026196396124044], [0.0450449092069124, 0.017622883578263027], [0.5638487276932881, 0.17080872093113736], [-0.39689543879387673, -0.10721864467613662], [-0.12011041405921408, -0.4882308514773075], [0.5587330099246482, -0.14936726831121777], [-0.15845157127522025, -0.07061294545578611], [-0.33941909742572884, 0.4124263950640392], [-0.5720171277613592, 0.060566659277067975], [-0.09285723454698724, 0.41955803899157584], [-0.4473872363845791, 0.22929329150020972], [-0.27907442557648615, -0.30692664591990415], [0.16619914905211608, -0.5562813127100311], [0.36059483759356525, 0.02858833730051319], [0.010047269258802727, -0.276525870633674], [0.35558536615304637, -0.4549135328498858], [0.19089024517272202, 0.5545516148511093], [-0.18995282179614287, 0.18736512970170893], [-0.4952931393256156, -0.2775653322955389]]",density,black,,,N008,visual,1,[],"['1', '2', '3', '4']",1,2023.2.3,harveyvisual,2.1,[],8,0.75,
0,pause,0.4,None,None,None,0,265,265,265,,,,,,,,,,,,,N008,visual,1,[],"['1', '2', '3', '4']",1,2023.2.3,harveyvisual,2.1,[],8,0.75,
20,dot,0.3,['dot'],['density'],black,0,266,266,266,,,95.5002088546753,95.21439504623413,95.51437091827393,dot,"[0.08, 0.1, 0.06, 0.1, 0.1, 0.06, 0.06, 0.08, 0.08, 0.1, 0.08, 0.06, 0.1, 0.1, 0.06, 0.06, 0.1, 0.08, 0.08, 0.06]","[[-0.1255918104579028, -0.39896450946586404], [-0.5752769934102797, -0.027840428378287513], [0.3256097894173652, 0.02602918239611307], [0.5250376819053989, 0.027992865693333868], [-0.5228652114140585, -0.2370948998414973], [0.30818332498351786, -0.5123141194549877], [0.322048934728572, -0.3124092883971985], [0.43620067430108744, 0.3860433428432601], [-0.13891446439605454, -0.015467430601357468], [0.47355225883613994, -0.19610041429336125], [-0.010944095803275045, 0.22564060144260933], [-0.29922617161085924, -0.2939353497114957], [0.0997830940034442, -0.2467128293424154], [-0.3518151954222415, 0.017402969741735108], [0.21939851931027066, 0.3098663843636291], [-0.04132823973129385, 0.5601160173144027], [-0.25014606140087353, 0.3541286004235442], [0.28621274395044904, 0.5043601707813339], [-0.2812292260282676, -0.5255202392001018], [-0.5301309042219775, 0.29188377816496097]]",density,black,,,N008,visual,1,[],"['1', '2', '3', '4']",1,2023.2.3,harveyvisual,2.1,[],8,0.75,
0,pause,0.4,None,None,None,0,267,267,267,,,,,,,,,,,,,N008,visual,1,[],"['1', '2', '3', '4']",1,2023.2.3,harveyvisual,2.1,[],8,0.75,
