num,mod,duration,shape,ll_cond,colors,.thisRepN,.thisTrialN,.thisN,.thisIndex,thisRow.t,notes,raw_global_time,t_start,t_stop,shapes,size,pos,cond,color,button,RT,participant,session,starting_run,left button (match/odd),right button (non-match/even),samples_per_block,psychopy version,expName,offset,audio,number_runs,radius,
1,dot,0.3,['dot'],['density'],black,0,0,0,0,,,2.400268077850342,2.1130268573760986,2.412782907485962,dot,[0.06],"[0.4765699730395091, 0.34560502551113614]",density,black,,,N008,visual,1,[],"['1', '2', '3', '4']",1,2023.2.3,harveyvisual,2.1,[],8,0.75,
0,pause,0.4,None,None,None,0,1,1,1,,,,,,,,,,,,,N008,visual,1,[],"['1', '2', '3', '4']",1,2023.2.3,harveyvisual,2.1,[],8,0.75,
1,dot,0.3,['dot'],['density'],black,0,2,2,2,,,3.100245952606201,2.812782049179077,3.113309860229492,dot,[0.1],"[0.14557363600905707, -0.03994760510263185]",density,black,,,N008,visual,1,[],"['1', '2', '3', '4']",1,2023.2.3,harveyvisual,2.1,[],8,0.75,
0,pause,0.4,None,None,None,0,3,3,3,,,,,,,,,,,,,N008,visual,1,[],"['1', '2', '3', '4']",1,2023.2.3,harveyvisual,2.1,[],8,0.75,
1,dot,0.3,['dot'],['density'],white,0,4,4,4,,,3.800252914428711,3.513745069503784,3.8133180141448975,dot,[0.06],"[-0.045934412585722416, -0.12236734128406912]",density,white,,,N008,visual,1,[],"['1', '2', '3', '4']",1,2023.2.3,harveyvisual,2.1,[],8,0.75,
0,pause,0.4,None,None,None,0,5,5,5,,,,,,,,,,,1,3.9935829639434814,N008,visual,1,[],"['1', '2', '3', '4']",1,2023.2.3,harveyvisual,2.1,[],8,0.75,
1,dot,0.3,['dot'],['density'],white,0,6,6,6,,,4.500259876251221,4.213315010070801,4.513695955276489,dot,[0.06],"[-0.2532192430475575, -0.5275431624831907]",density,white,,,N008,visual,1,[],"['1', '2', '3', '4']",1,2023.2.3,harveyvisual,2.1,[],8,0.75,
0,pause,0.4,None,None,None,0,7,7,7,,,,,,,,,,,1,4.715716123580933,N008,visual,1,[],"['1', '2', '3', '4']",1,2023.2.3,harveyvisual,2.1,[],8,0.75,
1,dot,0.3,['dot'],['density'],black,0,8,8,8,,,5.200270891189575,4.913367986679077,5.213284015655518,dot,[0.06],"[-0.30422713965878023, 0.0739284850406325]",density,black,,,N008,visual,1,[],"['1', '2', '3', '4']",1,2023.2.3,harveyvisual,2.1,[],8,0.75,
0,pause,0.4,None,None,None,0,9,9,9,,,,,,,,,,,,,N008,visual,1,[],"['1', '2', '3', '4']",1,2023.2.3,harveyvisual,2.1,[],8,0.75,
1,dot,0.3,['dot'],['density'],black,0,10,10,10,,,5.900263071060181,5.615782976150513,5.915766954421997,dot,[0.06],"[-0.22356924330877379, 0.41145231278245986]",density,black,,,N008,visual,1,[],"['1', '2', '3', '4']",1,2023.2.3,harveyvisual,2.1,[],8,0.75,
0,pause,0.4,None,None,None,0,11,11,11,,,,,,,,,,,,,N008,visual,1,[],"['1', '2', '3', '4']",1,2023.2.3,harveyvisual,2.1,[],8,0.75,
2,dot,0.3,['dot'],['density'],black,0,12,12,12,,,6.600266933441162,6.315778970718384,6.615738868713379,dot,"[0.1, 0.1]","[[0.002249876020969301, 0.20442088447143333], [-0.056293345030126195, 0.39599742374220376]]",density,black,,,N008,visual,1,[],"['1', '2', '3', '4']",1,2023.2.3,harveyvisual,2.1,[],8,0.75,
0,pause,0.4,None,None,None,0,13,13,13,,,,,,,,,,,,,N008,visual,1,[],"['1', '2', '3', '4']",1,2023.2.3,harveyvisual,2.1,[],8,0.75,
2,dot,0.3,['dot'],['density'],black,0,14,14,14,,,7.300265073776245,7.0157999992370605,7.315501928329468,dot,"[0.1, 0.08]","[[0.4162662019019998, 0.09129510669171749], [0.33420900269466314, 0.27427456354974017]]",density,black,,,N008,visual,1,[],"['1', '2', '3', '4']",1,2023.2.3,harveyvisual,2.1,[],8,0.75,
0,pause,0.4,None,None,None,0,15,15,15,,,,,,,,,,,,,N008,visual,1,[],"['1', '2', '3', '4']",1,2023.2.3,harveyvisual,2.1,[],8,0.75,
2,dot,0.3,['dot'],['density'],black,0,16,16,16,,,8.000262975692749,7.715646028518677,8.01549506187439,dot,"[0.08, 0.08]","[[0.075840462383643, -0.21806900392302264], [0.2761252679018853, -0.22101292055433702]]",density,black,,,N008,visual,1,[],"['1', '2', '3', '4']",1,2023.2.3,harveyvisual,2.1,[],8,0.75,
0,pause,0.4,None,None,None,0,17,17,17,,,,,,,,,,,,,N008,visual,1,[],"['1', '2', '3', '4']",1,2023.2.3,harveyvisual,2.1,[],8,0.75,
2,dot,0.3,['dot'],['density'],black,0,18,18,18,,,8.700259923934937,8.415639877319336,8.715587854385376,dot,"[0.08, 0.1]","[[0.4162662019019998, 0.09129510669171749], [0.33420900269466314, 0.27427456354974017]]",density,black,,,N008,visual,1,[],"['1', '2', '3', '4']",1,2023.2.3,harveyvisual,2.1,[],8,0.75,
0,pause,0.4,None,None,None,0,19,19,19,,,,,,,,,,,,,N008,visual,1,[],"['1', '2', '3', '4']",1,2023.2.3,harveyvisual,2.1,[],8,0.75,
2,dot,0.3,['dot'],['density'],black,0,20,20,20,,,9.400272846221924,9.115623950958252,9.415592908859253,dot,"[0.1, 0.1]","[[0.1851205616289071, -0.3624876981064337], [0.3405923022038234, -0.23608025195482504]]",density,black,,,N008,visual,1,[],"['1', '2', '3', '4']",1,2023.2.3,harveyvisual,2.1,[],8,0.75,
0,pause,0.4,None,None,None,0,21,21,21,,,,,,,,,,,,,N008,visual,1,[],"['1', '2', '3', '4']",1,2023.2.3,harveyvisual,2.1,[],8,0.75,
2,dot,0.3,['dot'],['density'],black,0,22,22,22,,,10.100247859954834,9.815603971481323,10.11559796333313,dot,"[0.08, 0.1]","[[-0.1809096912417549, 0.4542701565657042], [0.018526046348631375, 0.4698330185089162]]",density,black,,,N008,visual,1,[],"['1', '2', '3', '4']",1,2023.2.3,harveyvisual,2.1,[],8,0.75,
0,pause,0.4,None,None,None,0,23,23,23,,,,,,,,,,,,,N008,visual,1,[],"['1', '2', '3', '4']",1,2023.2.3,harveyvisual,2.1,[],8,0.75,
3,dot,0.3,['dot'],['density'],white,0,24,24,24,,,10.80026888847351,10.51561188697815,10.81544804573059,dot,"[0.1, 0.08, 0.08]","[[-0.18534860244577742, 0.5145019772121514], [0.05660586421610542, 0.42456432010350276], [-0.11463700911578348, 0.31489985189225056]]",density,white,,,N008,visual,1,[],"['1', '2', '3', '4']",1,2023.2.3,harveyvisual,2.1,[],8,0.75,
0,pause,0.4,None,None,None,0,25,25,25,,,,,,,,,,,1,10.953428983688354,N008,visual,1,[],"['1', '2', '3', '4']",1,2023.2.3,harveyvisual,2.1,[],8,0.75,
3,dot,0.3,['dot'],['density'],black,0,26,26,26,,,11.500248908996582,11.215409994125366,11.515400886535645,dot,"[0.06, 0.1, 0.1]","[[-0.27441186418729774, -0.31428620701652393], [-0.10438281902574013, -0.2032379983598837], [-0.31523395761825285, -0.08768035506307631]]",density,black,,,N008,visual,1,[],"['1', '2', '3', '4']",1,2023.2.3,harveyvisual,2.1,[],8,0.75,
0,pause,0.4,None,None,None,0,27,27,27,,,,,,,,,,,,,N008,visual,1,[],"['1', '2', '3', '4']",1,2023.2.3,harveyvisual,2.1,[],8,0.75,
3,dot,0.3,['dot'],['density'],black,0,28,28,28,,,12.200264930725098,11.915360927581787,12.215348958969116,dot,"[0.08, 0.1, 0.06]","[[0.13507679288784277, 0.012189921546254917], [0.31506600046810584, 0.10578898906948993], [0.12756957777796288, 0.2513869495778075]]",density,black,,,N008,visual,1,[],"['1', '2', '3', '4']",1,2023.2.3,harveyvisual,2.1,[],8,0.75,
0,pause,0.4,None,None,None,0,29,29,29,,,,,,,,,,,,,N008,visual,1,[],"['1', '2', '3', '4']",1,2023.2.3,harveyvisual,2.1,[],8,0.75,
3,dot,0.3,['dot'],['density'],black,0,30,30,30,,,12.900253057479858,12.61543607711792,12.915432929992676,dot,"[0.08, 0.08, 0.06]","[[0.2768253388883432, 0.03346297355107007], [0.11287187477499526, -0.09417797505773098], [0.09003622344097514, 0.12370024427926096]]",density,black,,,N008,visual,1,[],"['1', '2', '3', '4']",1,2023.2.3,harveyvisual,2.1,[],8,0.75,
0,pause,0.4,None,None,None,0,31,31,31,,,,,,,,,,,,,N008,visual,1,[],"['1', '2', '3', '4']",1,2023.2.3,harveyvisual,2.1,[],8,0.75,
3,dot,0.3,['dot'],['density'],black,0,32,32,32,,,13.600251913070679,13.315408945083618,13.615408897399902,dot,"[0.08, 0.06, 0.08]","[[0.13574725429899362, -0.5423283227425341], [-0.036793286563257144, -0.3768814925557267], [0.16175487704753985, -0.3348017255345844]]",density,black,,,N008,visual,1,[],"['1', '2', '3', '4']",1,2023.2.3,harveyvisual,2.1,[],8,0.75,
0,pause,0.4,None,None,None,0,33,33,33,,,,,,,,,,,,,N008,visual,1,[],"['1', '2', '3', '4']",1,2023.2.3,harveyvisual,2.1,[],8,0.75,
3,dot,0.3,['dot'],['density'],black,0,34,34,34,,,14.300271987915039,14.015333890914917,14.315330028533936,dot,"[0.1, 0.08, 0.1]","[[0.348550694073714, -0.26372109460002424], [0.5073713069625243, -0.14206826334288786], [0.3419709386041379, 0.005891602819957491]]",density,black,,,N008,visual,1,[],"['1', '2', '3', '4']",1,2023.2.3,harveyvisual,2.1,[],8,0.75,
0,pause,0.4,None,None,None,0,35,35,35,,,,,,,,,,,,,N008,visual,1,[],"['1', '2', '3', '4']",1,2023.2.3,harveyvisual,2.1,[],8,0.75,
4,dot,0.3,['dot'],['density'],black,0,36,36,36,,,15.000248908996582,14.715304851531982,15.015403032302856,dot,"[0.1, 0.06, 0.1, 0.1]","[[0.06019618102804278, 0.17823994931545822], [-0.1876584465411705, -0.07971170835358893], [0.026807447441335588, -0.04038633305360204], [-0.17818728785032123, 0.12753763641901858]]",density,black,,,N008,visual,1,[],"['1', '2', '3', '4']",1,2023.2.3,harveyvisual,2.1,[],8,0.75,
0,pause,0.4,None,None,None,0,37,37,37,,,,,,,,,,,,,N008,visual,1,[],"['1', '2', '3', '4']",1,2023.2.3,harveyvisual,2.1,[],8,0.75,
4,dot,0.3,['dot'],['density'],black,0,38,38,38,,,15.700268030166626,15.415519952774048,15.715429067611694,dot,"[0.06, 0.08, 0.08, 0.08]","[[-0.1807894278345534, -0.050693892368996955], [-0.03778933673514029, -0.29773510453537966], [0.0747201162679791, -0.1287424711559737], [-0.02241484737224569, 0.07404475448468936]]",density,black,,,N008,visual,1,[],"['1', '2', '3', '4']",1,2023.2.3,harveyvisual,2.1,[],8,0.75,
0,pause,0.4,None,None,None,0,39,39,39,,,,,,,,,,,,,N008,visual,1,[],"['1', '2', '3', '4']",1,2023.2.3,harveyvisual,2.1,[],8,0.75,
4,dot,0.3,['dot'],['density'],black,0,40,40,40,,,16.400249004364014,16.11554503440857,16.41538906097412,dot,"[0.1, 0.06, 0.08, 0.06]","[[-0.1266132934267609, -0.4419116806690939], [0.09906976576587005, -0.33923851916676484], [0.1053941350115203, -0.5768907290059295], [0.29145715672269834, -0.49787884973145785]]",density,black,,,N008,visual,1,[],"['1', '2', '3', '4']",1,2023.2.3,harveyvisual,2.1,[],8,0.75,
0,pause,0.4,None,None,None,0,41,41,41,,,,,,,,,,,,,N008,visual,1,[],"['1', '2', '3', '4']",1,2023.2.3,harveyvisual,2.1,[],8,0.75,
4,dot,0.3,['dot'],['density'],black,0,42,42,42,,,17.10027003288269,16.81545090675354,17.11523985862732,dot,"[0.06, 0.06, 0.08, 0.08]","[[-0.045256114861740894, 0.2798656300268403], [-0.02131053084637037, 0.4849425601475732], [0.17666180860848907, 0.34430389164600056], [0.0747630441556118, 0.10387908342824508]]",density,black,,,N008,visual,1,[],"['1', '2', '3', '4']",1,2023.2.3,harveyvisual,2.1,[],8,0.75,
0,pause,0.4,None,None,None,0,43,43,43,,,,,,,,,,,,,N008,visual,1,[],"['1', '2', '3', '4']",1,2023.2.3,harveyvisual,2.1,[],8,0.75,
4,dot,0.3,['dot'],['density'],black,0,44,44,44,,,17.80025291442871,17.515244007110596,17.815199851989746,dot,"[0.06, 0.08, 0.1, 0.08]","[[0.28769160010247724, 0.4706884012140322], [0.03735362687931127, 0.4645781312677133], [0.33102019499247487, 0.1847810932959147], [0.1685132699603264, 0.30497059043407926]]",density,black,,,N008,visual,1,[],"['1', '2', '3', '4']",1,2023.2.3,harveyvisual,2.1,[],8,0.75,
0,pause,0.4,None,None,None,0,45,45,45,,,,,,,,,,,,,N008,visual,1,[],"['1', '2', '3', '4']",1,2023.2.3,harveyvisual,2.1,[],8,0.75,
4,dot,0.3,['dot'],['density'],black,0,46,46,46,,,18.500257968902588,18.21519899368286,18.51518702507019,dot,"[0.1, 0.1, 0.08, 0.08]","[[0.1665887267295909, 0.08389582001604734], [0.4584359263982055, 0.26405512465689546], [0.4157764543415929, 0.03513878013061779], [0.2392225064082761, 0.29777239984320175]]",density,black,,,N008,visual,1,[],"['1', '2', '3', '4']",1,2023.2.3,harveyvisual,2.1,[],8,0.75,
0,pause,0.4,None,None,None,0,47,47,47,,,,,,,,,,,,,N008,visual,1,[],"['1', '2', '3', '4']",1,2023.2.3,harveyvisual,2.1,[],8,0.75,
5,dot,0.3,['dot'],['density'],white,0,48,48,48,,,19.200252056121826,18.915180921554565,19.215174913406372,dot,"[0.06, 0.06, 0.08, 0.08, 0.08]","[[0.45108699871130137, 0.12052648913612102], [0.3120839015871755, -0.055344110322042436], [0.5361186937318446, -0.08608482415671545], [0.24926945818158194, 0.15209517992691748], [0.3855135356736719, -0.25840400127360613]]",density,white,,,N008,visual,1,[],"['1', '2', '3', '4']",1,2023.2.3,harveyvisual,2.1,[],8,0.75,
0,pause,0.4,None,None,None,0,49,49,49,,,,,,,,,,,1,19.44952392578125,N008,visual,1,[],"['1', '2', '3', '4']",1,2023.2.3,harveyvisual,2.1,[],8,0.75,
5,dot,0.3,['dot'],['density'],white,0,50,50,50,,,19.90026593208313,19.615159034729004,19.915158987045288,dot,"[0.08, 0.1, 0.08, 0.08, 0.06]","[[0.08548847697718086, 0.4135790235028826], [-0.012611048966726563, 0.22662400259503446], [0.27435170057987585, 0.4853016025774898], [-0.23063129862993442, 0.3109017384705433], [-0.11887524344887646, 0.49040580377695175]]",density,white,,,N008,visual,1,[],"['1', '2', '3', '4']",1,2023.2.3,harveyvisual,2.1,[],8,0.75,
0,pause,0.4,None,None,None,0,51,51,51,,,,,,,,,,,1,20.188634157180786,N008,visual,1,[],"['1', '2', '3', '4']",1,2023.2.3,harveyvisual,2.1,[],8,0.75,
5,dot,0.3,['dot'],['density'],black,0,52,52,52,,,20.60025405883789,20.315186023712158,20.61521291732788,dot,"[0.06, 0.06, 0.1, 0.1, 0.1]","[[0.029171133319913545, -0.11913068329317353], [-0.2981845944788078, -0.46624640290839614], [-0.1844599491613969, -0.04126455345730423], [-0.2900988597239497, -0.2493716418714862], [-0.0791391532727178, -0.3057260733699829]]",density,black,,,N008,visual,1,[],"['1', '2', '3', '4']",1,2023.2.3,harveyvisual,2.1,[],8,0.75,
0,pause,0.4,None,None,None,0,53,53,53,,,,,,,,,,,,,N008,visual,1,[],"['1', '2', '3', '4']",1,2023.2.3,harveyvisual,2.1,[],8,0.75,
5,dot,0.3,['dot'],['density'],black,0,54,54,54,,,21.300266981124878,21.01513695716858,21.315119981765747,dot,"[0.06, 0.06, 0.08, 0.08, 0.08]","[[-0.082153098152829, -0.06894165798345762], [0.016766770742065788, -0.42680196676869325], [0.2961099764235258, -0.14925166127785872], [-0.1456021726000032, -0.26669195071034546], [0.10213220283607832, -0.23321095001989858]]",density,black,,,N008,visual,1,[],"['1', '2', '3', '4']",1,2023.2.3,harveyvisual,2.1,[],8,0.75,
0,pause,0.4,None,None,None,0,55,55,55,,,,,,,,,,,,,N008,visual,1,[],"['1', '2', '3', '4']",1,2023.2.3,harveyvisual,2.1,[],8,0.75,
5,dot,0.3,['dot'],['density'],black,0,56,56,56,,,22.00025486946106,21.715133905410767,22.015109062194824,dot,"[0.06, 0.06, 0.08, 0.08, 0.08]","[[-0.47409275164437775, -0.17842554437930905], [-0.28800513042966097, -0.4059597382025641], [-0.20075697267214665, 0.008887320625593834], [-0.2708677629513771, -0.1868162154653106], [-0.0886924353013077, -0.2820475711339636]]",density,black,,,N008,visual,1,[],"['1', '2', '3', '4']",1,2023.2.3,harveyvisual,2.1,[],8,0.75,
0,pause,0.4,None,None,None,0,57,57,57,,,,,,,,,,,,,N008,visual,1,[],"['1', '2', '3', '4']",1,2023.2.3,harveyvisual,2.1,[],8,0.75,
5,dot,0.3,['dot'],['density'],black,0,58,58,58,,,22.700265884399414,22.415114879608154,22.71509599685669,dot,"[0.06, 0.06, 0.1, 0.06, 0.08]","[[-0.3632963637400461, -0.33792544526642676], [-0.48189922448633543, -0.036156829306921726], [-0.2958020468624338, 0.07292024124872273], [-0.10639492237515816, -0.0008972940205680791], [-0.20818262001932955, -0.17666930306052683]]",density,black,,,N008,visual,1,[],"['1', '2', '3', '4']",1,2023.2.3,harveyvisual,2.1,[],8,0.75,
0,pause,0.4,None,None,None,0,59,59,59,,,,,,,,,,,,,N008,visual,1,[],"['1', '2', '3', '4']",1,2023.2.3,harveyvisual,2.1,[],8,0.75,
6,dot,0.3,['dot'],['density'],white,0,60,60,60,,,23.400248050689697,23.11507797241211,23.41511607170105,dot,"[0.1, 0.06, 0.08, 0.1, 0.08, 0.08]","[[0.2333794889108542, 0.5108688068097712], [0.17720399199515413, 0.06488002481085814], [0.3526024925964592, 0.16961020277143707], [0.1596713132306006, 0.321837067503818], [0.0007438407140586783, 0.18344495120876914], [0.42757463853404776, 0.37786691715169374]]",density,white,,,N008,visual,1,[],"['1', '2', '3', '4']",1,2023.2.3,harveyvisual,2.1,[],8,0.75,
0,pause,0.4,None,None,None,0,61,61,61,,,,,,,,,,,1,23.64306902885437,N008,visual,1,[],"['1', '2', '3', '4']",1,2023.2.3,harveyvisual,2.1,[],8,0.75,
6,dot,0.3,['dot'],['density'],black,0,62,62,62,,,24.100275993347168,23.815149068832397,24.11514401435852,dot,"[0.06, 0.1, 0.1, 0.06, 0.08, 0.08]","[[0.500827999951601, -0.23304028533624072], [0.20916386845998064, 0.08030245107060778], [0.27809793757338463, -0.1905950399710685], [0.08327260932553728, -0.13599284299194644], [0.16768982653485215, -0.38480252821003114], [0.4174962964646186, 0.01069632702004041]]",density,black,,,N008,visual,1,[],"['1', '2', '3', '4']",1,2023.2.3,harveyvisual,2.1,[],8,0.75,
0,pause,0.4,None,None,None,0,63,63,63,,,,,,,,,,,,,N008,visual,1,[],"['1', '2', '3', '4']",1,2023.2.3,harveyvisual,2.1,[],8,0.75,
6,dot,0.3,['dot'],['density'],black,0,64,64,64,,,24.800260066986084,24.51512885093689,24.815140962600708,dot,"[0.06, 0.08, 0.06, 0.1, 0.06, 0.06]","[[-0.060066269329224556, -0.3459973645598818], [-0.2267112282887438, -0.46433083725857055], [-0.03368736353914721, -0.0592740518520544], [0.1129416353875032, -0.20466059509733167], [0.13908697530976044, -0.42386339769443276], [-0.2931789080149146, -0.2669036372638095]]",density,black,,,N008,visual,1,[],"['1', '2', '3', '4']",1,2023.2.3,harveyvisual,2.1,[],8,0.75,
0,pause,0.4,None,None,None,0,65,65,65,,,,,,,,,,,,,N008,visual,1,[],"['1', '2', '3', '4']",1,2023.2.3,harveyvisual,2.1,[],8,0.75,
6,dot,0.3,['dot'],['density'],black,0,66,66,66,,,25.500261068344116,25.21505308151245,25.5150408744812,dot,"[0.08, 0.06, 0.08, 0.08, 0.1, 0.06]","[[0.1442800129286608, -0.025670240792647715], [-0.253335145558221, 0.06312541807928282], [0.15340240856287354, 0.2410349392962658], [-0.1639657784688781, 0.25075335361279655], [-0.07910231793701084, -0.12784096878077061], [-0.011661193723423325, 0.11361106492824657]]",density,black,,,N008,visual,1,[],"['1', '2', '3', '4']",1,2023.2.3,harveyvisual,2.1,[],8,0.75,
0,pause,0.4,None,None,None,0,67,67,67,,,,,,,,,,,,,N008,visual,1,[],"['1', '2', '3', '4']",1,2023.2.3,harveyvisual,2.1,[],8,0.75,
6,dot,0.3,['dot'],['density'],black,0,68,68,68,,,26.20025897026062,25.915037870407104,26.215041875839233,dot,"[0.08, 0.08, 0.1, 0.06, 0.1, 0.1]","[[-0.3075905201299059, -0.4396409988488083], [-0.19740249700094745, -0.17714391351551703], [0.053731853964380204, -0.5240815929277938], [0.045148855841778586, -0.17580561296456876], [0.17596231810730836, -0.3386358025171148], [-0.08995737585576556, -0.36423659604885134]]",density,black,,,N008,visual,1,[],"['1', '2', '3', '4']",1,2023.2.3,harveyvisual,2.1,[],8,0.75,
0,pause,0.4,None,None,None,0,69,69,69,,,,,,,,,,,,,N008,visual,1,[],"['1', '2', '3', '4']",1,2023.2.3,harveyvisual,2.1,[],8,0.75,
6,dot,0.3,['dot'],['density'],black,0,70,70,70,,,26.90026593208313,26.615054845809937,26.915058851242065,dot,"[0.08, 0.06, 0.08, 0.08, 0.1, 0.1]","[[-0.5416753121247185, 0.020803147184574915], [-0.3232269173664433, -0.07161231053200118], [-0.3008479376061402, -0.286480119217458], [-0.22299540496279888, 0.12470258063391813], [-0.10776740766186912, -0.19554033341247495], [-0.5165544979209102, -0.21376225914528924]]",density,black,,,N008,visual,1,[],"['1', '2', '3', '4']",1,2023.2.3,harveyvisual,2.1,[],8,0.75,
0,pause,0.4,None,None,None,0,71,71,71,,,,,,,,,,,,,N008,visual,1,[],"['1', '2', '3', '4']",1,2023.2.3,harveyvisual,2.1,[],8,0.75,
7,dot,0.3,['dot'],['density'],white,0,72,72,72,,,27.600262880325317,27.315006971359253,27.61498999595642,dot,"[0.1, 0.1, 0.08, 0.06, 0.06, 0.06, 0.1]","[[0.3032073476866497, 0.39528308644852606], [0.12977480624643314, 0.5338553612741447], [-0.07830532742558233, 0.5277294273979773], [0.000705909343175084, 0.04538848857330666], [-0.11442247498636825, 0.3203087976624053], [0.11424952152856681, 0.31372813630522095], [0.2743618672110132, 0.19233036806743029]]",density,white,,,N008,visual,1,[],"['1', '2', '3', '4']",1,2023.2.3,harveyvisual,2.1,[],8,0.75,
0,pause,0.4,None,None,None,0,73,73,73,,,,,,,,,,,1,27.763587951660156,N008,visual,1,[],"['1', '2', '3', '4']",1,2023.2.3,harveyvisual,2.1,[],8,0.75,
7,dot,0.3,['dot'],['density'],black,0,74,74,74,,,28.30024790763855,28.014967918395996,28.31497597694397,dot,"[0.08, 0.06, 0.08, 0.06, 0.06, 0.08, 0.06]","[[0.19245168201499255, -0.1876960705048169], [-0.3381443552002159, -0.23329338142126996], [-0.10497405195571721, -0.20200038512761503], [-0.19215049966389516, -0.01485034356210763], [-0.14804808022624072, 0.20187381879058183], [0.049390412829639754, -0.0077734514623590935], [0.08212821656350888, 0.19234027401595055]]",density,black,,,N008,visual,1,[],"['1', '2', '3', '4']",1,2023.2.3,harveyvisual,2.1,[],8,0.75,
0,pause,0.4,None,None,None,0,75,75,75,,,,,,,,,,,,,N008,visual,1,[],"['1', '2', '3', '4']",1,2023.2.3,harveyvisual,2.1,[],8,0.75,
7,dot,0.3,['dot'],['density'],black,0,76,76,76,,,29.000262022018433,28.714982986450195,29.014960050582886,dot,"[0.08, 0.1, 0.1, 0.06, 0.06, 0.1, 0.1]","[[-0.39883248072855915, 0.30823732592088265], [-0.041341486549100435, 0.2390478988097413], [-0.013495537319202725, 0.5211111720540192], [-0.2415889716500472, 0.10795059447242317], [-0.023803066389735523, 0.02076064871433158], [0.14387498046506175, 0.3548008600093999], [-0.24331877599120405, 0.46521846842164205]]",density,black,,,N008,visual,1,[],"['1', '2', '3', '4']",1,2023.2.3,harveyvisual,2.1,[],8,0.75,
0,pause,0.4,None,None,None,0,77,77,77,,,,,,,,,,,,,N008,visual,1,[],"['1', '2', '3', '4']",1,2023.2.3,harveyvisual,2.1,[],8,0.75,
7,dot,0.3,['dot'],['density'],black,0,78,78,78,,,29.700265884399414,29.41493797302246,29.714951992034912,dot,"[0.06, 0.08, 0.06, 0.06, 0.1, 0.06, 0.06]","[[0.1318978468379982, 0.48780960721302624], [-0.15530952210580917, 0.2429536962773128], [0.21675324185561073, 0.09111206147250148], [0.13033099328542835, 0.28547066376201063], [0.3859901392997328, 0.20497483482614012], [0.014590257841440182, 0.0970646397970693], [0.1730960121663288, -0.1180805096677859]]",density,black,,,N008,visual,1,[],"['1', '2', '3', '4']",1,2023.2.3,harveyvisual,2.1,[],8,0.75,
0,pause,0.4,None,None,None,0,79,79,79,,,,,,,,,,,,,N008,visual,1,[],"['1', '2', '3', '4']",1,2023.2.3,harveyvisual,2.1,[],8,0.75,
7,dot,0.3,['dot'],['density'],black,0,80,80,80,,,30.400264978408813,30.1149640083313,30.41494393348694,dot,"[0.08, 0.1, 0.1, 0.06, 0.06, 0.08, 0.08]","[[0.12430361198122393, -0.484697593056103], [0.0493599320108737, -0.036540600477799993], [0.2536650008125765, -0.05314613827093128], [-0.10908149692518246, -0.38401305955505927], [0.3510411480849886, -0.3949608705840701], [0.16732256025271752, -0.2817377092689904], [0.4277002215428168, -0.1937739732965619]]",density,black,,,N008,visual,1,[],"['1', '2', '3', '4']",1,2023.2.3,harveyvisual,2.1,[],8,0.75,
0,pause,0.4,None,None,None,0,81,81,81,,,,,,,,,,,,,N008,visual,1,[],"['1', '2', '3', '4']",1,2023.2.3,harveyvisual,2.1,[],8,0.75,
7,dot,0.3,['dot'],['density'],black,0,82,82,82,,,31.100255966186523,30.814905881881714,31.114896059036255,dot,"[0.06, 0.1, 0.1, 0.1, 0.08, 0.08, 0.1]","[[0.3302081014073935, 0.19448071361351732], [-0.22286629369238187, 0.3450023392305547], [-0.11533339293480348, 0.13926201039730488], [0.12023407780451623, 0.21240672508650668], [0.2659789407074307, 0.3894086603790018], [0.026604934602130894, 0.39133200849180605], [0.212400253920387, 0.027377351413115796]]",density,black,,,N008,visual,1,[],"['1', '2', '3', '4']",1,2023.2.3,harveyvisual,2.1,[],8,0.75,
0,pause,0.4,None,None,None,0,83,83,83,,,,,,,,,,,,,N008,visual,1,[],"['1', '2', '3', '4']",1,2023.2.3,harveyvisual,2.1,[],8,0.75,
8,dot,0.3,['dot'],['density'],black,0,84,84,84,,,31.80027484893799,31.514895915985107,31.814863920211792,dot,"[0.08, 0.1, 0.08, 0.08, 0.06, 0.1, 0.1, 0.1]","[[0.48529715144174124, -0.2697678579736521], [0.37309741842769656, 0.0699077870123373], [0.051182379473491794, 0.02141531407813483], [0.5234917469593858, 0.26578075419350655], [0.558201411832675, -0.037120345964853765], [0.22738215197141995, 0.24608732841731215], [0.3038957292845804, -0.12934366054116395], [0.024689158081869923, 0.25216756052328354]]",density,black,,,N008,visual,1,[],"['1', '2', '3', '4']",1,2023.2.3,harveyvisual,2.1,[],8,0.75,
0,pause,0.4,None,None,None,0,85,85,85,,,,,,,,,,,,,N008,visual,1,[],"['1', '2', '3', '4']",1,2023.2.3,harveyvisual,2.1,[],8,0.75,
8,dot,0.3,['dot'],['density'],black,0,86,86,86,,,32.500274896621704,32.21489095687866,32.51485800743103,dot,"[0.08, 0.08, 0.08, 0.08, 0.1, 0.08, 0.06, 0.1]","[[-0.30918623351354413, -0.2762980118811315], [0.03442122464869854, -0.32944299641312663], [0.20656618624830034, -0.4515266663928406], [0.20458815773351877, -0.002924552385479317], [-0.054765695239429084, -0.14491701700869716], [-0.0008776159608741382, 0.05441634750414142], [0.19975410704164612, -0.21252729673777132], [-0.19330391669800595, 0.14377227853430027]]",density,black,,,N008,visual,1,[],"['1', '2', '3', '4']",1,2023.2.3,harveyvisual,2.1,[],8,0.75,
0,pause,0.4,None,None,None,0,87,87,87,,,,,,,,,,,,,N008,visual,1,[],"['1', '2', '3', '4']",1,2023.2.3,harveyvisual,2.1,[],8,0.75,
8,dot,0.3,['dot'],['density'],black,0,88,88,88,,,33.2002739906311,32.91489100456238,33.21489405632019,dot,"[0.08, 0.06, 0.08, 0.06, 0.08, 0.1, 0.1, 0.06]","[[0.4359105889063985, -0.17362457700912998], [-0.10421753759268779, -0.0599030042764737], [0.3870326705858601, 0.24174009796940588], [0.2566713073165989, 0.014561377540278508], [0.2306797840234149, -0.3263374489921181], [0.47690301692068965, 0.04601699051563034], [0.08674944532705724, -0.15383855565976665], [0.03609124925759635, 0.09790267139194009]]",density,black,,,N008,visual,1,[],"['1', '2', '3', '4']",1,2023.2.3,harveyvisual,2.1,[],8,0.75,
0,pause,0.4,None,None,None,0,89,89,89,,,,,,,,,,,,,N008,visual,1,[],"['1', '2', '3', '4']",1,2023.2.3,harveyvisual,2.1,[],8,0.75,
8,dot,0.3,['dot'],['density'],black,0,90,90,90,,,33.90025997161865,33.615062952041626,33.915087938308716,dot,"[0.08, 0.08, 0.08, 0.06, 0.06, 0.08, 0.08, 0.08]","[[0.2564657333297123, -0.5164120873644681], [0.16207736998829034, -0.17430025554579232], [0.3801370228700199, -0.12440354324600712], [0.3861419762144276, -0.3474957963553726], [0.023072413076989942, -0.006703975881976366], [-0.07114697953604181, -0.35683211304459495], [0.45447188669532573, 0.06927659529933487], [0.23571610799738704, 0.02784742549372824]]",density,black,,,N008,visual,1,[],"['1', '2', '3', '4']",1,2023.2.3,harveyvisual,2.1,[],8,0.75,
0,pause,0.4,None,None,None,0,91,91,91,,,,,,,,,,,,,N008,visual,1,[],"['1', '2', '3', '4']",1,2023.2.3,harveyvisual,2.1,[],8,0.75,
8,dot,0.3,['dot'],['density'],black,0,92,92,92,,,34.600273847579956,34.31508803367615,34.61508893966675,dot,"[0.06, 0.08, 0.08, 0.06, 0.06, 0.08, 0.1, 0.1]","[[0.1740819983727909, -0.16863019829442621], [0.14644114519141543, -0.4524198896657212], [0.0024885361438939093, 0.023531574910491997], [-0.23717340943857948, -0.31112918658627675], [-0.11311749148073028, -0.46867866316561874], [-0.17928248077090506, -0.060241557052319365], [-0.03957999532622772, -0.24759906754331504], [-0.4644327601918011, -0.3627803331480915]]",density,black,,,N008,visual,1,[],"['1', '2', '3', '4']",1,2023.2.3,harveyvisual,2.1,[],8,0.75,
0,pause,0.4,None,None,None,0,93,93,93,,,,,,,,,,,,,N008,visual,1,[],"['1', '2', '3', '4']",1,2023.2.3,harveyvisual,2.1,[],8,0.75,
8,dot,0.3,['dot'],['density'],black,0,94,94,94,,,35.3002769947052,35.0149040222168,35.31511187553406,dot,"[0.06, 0.1, 0.08, 0.1, 0.06, 0.1, 0.08, 0.1]","[[-0.3869743371455666, 0.15388434217336297], [0.11424038932868294, 0.18734519769139274], [-0.06602262913525138, -0.20199883598953133], [-0.13221522482970946, 0.16661696891490863], [-0.2408224703751142, -0.03724946932993881], [-0.01219752370661542, -0.004327099574405561], [-0.20345141844285677, 0.44978546357431476], [0.2450906497331586, -0.012808503174003826]]",density,black,,,N008,visual,1,[],"['1', '2', '3', '4']",1,2023.2.3,harveyvisual,2.1,[],8,0.75,
0,pause,0.4,None,None,None,0,95,95,95,,,,,,,,,,,,,N008,visual,1,[],"['1', '2', '3', '4']",1,2023.2.3,harveyvisual,2.1,[],8,0.75,
9,dot,0.3,['dot'],['density'],black,0,96,96,96,,,36.00026798248291,35.71509289741516,36.01485085487366,dot,"[0.08, 0.06, 0.08, 0.06, 0.1, 0.06, 0.08, 0.1, 0.08]","[[0.21556792455118703, 0.37642033042102185], [0.14366510572844648, -0.18651452926789283], [0.49642287684820396, -0.0794158383055628], [-0.04770628609247857, -0.12519201939426747], [0.20310136493979325, 0.154094551714378], [-0.004065485174475974, 0.09100382633055243], [-0.018053901421587658, 0.34918523294118026], [0.29624623666919286, -0.053344657000752645], [-0.2018857737562037, 0.01971770186205045]]",density,black,,,N008,visual,1,[],"['1', '2', '3', '4']",1,2023.2.3,harveyvisual,2.1,[],8,0.75,
0,pause,0.4,None,None,None,0,97,97,97,,,,,,,,,,,,,N008,visual,1,[],"['1', '2', '3', '4']",1,2023.2.3,harveyvisual,2.1,[],8,0.75,
9,dot,0.3,['dot'],['density'],black,0,98,98,98,,,36.700270891189575,36.41501498222351,36.7149760723114,dot,"[0.1, 0.06, 0.1, 0.08, 0.08, 0.1, 0.06, 0.08, 0.08]","[[-0.4007656520072294, -0.25517300445391483], [-0.002534053661406415, -0.03841937385778563], [0.03867088550537559, -0.37109058839216275], [0.14298263539714814, -0.19121790068267305], [-0.18592892280395246, 0.09800459324165622], [-0.17114407793371844, -0.47763389460370764], [0.20594417137152282, 0.033112046987541804], [-0.3669302527083935, -0.010624696365658668], [-0.20182203610849478, -0.19970173151634407]]",density,black,,,N008,visual,1,[],"['1', '2', '3', '4']",1,2023.2.3,harveyvisual,2.1,[],8,0.75,
0,pause,0.4,None,None,None,0,99,99,99,,,,,,,,,,,,,N008,visual,1,[],"['1', '2', '3', '4']",1,2023.2.3,harveyvisual,2.1,[],8,0.75,
9,dot,0.3,['dot'],['density'],black,0,100,100,100,,,37.400274991989136,37.11486196517944,37.4149489402771,dot,"[0.1, 0.1, 0.08, 0.08, 0.1, 0.06, 0.06, 0.08, 0.08]","[[-0.1410632352740557, -0.317905811010377], [-0.01624442214728049, 0.1794094022286925], [0.09468404279643694, -0.24727132108451297], [-0.2758455249254349, -0.14491344886434532], [-0.07397021974914944, -0.09933967896750957], [-0.3580751224104431, 0.12641846535160695], [0.3672464474339042, -0.09947208873420914], [0.14679994141956812, -0.049441009882571184], [0.20049431506903384, 0.1443691092520585]]",density,black,,,N008,visual,1,[],"['1', '2', '3', '4']",1,2023.2.3,harveyvisual,2.1,[],8,0.75,
0,pause,0.4,None,None,None,0,101,101,101,,,,,,,,,,,,,N008,visual,1,[],"['1', '2', '3', '4']",1,2023.2.3,harveyvisual,2.1,[],8,0.75,
9,dot,0.3,['dot'],['density'],black,0,102,102,102,,,38.10025191307068,37.81495904922485,38.11496686935425,dot,"[0.06, 0.08, 0.06, 0.1, 0.08, 0.08, 0.08, 0.08, 0.06]","[[0.30047334598257713, -0.32583448447642216], [0.4997394081452916, 0.05175273655880906], [0.13646797290608587, 0.02221883094322858], [0.11448241016544139, -0.2117191838414046], [0.417500260412479, 0.2413963184479076], [0.19152536325099656, 0.23172406522327998], [0.5046802385722475, -0.28323005758562664], [-0.037891296982194685, 0.14714919272112825], [0.3292067348064443, -0.0657181274468392]]",density,black,,,N008,visual,1,[],"['1', '2', '3', '4']",1,2023.2.3,harveyvisual,2.1,[],8,0.75,
0,pause,0.4,None,None,None,0,103,103,103,,,,,,,,,,,,,N008,visual,1,[],"['1', '2', '3', '4']",1,2023.2.3,harveyvisual,2.1,[],8,0.75,
9,dot,0.3,['dot'],['density'],black,0,104,104,104,,,38.80026698112488,38.51500391960144,38.814794063568115,dot,"[0.06, 0.1, 0.1, 0.1, 0.1, 0.1, 0.08, 0.06, 0.06]","[[-0.03413633707233166, 0.539775862693792], [0.03045342777742709, 0.14881397110038386], [0.3968101769942594, 0.3516381959676015], [-0.12464897846505978, 0.27513009849494485], [0.24828272947848068, 0.13372878599656182], [0.1825630446668698, 0.5466865974155928], [-0.40057775338259505, 0.3148646888607764], [0.06988801613907401, -0.06658504348068199], [0.07277149512897427, 0.3699912437376705]]",density,black,,,N008,visual,1,[],"['1', '2', '3', '4']",1,2023.2.3,harveyvisual,2.1,[],8,0.75,
0,pause,0.4,None,None,None,0,105,105,105,,,,,,,,,,,,,N008,visual,1,[],"['1', '2', '3', '4']",1,2023.2.3,harveyvisual,2.1,[],8,0.75,
9,dot,0.3,['dot'],['density'],white,0,106,106,106,,,39.50025796890259,39.21499300003052,39.51494789123535,dot,"[0.06, 0.08, 0.06, 0.06, 0.08, 0.06, 0.1, 0.08, 0.1]","[[-0.03413633707233166, 0.539775862693792], [0.03045342777742709, 0.14881397110038386], [0.3968101769942594, 0.3516381959676015], [-0.12464897846505978, 0.27513009849494485], [0.24828272947848068, 0.13372878599656182], [0.1825630446668698, 0.5466865974155928], [-0.40057775338259505, 0.3148646888607764], [0.06988801613907401, -0.06658504348068199], [0.07277149512897427, 0.3699912437376705]]",density,white,,,N008,visual,1,[],"['1', '2', '3', '4']",1,2023.2.3,harveyvisual,2.1,[],8,0.75,
0,pause,0.4,None,None,None,0,107,107,107,,,,,,,,,,,1,39.819173097610474,N008,visual,1,[],"['1', '2', '3', '4']",1,2023.2.3,harveyvisual,2.1,[],8,0.75,
20,dot,0.3,['dot'],['density'],white,0,108,108,108,,,40.200275897979736,39.91494798660278,40.2148540019989,dot,"[0.08, 0.06, 0.08, 0.06, 0.1, 0.08, 0.1, 0.06, 0.06, 0.1, 0.1, 0.1, 0.1, 0.06, 0.08, 0.06, 0.06, 0.1, 0.08, 0.06]","[[0.06004415684078168, -0.0024952254980596944], [-0.1860129925895051, -0.11070780738817737], [-0.23900025995186636, 0.13560751746157884], [0.13694338287127072, 0.3107633491116236], [-0.04537551674098017, -0.5362077726681047], [0.5406889897702231, 0.0706106724650325], [-0.161998015331636, 0.4534767814038009], [0.29321686725822893, -0.456406056709698], [0.5151280211419224, 0.28909056059030364], [-0.42987093234098983, -0.2822864801592477], [0.11571476561022498, -0.31670256624631554], [-0.5961442206006355, -0.02470787024783043], [-0.06687059639357251, 0.2656163153242036], [-0.37965560694377903, -0.09104942613527728], [0.1254179563173644, 0.5169890604903133], [0.5134820198613815, -0.15370127720224955], [0.2641945198660408, -0.024844305053204563], [-0.36792095335078423, 0.3104417365005956], [0.33959712404062514, 0.48894844104179147], [0.32960520278038696, -0.23469757483859766]]",density,white,,,N008,visual,1,[],"['1', '2', '3', '4']",1,2023.2.3,harveyvisual,2.1,[],8,0.75,
0,pause,0.4,None,None,None,0,109,109,109,,,,,,,,,,,,,N008,visual,1,[],"['1', '2', '3', '4']",1,2023.2.3,harveyvisual,2.1,[],8,0.75,
20,dot,0.3,['dot'],['density'],black,0,110,110,110,,,40.900294065475464,40.61475205421448,40.914839029312134,dot,"[0.08, 0.08, 0.08, 0.1, 0.06, 0.08, 0.06, 0.06, 0.08, 0.06, 0.08, 0.08, 0.06, 0.1, 0.1, 0.1, 0.1, 0.1, 0.1, 0.1]","[[-0.4282116973234592, 0.11342298782106791], [-0.5234742547053627, 0.2772324264028004], [0.24544032758466983, 0.13106683540247943], [0.2391446573122168, -0.41296442547294365], [0.013535401863365992, -0.09398097528702576], [-0.37758771853142914, -0.16874106375789794], [0.14958918135020915, 0.5347621181567351], [0.48807822582571114, 0.3017049133626202], [-0.12709811313483727, 0.30626470379677695], [0.45418724745788464, 0.09201915049013054], [-0.5609331658181635, -0.08954626722418699], [0.06658021384137747, 0.26216969008244817], [0.5815538453664496, -0.058316636316987275], [-0.22083312018488332, -0.357308222703212], [-0.1604884608576051, 0.5270100206605784], [-0.010321700144358514, -0.5956990451574187], [-0.019725393604543395, -0.383161742343317], [0.3906628023716284, -0.1617418889518844], [0.4569862686779821, -0.38038870127441554], [0.3629596898206441, 0.48121009033241385]]",density,black,1,40.607337951660156,N008,visual,1,[],"['1', '2', '3', '4']",1,2023.2.3,harveyvisual,2.1,[],8,0.75,
0,pause,0.4,None,None,None,0,111,111,111,,,,,,,,,,,,,N008,visual,1,[],"['1', '2', '3', '4']",1,2023.2.3,harveyvisual,2.1,[],8,0.75,
20,dot,0.3,['dot'],['density'],black,0,112,112,112,,,41.60026288032532,41.3147349357605,41.61472201347351,dot,"[0.06, 0.06, 0.1, 0.08, 0.1, 0.06, 0.1, 0.06, 0.1, 0.1, 0.08, 0.06, 0.06, 0.06, 0.08, 0.06, 0.08, 0.1, 0.08, 0.06]","[[-0.23259206310933933, 0.3364839901017117], [0.014493007978826578, -0.3624386338158464], [0.370560212577869, 0.0007542301209741975], [0.16785739154752088, -0.24836669680718865], [-0.4798917540353261, -0.18362639703252612], [0.41344724531507515, 0.4184516167337012], [-0.253959144847556, 0.5278248752399961], [0.5344202346836483, -0.2436033704921697], [0.5929206784840412, 0.04530166306362418], [0.2850421814288747, 0.18044276703688278], [0.31752825205377133, -0.3713489304450499], [0.017134452290526347, 0.5705288531082386], [-0.37076919163726574, 0.17720142850483706], [0.06828057850261282, 0.2019312612060601], [-0.5876618836181537, 0.11353934877590677], [-0.1769727630408099, -0.1361453545942266], [-0.471854799319165, 0.3515100207587571], [-0.25176255000388365, -0.4166886814021348], [0.0816032418735303, -0.5854458316915403], [0.2538710886683425, 0.5233540346131588]]",density,black,,,N008,visual,1,[],"['1', '2', '3', '4']",1,2023.2.3,harveyvisual,2.1,[],8,0.75,
0,pause,0.4,None,None,None,0,113,113,113,,,,,,,,,,,,,N008,visual,1,[],"['1', '2', '3', '4']",1,2023.2.3,harveyvisual,2.1,[],8,0.75,
20,dot,0.3,['dot'],['density'],black,0,114,114,114,,,42.30027484893799,42.01485896110535,42.31470799446106,dot,"[0.06, 0.1, 0.08, 0.08, 0.06, 0.06, 0.1, 0.08, 0.08, 0.06, 0.08, 0.06, 0.06, 0.1, 0.1, 0.1, 0.06, 0.1, 0.1, 0.08]","[[-0.03782810548643789, 0.06859190682935723], [0.09555526178993501, 0.5683906496946278], [0.07650557369321931, -0.111064459505675], [-0.5072762003927387, -0.22823706556783316], [0.42748775100109626, 0.28694426503517984], [-0.4449569105726585, -0.023633284975093816], [-0.12993143860184775, -0.1909087584350369], [-0.14667070891864342, 0.3421285682288979], [0.3164861089600295, 0.06902625322350353], [-0.5208593144127392, 0.18789908904990554], [0.5412783745328175, 0.0023553710282435136], [0.2694541271608728, -0.43196810342714576], [-0.06822038411137499, -0.5030907800959791], [-0.33234035715035376, -0.4938512400844019], [0.11596025159861678, 0.36976258384414395], [0.4430504912122949, -0.2868515095186954], [-0.21257417180183374, 0.5346513676180117], [-0.22160701684254364, 0.1384236586576495], [0.284760466864977, 0.4927062356916181], [-0.3902060521188755, 0.35161338032436656]]",density,black,,,N008,visual,1,[],"['1', '2', '3', '4']",1,2023.2.3,harveyvisual,2.1,[],8,0.75,
0,pause,0.4,None,None,None,0,115,115,115,,,,,,,,,,,,,N008,visual,1,[],"['1', '2', '3', '4']",1,2023.2.3,harveyvisual,2.1,[],8,0.75,
20,dot,0.3,['dot'],['density'],black,0,116,116,116,,,43.00027799606323,42.714730978012085,43.01469707489014,dot,"[0.08, 0.08, 0.06, 0.08, 0.1, 0.1, 0.08, 0.06, 0.06, 0.08, 0.06, 0.06, 0.1, 0.06, 0.06, 0.08, 0.1, 0.1, 0.08, 0.1]","[[0.47650059351463236, 0.16565899380127802], [0.24841838602309996, -0.2589374224579229], [0.5765299249302808, -0.07742545533380721], [-0.14109031051390503, -0.12820897841352064], [-0.43815538781564817, -0.2558778636481328], [-0.2264612355022796, -0.3693396532411811], [0.13861426655837017, 0.509360357737263], [-0.11088144623835938, 0.37485201566696835], [0.09901829945858975, 0.24574062219144444], [0.30963620507605694, 0.38507141729053795], [-0.027654435167934643, 0.031049447126101914], [0.030865123419989482, -0.4694087306729532], [-0.48695179546657036, -0.049399883101242215], [-0.258424669184349, 0.21083425983120851], [-0.36557870888168265, 0.3913325203710355], [0.2544407678787667, -0.5442357419768794], [0.45426624487057443, -0.3559854474523348], [-0.1985204974069938, 0.564753079552752], [-0.5426726126758835, 0.16819262884368763], [0.12462533214517368, -0.10808030358317328]]",density,black,,,N008,visual,1,[],"['1', '2', '3', '4']",1,2023.2.3,harveyvisual,2.1,[],8,0.75,
0,pause,0.4,None,None,None,0,117,117,117,,,,,,,,,,,,,N008,visual,1,[],"['1', '2', '3', '4']",1,2023.2.3,harveyvisual,2.1,[],8,0.75,
20,dot,0.3,['dot'],['density'],black,0,118,118,118,,,43.70025300979614,43.4146568775177,43.71464395523071,dot,"[0.1, 0.06, 0.08, 0.1, 0.08, 0.1, 0.06, 0.06, 0.08, 0.08, 0.1, 0.1, 0.1, 0.08, 0.06, 0.08, 0.1, 0.08, 0.06, 0.1]","[[-0.21833389874589015, 0.04337897507539756], [-0.4153933880843061, 0.21177558856033946], [-0.23656624798418618, -0.5219735536259061], [0.2982019607669877, 0.32658846192664914], [-0.1591084745525579, 0.5429439763833078], [0.5376438677524539, -0.2640282738596442], [0.014615922958010286, 0.1917903471792468], [-0.1418117463450556, 0.3158615679027189], [0.30577767118310906, 0.0643118852622725], [-0.2944457336920714, -0.18789300952208277], [0.16720433648086508, -0.33156363830117036], [-0.044036418775891595, -0.10060077013458113], [0.031190489658209697, 0.47166651792504266], [0.24199589346695893, -0.5442989424914529], [0.5000310536656299, 0.03985603816055866], [-0.5256695995220553, -0.05339762645450058], [-0.5006232938144595, -0.2652961036980123], [0.48496438144393916, 0.28862913819357244], [0.01616054642233855, -0.4746502950994831], [-0.1561394421058725, -0.33106485962890947]]",density,black,,,N008,visual,1,[],"['1', '2', '3', '4']",1,2023.2.3,harveyvisual,2.1,[],8,0.75,
0,pause,0.4,None,None,None,0,119,119,119,,,,,,,,,,,,,N008,visual,1,[],"['1', '2', '3', '4']",1,2023.2.3,harveyvisual,2.1,[],8,0.75,
20,dot,0.3,['dot'],['density'],black,0,120,120,120,,,44.400254011154175,44.114773988723755,44.41476893424988,dot,"[0.1, 0.08, 0.1, 0.06, 0.08, 0.1, 0.06, 0.1, 0.06, 0.08, 0.08, 0.06, 0.1, 0.08, 0.06, 0.1, 0.08, 0.08, 0.06, 0.06]","[[-0.48041241093303133, -0.14690444978658299], [0.48480911780039426, 0.2161266126823051], [0.33600474450212414, 0.4034181681166997], [-0.06537238840258575, 0.2364920808291615], [-0.1639645762588846, -0.3963285837342352], [0.25315169939300586, -0.07480952396540524], [0.1313779818194175, 0.46277853029682425], [0.486041438196784, -0.27093343399226044], [-0.4258401653562157, 0.10923487605056903], [0.11550056107873441, -0.5212527462406643], [-0.13231697445069723, 0.05061670818175368], [-0.40725275226325464, 0.3338200362915002], [0.11011641414743745, 0.15863562763360384], [0.5874835368384196, -0.10382733690736788], [0.23968732233554346, -0.3100931143258427], [-0.23406475707583446, -0.16788782561211524], [-0.28973504265914196, 0.49123997896168536], [-0.0923944550384902, 0.5472118849343249], [-0.6020028351487651, 0.022514998476569778], [0.00506064283475427, -0.27191179867766835]]",density,black,,,N008,visual,1,[],"['1', '2', '3', '4']",1,2023.2.3,harveyvisual,2.1,[],8,0.75,
0,pause,0.4,None,None,None,0,121,121,121,,,,,,,,,,,,,N008,visual,1,[],"['1', '2', '3', '4']",1,2023.2.3,harveyvisual,2.1,[],8,0.75,
20,dot,0.3,['dot'],['density'],black,0,122,122,122,,,45.10026001930237,44.81465792655945,45.11475086212158,dot,"[0.08, 0.06, 0.1, 0.1, 0.1, 0.1, 0.06, 0.08, 0.1, 0.1, 0.08, 0.08, 0.1, 0.08, 0.08, 0.06, 0.1, 0.1, 0.08, 0.1]","[[-0.26100484243655164, -0.07439214039404518], [-0.4594284756697778, -0.3203877621276987], [0.09544286157897142, -0.5386937167087251], [-0.5913473392610051, 0.10662414348352611], [0.32527592541725026, 0.3082982675996666], [-0.011827743718986428, -0.2663790068353046], [0.48119408491108706, -0.20825274447453457], [0.14631003895497474, 0.49979443112673283], [0.2459993865677308, 0.014899957615461035], [0.54367812514019, 0.1832773295080657], [-0.11419955251486391, 0.3846640600000534], [0.5929789633230388, -0.04905495423975763], [-0.0239483275882324, 0.1493616063819132], [-0.4406373741419598, 0.28932367920610524], [0.2729082081564892, -0.3755281055345078], [-0.2587167444913138, -0.4474062874817557], [-0.37938164544025643, 0.08365417866754443], [-0.26534414690940833, 0.5049325356484534], [-0.5307966602863821, -0.10680152219724248], [-0.08198489776647433, 0.5792865905317587]]",density,black,,,N008,visual,1,[],"['1', '2', '3', '4']",1,2023.2.3,harveyvisual,2.1,[],8,0.75,
0,pause,0.4,None,None,None,0,123,123,123,,,,,,,,,,,,,N008,visual,1,[],"['1', '2', '3', '4']",1,2023.2.3,harveyvisual,2.1,[],8,0.75,
20,dot,0.3,['dot'],['density'],black,0,124,124,124,,,45.80025100708008,45.5147659778595,45.81463098526001,dot,"[0.08, 0.1, 0.06, 0.06, 0.08, 0.08, 0.08, 0.1, 0.08, 0.1, 0.06, 0.1, 0.08, 0.06, 0.08, 0.08, 0.08, 0.1, 0.1, 0.1]","[[-0.4057191992447614, 0.4100980122050675], [-0.010045003529235763, 0.1557779022892546], [0.4711722351922817, 0.1000028661104782], [-0.052188938488788916, -0.3891607070408384], [0.31477602108286784, 0.4056855533979429], [0.4080834055417718, -0.25642144347485074], [-0.19547293358333823, 0.4361927746334602], [-0.5667291706408873, -0.1284435113126109], [-0.3879849133627872, -0.005257338984193616], [-0.16514026444114543, -0.08547627025404603], [-0.17961098891223004, -0.5556221277837492], [0.07928612729911144, 0.5584153125315988], [0.07890276720386502, -0.201480682077063], [-0.018385669549711214, 0.3544842676725727], [0.08075750974739393, -0.576958141141786], [-0.3068766019837197, -0.21949487059803807], [-0.5320379259957013, 0.23212414958115707], [0.32563228392101184, -0.06476542006113467], [-0.18356238683291404, 0.24220791670795505], [0.2802807656301305, -0.487229795241943]]",density,black,,,N008,visual,1,[],"['1', '2', '3', '4']",1,2023.2.3,harveyvisual,2.1,[],8,0.75,
0,pause,0.4,None,None,None,0,125,125,125,,,,,,,,,,,,,N008,visual,1,[],"['1', '2', '3', '4']",1,2023.2.3,harveyvisual,2.1,[],8,0.75,
20,dot,0.3,['dot'],['density'],black,0,126,126,126,,,46.50026607513428,46.214587926864624,46.51471400260925,dot,"[0.08, 0.06, 0.1, 0.06, 0.08, 0.06, 0.08, 0.06, 0.06, 0.06, 0.08, 0.1, 0.1, 0.08, 0.06, 0.1, 0.06, 0.06, 0.06, 0.06]","[[-0.45001487873687934, -0.20591589283202488], [0.5836797174516904, 0.11686019424730168], [0.21376608370379147, -0.49526157783634267], [0.4155451272737366, 0.3115900504586407], [0.22011148010104564, 0.1327735288682177], [-0.06355816616048471, 0.5072558453856088], [-0.4484472997384735, 0.3311160177902336], [-0.5094910931490466, 0.06438722583026679], [0.10225476813415435, -0.06915575343161706], [0.40179781185881003, -0.43854300937874724], [0.45209135138941636, -0.03435531810460163], [-0.2920261799274347, -0.4134645882214454], [0.011090817560135857, 0.1886225098850629], [-0.05244737943765021, -0.22029707645251734], [0.48303120193191174, -0.22809825376344817], [-0.14013051093274104, -0.04293222644779482], [0.16971860330091415, -0.25745004869645294], [-0.1421612676229954, -0.5407440393934198], [0.17619106979664756, 0.3369338731184429], [0.16488009960208427, 0.5689994546200523]]",density,black,,,N008,visual,1,[],"['1', '2', '3', '4']",1,2023.2.3,harveyvisual,2.1,[],8,0.75,
0,pause,0.4,None,None,None,0,127,127,127,,,,,,,,,,,,,N008,visual,1,[],"['1', '2', '3', '4']",1,2023.2.3,harveyvisual,2.1,[],8,0.75,
20,dot,0.3,['dot'],['density'],black,0,128,128,128,,,47.200265884399414,46.91471886634827,47.21457290649414,dot,"[0.1, 0.06, 0.1, 0.08, 0.1, 0.06, 0.1, 0.08, 0.1, 0.08, 0.08, 0.1, 0.1, 0.06, 0.1, 0.06, 0.06, 0.08, 0.1, 0.06]","[[0.12011307168580132, 0.06932793986744634], [0.47463263260520605, -0.0009719065590260145], [-0.3903603885116205, 0.06552743632285518], [0.08738139598590433, -0.3008008103340722], [-0.26638973325325765, -0.11797050885158095], [-0.48128505526704574, -0.35053659985555474], [-0.15896614298487122, -0.5136537789991876], [0.3271042617825982, 0.17692797911429892], [-0.33503712446482337, 0.46572040109870494], [0.14611684847275364, 0.43709926860992365], [-0.5596639430059409, -0.027223482716012604], [0.41813445795229043, -0.41867171049586194], [0.19763886551601906, -0.49510710293292626], [-0.2137097123218079, 0.23460837541319735], [-0.4853395951988281, 0.3480754626755986], [0.5004303004921257, -0.23129277445908486], [-0.04316118667397306, -0.1604508584740743], [-0.08350473104877398, 0.4173502880770432], [0.36328428718501704, 0.3905950240022451], [-0.08041779803964777, 0.09655673219735039]]",density,black,,,N008,visual,1,[],"['1', '2', '3', '4']",1,2023.2.3,harveyvisual,2.1,[],8,0.75,
0,pause,0.4,None,None,None,0,129,129,129,,,,,,,,,,,,,N008,visual,1,[],"['1', '2', '3', '4']",1,2023.2.3,harveyvisual,2.1,[],8,0.75,
20,dot,0.3,['dot'],['density'],black,0,130,130,130,,,47.9002640247345,47.61457395553589,47.91451406478882,dot,"[0.1, 0.06, 0.1, 0.08, 0.1, 0.06, 0.1, 0.08, 0.1, 0.08, 0.08, 0.06, 0.1, 0.08, 0.08, 0.1, 0.06, 0.08, 0.1, 0.06]","[[-0.571310772945079, -0.0676145192872872], [-0.24313995993222387, 0.09671552614911494], [0.11258290001702276, 0.09318915618966017], [0.5199743695557709, -0.07431686536149604], [-0.3800870364898954, -0.3662832144457966], [-0.2299379056133536, -0.5583601937693597], [-0.06162857141650924, -0.03059761456767318], [-0.4011191299217506, 0.34793531654045307], [0.21070374387724355, 0.5432214600487386], [-0.18681203909271243, 0.5087351171339836], [-0.012319251810228304, -0.2810300985304413], [-0.26589332662774035, -0.20771624614376227], [0.411847672026891, -0.35646979812158147], [0.371267010522377, 0.15533771254665069], [0.3824782700959528, 0.41031069373984297], [0.033066659744662386, 0.4708869808707573], [0.07890780701673017, -0.507169508014829], [-0.5574012026331878, 0.17463407909125286], [0.2838883696510437, -0.04782376299641522], [0.57067780321922, 0.15898755094844094]]",density,black,,,N008,visual,1,[],"['1', '2', '3', '4']",1,2023.2.3,harveyvisual,2.1,[],8,0.75,
0,pause,0.4,None,None,None,0,131,131,131,,,,,,,,,,,,,N008,visual,1,[],"['1', '2', '3', '4']",1,2023.2.3,harveyvisual,2.1,[],8,0.75,
20,dot,0.3,['dot'],['density'],black,0,132,132,132,,,48.60025906562805,48.314687967300415,48.61467885971069,dot,"[0.06, 0.06, 0.1, 0.06, 0.08, 0.08, 0.1, 0.1, 0.06, 0.08, 0.08, 0.06, 0.06, 0.06, 0.08, 0.08, 0.06, 0.1, 0.06, 0.08]","[[-0.5419233069180897, -0.0012562604807441757], [0.16574956088809456, 0.09745195351351821], [0.4721442985902814, 0.35306549432194617], [-0.025353911672323926, 0.5041389684787698], [0.39612902736103417, 0.05110801751144872], [-0.22887654719478867, -0.4381185455554786], [0.4150211944242418, -0.39148951541761123], [0.19448632937982735, -0.16787619080661592], [-0.2572212317602941, -0.18497016838716196], [0.1831595789938265, 0.5209669720867197], [-0.32370400664834575, 0.1887751678500672], [-0.06028851253114975, 0.09964920576284997], [0.5183611965901039, -0.1847585674272805], [-0.0055629142620289285, -0.5779813808319497], [0.05766725612920187, 0.309987570575052], [-0.2873580789972173, 0.3926543711744118], [0.2062202618325285, -0.3650668599742719], [-0.46154403958144147, -0.29828263424559276], [0.5593339684290183, 0.16393513858572048], [-0.5002363774174213, 0.32095769393223994]]",density,black,,,N008,visual,1,[],"['1', '2', '3', '4']",1,2023.2.3,harveyvisual,2.1,[],8,0.75,
0,pause,0.4,None,None,None,0,133,133,133,,,,,,,,,,,,,N008,visual,1,[],"['1', '2', '3', '4']",1,2023.2.3,harveyvisual,2.1,[],8,0.75,
20,dot,0.3,['dot'],['density'],black,0,134,134,134,,,49.30025887489319,49.01470994949341,49.314666986465454,dot,"[0.1, 0.08, 0.08, 0.08, 0.06, 0.08, 0.08, 0.08, 0.08, 0.08, 0.06, 0.1, 0.1, 0.1, 0.08, 0.08, 0.06, 0.06, 0.1, 0.1]","[[-0.36381825165175347, 0.40160405166207325], [0.27244299166518204, -0.0823006430111985], [0.5486752017530733, 0.19361749147688856], [0.5428457547649054, -0.19087262849556816], [-0.11820442881534526, 0.5158867695322541], [-0.3316352935716385, 0.11867246030469081], [0.3176959248170055, -0.3915992325740283], [0.19007711754736034, 0.4114727161111841], [-0.5178418195664601, 0.21669190602614619], [0.05061847456899615, -0.379107529718876], [-0.3711670761665705, -0.3453952411416763], [-0.22946142827218807, -0.06082738427548817], [0.280873135044706, 0.11891745458223657], [-0.195035033229067, -0.4471725387551321], [0.0711640440756508, 0.5600096072215813], [0.05454665319497454, -0.07517755237750534], [-0.12523820391988777, 0.29823912367527905], [-0.5656397976740628, -0.15388529903391562], [0.027279865958465765, -0.6043002875176311], [0.06375179848235601, 0.23880649484744165]]",density,black,,,N008,visual,1,[],"['1', '2', '3', '4']",1,2023.2.3,harveyvisual,2.1,[],8,0.75,
0,pause,0.4,None,None,None,0,135,135,135,,,,,,,,,,,,,N008,visual,1,[],"['1', '2', '3', '4']",1,2023.2.3,harveyvisual,2.1,[],8,0.75,
20,dot,0.3,['dot'],['density'],black,0,136,136,136,,,50.00028395652771,49.71456694602966,50.01465892791748,dot,"[0.06, 0.08, 0.08, 0.06, 0.06, 0.08, 0.06, 0.1, 0.06, 0.06, 0.06, 0.06, 0.08, 0.08, 0.1, 0.1, 0.08, 0.1, 0.06, 0.06]","[[0.08625773501103617, 0.22918879727409336], [0.32127748617706575, -0.4350422983840357], [0.5748194317255161, -0.143964667589691], [-0.23151732829165594, 0.16869275333448897], [0.35904127367714755, 0.3382627710455207], [-0.24629682287088367, -0.39944774867833954], [0.5592770977690381, 0.18887183946199548], [-0.02543818035324774, 0.39641528318942776], [0.34974957156649034, 0.13701296235952587], [0.27836409673597684, -0.238097141740435], [-0.5953895010172404, -0.09364745248790286], [-0.37553120920659555, -0.05455271677966134], [0.15458787787067374, 0.4613125313933355], [0.016791413467404315, -0.13202187358678275], [-0.564582093152274, 0.1724564499542578], [-0.3026828311993084, 0.37620007460992544], [0.09298753367323143, -0.36293408791198256], [-0.1994058999704293, -0.19251520435765873], [0.09208212843417529, -0.5854391255431735], [-0.1199617843959801, 0.015411700649788584]]",density,black,,,N008,visual,1,[],"['1', '2', '3', '4']",1,2023.2.3,harveyvisual,2.1,[],8,0.75,
0,pause,0.4,None,None,None,0,137,137,137,,,,,,,,,,,,,N008,visual,1,[],"['1', '2', '3', '4']",1,2023.2.3,harveyvisual,2.1,[],8,0.75,
20,dot,0.3,['dot'],['density'],black,0,138,138,138,,,50.70028305053711,50.41454887390137,50.71465301513672,dot,"[0.1, 0.08, 0.1, 0.06, 0.1, 0.06, 0.06, 0.06, 0.06, 0.06, 0.1, 0.08, 0.06, 0.08, 0.1, 0.06, 0.08, 0.08, 0.08, 0.06]","[[0.16120404980727565, 0.16518909173415797], [0.4126069140135543, 0.08311430639056427], [-0.13208988764028645, -0.57353681880827], [0.3623797672822566, -0.3959894916442787], [-0.21008783105465878, -0.06016202752814692], [-0.4626992064922469, -0.3552389196857368], [-0.36173339564049406, 0.3357711400353351], [0.579013043213365, -0.14513005943125987], [0.20287622334789612, -0.25543695839852165], [-0.08040702887453277, 0.5615603385380337], [-0.2492935949811213, 0.15153504390804728], [-0.46831767119268264, 0.08865776613452775], [0.0017652951477361567, -0.036102646825046714], [-0.2827638111886394, -0.278557250854191], [0.3443582588611027, 0.407932458376337], [-0.5377301724052761, -0.15557807850866223], [0.05821651469720801, 0.42682411494738803], [-0.05389891709341588, -0.30356220056041455], [0.11957361765479646, -0.5780905758222886], [-0.021351685630046524, 0.25462334020596966]]",density,black,,,N008,visual,1,[],"['1', '2', '3', '4']",1,2023.2.3,harveyvisual,2.1,[],8,0.75,
0,pause,0.4,None,None,None,0,139,139,139,,,,,,,,,,,,,N008,visual,1,[],"['1', '2', '3', '4']",1,2023.2.3,harveyvisual,2.1,[],8,0.75,
20,dot,0.3,['dot'],['density'],white,0,140,140,140,,,51.40026903152466,51.11467695236206,51.414632081985474,dot,"[0.08, 0.08, 0.08, 0.08, 0.1, 0.08, 0.1, 0.1, 0.08, 0.06, 0.08, 0.1, 0.06, 0.06, 0.1, 0.08, 0.1, 0.08, 0.06, 0.06]","[[0.22101113955226326, -0.5185706239332452], [-0.32219156964288354, -0.12815007860361916], [0.09056784693625208, -0.3549603484188041], [0.2886168443561783, 0.12725291528773264], [-0.021802074736857135, -0.13312000630910686], [0.18827772479704286, 0.5674311582230843], [0.4866123255724185, 0.09150614659210643], [-0.33438358937249496, 0.248729402222033], [-0.5879550785232283, 0.07570084489200024], [0.48352895773579274, -0.13761718148275578], [-0.5530025464176392, -0.2282680031740009], [-0.16522244054142599, 0.014581232206448136], [0.34638833512017686, 0.324993798465364], [-0.10863373477899735, 0.4495544827035911], [-0.31850377863308693, -0.3993773667104237], [-0.11107750624106288, -0.40748301263996467], [0.1806529968076317, -0.07777906078176061], [0.3911332150062805, -0.4258591928870704], [0.03952129686069006, -0.58865415315238], [-0.33257938572652246, 0.4637932718027752]]",density,white,,,N008,visual,1,[],"['1', '2', '3', '4']",1,2023.2.3,harveyvisual,2.1,[],8,0.75,
0,pause,0.4,None,None,None,0,141,141,141,,,,,,,,,,,,,N008,visual,1,[],"['1', '2', '3', '4']",1,2023.2.3,harveyvisual,2.1,[],8,0.75,
20,dot,0.3,['dot'],['density'],black,0,142,142,142,,,52.10026788711548,51.814467906951904,52.11451005935669,dot,"[0.06, 0.06, 0.08, 0.08, 0.1, 0.1, 0.08, 0.06, 0.1, 0.08, 0.06, 0.1, 0.08, 0.06, 0.08, 0.1, 0.06, 0.1, 0.08, 0.08]","[[-0.46301549706571793, 0.37295207928061774], [-0.3879543693707399, -0.14545377725460956], [-0.06288903124327627, -0.13773080499167778], [-0.25365066487275995, 0.06864623156132643], [0.4880459619935039, -0.2193125242335002], [-0.13135245291914183, -0.46292360006833644], [-0.16275715980961464, 0.41743718235278493], [-0.5942905314378517, -0.004224776709016137], [0.2382582310710073, -0.12612782206435108], [0.12973754082092603, -0.31990478895907193], [0.45189453705288674, 0.1749088253318486], [-0.3038823743448073, -0.35499187159684553], [0.24034127700224084, 0.17639124665645767], [0.01654094447684107, 0.03606432602957277], [0.5908070933803645, 0.04331749033861229], [0.2615712424050477, -0.48493824239869077], [0.22393680799096893, 0.5580332775823168], [0.15064625472673077, 0.34576251526307533], [-0.1021050277374328, 0.19085792796754997], [0.40009968501769244, 0.39363844254882224]]",density,black,,,N008,visual,1,[],"['1', '2', '3', '4']",1,2023.2.3,harveyvisual,2.1,[],8,0.75,
0,pause,0.4,None,None,None,0,143,143,143,,,,,,,,,,,,,N008,visual,1,[],"['1', '2', '3', '4']",1,2023.2.3,harveyvisual,2.1,[],8,0.75,
20,dot,0.3,['dot'],['density'],black,0,144,144,144,,,52.80027890205383,52.51445698738098,52.814444065093994,dot,"[0.06, 0.08, 0.06, 0.1, 0.06, 0.08, 0.1, 0.08, 0.06, 0.08, 0.08, 0.08, 0.08, 0.1, 0.1, 0.06, 0.06, 0.1, 0.08, 0.1]","[[0.5382034651816939, -0.05081079567167007], [-0.58223331373792, 0.1191785734736161], [-0.1199023718334441, 0.09427453469947822], [0.03812911562347476, -0.4061124517191552], [-0.538490114846484, -0.0978046548404426], [0.11176160917447986, -0.14508710574946126], [-0.14018615372094018, -0.30121539052343693], [0.35835042918924986, -0.4755271042983917], [0.259964776561073, 0.21309369785803056], [0.3298681665294907, 0.5059920768309895], [0.4668690680432809, 0.2876049350772747], [-0.2834583862866079, -0.4948793229674023], [-0.4360136489692794, 0.3643230424057161], [0.04390325727623923, 0.4511033012270974], [-0.10553099537167387, 0.29971838002614737], [-0.3811918778660807, -0.28388695702116407], [0.06461761907921659, -0.6006665314784071], [-0.35622442393250486, 0.056644058969628486], [0.1722087315593126, 0.03738471994905124], [-0.1960711596211906, 0.5346608745199546]]",density,black,,,N008,visual,1,[],"['1', '2', '3', '4']",1,2023.2.3,harveyvisual,2.1,[],8,0.75,
0,pause,0.4,None,None,None,0,145,145,145,,,,,,,,,,,,,N008,visual,1,[],"['1', '2', '3', '4']",1,2023.2.3,harveyvisual,2.1,[],8,0.75,
20,dot,0.3,['dot'],['density'],black,0,146,146,146,,,53.500263929367065,53.214439868927,53.51442885398865,dot,"[0.08, 0.06, 0.06, 0.1, 0.1, 0.08, 0.1, 0.06, 0.06, 0.08, 0.08, 0.08, 0.1, 0.06, 0.06, 0.1, 0.06, 0.1, 0.06, 0.08]","[[-0.15555351660286693, 0.544875048301649], [0.5535107373409395, -0.09849085010158945], [0.04536515305255873, -0.01814808530825074], [0.026469207500629754, -0.41743227647950576], [-0.18097344596951365, -0.26947076478161697], [0.17507156062176243, 0.22252900127314024], [0.5773189816386411, 0.1695586179492588], [-0.4812763694416991, 0.3566845637644212], [-0.28699490721803594, 0.3891465499968666], [0.37468771076878227, 0.23811228284556135], [-0.4199412896981617, -0.09497707415783824], [-0.3822196874052111, -0.443790925867649], [0.14005584749419886, 0.44378103716287853], [0.2574609148715843, -0.43659467711390837], [-0.14903516349637375, -0.05962638859186353], [-0.5710692983823173, 0.033116315522139284], [-0.21072804733238326, 0.127440849146081], [0.33792789167290105, -0.24277676381119478], [-0.062239278742970194, 0.350083544936844], [-0.5381805415383797, -0.2516742576424073]]",density,black,,,N008,visual,1,[],"['1', '2', '3', '4']",1,2023.2.3,harveyvisual,2.1,[],8,0.75,
0,pause,0.4,None,None,None,0,147,147,147,,,,,,,,,,,,,N008,visual,1,[],"['1', '2', '3', '4']",1,2023.2.3,harveyvisual,2.1,[],8,0.75,
20,dot,0.3,['dot'],['density'],black,0,148,148,148,,,54.2002649307251,53.91442108154297,54.214370012283325,dot,"[0.08, 0.1, 0.1, 0.08, 0.06, 0.1, 0.1, 0.08, 0.06, 0.1, 0.1, 0.06, 0.08, 0.1, 0.1, 0.1, 0.08, 0.08, 0.1, 0.08]","[[0.36541305700622473, -0.20144315859325596], [-0.3908071144275036, 0.12480040949778481], [0.12078046270448384, 0.011810439698845654], [-0.5750789008274763, 0.04560503715543962], [-0.07773230247084784, -0.12177025141777725], [-0.38311458098091145, 0.42605042580726143], [-0.24722605700341027, -0.255266606296259], [-0.14358195309642663, -0.42318403158360907], [0.585771474321262, -0.13679008006883317], [0.44174953813197637, 0.03148549416623814], [-0.16836647822525858, 0.19231535347463735], [0.24395422041647397, 0.4556051647278918], [0.07346088957500174, 0.3616495491183507], [0.0644803137372505, 0.5548256737666032], [0.38784538761547804, 0.2720415697728504], [0.1511387984890844, -0.32260487986077174], [-0.3676043406321813, -0.09754915637809786], [0.39368043515427875, -0.4179446701988222], [0.0802570278585043, -0.5426386260380066], [-0.1487942682723815, 0.40965859148757267]]",density,black,,,N008,visual,1,[],"['1', '2', '3', '4']",1,2023.2.3,harveyvisual,2.1,[],8,0.75,
0,pause,0.4,None,None,None,0,149,149,149,,,,,,,,,,,,,N008,visual,1,[],"['1', '2', '3', '4']",1,2023.2.3,harveyvisual,2.1,[],8,0.75,
20,dot,0.3,['dot'],['density'],black,0,150,150,150,,,54.90026903152466,54.61439895629883,54.914391040802,dot,"[0.06, 0.08, 0.08, 0.1, 0.08, 0.1, 0.1, 0.08, 0.06, 0.1, 0.08, 0.1, 0.08, 0.06, 0.06, 0.06, 0.06, 0.06, 0.08, 0.1]","[[0.40751646368875527, 0.13003525249406445], [-0.19466753358414235, 0.22794728090173066], [-0.34185039174850684, -0.2196785470680918], [0.15528174415922535, -0.27227199927828416], [0.017560859447926735, 0.012355763493923089], [-0.14645822466084785, -0.3429711809976957], [0.5135445296123925, -0.2840963815534974], [-0.15127279801330645, -0.08034775695592955], [-0.4676836817266872, 0.19124845064048307], [-0.31897616339178886, 0.41759708671404205], [0.19922742328306564, 0.5570409013833832], [0.4218412871284595, 0.3363534796151579], [-0.5834809491518066, -0.07999264305140247], [0.09066432957858162, -0.4725249723599113], [-0.1038384315466152, 0.559936426032634], [0.5963259737780261, 0.08347274410290234], [0.29822247830088644, -0.4517123272214846], [-0.10196100397723928, -0.5307946475265359], [0.00404969338355432, 0.22177399045236013], [-0.37612278627411755, -0.4235656283040659]]",density,black,,,N008,visual,1,[],"['1', '2', '3', '4']",1,2023.2.3,harveyvisual,2.1,[],8,0.75,
0,pause,0.4,None,None,None,0,151,151,151,,,,,,,,,,,,,N008,visual,1,[],"['1', '2', '3', '4']",1,2023.2.3,harveyvisual,2.1,[],8,0.75,
20,dot,0.3,['dot'],['density'],black,0,152,152,152,,,55.600260972976685,55.31444191932678,55.614428997039795,dot,"[0.08, 0.1, 0.08, 0.1, 0.06, 0.08, 0.1, 0.08, 0.08, 0.08, 0.06, 0.08, 0.06, 0.06, 0.1, 0.06, 0.06, 0.1, 0.06, 0.1]","[[-0.5347715940555798, 0.17739594876103804], [-0.42760054846968004, -0.2841220815462613], [-0.5951648431985991, -0.07032789078847904], [-0.0016677953628273512, -0.5212776921016878], [-0.2510608162761382, 0.16976417875188832], [-0.12098039116255738, -0.0535263296327394], [-0.3979592986932552, 0.34774520038740586], [0.22366709983869415, 0.5594785519260563], [0.3426144037877049, -0.4604320106562194], [0.2856463757051432, 0.0028286821821572605], [0.1069864572997754, 0.14993789079628472], [0.15034727787075464, -0.25912077230659847], [-0.032893146502200876, 0.5581611971818212], [0.5255742665237829, -0.28762487325009484], [0.43304199344638017, 0.3741550819874538], [-0.23501371670636562, -0.3907094019662122], [-0.053302768123937305, -0.23432881549609552], [-0.20686224999243197, 0.36769790642569844], [0.46666688293116054, -0.09044808501268259], [0.553735681769517, 0.08486550173810614]]",density,black,,,N008,visual,1,[],"['1', '2', '3', '4']",1,2023.2.3,harveyvisual,2.1,[],8,0.75,
0,pause,0.4,None,None,None,0,153,153,153,,,,,,,,,,,,,N008,visual,1,[],"['1', '2', '3', '4']",1,2023.2.3,harveyvisual,2.1,[],8,0.75,
20,dot,0.3,['dot'],['density'],black,0,154,154,154,,,56.30028200149536,56.01443099975586,56.314337968826294,dot,"[0.06, 0.1, 0.06, 0.08, 0.06, 0.1, 0.1, 0.08, 0.1, 0.08, 0.1, 0.08, 0.06, 0.1, 0.06, 0.06, 0.08, 0.08, 0.06, 0.1]","[[0.4853748241866348, 0.2268664423622057], [-0.06907984511592169, 0.4846095694114626], [0.31638372796676095, -0.21177390375114158], [0.30406259292764126, 0.5169452503514713], [-0.1445363942861173, 0.05442233806108443], [0.5834720564727546, -0.0123903716178079], [0.005402902625959327, 0.2580784840632774], [-0.49924739911432814, -0.060491415667103754], [-0.4798872490763998, 0.194049992329778], [-0.2695185767428693, -0.47044257516925636], [-0.2992349597332444, 0.3532552920037314], [-0.032852938917222185, -0.19936636289245635], [0.02789762843362087, -0.4007216270331774], [-0.34952472075035745, -0.2782637942614675], [0.2618620295832431, 0.18414463333916042], [0.14513926036677138, -0.10467926364949687], [0.45528374954614115, -0.3672096964715785], [0.28639667543219194, -0.4621292568095317], [0.12164157994745395, 0.45253925139736273], [0.3603532122670551, 0.005659233103446071]]",density,black,,,N008,visual,1,[],"['1', '2', '3', '4']",1,2023.2.3,harveyvisual,2.1,[],8,0.75,
0,pause,0.4,None,None,None,0,155,155,155,,,,,,,,,,,,,N008,visual,1,[],"['1', '2', '3', '4']",1,2023.2.3,harveyvisual,2.1,[],8,0.75,
9,dot,0.3,['dot'],['density'],black,0,156,156,156,,,57.000256061553955,56.714385986328125,57.01434588432312,dot,"[0.06, 0.1, 0.08, 0.1, 0.06, 0.08, 0.1, 0.08, 0.08]","[[0.4907720478217397, -0.04420899316542184], [0.34945142516086164, 0.15252383324094793], [0.5574461082468273, 0.19132091369540322], [0.27860246559707486, -0.040271372914082004], [0.05137088633600719, 0.3166781443626957], [0.3859483744724672, 0.35594746641407654], [0.08124150308634055, -0.11830714188255424], [-0.07254784919135501, 0.1430213671552253], [0.33979531306265204, -0.26214422422440126]]",density,black,,,N008,visual,1,[],"['1', '2', '3', '4']",1,2023.2.3,harveyvisual,2.1,[],8,0.75,
0,pause,0.4,None,None,None,0,157,157,157,,,,,,,,,,,,,N008,visual,1,[],"['1', '2', '3', '4']",1,2023.2.3,harveyvisual,2.1,[],8,0.75,
9,dot,0.3,['dot'],['density'],black,0,158,158,158,,,57.700254917144775,57.41437005996704,57.71435189247131,dot,"[0.1, 0.06, 0.1, 0.1, 0.06, 0.1, 0.06, 0.08, 0.06]","[[0.30047334598257713, -0.32583448447642216], [0.4997394081452916, 0.05175273655880906], [0.13646797290608587, 0.02221883094322858], [0.11448241016544139, -0.2117191838414046], [0.417500260412479, 0.2413963184479076], [0.19152536325099656, 0.23172406522327998], [0.5046802385722475, -0.28323005758562664], [-0.037891296982194685, 0.14714919272112825], [0.3292067348064443, -0.0657181274468392]]",density,black,,,N008,visual,1,[],"['1', '2', '3', '4']",1,2023.2.3,harveyvisual,2.1,[],8,0.75,
0,pause,0.4,None,None,None,0,159,159,159,,,,,,,,,,,,,N008,visual,1,[],"['1', '2', '3', '4']",1,2023.2.3,harveyvisual,2.1,[],8,0.75,
9,dot,0.3,['dot'],['density'],black,0,160,160,160,,,58.40027189254761,58.11430907249451,58.41428589820862,dot,"[0.08, 0.06, 0.06, 0.1, 0.06, 0.06, 0.1, 0.08, 0.1]","[[0.005765111513037631, -0.143111035787845], [-0.396275933094447, -0.3321437400526764], [0.037546025436095476, -0.5612590109297682], [-0.23561619682408028, -0.19372599185683617], [-0.24582953746203298, -0.47553838121684505], [-0.07047609790874906, -0.3562711323606942], [-0.09403038697424164, 0.06164574472317626], [0.13577280496850042, -0.3868547356250126], [0.15608206217807025, 0.06264253907795621]]",density,black,,,N008,visual,1,[],"['1', '2', '3', '4']",1,2023.2.3,harveyvisual,2.1,[],8,0.75,
0,pause,0.4,None,None,None,0,161,161,161,,,,,,,,,,,,,N008,visual,1,[],"['1', '2', '3', '4']",1,2023.2.3,harveyvisual,2.1,[],8,0.75,
9,dot,0.3,['dot'],['density'],black,0,162,162,162,,,59.10028004646301,58.814281940460205,59.11427092552185,dot,"[0.06, 0.06, 0.08, 0.1, 0.1, 0.08, 0.1, 0.06, 0.08]","[[0.019793807854907846, -0.43234396454466956], [-0.19026732246162045, -0.30921043426246514], [0.04019268118281429, 0.04496242893187172], [-0.3995051790572048, -0.35321755636659735], [-0.3855517065125252, -0.10705750392277943], [0.08372722599267078, -0.1679482296571974], [0.2622756688563642, -0.3928589043728353], [-0.14305193053609555, -0.047108980659819465], [-0.27076529918092873, 0.10825753519043561]]",density,black,,,N008,visual,1,[],"['1', '2', '3', '4']",1,2023.2.3,harveyvisual,2.1,[],8,0.75,
0,pause,0.4,None,None,None,0,163,163,163,,,,,,,,,,,,,N008,visual,1,[],"['1', '2', '3', '4']",1,2023.2.3,harveyvisual,2.1,[],8,0.75,
9,dot,0.3,['dot'],['density'],black,0,164,164,164,,,59.80026292800903,59.51426386833191,59.81425404548645,dot,"[0.1, 0.1, 0.08, 0.08, 0.1, 0.1, 0.08, 0.1, 0.06]","[[0.27429149071172837, 0.34251676390746333], [0.46797507249945486, 0.005491811463162166], [0.21235580877939833, 0.08757146436558581], [0.046223583492975936, 0.2932249054251131], [0.07051592556679111, -0.0704922843318231], [0.30438918969270623, -0.13028831600800136], [0.11534598117609637, 0.5236829685630697], [-0.06673610159464062, 0.12515255452502297], [-0.14439101605953233, -0.1332028051536465]]",density,black,,,N008,visual,1,[],"['1', '2', '3', '4']",1,2023.2.3,harveyvisual,2.1,[],8,0.75,
0,pause,0.4,None,None,None,0,165,165,165,,,,,,,,,,,,,N008,visual,1,[],"['1', '2', '3', '4']",1,2023.2.3,harveyvisual,2.1,[],8,0.75,
9,dot,0.3,['dot'],['density'],black,0,166,166,166,,,60.500277042388916,60.214263916015625,60.514244079589844,dot,"[0.08, 0.08, 0.1, 0.1, 0.08, 0.06, 0.08, 0.08, 0.06]","[[0.1897356465634014, 0.5279682873488559], [0.32378874068874214, 0.21764355715549547], [-0.02258392144612686, 0.1538672511300514], [0.18768343673053406, 0.06258281167321837], [0.4001161654736714, 0.031858124591620046], [0.03700916369328307, 0.37047593331345124], [0.18810723797826276, -0.14148750743097815], [-0.1502435433980558, -0.03059561201510329], [-0.21808568641731116, 0.28352793851031305]]",density,black,,,N008,visual,1,[],"['1', '2', '3', '4']",1,2023.2.3,harveyvisual,2.1,[],8,0.75,
0,pause,0.4,None,None,None,0,167,167,167,,,,,,,,,,,,,N008,visual,1,[],"['1', '2', '3', '4']",1,2023.2.3,harveyvisual,2.1,[],8,0.75,
8,dot,0.3,['dot'],['density'],black,0,168,168,168,,,61.20025992393494,60.91423797607422,61.21423387527466,dot,"[0.08, 0.1, 0.08, 0.08, 0.06, 0.06, 0.06, 0.1]","[[-0.4462313073918426, 0.10595449025715867], [0.022923871415176152, 0.06290918987699953], [-0.12461589820496316, 0.4830175517012745], [-0.29730306390741434, 0.2752084497958106], [-0.2195410516364439, 0.056871795648565045], [0.008916049516666445, 0.2907399105306955], [-0.08256048209355603, -0.11638226771844133], [-0.4106304257826301, -0.09222594144079917]]",density,black,,,N008,visual,1,[],"['1', '2', '3', '4']",1,2023.2.3,harveyvisual,2.1,[],8,0.75,
0,pause,0.4,None,None,None,0,169,169,169,,,,,,,,,,,,,N008,visual,1,[],"['1', '2', '3', '4']",1,2023.2.3,harveyvisual,2.1,[],8,0.75,
8,dot,0.3,['dot'],['density'],black,0,170,170,170,,,61.90025997161865,61.61422896385193,61.91420888900757,dot,"[0.1, 0.08, 0.06, 0.08, 0.1, 0.06, 0.06, 0.1]","[[-0.3869743371455666, 0.15388434217336297], [0.11424038932868294, 0.18734519769139274], [-0.06602262913525138, -0.20199883598953133], [-0.13221522482970946, 0.16661696891490863], [-0.2408224703751142, -0.03724946932993881], [-0.01219752370661542, -0.004327099574405561], [-0.20345141844285677, 0.44978546357431476], [0.2450906497331586, -0.012808503174003826]]",density,black,,,N008,visual,1,[],"['1', '2', '3', '4']",1,2023.2.3,harveyvisual,2.1,[],8,0.75,
0,pause,0.4,None,None,None,0,171,171,171,,,,,,,,,,,,,N008,visual,1,[],"['1', '2', '3', '4']",1,2023.2.3,harveyvisual,2.1,[],8,0.75,
8,dot,0.3,['dot'],['density'],black,0,172,172,172,,,62.60026502609253,62.31423807144165,62.61420392990112,dot,"[0.08, 0.1, 0.08, 0.1, 0.08, 0.08, 0.08, 0.08]","[[-0.17001050475317317, -0.17367687575201368], [0.3600613666554234, 0.010096468830953859], [-0.08326222131596324, 0.04242117989324811], [0.04296950773068638, 0.29875887990525135], [0.04919814700692566, -0.23206276490508926], [0.2733682510361541, 0.19343137942482672], [0.15974695196996483, -0.02827404827190698], [-0.2919014881818027, 0.0006738684867251376]]",density,black,,,N008,visual,1,[],"['1', '2', '3', '4']",1,2023.2.3,harveyvisual,2.1,[],8,0.75,
0,pause,0.4,None,None,None,0,173,173,173,,,,,,,,,,,,,N008,visual,1,[],"['1', '2', '3', '4']",1,2023.2.3,harveyvisual,2.1,[],8,0.75,
8,dot,0.3,['dot'],['density'],black,0,174,174,174,,,63.30026292800903,63.014222860336304,63.31424593925476,dot,"[0.06, 0.06, 0.1, 0.08, 0.06, 0.06, 0.06, 0.08]","[[-0.19427332908310624, 0.44975086906229733], [-0.40583056883657587, 0.41268852933836647], [-0.1064323235824443, 0.09134240931295125], [0.037438273390647224, 0.2873761216870531], [-0.27580465694358225, 0.2567900319995576], [0.047234249799456944, 0.4983172858691376], [0.15563182967593078, 0.1192504703698398], [-0.32834908909536226, -0.014402300111889832]]",density,black,,,N008,visual,1,[],"['1', '2', '3', '4']",1,2023.2.3,harveyvisual,2.1,[],8,0.75,
0,pause,0.4,None,None,None,0,175,175,175,,,,,,,,,,,,,N008,visual,1,[],"['1', '2', '3', '4']",1,2023.2.3,harveyvisual,2.1,[],8,0.75,
8,dot,0.3,['dot'],['density'],black,0,176,176,176,,,64.00026988983154,63.71447205543518,64.01446986198425,dot,"[0.1, 0.1, 0.06, 0.06, 0.1, 0.1, 0.08, 0.1]","[[-0.19427332908310624, 0.44975086906229733], [-0.40583056883657587, 0.41268852933836647], [-0.1064323235824443, 0.09134240931295125], [0.037438273390647224, 0.2873761216870531], [-0.27580465694358225, 0.2567900319995576], [0.047234249799456944, 0.4983172858691376], [0.15563182967593078, 0.1192504703698398], [-0.32834908909536226, -0.014402300111889832]]",density,black,,,N008,visual,1,[],"['1', '2', '3', '4']",1,2023.2.3,harveyvisual,2.1,[],8,0.75,
0,pause,0.4,None,None,None,0,177,177,177,,,,,,,,,,,,,N008,visual,1,[],"['1', '2', '3', '4']",1,2023.2.3,harveyvisual,2.1,[],8,0.75,
8,dot,0.3,['dot'],['density'],black,0,178,178,178,,,64.7002739906311,64.41448402404785,64.71446990966797,dot,"[0.08, 0.1, 0.1, 0.08, 0.08, 0.1, 0.1, 0.08]","[[-0.258715538922871, 0.3828151050353194], [-0.4384035523576633, -0.18689856672911037], [-0.5586779833045601, 0.15056420889708766], [-0.1699372658897842, -0.04883432605429875], [-0.36053016753151684, 0.02858569738219561], [-0.199221799186684, 0.1876786431210615], [0.004458053620249285, 0.1240038339062716], [0.019420137312414813, -0.16023679021787893]]",density,black,,,N008,visual,1,[],"['1', '2', '3', '4']",1,2023.2.3,harveyvisual,2.1,[],8,0.75,
0,pause,0.4,None,None,None,0,179,179,179,,,,,,,,,,,,,N008,visual,1,[],"['1', '2', '3', '4']",1,2023.2.3,harveyvisual,2.1,[],8,0.75,
7,dot,0.3,['dot'],['density'],black,0,180,180,180,,,65.4002799987793,65.1142029762268,65.41434788703918,dot,"[0.1, 0.1, 0.08, 0.1, 0.08, 0.08, 0.08]","[[-0.026372969700101213, 0.05085620782211805], [-0.16304282038196347, -0.3616501386780019], [-0.013762327205412121, -0.14910430285435466], [0.14729449770710015, -0.3647544547161306], [-0.22494517313234175, -0.12035103032643314], [-0.36514670174418407, -0.33057163197754225], [0.21417125919861074, -0.06627923590771367]]",density,black,,,N008,visual,1,[],"['1', '2', '3', '4']",1,2023.2.3,harveyvisual,2.1,[],8,0.75,
0,pause,0.4,None,None,None,0,181,181,181,,,,,,,,,,,,,N008,visual,1,[],"['1', '2', '3', '4']",1,2023.2.3,harveyvisual,2.1,[],8,0.75,
7,dot,0.3,['dot'],['density'],black,0,182,182,182,,,66.100261926651,65.8143310546875,66.11417984962463,dot,"[0.06, 0.06, 0.08, 0.06, 0.06, 0.06, 0.1]","[[-0.4123410031792677, -0.32555807737620884], [-0.11281232420725038, -0.2658066965482441], [-0.16970574590124413, 0.10972852905085191], [-0.380148642061964, 0.19816541478521793], [-0.49975943015608576, -0.10400723965324657], [-0.30003386022098844, -0.09340949099572564], [-0.0679185705411078, -0.06780919729272472]]",density,black,,,N008,visual,1,[],"['1', '2', '3', '4']",1,2023.2.3,harveyvisual,2.1,[],8,0.75,
0,pause,0.4,None,None,None,0,183,183,183,,,,,,,,,,,,,N008,visual,1,[],"['1', '2', '3', '4']",1,2023.2.3,harveyvisual,2.1,[],8,0.75,
7,dot,0.3,['dot'],['density'],black,0,184,184,184,,,66.80026888847351,66.51433205604553,66.8141679763794,dot,"[0.1, 0.06, 0.1, 0.06, 0.06, 0.1, 0.06]","[[0.2966712274604575, -0.2131825579980761], [-0.1186836204372937, -0.4965034514665913], [-0.01440301872015537, -0.0403072600505146], [0.1950017499803942, -0.04023412759326238], [0.279011892689379, -0.46996203863525404], [-0.05628257964606558, -0.24364929332980273], [0.11956786588335709, -0.3438640467385331]]",density,black,,,N008,visual,1,[],"['1', '2', '3', '4']",1,2023.2.3,harveyvisual,2.1,[],8,0.75,
0,pause,0.4,None,None,None,0,185,185,185,,,,,,,,,,,,,N008,visual,1,[],"['1', '2', '3', '4']",1,2023.2.3,harveyvisual,2.1,[],8,0.75,
7,dot,0.3,['dot'],['density'],white,0,186,186,186,,,67.5002748966217,67.21415686607361,67.51411890983582,dot,"[0.1, 0.06, 0.1, 0.06, 0.1, 0.06, 0.08]","[[0.36124702795982905, 0.02861074637729004], [0.035495459613383976, -0.03736980990239832], [0.4545067059830119, -0.22475560039862832], [0.21831658066582188, 0.20471036725638603], [0.23621436127430617, -0.13960795011418334], [0.5606656921354746, -0.047865395727918474], [0.5468561378002438, 0.2161657569851178]]",density,white,,,N008,visual,1,[],"['1', '2', '3', '4']",1,2023.2.3,harveyvisual,2.1,[],8,0.75,
0,pause,0.4,None,None,None,0,187,187,187,,,,,,,,,,,1,67.74384999275208,N008,visual,1,[],"['1', '2', '3', '4']",1,2023.2.3,harveyvisual,2.1,[],8,0.75,
7,dot,0.3,['dot'],['density'],black,0,188,188,188,,,68.20028185844421,67.9141149520874,68.21433901786804,dot,"[0.08, 0.1, 0.08, 0.1, 0.08, 0.1, 0.06]","[[0.43636558899465056, -0.019888822856555858], [0.3422654810486562, -0.28596623187093184], [0.19265053263460555, -0.4439876245838232], [0.13726272111749335, -0.2453614523272762], [0.002381890354708078, -0.04768315945896726], [0.5336827108411983, -0.21507725682246784], [0.22437755209563529, -0.002563521851875305]]",density,black,,,N008,visual,1,[],"['1', '2', '3', '4']",1,2023.2.3,harveyvisual,2.1,[],8,0.75,
0,pause,0.4,None,None,None,0,189,189,189,,,,,,,,,,,,,N008,visual,1,[],"['1', '2', '3', '4']",1,2023.2.3,harveyvisual,2.1,[],8,0.75,
7,dot,0.3,['dot'],['density'],black,0,190,190,190,,,68.90027904510498,68.6143889427185,68.91425895690918,dot,"[0.06, 0.1, 0.1, 0.06, 0.08, 0.08, 0.08]","[[-0.026372969700101213, 0.05085620782211805], [-0.16304282038196347, -0.3616501386780019], [-0.013762327205412121, -0.14910430285435466], [0.14729449770710015, -0.3647544547161306], [-0.22494517313234175, -0.12035103032643314], [-0.36514670174418407, -0.33057163197754225], [0.21417125919861074, -0.06627923590771367]]",density,black,,,N008,visual,1,[],"['1', '2', '3', '4']",1,2023.2.3,harveyvisual,2.1,[],8,0.75,
0,pause,0.4,None,None,None,0,191,191,191,,,,,,,,,,,,,N008,visual,1,[],"['1', '2', '3', '4']",1,2023.2.3,harveyvisual,2.1,[],8,0.75,
6,dot,0.3,['dot'],['density'],black,0,192,192,192,,,69.60025906562805,69.31425189971924,69.61423587799072,dot,"[0.08, 0.08, 0.1, 0.08, 0.1, 0.1]","[[-0.5379788740814003, -0.011730333491669416], [-0.1820890739253136, -0.27973544868684425], [-0.07809457889047756, -0.09124846264896269], [-0.30616251401069866, -0.45101817852416426], [-0.44200878281119743, -0.26991620184617166], [-0.3315938551005316, -0.08696624632848979]]",density,black,,,N008,visual,1,[],"['1', '2', '3', '4']",1,2023.2.3,harveyvisual,2.1,[],8,0.75,
0,pause,0.4,None,None,None,0,193,193,193,,,,,,,,,,,,,N008,visual,1,[],"['1', '2', '3', '4']",1,2023.2.3,harveyvisual,2.1,[],8,0.75,
6,dot,0.3,['dot'],['density'],black,0,194,194,194,,,70.30028200149536,70.01422691345215,70.31417989730835,dot,"[0.1, 0.08, 0.1, 0.1, 0.06, 0.08]","[[-0.5416753121247185, 0.020803147184574915], [-0.3232269173664433, -0.07161231053200118], [-0.3008479376061402, -0.286480119217458], [-0.22299540496279888, 0.12470258063391813], [-0.10776740766186912, -0.19554033341247495], [-0.5165544979209102, -0.21376225914528924]]",density,black,,,N008,visual,1,[],"['1', '2', '3', '4']",1,2023.2.3,harveyvisual,2.1,[],8,0.75,
0,pause,0.4,None,None,None,0,195,195,195,,,,,,,,,,,,,N008,visual,1,[],"['1', '2', '3', '4']",1,2023.2.3,harveyvisual,2.1,[],8,0.75,
6,dot,0.3,['dot'],['density'],black,0,196,196,196,,,71.00026297569275,70.71421098709106,71.01417207717896,dot,"[0.1, 0.06, 0.08, 0.08, 0.08, 0.1]","[[-0.2094991805307552, 0.08302354111181451], [0.09557258300728075, 0.3458622669714129], [0.22056408800171526, -0.017094369341425636], [0.026601936584830878, 0.1297564650757722], [-0.11681768564656844, 0.2726391152528644], [-0.03570146891163527, -0.09222923444939024]]",density,black,,,N008,visual,1,[],"['1', '2', '3', '4']",1,2023.2.3,harveyvisual,2.1,[],8,0.75,
0,pause,0.4,None,None,None,0,197,197,197,,,,,,,,,,,,,N008,visual,1,[],"['1', '2', '3', '4']",1,2023.2.3,harveyvisual,2.1,[],8,0.75,
6,dot,0.3,['dot'],['density'],black,0,198,198,198,,,71.70026707649231,71.41416597366333,71.71414995193481,dot,"[0.06, 0.1, 0.1, 0.08, 0.08, 0.08]","[[0.4536033237290603, -0.10703390074252807], [0.4090862681261178, 0.14156446515860444], [0.3446070222150913, -0.333203595144996], [0.1541486512624917, 0.13839280063469406], [0.16833114318264894, -0.23068973514796048], [0.2520001164899556, -0.04323865486760776]]",density,black,,,N008,visual,1,[],"['1', '2', '3', '4']",1,2023.2.3,harveyvisual,2.1,[],8,0.75,
0,pause,0.4,None,None,None,0,199,199,199,,,,,,,,,,,,,N008,visual,1,[],"['1', '2', '3', '4']",1,2023.2.3,harveyvisual,2.1,[],8,0.75,
6,dot,0.3,['dot'],['density'],black,0,200,200,200,,,72.40027189254761,72.11402702331543,72.41396903991699,dot,"[0.06, 0.1, 0.08, 0.08, 0.06, 0.08]","[[0.4249538099490167, -0.025354946498656116], [0.305005901383002, 0.397829445973664], [0.04954868862097969, 0.09819418046919175], [0.452299537631068, 0.2574679639516015], [0.21081936584905453, -0.08903757916275208], [0.27954488569289765, 0.14103100078867375]]",density,black,,,N008,visual,1,[],"['1', '2', '3', '4']",1,2023.2.3,harveyvisual,2.1,[],8,0.75,
0,pause,0.4,None,None,None,0,201,201,201,,,,,,,,,,,,,N008,visual,1,[],"['1', '2', '3', '4']",1,2023.2.3,harveyvisual,2.1,[],8,0.75,
6,dot,0.3,['dot'],['density'],black,0,202,202,202,,,73.10026288032532,72.81400108337402,73.1139760017395,dot,"[0.06, 0.08, 0.1, 0.06, 0.1, 0.06]","[[0.285926512064941, -0.24481785515673876], [0.418595730147314, -0.41068201076939437], [0.08023911914447063, -0.2907744195836184], [0.5255309086764915, -0.21900298349449057], [0.21619509519697316, -0.004828458463526469], [0.21043770887025895, -0.4594541383061854]]",density,black,,,N008,visual,1,[],"['1', '2', '3', '4']",1,2023.2.3,harveyvisual,2.1,[],8,0.75,
0,pause,0.4,None,None,None,0,203,203,203,,,,,,,,,,,,,N008,visual,1,[],"['1', '2', '3', '4']",1,2023.2.3,harveyvisual,2.1,[],8,0.75,
5,dot,0.3,['dot'],['density'],black,0,204,204,204,,,73.80027794837952,73.5141248703003,73.81398391723633,dot,"[0.06, 0.06, 0.08, 0.1, 0.08]","[[-0.16893136043895146, -0.20127892763881453], [-0.5727216740452047, -0.07682091551650742], [-0.343702592036276, -0.060533526953518955], [-0.5038383983260774, 0.15268268748871192], [-0.379488354443274, -0.2704310218069364]]",density,black,,,N008,visual,1,[],"['1', '2', '3', '4']",1,2023.2.3,harveyvisual,2.1,[],8,0.75,
0,pause,0.4,None,None,None,0,205,205,205,,,,,,,,,,,,,N008,visual,1,[],"['1', '2', '3', '4']",1,2023.2.3,harveyvisual,2.1,[],8,0.75,
5,dot,0.3,['dot'],['density'],white,0,206,206,206,,,74.50027894973755,74.21411800384521,74.51397895812988,dot,"[0.1, 0.08, 0.06, 0.08, 0.1]","[[-0.19096480170835262, 0.2202776521134577], [0.009488999043989208, 0.5721548226574139], [0.16477125949827795, 0.3732973518003487], [0.07476286221063107, 0.1476230553836633], [-0.051949696108355745, 0.36609537475325354]]",density,white,,,N008,visual,1,[],"['1', '2', '3', '4']",1,2023.2.3,harveyvisual,2.1,[],8,0.75,
0,pause,0.4,None,None,None,0,207,207,207,,,,,,,,,,,1,74.83661413192749,N008,visual,1,[],"['1', '2', '3', '4']",1,2023.2.3,harveyvisual,2.1,[],8,0.75,
5,dot,0.3,['dot'],['density'],black,0,208,208,208,,,75.20027303695679,74.91396903991699,75.21409606933594,dot,"[0.08, 0.1, 0.06, 0.08, 0.1]","[[-0.0036269740154891753, 0.5431219823242713], [-0.2646325594942043, 0.5073179604697073], [-0.41902475937036154, 0.37311436690984484], [-0.007163214206743488, 0.2887893175302695], [-0.2156098228659233, 0.2684642371109035]]",density,black,,,N008,visual,1,[],"['1', '2', '3', '4']",1,2023.2.3,harveyvisual,2.1,[],8,0.75,
0,pause,0.4,None,None,None,0,209,209,209,,,,,,,,,,,,,N008,visual,1,[],"['1', '2', '3', '4']",1,2023.2.3,harveyvisual,2.1,[],8,0.75,
5,dot,0.3,['dot'],['density'],black,0,210,210,210,,,75.90027689933777,75.61407089233398,75.91407799720764,dot,"[0.06, 0.08, 0.08, 0.1, 0.1]","[[-0.16255238243643175, 0.17860987090823105], [-0.3708934258622909, -0.17994308192218272], [-0.3873401471382859, 0.23755408526324856], [-0.3082462149465763, 0.01808515368093923], [-0.09381294098683406, -0.04001219282613638]]",density,black,,,N008,visual,1,[],"['1', '2', '3', '4']",1,2023.2.3,harveyvisual,2.1,[],8,0.75,
0,pause,0.4,None,None,None,0,211,211,211,,,,,,,,,,,,,N008,visual,1,[],"['1', '2', '3', '4']",1,2023.2.3,harveyvisual,2.1,[],8,0.75,
5,dot,0.3,['dot'],['density'],black,0,212,212,212,,,76.60026097297668,76.31408500671387,76.61405801773071,dot,"[0.1, 0.08, 0.08, 0.06, 0.08]","[[0.05896558140131438, -0.5342250951568444], [0.41924064092593105, -0.38742881471212404], [0.0789485457987589, -0.15857793529431863], [0.19859038409043042, -0.3300393182504279], [-0.04229804568701367, -0.31959008629620334]]",density,black,,,N008,visual,1,[],"['1', '2', '3', '4']",1,2023.2.3,harveyvisual,2.1,[],8,0.75,
0,pause,0.4,None,None,None,0,213,213,213,,,,,,,,,,,,,N008,visual,1,[],"['1', '2', '3', '4']",1,2023.2.3,harveyvisual,2.1,[],8,0.75,
5,dot,0.3,['dot'],['density'],black,0,214,214,214,,,77.30026197433472,77.01392698287964,77.31404900550842,dot,"[0.1, 0.06, 0.06, 0.1, 0.1]","[[-0.47409275164437775, -0.17842554437930905], [-0.28800513042966097, -0.4059597382025641], [-0.20075697267214665, 0.008887320625593834], [-0.2708677629513771, -0.1868162154653106], [-0.0886924353013077, -0.2820475711339636]]",density,black,,,N008,visual,1,[],"['1', '2', '3', '4']",1,2023.2.3,harveyvisual,2.1,[],8,0.75,
0,pause,0.4,None,None,None,0,215,215,215,,,,,,,,,,,,,N008,visual,1,[],"['1', '2', '3', '4']",1,2023.2.3,harveyvisual,2.1,[],8,0.75,
4,dot,0.3,['dot'],['density'],black,0,216,216,216,,,78.00028085708618,77.71404194831848,78.01389503479004,dot,"[0.06, 0.08, 0.1, 0.1]","[[0.107131415583101, 0.03171316484874249], [0.3330877778846877, 0.14211400081541528], [0.23058747141838212, -0.24340322486593785], [0.3173726134345681, -0.05921806988573682]]",density,black,,,N008,visual,1,[],"['1', '2', '3', '4']",1,2023.2.3,harveyvisual,2.1,[],8,0.75,
0,pause,0.4,None,None,None,0,217,217,217,,,,,,,,,,,,,N008,visual,1,[],"['1', '2', '3', '4']",1,2023.2.3,harveyvisual,2.1,[],8,0.75,
4,dot,0.3,['dot'],['density'],black,0,218,218,218,,,78.70025992393494,78.41387796401978,78.71387386322021,dot,"[0.08, 0.1, 0.06, 0.08]","[[0.13421512820946938, -0.5336194340609706], [0.2622623892029083, -0.3575253733063478], [0.024533045116508903, -0.3376850530006363], [0.166924465117498, -0.0963569090623874]]",density,black,,,N008,visual,1,[],"['1', '2', '3', '4']",1,2023.2.3,harveyvisual,2.1,[],8,0.75,
0,pause,0.4,None,None,None,0,219,219,219,,,,,,,,,,,,,N008,visual,1,[],"['1', '2', '3', '4']",1,2023.2.3,harveyvisual,2.1,[],8,0.75,
4,dot,0.3,['dot'],['density'],black,0,220,220,220,,,79.40027594566345,79.11400103569031,79.41397285461426,dot,"[0.1, 0.06, 0.06, 0.08]","[[0.37520814465037905, -0.4432880181017862], [0.4692830223283075, -0.19655799526205012], [0.3063896805601884, -0.036788685454167226], [0.2471196723673293, -0.2344474043623998]]",density,black,,,N008,visual,1,[],"['1', '2', '3', '4']",1,2023.2.3,harveyvisual,2.1,[],8,0.75,
0,pause,0.4,None,None,None,0,221,221,221,,,,,,,,,,,,,N008,visual,1,[],"['1', '2', '3', '4']",1,2023.2.3,harveyvisual,2.1,[],8,0.75,
4,dot,0.3,['dot'],['density'],white,0,222,222,222,,,80.10028100013733,79.81398606300354,80.11396193504333,dot,"[0.06, 0.08, 0.08, 0.1]","[[0.06326389353998313, -0.3457479010937814], [-0.07512051392095552, -0.02196355495157639], [0.09410934090401228, -0.14113260442523076], [-0.13717358852421138, -0.29916566844175635]]",density,white,,,N008,visual,1,[],"['1', '2', '3', '4']",1,2023.2.3,harveyvisual,2.1,[],8,0.75,
0,pause,0.4,None,None,None,0,223,223,223,,,,,,,,,,,1,80.41756296157837,N008,visual,1,[],"['1', '2', '3', '4']",1,2023.2.3,harveyvisual,2.1,[],8,0.75,
4,dot,0.3,['dot'],['density'],black,0,224,224,224,,,80.80026388168335,80.5138509273529,80.81397104263306,dot,"[0.1, 0.08, 0.1, 0.06]","[[0.2593869086993074, -0.26887741013308497], [0.09674879007849839, -0.39609983087723066], [-0.011093693993988496, -0.14004324908426333], [0.28630805459639813, -0.4681830009867555]]",density,black,,,N008,visual,1,[],"['1', '2', '3', '4']",1,2023.2.3,harveyvisual,2.1,[],8,0.75,
0,pause,0.4,None,None,None,0,225,225,225,,,,,,,,,,,,,N008,visual,1,[],"['1', '2', '3', '4']",1,2023.2.3,harveyvisual,2.1,[],8,0.75,
4,dot,0.3,['dot'],['density'],black,0,226,226,226,,,81.50028204917908,81.21398091316223,81.51380705833435,dot,"[0.06, 0.06, 0.06, 0.1]","[[0.28769160010247724, 0.4706884012140322], [0.03735362687931127, 0.4645781312677133], [0.33102019499247487, 0.1847810932959147], [0.1685132699603264, 0.30497059043407926]]",density,black,,,N008,visual,1,[],"['1', '2', '3', '4']",1,2023.2.3,harveyvisual,2.1,[],8,0.75,
0,pause,0.4,None,None,None,0,227,227,227,,,,,,,,,,,,,N008,visual,1,[],"['1', '2', '3', '4']",1,2023.2.3,harveyvisual,2.1,[],8,0.75,
3,dot,0.3,['dot'],['density'],black,0,228,228,228,,,82.20027589797974,81.91387891769409,82.21381497383118,dot,"[0.06, 0.06, 0.1]","[[-0.17720328293608806, -0.4514300161601115], [0.022754438065530718, -0.42143894503716073], [-0.10940085810899225, -0.24791511077847575]]",density,black,,,N008,visual,1,[],"['1', '2', '3', '4']",1,2023.2.3,harveyvisual,2.1,[],8,0.75,
0,pause,0.4,None,None,None,0,229,229,229,,,,,,,,,,,,,N008,visual,1,[],"['1', '2', '3', '4']",1,2023.2.3,harveyvisual,2.1,[],8,0.75,
3,dot,0.3,['dot'],['density'],black,0,230,230,230,,,82.90027403831482,82.61381006240845,82.91377806663513,dot,"[0.1, 0.08, 0.06]","[[0.5267872668145167, -0.16137547842759675], [0.3420119191573968, -0.036920749927643534], [0.3185462880061428, -0.2399114968218526]]",density,black,,,N008,visual,1,[],"['1', '2', '3', '4']",1,2023.2.3,harveyvisual,2.1,[],8,0.75,
0,pause,0.4,None,None,None,0,231,231,231,,,,,,,,,,,,,N008,visual,1,[],"['1', '2', '3', '4']",1,2023.2.3,harveyvisual,2.1,[],8,0.75,
3,dot,0.3,['dot'],['density'],black,0,232,232,232,,,83.60026502609253,83.31376791000366,83.61378788948059,dot,"[0.1, 0.06, 0.06]","[[0.026071599024748527, -0.32860913997604846], [-0.11834724389398482, -0.18584523127985947], [0.10068982493997472, -0.12518245043845455]]",density,black,,,N008,visual,1,[],"['1', '2', '3', '4']",1,2023.2.3,harveyvisual,2.1,[],8,0.75,
0,pause,0.4,None,None,None,0,233,233,233,,,,,,,,,,,,,N008,visual,1,[],"['1', '2', '3', '4']",1,2023.2.3,harveyvisual,2.1,[],8,0.75,
3,dot,0.3,['dot'],['density'],black,0,234,234,234,,,84.30026006698608,84.01375889778137,84.31373500823975,dot,"[0.06, 0.08, 0.06]","[[0.3935061822875672, 0.2255916562549388], [0.5507663609445765, 0.05974239467682067], [0.33737455125106675, -0.013318187219183488]]",density,black,,,N008,visual,1,[],"['1', '2', '3', '4']",1,2023.2.3,harveyvisual,2.1,[],8,0.75,
0,pause,0.4,None,None,None,0,235,235,235,,,,,,,,,,,,,N008,visual,1,[],"['1', '2', '3', '4']",1,2023.2.3,harveyvisual,2.1,[],8,0.75,
3,dot,0.3,['dot'],['density'],black,0,236,236,236,,,85.00026297569275,84.71374201774597,85.01372599601746,dot,"[0.1, 0.08, 0.08]","[[-0.31319101668702665, 0.019781348947723338], [-0.5473895760332308, 0.024991247927059115], [-0.4494119348059314, -0.1602141851013313]]",density,black,,,N008,visual,1,[],"['1', '2', '3', '4']",1,2023.2.3,harveyvisual,2.1,[],8,0.75,
0,pause,0.4,None,None,None,0,237,237,237,,,,,,,,,,,,,N008,visual,1,[],"['1', '2', '3', '4']",1,2023.2.3,harveyvisual,2.1,[],8,0.75,
3,dot,0.3,['dot'],['density'],black,0,238,238,238,,,85.70027089118958,85.41375088691711,85.71373200416565,dot,"[0.08, 0.1, 0.1]","[[-0.5081709494874314, 0.1572673197774781], [-0.37009835501087307, 0.006965763417246156], [-0.5707172634768017, -0.07177594851347295]]",density,black,,,N008,visual,1,[],"['1', '2', '3', '4']",1,2023.2.3,harveyvisual,2.1,[],8,0.75,
0,pause,0.4,None,None,None,0,239,239,239,,,,,,,,,,,,,N008,visual,1,[],"['1', '2', '3', '4']",1,2023.2.3,harveyvisual,2.1,[],8,0.75,
2,dot,0.3,['dot'],['density'],black,0,240,240,240,,,86.40025997161865,86.11369395256042,86.41372799873352,dot,"[0.1, 0.1]","[[0.24818458179829028, -0.5230613829255512], [0.05315527151035717, -0.47711981276458415]]",density,black,,,N008,visual,1,[],"['1', '2', '3', '4']",1,2023.2.3,harveyvisual,2.1,[],8,0.75,
0,pause,0.4,None,None,None,0,241,241,241,,,,,,,,,,,,,N008,visual,1,[],"['1', '2', '3', '4']",1,2023.2.3,harveyvisual,2.1,[],8,0.75,
2,dot,0.3,['dot'],['density'],black,0,242,242,242,,,87.10028600692749,86.8137149810791,87.11367702484131,dot,"[0.06, 0.1]","[[-0.09730612249650272, 0.4989075015380273], [-0.22752244688881013, 0.34485221713342457]]",density,black,,,N008,visual,1,[],"['1', '2', '3', '4']",1,2023.2.3,harveyvisual,2.1,[],8,0.75,
0,pause,0.4,None,None,None,0,243,243,243,,,,,,,,,,,,,N008,visual,1,[],"['1', '2', '3', '4']",1,2023.2.3,harveyvisual,2.1,[],8,0.75,
2,dot,0.3,['dot'],['density'],black,0,244,244,244,,,87.80027484893799,87.51367402076721,87.81368207931519,dot,"[0.08, 0.1]","[[-0.15001882639889116, 0.48719053997247297], [-0.1736568080125972, 0.28835755901726084]]",density,black,,,N008,visual,1,[],"['1', '2', '3', '4']",1,2023.2.3,harveyvisual,2.1,[],8,0.75,
0,pause,0.4,None,None,None,0,245,245,245,,,,,,,,,,,,,N008,visual,1,[],"['1', '2', '3', '4']",1,2023.2.3,harveyvisual,2.1,[],8,0.75,
2,dot,0.3,['dot'],['density'],black,0,246,246,246,,,88.5002670288086,88.21368288993835,88.51362490653992,dot,"[0.06, 0.08]","[[0.510744558366804, -0.07965895932329134], [0.5183014925016622, -0.2796299572401246]]",density,black,,,N008,visual,1,[],"['1', '2', '3', '4']",1,2023.2.3,harveyvisual,2.1,[],8,0.75,
0,pause,0.4,None,None,None,0,247,247,247,,,,,,,,,,,,,N008,visual,1,[],"['1', '2', '3', '4']",1,2023.2.3,harveyvisual,2.1,[],8,0.75,
2,dot,0.3,['dot'],['density'],black,0,248,248,248,,,89.20026898384094,88.91364192962646,89.21374797821045,dot,"[0.08, 0.06]","[[-0.19266755722762574, -0.036106715323925336], [-0.096675332858716, 0.13967695308521302]]",density,black,,,N008,visual,1,[],"['1', '2', '3', '4']",1,2023.2.3,harveyvisual,2.1,[],8,0.75,
0,pause,0.4,None,None,None,0,249,249,249,,,,,,,,,,,,,N008,visual,1,[],"['1', '2', '3', '4']",1,2023.2.3,harveyvisual,2.1,[],8,0.75,
2,dot,0.3,['dot'],['density'],black,0,250,250,250,,,89.90027904510498,89.61378288269043,89.91376399993896,dot,"[0.08, 0.08]","[[0.1851205616289071, -0.3624876981064337], [0.3405923022038234, -0.23608025195482504]]",density,black,,,N008,visual,1,[],"['1', '2', '3', '4']",1,2023.2.3,harveyvisual,2.1,[],8,0.75,
0,pause,0.4,None,None,None,0,251,251,251,,,,,,,,,,,,,N008,visual,1,[],"['1', '2', '3', '4']",1,2023.2.3,harveyvisual,2.1,[],8,0.75,
1,dot,0.3,['dot'],['density'],black,0,252,252,252,,,90.60028100013733,90.31374406814575,90.61375904083252,dot,[0.06],"[0.4230572171255965, 0.15564154118015242]",density,black,,,N008,visual,1,[],"['1', '2', '3', '4']",1,2023.2.3,harveyvisual,2.1,[],8,0.75,
0,pause,0.4,None,None,None,0,253,253,253,,,,,,,,,,,,,N008,visual,1,[],"['1', '2', '3', '4']",1,2023.2.3,harveyvisual,2.1,[],8,0.75,
1,dot,0.3,['dot'],['density'],black,0,254,254,254,,,91.30027103424072,91.0137689113617,91.3137559890747,dot,[0.08],"[-0.30422713965878023, 0.0739284850406325]",density,black,,,N008,visual,1,[],"['1', '2', '3', '4']",1,2023.2.3,harveyvisual,2.1,[],8,0.75,
0,pause,0.4,None,None,None,0,255,255,255,,,,,,,,,,,,,N008,visual,1,[],"['1', '2', '3', '4']",1,2023.2.3,harveyvisual,2.1,[],8,0.75,
1,dot,0.3,['dot'],['density'],black,0,256,256,256,,,92.00027704238892,91.71355104446411,92.01357293128967,dot,[0.06],"[-0.13294789447644317, -0.0050084293737640015]",density,black,,,N008,visual,1,[],"['1', '2', '3', '4']",1,2023.2.3,harveyvisual,2.1,[],8,0.75,
0,pause,0.4,None,None,None,0,257,257,257,,,,,,,,,,,,,N008,visual,1,[],"['1', '2', '3', '4']",1,2023.2.3,harveyvisual,2.1,[],8,0.75,
1,dot,0.3,['dot'],['density'],black,0,258,258,258,,,92.70027995109558,92.41355490684509,92.71355700492859,dot,[0.08],"[0.5163804524385218, 0.172353611070521]",density,black,,,N008,visual,1,[],"['1', '2', '3', '4']",1,2023.2.3,harveyvisual,2.1,[],8,0.75,
0,pause,0.4,None,None,None,0,259,259,259,,,,,,,,,,,,,N008,visual,1,[],"['1', '2', '3', '4']",1,2023.2.3,harveyvisual,2.1,[],8,0.75,
1,dot,0.3,['dot'],['density'],black,0,260,260,260,,,93.40025997161865,93.11356592178345,93.41355395317078,dot,[0.08],"[-0.00037526000000685745, -0.027921386894572527]",density,black,,,N008,visual,1,[],"['1', '2', '3', '4']",1,2023.2.3,harveyvisual,2.1,[],8,0.75,
0,pause,0.4,None,None,None,0,261,261,261,,,,,,,,,,,,,N008,visual,1,[],"['1', '2', '3', '4']",1,2023.2.3,harveyvisual,2.1,[],8,0.75,
1,dot,0.3,['dot'],['density'],black,0,262,262,262,,,94.10028386116028,93.81371188163757,94.11367392539978,dot,[0.1],"[-0.00037526000000685745, -0.027921386894572527]",density,black,,,N008,visual,1,[],"['1', '2', '3', '4']",1,2023.2.3,harveyvisual,2.1,[],8,0.75,
0,pause,0.4,None,None,None,0,263,263,263,,,,,,,,,,,,,N008,visual,1,[],"['1', '2', '3', '4']",1,2023.2.3,harveyvisual,2.1,[],8,0.75,
20,dot,0.3,['dot'],['density'],black,0,264,264,264,,,94.8002860546112,94.51367807388306,94.81363987922668,dot,"[0.1, 0.1, 0.06, 0.08, 0.08, 0.06, 0.06, 0.06, 0.1, 0.06, 0.1, 0.08, 0.08, 0.1, 0.1, 0.06, 0.1, 0.08, 0.1, 0.06]","[[0.02933131788819454, -0.58144454127168], [-0.5480713908534413, 0.1845375763410551], [0.08552990748130407, 0.46046958051795206], [-0.5616163801327895, -0.04513926749393074], [0.004073120540581954, 0.0003509109410074762], [-0.16260765462667165, 0.146522804568761], [0.3014938891186757, -0.1341054126152874], [-0.32178353180119207, -0.32604350387364345], [0.17665678562119347, 0.12108596355878565], [-0.18425240636965684, -0.07389807311556473], [0.6051082769049453, -0.004890957741560354], [-0.4978858826286619, -0.24476203794263218], [0.45107561096330906, 0.3811983031679768], [-0.11259997045109738, 0.40666315876331294], [0.40890623810992255, 0.09280771924630166], [0.4961478023969724, -0.24024989110562184], [-0.2837510846987136, -0.5151746898599561], [0.2653287306525278, 0.3242498405076165], [-0.3507098367009476, 0.26466029912023603], [-0.0036305633414631666, -0.37045928643675047]]",density,black,,,N008,visual,1,[],"['1', '2', '3', '4']",1,2023.2.3,harveyvisual,2.1,[],8,0.75,
0,pause,0.4,None,None,None,0,265,265,265,,,,,,,,,,,,,N008,visual,1,[],"['1', '2', '3', '4']",1,2023.2.3,harveyvisual,2.1,[],8,0.75,
20,dot,0.3,['dot'],['density'],white,0,266,266,266,,,95.50028991699219,95.21366691589355,95.51364707946777,dot,"[0.08, 0.1, 0.06, 0.08, 0.1, 0.1, 0.1, 0.1, 0.06, 0.06, 0.06, 0.08, 0.1, 0.06, 0.08, 0.06, 0.08, 0.1, 0.1, 0.08]","[[0.1586487956543241, -0.21808332137277403], [0.4016685672595489, -0.0273519263590698], [0.1418120184337932, 0.39486778940022604], [0.039953196598712215, -0.023371115643313845], [-0.5832373905548192, 0.02694575415329384], [-0.1128008763220621, 0.3520771449074852], [-0.10538806641310638, -0.2823408425649195], [-0.28108740036926083, 0.2339328429447557], [-0.4464784622639436, -0.33422472671943093], [0.4581434564869745, -0.3180851247994294], [0.4693702379185348, 0.30020510540375495], [0.26971932305263646, -0.5229598667016939], [-0.06313826434520708, -0.5994208379297977], [-0.00015100199184137075, 0.5481999740322536], [-0.18970175470574457, -0.09015140924726911], [0.5589414222506427, -0.13314697430077163], [0.28695143989742733, 0.1643857945006274], [-0.47180393962507106, 0.35021609181297786], [0.320949415129573, 0.4645843213109908], [-0.36848352429030173, 0.0044398269320212735]]",density,white,,,N008,visual,1,[],"['1', '2', '3', '4']",1,2023.2.3,harveyvisual,2.1,[],8,0.75,
0,pause,0.4,None,None,None,0,267,267,267,,,,,,,,,,,1,95.82240605354309,N008,visual,1,[],"['1', '2', '3', '4']",1,2023.2.3,harveyvisual,2.1,[],8,0.75,
