num,mod,duration,shape,ll_cond,colors,.thisRepN,.thisTrialN,.thisN,.thisIndex,thisRow.t,notes,raw_global_time,t_start,t_stop,shapes,size,pos,cond,color,button,RT,participant,session,starting_run,left button (match/odd),right button (non-match/even),samples_per_block,psychopy version,expName,offset,audio,number_runs,radius,
1,dot,0.3,['dot'],['density'],black,0,0,0,0,,,2.400197982788086,2.115860939025879,2.4157989025115967,dot,[0.1],"[0.2830289625583117, -0.03026882548871228]",density,black,,,1301830,visual,1,[],"['1', '2', '3', '4']",1,2023.2.3,harveyvisual,2.1,[],8,0.75,
0,pause,0.4,None,None,None,0,1,1,1,,,,,,,,,,,,,1301830,visual,1,[],"['1', '2', '3', '4']",1,2023.2.3,harveyvisual,2.1,[],8,0.75,
1,dot,0.3,['dot'],['density'],black,0,2,2,2,,,3.100200891494751,2.7991108894348145,3.1165120601654053,dot,[0.06],"[-0.31757534052014, 0.30709612076893067]",density,black,,,1301830,visual,1,[],"['1', '2', '3', '4']",1,2023.2.3,harveyvisual,2.1,[],8,0.75,
0,pause,0.4,None,None,None,0,3,3,3,,,,,,,,,,,,,1301830,visual,1,[],"['1', '2', '3', '4']",1,2023.2.3,harveyvisual,2.1,[],8,0.75,
1,dot,0.3,['dot'],['density'],black,0,4,4,4,,,3.800200939178467,3.516295909881592,3.816274881362915,dot,[0.06],"[-0.43105706563061386, -0.18359692062194616]",density,black,,,1301830,visual,1,[],"['1', '2', '3', '4']",1,2023.2.3,harveyvisual,2.1,[],8,0.75,
0,pause,0.4,None,None,None,0,5,5,5,,,,,,,,,,,,,1301830,visual,1,[],"['1', '2', '3', '4']",1,2023.2.3,harveyvisual,2.1,[],8,0.75,
1,dot,0.3,['dot'],['density'],black,0,6,6,6,,,4.500198841094971,4.216495990753174,4.51626992225647,dot,[0.1],"[0.46628601751002285, 0.12197617226191985]",density,black,,,1301830,visual,1,[],"['1', '2', '3', '4']",1,2023.2.3,harveyvisual,2.1,[],8,0.75,
0,pause,0.4,None,None,None,0,7,7,7,,,,,,,,,,,,,1301830,visual,1,[],"['1', '2', '3', '4']",1,2023.2.3,harveyvisual,2.1,[],8,0.75,
1,dot,0.3,['dot'],['density'],black,0,8,8,8,,,5.200203895568848,4.916244983673096,5.2162439823150635,dot,[0.06],"[0.39967490259390637, -0.2576437183111264]",density,black,,,1301830,visual,1,[],"['1', '2', '3', '4']",1,2023.2.3,harveyvisual,2.1,[],8,0.75,
0,pause,0.4,None,None,None,0,9,9,9,,,,,,,,,,,,,1301830,visual,1,[],"['1', '2', '3', '4']",1,2023.2.3,harveyvisual,2.1,[],8,0.75,
1,dot,0.3,['dot'],['density'],black,0,10,10,10,,,5.9002039432525635,5.6162269115448,5.918554067611694,dot,[0.1],"[0.14557363600905707, -0.03994760510263185]",density,black,,,1301830,visual,1,[],"['1', '2', '3', '4']",1,2023.2.3,harveyvisual,2.1,[],8,0.75,
0,pause,0.4,None,None,None,0,11,11,11,,,,,,,,,,,,,1301830,visual,1,[],"['1', '2', '3', '4']",1,2023.2.3,harveyvisual,2.1,[],8,0.75,
2,dot,0.3,['dot'],['density'],black,0,12,12,12,,,6.600201845169067,6.318610906600952,6.61854100227356,dot,"[0.1, 0.08]","[[-0.20887660672828282, 0.3399455197969581], [-0.34272369919491674, 0.19089688818271272]]",density,black,,,1301830,visual,1,[],"['1', '2', '3', '4']",1,2023.2.3,harveyvisual,2.1,[],8,0.75,
0,pause,0.4,None,None,None,0,13,13,13,,,,,,,,,,,,,1301830,visual,1,[],"['1', '2', '3', '4']",1,2023.2.3,harveyvisual,2.1,[],8,0.75,
2,dot,0.3,['dot'],['density'],white,0,14,14,14,,,7.3002190589904785,7.018534898757935,7.318515062332153,dot,"[0.1, 0.1]","[[0.11825467712572878, -0.39617910972508336], [0.05459236086910312, -0.5860717982025758]]",density,white,,,1301830,visual,1,[],"['1', '2', '3', '4']",1,2023.2.3,harveyvisual,2.1,[],8,0.75,
0,pause,0.4,None,None,None,0,15,15,15,,,,,,,,,,,1,7.3569231033325195,1301830,visual,1,[],"['1', '2', '3', '4']",1,2023.2.3,harveyvisual,2.1,[],8,0.75,
2,dot,0.3,['dot'],['density'],black,0,16,16,16,,,8.000211000442505,7.718505859375,8.018496036529541,dot,"[0.08, 0.1]","[[0.075840462383643, -0.21806900392302264], [0.2761252679018853, -0.22101292055433702]]",density,black,,,1301830,visual,1,[],"['1', '2', '3', '4']",1,2023.2.3,harveyvisual,2.1,[],8,0.75,
0,pause,0.4,None,None,None,0,17,17,17,,,,,,,,,,,,,1301830,visual,1,[],"['1', '2', '3', '4']",1,2023.2.3,harveyvisual,2.1,[],8,0.75,
2,dot,0.3,['dot'],['density'],black,0,18,18,18,,,8.700204849243164,8.418500900268555,8.718492031097412,dot,"[0.06, 0.08]","[[0.45098141687762733, -0.20237638590572143], [0.5433504117931098, -0.02475258047346216]]",density,black,,,1301830,visual,1,[],"['1', '2', '3', '4']",1,2023.2.3,harveyvisual,2.1,[],8,0.75,
0,pause,0.4,None,None,None,0,19,19,19,,,,,,,,,,,,,1301830,visual,1,[],"['1', '2', '3', '4']",1,2023.2.3,harveyvisual,2.1,[],8,0.75,
2,dot,0.3,['dot'],['density'],black,0,20,20,20,,,9.400223016738892,9.118470907211304,9.418544054031372,dot,"[0.1, 0.08]","[[0.3859848860398513, -0.03650274153894256], [0.5613034441480618, 0.06134992989862206]]",density,black,,,1301830,visual,1,[],"['1', '2', '3', '4']",1,2023.2.3,harveyvisual,2.1,[],8,0.75,
0,pause,0.4,None,None,None,0,21,21,21,,,,,,,,,,,,,1301830,visual,1,[],"['1', '2', '3', '4']",1,2023.2.3,harveyvisual,2.1,[],8,0.75,
2,dot,0.3,['dot'],['density'],black,0,22,22,22,,,10.100198030471802,9.818470001220703,10.118438959121704,dot,"[0.1, 0.08]","[[0.21918454152848227, -0.10588244801595839], [0.1860161616926718, 0.09155890801726524]]",density,black,,,1301830,visual,1,[],"['1', '2', '3', '4']",1,2023.2.3,harveyvisual,2.1,[],8,0.75,
0,pause,0.4,None,None,None,0,23,23,23,,,,,,,,,,,,,1301830,visual,1,[],"['1', '2', '3', '4']",1,2023.2.3,harveyvisual,2.1,[],8,0.75,
3,dot,0.3,['dot'],['density'],black,0,24,24,24,,,10.800201892852783,10.518441915512085,10.818434953689575,dot,"[0.06, 0.1, 0.08]","[[-0.17720328293608806, -0.4514300161601115], [0.022754438065530718, -0.42143894503716073], [-0.10940085810899225, -0.24791511077847575]]",density,black,,,1301830,visual,1,[],"['1', '2', '3', '4']",1,2023.2.3,harveyvisual,2.1,[],8,0.75,
0,pause,0.4,None,None,None,0,25,25,25,,,,,,,,,,,,,1301830,visual,1,[],"['1', '2', '3', '4']",1,2023.2.3,harveyvisual,2.1,[],8,0.75,
3,dot,0.3,['dot'],['density'],black,0,26,26,26,,,11.500200033187866,11.218453884124756,11.518435001373291,dot,"[0.08, 0.08, 0.08]","[[0.1555504186016049, 0.15532406847092056], [-0.0680535881648269, 0.26220909641571793], [0.08533315121688807, 0.39122308779032533]]",density,black,,,1301830,visual,1,[],"['1', '2', '3', '4']",1,2023.2.3,harveyvisual,2.1,[],8,0.75,
0,pause,0.4,None,None,None,0,27,27,27,,,,,,,,,,,,,1301830,visual,1,[],"['1', '2', '3', '4']",1,2023.2.3,harveyvisual,2.1,[],8,0.75,
3,dot,0.3,['dot'],['density'],black,0,28,28,28,,,12.200206995010376,11.918444871902466,12.218401908874512,dot,"[0.1, 0.06, 0.1]","[[0.4290032298944087, 0.1407520187648592], [0.22848299553954127, 0.06362144779139585], [0.3595680574788582, -0.09433362503040832]]",density,black,,,1301830,visual,1,[],"['1', '2', '3', '4']",1,2023.2.3,harveyvisual,2.1,[],8,0.75,
0,pause,0.4,None,None,None,0,29,29,29,,,,,,,,,,,,,1301830,visual,1,[],"['1', '2', '3', '4']",1,2023.2.3,harveyvisual,2.1,[],8,0.75,
3,dot,0.3,['dot'],['density'],black,0,30,30,30,,,12.90022587776184,12.618412971496582,12.918545007705688,dot,"[0.1, 0.06, 0.08]","[[0.07700183490032705, -0.35627018624379625], [-0.11838355721398923, -0.41989981358322065], [0.04553884901650391, -0.5822363694770394]]",density,black,,,1301830,visual,1,[],"['1', '2', '3', '4']",1,2023.2.3,harveyvisual,2.1,[],8,0.75,
0,pause,0.4,None,None,None,0,31,31,31,,,,,,,,,,,,,1301830,visual,1,[],"['1', '2', '3', '4']",1,2023.2.3,harveyvisual,2.1,[],8,0.75,
3,dot,0.3,['dot'],['density'],white,0,32,32,32,,,13.600206851959229,13.318416833877563,13.618387937545776,dot,"[0.1, 0.08, 0.1]","[[-0.1827482077423914, 0.13189758396693702], [0.006935645283384683, 0.04732296079382947], [-0.049709858873230685, 0.28599666368451326]]",density,white,,,1301830,visual,1,[],"['1', '2', '3', '4']",1,2023.2.3,harveyvisual,2.1,[],8,0.75,
0,pause,0.4,None,None,None,0,33,33,33,,,,,,,,,,,1,13.70269513130188,1301830,visual,1,[],"['1', '2', '3', '4']",1,2023.2.3,harveyvisual,2.1,[],8,0.75,
3,dot,0.3,['dot'],['density'],black,0,34,34,34,,,14.30022406578064,14.018424987792969,14.318366050720215,dot,"[0.06, 0.1, 0.1]","[[-0.1591938184585166, 0.2573970255855866], [-0.049574382916532336, 0.44031337398050124], [0.08264166875933507, 0.262381570646859]]",density,black,,,1301830,visual,1,[],"['1', '2', '3', '4']",1,2023.2.3,harveyvisual,2.1,[],8,0.75,
0,pause,0.4,None,None,None,0,35,35,35,,,,,,,,,,,,,1301830,visual,1,[],"['1', '2', '3', '4']",1,2023.2.3,harveyvisual,2.1,[],8,0.75,
4,dot,0.3,['dot'],['density'],black,0,36,36,36,,,15.000223875045776,14.718387842178345,15.018354892730713,dot,"[0.1, 0.1, 0.08, 0.06]","[[0.1665887267295909, 0.08389582001604734], [0.4584359263982055, 0.26405512465689546], [0.4157764543415929, 0.03513878013061779], [0.2392225064082761, 0.29777239984320175]]",density,black,,,1301830,visual,1,[],"['1', '2', '3', '4']",1,2023.2.3,harveyvisual,2.1,[],8,0.75,
0,pause,0.4,None,None,None,0,37,37,37,,,,,,,,,,,,,1301830,visual,1,[],"['1', '2', '3', '4']",1,2023.2.3,harveyvisual,2.1,[],8,0.75,
4,dot,0.3,['dot'],['density'],black,0,38,38,38,,,15.700212001800537,15.418365001678467,15.718340873718262,dot,"[0.1, 0.06, 0.08, 0.1]","[[-0.2516773625496151, -0.30151264897341506], [-0.16747001932966935, -0.11477707456203952], [0.007305472957725734, -0.4586877449884055], [0.017540980065453668, -0.20354321808263612]]",density,black,,,1301830,visual,1,[],"['1', '2', '3', '4']",1,2023.2.3,harveyvisual,2.1,[],8,0.75,
0,pause,0.4,None,None,None,0,39,39,39,,,,,,,,,,,,,1301830,visual,1,[],"['1', '2', '3', '4']",1,2023.2.3,harveyvisual,2.1,[],8,0.75,
4,dot,0.3,['dot'],['density'],black,0,40,40,40,,,16.400223970413208,16.118445873260498,16.418320894241333,dot,"[0.06, 0.1, 0.06, 0.06]","[[0.14909032788103166, -0.4768554918693636], [0.26071220381864263, -0.20018841858473793], [0.02634252458519163, -0.30967292471165575], [0.3541358554053611, -0.43808560323820217]]",density,black,,,1301830,visual,1,[],"['1', '2', '3', '4']",1,2023.2.3,harveyvisual,2.1,[],8,0.75,
0,pause,0.4,None,None,None,0,41,41,41,,,,,,,,,,,,,1301830,visual,1,[],"['1', '2', '3', '4']",1,2023.2.3,harveyvisual,2.1,[],8,0.75,
4,dot,0.3,['dot'],['density'],black,0,42,42,42,,,17.100226879119873,16.81830906867981,17.118300914764404,dot,"[0.1, 0.08, 0.06, 0.06]","[[-0.24855901342904946, 0.4326179111294549], [-0.33066739519925503, 0.24314919490711104], [-0.015728317870896572, 0.5189617074191414], [-0.09686463175319387, 0.28200212383687606]]",density,black,,,1301830,visual,1,[],"['1', '2', '3', '4']",1,2023.2.3,harveyvisual,2.1,[],8,0.75,
0,pause,0.4,None,None,None,0,43,43,43,,,,,,,,,,,,,1301830,visual,1,[],"['1', '2', '3', '4']",1,2023.2.3,harveyvisual,2.1,[],8,0.75,
4,dot,0.3,['dot'],['density'],white,0,44,44,44,,,17.800220012664795,17.518250942230225,17.81826400756836,dot,"[0.08, 0.08, 0.1, 0.06]","[[-0.041173875632770134, -0.46498671258652186], [-0.2993670243960792, -0.1306311282158324], [-0.23343206187288035, -0.39905635110522214], [-0.1242366033797093, -0.2299834244258363]]",density,white,,,1301830,visual,1,[],"['1', '2', '3', '4']",1,2023.2.3,harveyvisual,2.1,[],8,0.75,
0,pause,0.4,None,None,None,0,45,45,45,,,,,,,,,,,1,17.889261960983276,1301830,visual,1,[],"['1', '2', '3', '4']",1,2023.2.3,harveyvisual,2.1,[],8,0.75,
4,dot,0.3,['dot'],['density'],black,0,46,46,46,,,18.500203847885132,18.21823287010193,18.518213987350464,dot,"[0.08, 0.06, 0.1, 0.06]","[[-0.4918595852306691, 0.19162898845839058], [-0.30188041745692074, 0.10218906117132437], [-0.3018224646415858, -0.14357118929282034], [-0.4853871342809682, -0.061736688026617866]]",density,black,,,1301830,visual,1,[],"['1', '2', '3', '4']",1,2023.2.3,harveyvisual,2.1,[],8,0.75,
0,pause,0.4,None,None,None,0,47,47,47,,,,,,,,,,,,,1301830,visual,1,[],"['1', '2', '3', '4']",1,2023.2.3,harveyvisual,2.1,[],8,0.75,
5,dot,0.3,['dot'],['density'],black,0,48,48,48,,,19.200226068496704,18.918299913406372,19.21836805343628,dot,"[0.1, 0.08, 0.06, 0.08, 0.08]","[[-0.3632963637400461, -0.33792544526642676], [-0.48189922448633543, -0.036156829306921726], [-0.2958020468624338, 0.07292024124872273], [-0.10639492237515816, -0.0008972940205680791], [-0.20818262001932955, -0.17666930306052683]]",density,black,,,1301830,visual,1,[],"['1', '2', '3', '4']",1,2023.2.3,harveyvisual,2.1,[],8,0.75,
0,pause,0.4,None,None,None,0,49,49,49,,,,,,,,,,,,,1301830,visual,1,[],"['1', '2', '3', '4']",1,2023.2.3,harveyvisual,2.1,[],8,0.75,
5,dot,0.3,['dot'],['density'],black,0,50,50,50,,,19.900205850601196,19.618365049362183,19.918258905410767,dot,"[0.1, 0.06, 0.06, 0.06, 0.06]","[[-0.17224806752104949, 0.21128771658676965], [-0.35983128753182364, -0.1328600505582573], [-0.33716814897054914, 0.09708697582185674], [-0.044562237693599294, -0.03778919281981133], [-0.17109626387405982, -0.21732524013947077]]",density,black,,,1301830,visual,1,[],"['1', '2', '3', '4']",1,2023.2.3,harveyvisual,2.1,[],8,0.75,
0,pause,0.4,None,None,None,0,51,51,51,,,,,,,,,,,,,1301830,visual,1,[],"['1', '2', '3', '4']",1,2023.2.3,harveyvisual,2.1,[],8,0.75,
5,dot,0.3,['dot'],['density'],black,0,52,52,52,,,20.600208044052124,20.318198919296265,20.618178844451904,dot,"[0.1, 0.06, 0.06, 0.08, 0.1]","[[-0.13250041589442924, 0.4634743177333449], [-0.03625216126902591, 0.28212032656479163], [0.10864293512180892, 0.5244886061775208], [-0.2806491611955352, 0.29160063440784684], [-0.17458602784440078, 0.11997474961663163]]",density,black,,,1301830,visual,1,[],"['1', '2', '3', '4']",1,2023.2.3,harveyvisual,2.1,[],8,0.75,
0,pause,0.4,None,None,None,0,53,53,53,,,,,,,,,,,,,1301830,visual,1,[],"['1', '2', '3', '4']",1,2023.2.3,harveyvisual,2.1,[],8,0.75,
5,dot,0.3,['dot'],['density'],black,0,54,54,54,,,21.300215005874634,21.018189907073975,21.318177938461304,dot,"[0.08, 0.08, 0.1, 0.08, 0.08]","[[-0.08538919239777085, -0.3767281323802813], [0.14382612128503536, -0.4947333592336123], [0.2503732289573559, -0.06783159190520484], [0.07777572498152553, -0.21879460077906046], [0.26544561712664855, -0.2975172507008621]]",density,black,,,1301830,visual,1,[],"['1', '2', '3', '4']",1,2023.2.3,harveyvisual,2.1,[],8,0.75,
0,pause,0.4,None,None,None,0,55,55,55,,,,,,,,,,,,,1301830,visual,1,[],"['1', '2', '3', '4']",1,2023.2.3,harveyvisual,2.1,[],8,0.75,
5,dot,0.3,['dot'],['density'],black,0,56,56,56,,,22.000216007232666,21.71816396713257,22.018156051635742,dot,"[0.06, 0.06, 0.1, 0.1, 0.08]","[[-0.26965218803342234, -0.06061691990321757], [-0.44412238708790114, -0.1605793459593267], [-0.2738608688716076, -0.33598391440877745], [-0.06160694910013377, -0.19463283807086704], [-0.16469008497891707, 0.13324638745272324]]",density,black,,,1301830,visual,1,[],"['1', '2', '3', '4']",1,2023.2.3,harveyvisual,2.1,[],8,0.75,
0,pause,0.4,None,None,None,0,57,57,57,,,,,,,,,,,,,1301830,visual,1,[],"['1', '2', '3', '4']",1,2023.2.3,harveyvisual,2.1,[],8,0.75,
5,dot,0.3,['dot'],['density'],black,0,58,58,58,,,22.70020890235901,22.41820788383484,22.7181339263916,dot,"[0.06, 0.1, 0.1, 0.1, 0.06]","[[-0.053215572458232586, 0.27221330895143253], [0.10089702531331296, 0.1334794413224796], [0.12897289155288158, 0.4002796015157326], [0.3022660506716914, 0.02685289149411272], [0.2804295634962893, 0.24950018434757285]]",density,black,,,1301830,visual,1,[],"['1', '2', '3', '4']",1,2023.2.3,harveyvisual,2.1,[],8,0.75,
0,pause,0.4,None,None,None,0,59,59,59,,,,,,,,,,,,,1301830,visual,1,[],"['1', '2', '3', '4']",1,2023.2.3,harveyvisual,2.1,[],8,0.75,
6,dot,0.3,['dot'],['density'],white,0,60,60,60,,,23.400203943252563,23.11814594268799,23.418177843093872,dot,"[0.08, 0.08, 0.1, 0.08, 0.1, 0.1]","[[-0.560843418842529, -0.11752527585456686], [-0.31277608783648175, 0.04003545118838376], [-0.18207900664359264, -0.3652956678781814], [-0.41442909117718774, -0.4038021739217259], [-0.14446849917993246, -0.07035639226176245], [-0.3420415871796019, -0.1631057353810994]]",density,white,,,1301830,visual,1,[],"['1', '2', '3', '4']",1,2023.2.3,harveyvisual,2.1,[],8,0.75,
0,pause,0.4,None,None,None,0,61,61,61,,,,,,,,,,,1,23.462968111038208,1301830,visual,1,[],"['1', '2', '3', '4']",1,2023.2.3,harveyvisual,2.1,[],8,0.75,
6,dot,0.3,['dot'],['density'],black,0,62,62,62,,,24.100224018096924,23.818119049072266,24.118093967437744,dot,"[0.08, 0.1, 0.1, 0.08, 0.06, 0.1]","[[0.21259181929123794, -0.28356491423097735], [0.48303195854319764, 0.06048455888335473], [0.22913681079270962, 0.07473613686017411], [0.4939377514137012, -0.2837040300549214], [0.055643620130747785, -0.14290468481535015], [0.3711413815128542, -0.10952979375652658]]",density,black,,,1301830,visual,1,[],"['1', '2', '3', '4']",1,2023.2.3,harveyvisual,2.1,[],8,0.75,
0,pause,0.4,None,None,None,0,63,63,63,,,,,,,,,,,,,1301830,visual,1,[],"['1', '2', '3', '4']",1,2023.2.3,harveyvisual,2.1,[],8,0.75,
6,dot,0.3,['dot'],['density'],black,0,64,64,64,,,24.800221920013428,24.518133878707886,24.818084955215454,dot,"[0.1, 0.1, 0.06, 0.1, 0.06, 0.06]","[[0.2333794889108542, 0.5108688068097712], [0.17720399199515413, 0.06488002481085814], [0.3526024925964592, 0.16961020277143707], [0.1596713132306006, 0.321837067503818], [0.0007438407140586783, 0.18344495120876914], [0.42757463853404776, 0.37786691715169374]]",density,black,,,1301830,visual,1,[],"['1', '2', '3', '4']",1,2023.2.3,harveyvisual,2.1,[],8,0.75,
0,pause,0.4,None,None,None,0,65,65,65,,,,,,,,,,,,,1301830,visual,1,[],"['1', '2', '3', '4']",1,2023.2.3,harveyvisual,2.1,[],8,0.75,
6,dot,0.3,['dot'],['density'],black,0,66,66,66,,,25.50022292137146,25.21916103363037,25.518216848373413,dot,"[0.06, 0.08, 0.06, 0.1, 0.08, 0.1]","[[-0.06594826066790033, 0.1051940440944823], [0.15491437476435005, 0.24610541937573027], [-0.07004887042171212, 0.3755397070333221], [0.22920853754483062, 0.04629278748534093], [0.14611265926610215, 0.46549762069565603], [0.352938231914746, 0.33060025924169734]]",density,black,,,1301830,visual,1,[],"['1', '2', '3', '4']",1,2023.2.3,harveyvisual,2.1,[],8,0.75,
0,pause,0.4,None,None,None,0,67,67,67,,,,,,,,,,,,,1301830,visual,1,[],"['1', '2', '3', '4']",1,2023.2.3,harveyvisual,2.1,[],8,0.75,
6,dot,0.3,['dot'],['density'],black,0,68,68,68,,,26.200226068496704,25.918086051940918,26.21802806854248,dot,"[0.06, 0.1, 0.1, 0.1, 0.1, 0.1]","[[-0.25052904509636076, -0.46440103658729176], [-0.12772535636451293, 0.010821502090106766], [-0.031043743050516784, -0.3649555915866845], [-0.3754529733759062, -0.18839395716731677], [0.07378414788444272, -0.15062955699655364], [-0.17220243018048728, -0.20498996683935267]]",density,black,,,1301830,visual,1,[],"['1', '2', '3', '4']",1,2023.2.3,harveyvisual,2.1,[],8,0.75,
0,pause,0.4,None,None,None,0,69,69,69,,,,,,,,,,,,,1301830,visual,1,[],"['1', '2', '3', '4']",1,2023.2.3,harveyvisual,2.1,[],8,0.75,
6,dot,0.3,['dot'],['density'],black,0,70,70,70,,,26.90020990371704,26.618020057678223,26.918028831481934,dot,"[0.06, 0.06, 0.06, 0.1, 0.1, 0.06]","[[-0.3078382271761739, 0.4361778186671046], [-0.059169983783578364, 0.44796520308269433], [-0.3209935464877752, 0.22545519901795916], [-0.10826469778565927, 0.24929594343002343], [-0.016554185736113114, 0.06783813438016018], [-0.29360476626160575, 0.00756342739423081]]",density,black,,,1301830,visual,1,[],"['1', '2', '3', '4']",1,2023.2.3,harveyvisual,2.1,[],8,0.75,
0,pause,0.4,None,None,None,0,71,71,71,,,,,,,,,,,,,1301830,visual,1,[],"['1', '2', '3', '4']",1,2023.2.3,harveyvisual,2.1,[],8,0.75,
7,dot,0.3,['dot'],['density'],black,0,72,72,72,,,27.600204944610596,27.31801986694336,27.617990970611572,dot,"[0.06, 0.06, 0.06, 0.06, 0.08, 0.08, 0.06]","[[0.21536278937261513, -0.01733091677764761], [-0.08931035591216824, -0.05246349631749078], [0.21870610454298933, 0.21067491250041093], [-0.1587576617113587, 0.26068369883413384], [0.04623079518225047, 0.4568527369480977], [0.022942391481424712, 0.13939122930077608], [-0.27674911739568203, 0.09730719745121558]]",density,black,,,1301830,visual,1,[],"['1', '2', '3', '4']",1,2023.2.3,harveyvisual,2.1,[],8,0.75,
0,pause,0.4,None,None,None,0,73,73,73,,,,,,,,,,,,,1301830,visual,1,[],"['1', '2', '3', '4']",1,2023.2.3,harveyvisual,2.1,[],8,0.75,
7,dot,0.3,['dot'],['density'],black,0,74,74,74,,,28.300214052200317,28.018004894256592,28.318140983581543,dot,"[0.1, 0.06, 0.1, 0.06, 0.1, 0.06, 0.06]","[[0.14162553822338392, 0.3850374027840034], [0.14862566890709045, -0.11120959689479885], [0.39332636479883865, 0.3869926518090174], [0.40462455387813373, -0.12110830933676162], [0.23143806607869288, 0.12402376181071403], [0.031443448417621304, 0.15083815177969048], [0.4360523150463376, 0.1818515773867412]]",density,black,,,1301830,visual,1,[],"['1', '2', '3', '4']",1,2023.2.3,harveyvisual,2.1,[],8,0.75,
0,pause,0.4,None,None,None,0,75,75,75,,,,,,,,,,,,,1301830,visual,1,[],"['1', '2', '3', '4']",1,2023.2.3,harveyvisual,2.1,[],8,0.75,
7,dot,0.3,['dot'],['density'],white,0,76,76,76,,,29.000213861465454,28.718142986297607,29.01797389984131,dot,"[0.1, 0.08, 0.06, 0.08, 0.06, 0.06, 0.06]","[[-0.08751196138777266, -0.40239331021683095], [-0.1389983634140625, -0.1821537091642013], [-0.5212097088452917, -0.15879536445288125], [-0.24197016774290594, 0.025691971861017886], [-0.324083892787021, -0.3083678109532634], [0.06465625853811506, -0.19815494036826437], [-0.2569867334647868, -0.5155038850209747]]",density,white,,,1301830,visual,1,[],"['1', '2', '3', '4']",1,2023.2.3,harveyvisual,2.1,[],8,0.75,
0,pause,0.4,None,None,None,0,77,77,77,,,,,,,,,,,1,29.03866410255432,1301830,visual,1,[],"['1', '2', '3', '4']",1,2023.2.3,harveyvisual,2.1,[],8,0.75,
7,dot,0.3,['dot'],['density'],black,0,78,78,78,,,29.700204849243164,29.417975902557373,29.717954874038696,dot,"[0.1, 0.06, 0.1, 0.08, 0.06, 0.08, 0.1]","[[-0.3423230189937584, -0.41219609722212536], [-0.1182323968952694, -0.35552357509158045], [-0.4111032443031386, -0.006313161275750597], [-0.5095560862941229, -0.2529410328503813], [-0.2588176969072235, -0.18091026219072012], [-0.0026253510642934245, -0.12197054074907589], [-0.16586784627322051, 0.0941069694468023]]",density,black,,,1301830,visual,1,[],"['1', '2', '3', '4']",1,2023.2.3,harveyvisual,2.1,[],8,0.75,
0,pause,0.4,None,None,None,0,79,79,79,,,,,,,,,,,,,1301830,visual,1,[],"['1', '2', '3', '4']",1,2023.2.3,harveyvisual,2.1,[],8,0.75,
7,dot,0.3,['dot'],['density'],black,0,80,80,80,,,30.400212049484253,30.117941856384277,30.417950868606567,dot,"[0.06, 0.1, 0.1, 0.06, 0.06, 0.1, 0.1]","[[0.27964692832129656, -0.15500474148311624], [0.48019533028943556, 0.09933774746227163], [0.08203545767143021, 0.28019381302663365], [0.05572057582720619, -0.1426303369841539], [0.31711281236335803, 0.2944831276535668], [-0.041479771322150735, 0.11885700406191958], [0.21045310206912196, 0.07075003364957701]]",density,black,,,1301830,visual,1,[],"['1', '2', '3', '4']",1,2023.2.3,harveyvisual,2.1,[],8,0.75,
0,pause,0.4,None,None,None,0,81,81,81,,,,,,,,,,,,,1301830,visual,1,[],"['1', '2', '3', '4']",1,2023.2.3,harveyvisual,2.1,[],8,0.75,
7,dot,0.3,['dot'],['density'],black,0,82,82,82,,,31.100226879119873,30.817975997924805,31.1179678440094,dot,"[0.1, 0.1, 0.1, 0.06, 0.1, 0.1, 0.1]","[[0.3899189512010899, -0.40728696153528776], [0.20392863561369634, -0.3305625840210526], [0.31626985815109576, 0.13567824844623666], [0.5017338684339655, -0.028549680114735937], [0.11648855723187378, -0.1078833072829627], [0.07041138378868489, 0.08730219371944997], [0.32910598476010167, -0.13660711058181768]]",density,black,,,1301830,visual,1,[],"['1', '2', '3', '4']",1,2023.2.3,harveyvisual,2.1,[],8,0.75,
0,pause,0.4,None,None,None,0,83,83,83,,,,,,,,,,,,,1301830,visual,1,[],"['1', '2', '3', '4']",1,2023.2.3,harveyvisual,2.1,[],8,0.75,
8,dot,0.3,['dot'],['density'],black,0,84,84,84,,,31.800225973129272,31.518086910247803,31.81806993484497,dot,"[0.1, 0.08, 0.1, 0.06, 0.06, 0.1, 0.1, 0.08]","[[-0.24177141476747963, 0.37227001522147646], [0.022885153928237218, 0.26973630011126315], [-0.028424808126663318, 0.474031493095366], [-0.14677856605916886, 0.1510981622513803], [-0.33541894344674456, 0.07730913931898181], [0.10840621230513336, 0.04997884008138209], [0.30094222783758756, 0.17024461371702543], [-0.056701880949321645, -0.08542646800774611]]",density,black,,,1301830,visual,1,[],"['1', '2', '3', '4']",1,2023.2.3,harveyvisual,2.1,[],8,0.75,
0,pause,0.4,None,None,None,0,85,85,85,,,,,,,,,,,,,1301830,visual,1,[],"['1', '2', '3', '4']",1,2023.2.3,harveyvisual,2.1,[],8,0.75,
8,dot,0.3,['dot'],['density'],black,0,86,86,86,,,32.50022602081299,32.217944860458374,32.5179078578949,dot,"[0.1, 0.08, 0.06, 0.08, 0.1, 0.08, 0.06, 0.08]","[[-0.17382250058115215, 0.008030820220576582], [-0.5561520679887834, 0.09064024109159684], [-0.2322770524578434, -0.18818443710846813], [-0.41357291590276396, -0.2905316508268561], [-0.37423053416790164, -0.04064357687765813], [-0.014699175284411378, 0.15059198662288528], [-0.015485985535575739, -0.1348843831724925], [-0.36639977644872057, 0.228205681233079]]",density,black,,,1301830,visual,1,[],"['1', '2', '3', '4']",1,2023.2.3,harveyvisual,2.1,[],8,0.75,
0,pause,0.4,None,None,None,0,87,87,87,,,,,,,,,,,,,1301830,visual,1,[],"['1', '2', '3', '4']",1,2023.2.3,harveyvisual,2.1,[],8,0.75,
8,dot,0.3,['dot'],['density'],black,0,88,88,88,,,33.200209856033325,32.917908906936646,33.217854022979736,dot,"[0.06, 0.06, 0.08, 0.08, 0.1, 0.06, 0.1, 0.1]","[[-0.2395708272612018, -0.3613018167456044], [-0.39529086986423073, -0.13116056396528103], [0.016143118738118, -0.3000453801144436], [-0.10247857353615338, 0.12176090555598315], [0.11784264820349834, -0.12422453235794288], [-0.1468533202112338, -0.18280007972172757], [-0.31504288856899026, 0.06147683711297207], [0.2614313121475242, -0.33215718180641224]]",density,black,,,1301830,visual,1,[],"['1', '2', '3', '4']",1,2023.2.3,harveyvisual,2.1,[],8,0.75,
0,pause,0.4,None,None,None,0,89,89,89,,,,,,,,,,,,,1301830,visual,1,[],"['1', '2', '3', '4']",1,2023.2.3,harveyvisual,2.1,[],8,0.75,
8,dot,0.3,['dot'],['density'],black,0,90,90,90,,,33.90021300315857,33.61786484718323,33.91783690452576,dot,"[0.1, 0.08, 0.06, 0.08, 0.08, 0.08, 0.08, 0.1]","[[0.5011924336457421, -0.024432440978935197], [0.2806328112604475, -0.04317330297599672], [0.4832514634589159, 0.31109822070486504], [0.16408111659662816, 0.42847901077729456], [0.23688927214560462, 0.23559820796421724], [0.07772697954394367, 0.06196890701796274], [0.10192126774068293, -0.18867749580812243], [-0.012619648351882298, 0.24997239668137242]]",density,black,,,1301830,visual,1,[],"['1', '2', '3', '4']",1,2023.2.3,harveyvisual,2.1,[],8,0.75,
0,pause,0.4,None,None,None,0,91,91,91,,,,,,,,,,,,,1301830,visual,1,[],"['1', '2', '3', '4']",1,2023.2.3,harveyvisual,2.1,[],8,0.75,
8,dot,0.3,['dot'],['density'],black,0,92,92,92,,,34.600215911865234,34.31781601905823,34.61823487281799,dot,"[0.1, 0.08, 0.06, 0.1, 0.06, 0.08, 0.1, 0.06]","[[0.2695774744445919, -0.006239189610034271], [0.562582848369008, 0.10338967896652898], [0.24075709842543627, 0.2415297589697605], [0.16944247952526825, 0.43473569867318385], [0.009973801462114143, 0.2622623098226203], [0.4378981685404615, 0.30984992123658367], [0.345623627049791, -0.19390063473497438], [0.01218861403819752, 6.35764658527089e-05]]",density,black,,,1301830,visual,1,[],"['1', '2', '3', '4']",1,2023.2.3,harveyvisual,2.1,[],8,0.75,
0,pause,0.4,None,None,None,0,93,93,93,,,,,,,,,,,,,1301830,visual,1,[],"['1', '2', '3', '4']",1,2023.2.3,harveyvisual,2.1,[],8,0.75,
8,dot,0.3,['dot'],['density'],black,0,94,94,94,,,35.30020785331726,35.01797890663147,35.31798696517944,dot,"[0.1, 0.06, 0.08, 0.1, 0.06, 0.06, 0.08, 0.1]","[[-0.25621621658373334, -0.516505587173681], [-0.1662036889407214, -0.08514196380588028], [-0.18387329975925823, -0.32724781719236296], [0.018951322384734254, -0.28276580262079387], [-0.4257935961758009, -0.11165978892152287], [-0.38337046113926315, -0.34678862335127664], [0.08447884857343574, -0.4920123821830729], [0.02561025798733424, 0.0007844895199748298]]",density,black,,,1301830,visual,1,[],"['1', '2', '3', '4']",1,2023.2.3,harveyvisual,2.1,[],8,0.75,
0,pause,0.4,None,None,None,0,95,95,95,,,,,,,,,,,,,1301830,visual,1,[],"['1', '2', '3', '4']",1,2023.2.3,harveyvisual,2.1,[],8,0.75,
9,dot,0.3,['dot'],['density'],black,0,96,96,96,,,36.00020694732666,35.71781396865845,36.017817974090576,dot,"[0.08, 0.06, 0.08, 0.08, 0.1, 0.1, 0.1, 0.08, 0.08]","[[-0.5586095828397086, -0.08452232608263664], [-0.5120381862419278, 0.15370428824398014], [-0.08562135647518901, 0.024493186907675612], [-0.3204263364507457, 0.2397592637991136], [-0.21279117965626912, -0.18999926927512983], [-0.34615304282718484, -0.002506468551820401], [-0.32642794983948487, 0.4412976810435594], [-0.12278716272436474, 0.3390467791696382], [0.05505897535061007, 0.17426903254619158]]",density,black,,,1301830,visual,1,[],"['1', '2', '3', '4']",1,2023.2.3,harveyvisual,2.1,[],8,0.75,
0,pause,0.4,None,None,None,0,97,97,97,,,,,,,,,,,,,1301830,visual,1,[],"['1', '2', '3', '4']",1,2023.2.3,harveyvisual,2.1,[],8,0.75,
9,dot,0.3,['dot'],['density'],black,0,98,98,98,,,36.70022892951965,36.417978048324585,36.71796798706055,dot,"[0.06, 0.08, 0.1, 0.06, 0.06, 0.06, 0.06, 0.06, 0.06]","[[0.30047334598257713, -0.32583448447642216], [0.4997394081452916, 0.05175273655880906], [0.13646797290608587, 0.02221883094322858], [0.11448241016544139, -0.2117191838414046], [0.417500260412479, 0.2413963184479076], [0.19152536325099656, 0.23172406522327998], [0.5046802385722475, -0.28323005758562664], [-0.037891296982194685, 0.14714919272112825], [0.3292067348064443, -0.0657181274468392]]",density,black,,,1301830,visual,1,[],"['1', '2', '3', '4']",1,2023.2.3,harveyvisual,2.1,[],8,0.75,
0,pause,0.4,None,None,None,0,99,99,99,,,,,,,,,,,,,1301830,visual,1,[],"['1', '2', '3', '4']",1,2023.2.3,harveyvisual,2.1,[],8,0.75,
9,dot,0.3,['dot'],['density'],black,0,100,100,100,,,37.40020799636841,37.11775994300842,37.4177508354187,dot,"[0.06, 0.08, 0.1, 0.1, 0.06, 0.06, 0.06, 0.06, 0.1]","[[-0.06218673389315922, -0.4689115343027075], [0.3660477402554353, -0.15396192139437054], [0.1401329754895462, -0.14262156541192547], [0.12293598154832706, -0.38779640022673934], [0.42645158233284447, -0.3607859009111275], [-0.06238477126329685, -0.2564764349502154], [-0.2584688277182379, -0.29964401945706215], [-0.11312192996032899, -0.05439345917292958], [0.19096873654163896, 0.1321853744035435]]",density,black,,,1301830,visual,1,[],"['1', '2', '3', '4']",1,2023.2.3,harveyvisual,2.1,[],8,0.75,
0,pause,0.4,None,None,None,0,101,101,101,,,,,,,,,,,,,1301830,visual,1,[],"['1', '2', '3', '4']",1,2023.2.3,harveyvisual,2.1,[],8,0.75,
9,dot,0.3,['dot'],['density'],black,0,102,102,102,,,38.10021185874939,37.81791591644287,38.11790585517883,dot,"[0.06, 0.06, 0.08, 0.06, 0.08, 0.08, 0.08, 0.06, 0.06]","[[0.17250841666444466, -0.5173949811024123], [-0.03744062107829021, -0.3895067986023326], [0.30010350549611725, -0.35742528465303014], [0.33064876224298684, -0.08057424749072183], [-0.16743636965090838, -0.09291053242622109], [0.1226827020066543, -0.24711763375004436], [0.047527772487498496, -0.037432207059122605], [0.20928928941955194, 0.09999474740890861], [-0.30040876562534896, -0.42726910911839744]]",density,black,,,1301830,visual,1,[],"['1', '2', '3', '4']",1,2023.2.3,harveyvisual,2.1,[],8,0.75,
0,pause,0.4,None,None,None,0,103,103,103,,,,,,,,,,,,,1301830,visual,1,[],"['1', '2', '3', '4']",1,2023.2.3,harveyvisual,2.1,[],8,0.75,
9,dot,0.3,['dot'],['density'],white,0,104,104,104,,,38.80021691322327,38.51793098449707,38.817715883255005,dot,"[0.1, 0.06, 0.08, 0.06, 0.1, 0.06, 0.06, 0.06, 0.08]","[[0.21556792455118703, 0.37642033042102185], [0.14366510572844648, -0.18651452926789283], [0.49642287684820396, -0.0794158383055628], [-0.04770628609247857, -0.12519201939426747], [0.20310136493979325, 0.154094551714378], [-0.004065485174475974, 0.09100382633055243], [-0.018053901421587658, 0.34918523294118026], [0.29624623666919286, -0.053344657000752645], [-0.2018857737562037, 0.01971770186205045]]",density,white,,,1301830,visual,1,[],"['1', '2', '3', '4']",1,2023.2.3,harveyvisual,2.1,[],8,0.75,
0,pause,0.4,None,None,None,0,105,105,105,,,,,,,,,,,1,38.85987305641174,1301830,visual,1,[],"['1', '2', '3', '4']",1,2023.2.3,harveyvisual,2.1,[],8,0.75,
9,dot,0.3,['dot'],['density'],black,0,106,106,106,,,39.5002179145813,39.217742919921875,39.51769495010376,dot,"[0.1, 0.06, 0.08, 0.08, 0.08, 0.06, 0.08, 0.08, 0.06]","[[-0.08351644510687262, 0.021707353155035948], [0.11173555070370329, 0.3931220271068859], [-0.15396522232717408, 0.3423719725559184], [0.23829169989725132, 0.186218803300476], [-0.29008049122260166, 0.17395274189193027], [0.2491440638781109, -0.04662568063892593], [-0.2854023508218629, -0.06307984259985559], [0.003596708871689959, 0.21717875760955796], [-0.47489413548496523, 0.030788186259843496]]",density,black,,,1301830,visual,1,[],"['1', '2', '3', '4']",1,2023.2.3,harveyvisual,2.1,[],8,0.75,
0,pause,0.4,None,None,None,0,107,107,107,,,,,,,,,,,,,1301830,visual,1,[],"['1', '2', '3', '4']",1,2023.2.3,harveyvisual,2.1,[],8,0.75,
20,dot,0.3,['dot'],['density'],black,0,108,108,108,,,40.200226068496704,39.91770100593567,40.217721939086914,dot,"[0.06, 0.1, 0.06, 0.08, 0.08, 0.08, 0.08, 0.08, 0.08, 0.06, 0.06, 0.1, 0.06, 0.06, 0.1, 0.06, 0.08, 0.1, 0.08, 0.06]","[[0.6017717711082192, 0.018880610245892354], [-0.37020322704311526, -0.24470351102386254], [0.1841322527880851, -0.05089784056943025], [0.3224877849446044, 0.5096579036404334], [-0.4132278010045492, 0.09111240151262862], [-0.6048794671004458, 0.019078789154130592], [0.18847409031707885, -0.5585571573924036], [-0.12466974135869185, -0.1926917056589773], [0.04648595332930727, 0.29539960122101483], [0.27307534365841246, -0.31510340705557804], [-0.1798645474501448, 0.08657078045460209], [0.281625560298572, 0.300040979739582], [-0.2834650180079069, 0.5156892630787576], [0.08411268423504248, -0.3573298089724789], [0.4716557082114218, -0.27853513021526066], [-0.15101932824514863, -0.5247119387793691], [0.10653386828101352, 0.47565746007921395], [-0.15307478625204107, 0.2873911005232117], [0.560378549322378, 0.2249227399535223], [-0.5623953610343437, -0.21319070436966853]]",density,black,,,1301830,visual,1,[],"['1', '2', '3', '4']",1,2023.2.3,harveyvisual,2.1,[],8,0.75,
0,pause,0.4,None,None,None,0,109,109,109,,,,,,,,,,,,,1301830,visual,1,[],"['1', '2', '3', '4']",1,2023.2.3,harveyvisual,2.1,[],8,0.75,
20,dot,0.3,['dot'],['density'],black,0,110,110,110,,,40.900224924087524,40.617729902267456,40.9178409576416,dot,"[0.06, 0.06, 0.06, 0.08, 0.08, 0.08, 0.1, 0.06, 0.06, 0.08, 0.08, 0.08, 0.1, 0.06, 0.06, 0.1, 0.1, 0.06, 0.08, 0.1]","[[-0.555600431456726, 0.12050681026331991], [0.17827629689701507, -0.5181762590505895], [-0.19777504166755167, -0.14395815378708315], [0.23603819506635326, 0.07322080981718082], [0.1953688493005734, 0.33492722934444064], [-0.1854381516073681, 0.5313935907515628], [0.5801630491644242, -0.01111568654123532], [0.0005186249199864434, 0.14247312608811036], [0.30467558353147395, -0.13576974242604517], [-0.3183186486095048, 0.056005540243995955], [-0.2798095481079783, 0.33088895955523256], [-0.5393400598693255, -0.07070933102185095], [0.5111704626108337, 0.2997863236852724], [-0.21266305062295987, -0.3437935416298513], [0.006410360921845659, -0.24400227144351394], [0.542677240591216, -0.2275938022295334], [-0.2163683766629501, -0.5488120080423338], [0.2965846402839395, 0.49950305135110007], [-0.08970051067065277, 0.3100451283080562], [-0.47790907850143327, 0.32851978988964187]]",density,black,,,1301830,visual,1,[],"['1', '2', '3', '4']",1,2023.2.3,harveyvisual,2.1,[],8,0.75,
0,pause,0.4,None,None,None,0,111,111,111,,,,,,,,,,,,,1301830,visual,1,[],"['1', '2', '3', '4']",1,2023.2.3,harveyvisual,2.1,[],8,0.75,
20,dot,0.3,['dot'],['density'],black,0,112,112,112,,,41.600213050842285,41.31781888008118,41.617722034454346,dot,"[0.1, 0.08, 0.06, 0.1, 0.1, 0.06, 0.06, 0.08, 0.1, 0.06, 0.1, 0.1, 0.06, 0.06, 0.08, 0.1, 0.06, 0.1, 0.1, 0.08]","[[-0.0324775439353896, -0.22857913100656518], [-0.27312864587713986, -0.4832203222162521], [-0.10863332463662329, 0.1428829379461698], [0.45486091772637594, -0.27250322231236623], [-0.31033380669908656, 0.3390409897563038], [0.11302412903403303, 0.4688348011912159], [-0.5933482621998901, 0.018539147841972622], [0.36013626308968827, 0.31275584209539575], [-0.4887217042567335, -0.272436091326711], [0.12710888548717492, 0.13722347294713844], [-0.05646856582472348, -0.5425866080478037], [0.5855478048161383, -0.052961070069540414], [0.2951362142936781, -0.46620311259237884], [0.2222659951706465, -0.2556208423916118], [0.14217735387799746, -0.5851120257227973], [-0.18488462856793503, -0.03213889588124397], [0.47796873364214265, 0.1395181058124494], [-0.3312659520520473, -0.15706932887601288], [0.16732070766085094, -0.07176616005126324], [-0.4905628324680855, 0.25301650225764905]]",density,black,,,1301830,visual,1,[],"['1', '2', '3', '4']",1,2023.2.3,harveyvisual,2.1,[],8,0.75,
0,pause,0.4,None,None,None,0,113,113,113,,,,,,,,,,,,,1301830,visual,1,[],"['1', '2', '3', '4']",1,2023.2.3,harveyvisual,2.1,[],8,0.75,
20,dot,0.3,['dot'],['density'],black,0,114,114,114,,,42.300230979919434,42.017634868621826,42.31763005256653,dot,"[0.1, 0.1, 0.08, 0.06, 0.1, 0.08, 0.06, 0.06, 0.1, 0.08, 0.06, 0.08, 0.06, 0.06, 0.1, 0.06, 0.08, 0.1, 0.08, 0.1]","[[0.4535484535480475, 0.1073045771883902], [-0.49773893452389284, -0.24179479684999156], [0.1821840658472591, -0.3897648150209173], [-0.009989239815826556, -0.4571913558700587], [0.01770512630908072, -0.03312261918547399], [0.010602247412855648, 0.48052870357819366], [0.4500331919238144, 0.31783109103249324], [-0.26399216490572236, -0.4616499886104071], [-0.2577601493869543, -0.220443155012645], [-0.4306079340952409, 0.01272460769812378], [-0.4519804823695541, 0.23285180572304953], [0.5912210336248146, -0.09399787408874913], [-0.29936566192128855, 0.3616537202062693], [0.41331584814333244, -0.27756469350550855], [0.2977697285004345, -0.033234938169114214], [0.17597901939465388, 0.2991062406793996], [-0.09351085390627634, 0.14222714684198523], [-0.2078191683334677, 0.5288040183769785], [0.168003434029522, -0.17432425425723047], [0.20814863636579994, 0.5463784869569346]]",density,black,,,1301830,visual,1,[],"['1', '2', '3', '4']",1,2023.2.3,harveyvisual,2.1,[],8,0.75,
0,pause,0.4,None,None,None,0,115,115,115,,,,,,,,,,,,,1301830,visual,1,[],"['1', '2', '3', '4']",1,2023.2.3,harveyvisual,2.1,[],8,0.75,
20,dot,0.3,['dot'],['density'],black,0,116,116,116,,,43.000218868255615,42.71762299537659,43.01761984825134,dot,"[0.1, 0.08, 0.06, 0.08, 0.1, 0.06, 0.06, 0.08, 0.1, 0.08, 0.1, 0.08, 0.1, 0.06, 0.06, 0.08, 0.06, 0.1, 0.06, 0.06]","[[0.40354046531319276, 0.437678913507348], [0.40141944901764337, 0.17042790134349622], [-0.07235057377469312, 0.38227257032449313], [0.030879756767464128, 0.055936058560605795], [-0.4657984887976723, -0.2702609763307558], [-0.539403661341024, 0.1361809011590851], [-0.35093186324060227, 0.15591899133228115], [0.32238117493240914, -0.16333206148607615], [0.510411239235738, -0.27845323888670265], [0.14434043669903152, 0.3124780277449182], [-0.3767504906626546, -0.054411156326667764], [0.3212585869729193, -0.35477284942128684], [0.09622648819710422, -0.4357142436366802], [-0.3094010607085093, -0.37987553182376643], [-0.4760195421411583, 0.3385704017160905], [0.5528983394524297, -0.0016664482548483794], [-0.14382515859635786, 0.14834975529655392], [-0.05680950014518804, 0.5933366573847658], [-0.0461583753815602, -0.18213920433109], [0.21398285275075668, 0.48953786286366074]]",density,black,,,1301830,visual,1,[],"['1', '2', '3', '4']",1,2023.2.3,harveyvisual,2.1,[],8,0.75,
0,pause,0.4,None,None,None,0,117,117,117,,,,,,,,,,,,,1301830,visual,1,[],"['1', '2', '3', '4']",1,2023.2.3,harveyvisual,2.1,[],8,0.75,
20,dot,0.3,['dot'],['density'],black,0,118,118,118,,,43.700226068496704,43.41758894920349,43.717628955841064,dot,"[0.08, 0.08, 0.08, 0.06, 0.08, 0.06, 0.06, 0.08, 0.06, 0.08, 0.08, 0.1, 0.08, 0.1, 0.1, 0.06, 0.06, 0.06, 0.08, 0.1]","[[0.5350247827665661, -0.031066046962368643], [0.35624218583070044, 0.40760224075311796], [-0.3659301647948794, -0.3619364539625417], [-0.4322604590749215, 0.21352167207245193], [-0.554329624849842, -0.22944993169230288], [-0.5198158171135107, -0.022448165190270875], [-0.06192151368947363, 0.22008914285397196], [0.08643813355787189, -0.3448672969054802], [-0.18926728504877288, -0.2869031053786429], [-0.2708180771750655, 0.4672600870410496], [0.23976153050305904, -0.06733022254580234], [-0.2011007574913003, -0.08858042660899951], [0.5155355544709567, 0.15837434723828486], [-0.1783508608100649, -0.5170914847853457], [0.3439263328203348, -0.3182327251152175], [-0.014234038485963496, -0.165611510366023], [0.04347520577582853, 0.5294078666420505], [-0.23666408041289372, 0.11855563209143216], [0.10762486344325195, 0.08561411684586118], [0.12224314478406928, -0.5331262891970407]]",density,black,,,1301830,visual,1,[],"['1', '2', '3', '4']",1,2023.2.3,harveyvisual,2.1,[],8,0.75,
0,pause,0.4,None,None,None,0,119,119,119,,,,,,,,,,,,,1301830,visual,1,[],"['1', '2', '3', '4']",1,2023.2.3,harveyvisual,2.1,[],8,0.75,
20,dot,0.3,['dot'],['density'],black,0,120,120,120,,,44.40021586418152,44.11762595176697,44.41774106025696,dot,"[0.06, 0.1, 0.06, 0.1, 0.1, 0.06, 0.06, 0.08, 0.1, 0.06, 0.1, 0.1, 0.08, 0.08, 0.06, 0.1, 0.06, 0.1, 0.06, 0.1]","[[-0.28858266053330733, 0.21707829612846907], [0.03662006647020033, -0.4073125347313781], [-0.11738468335878677, 0.4134727740974147], [-0.37924501914132147, -0.00031136402588477496], [-0.19526852818855683, -0.2269089756660571], [0.22347852235810983, -0.24785533352329453], [0.4324994198523532, 0.0599425855148662], [0.21180986815572866, 0.2846434225248008], [0.004374060546480929, 0.23498462626901928], [0.025676070758126168, -0.1854161959561657], [-0.5472171129750045, -0.19261936835669097], [0.4485540166956238, 0.3025909713260899], [0.47339743099645293, -0.17125634838892007], [-0.5750764221458518, 0.03982311954013332], [0.08843093888886344, 0.031197461432030504], [-0.39972346402473913, 0.4337330176340473], [0.19236267553704733, -0.5365679697820707], [0.0196425425857516, 0.5660292485728207], [-0.517328409371991, 0.23173805823767507], [0.3943540132204716, -0.45887500994148334]]",density,black,,,1301830,visual,1,[],"['1', '2', '3', '4']",1,2023.2.3,harveyvisual,2.1,[],8,0.75,
0,pause,0.4,None,None,None,0,121,121,121,,,,,,,,,,,,,1301830,visual,1,[],"['1', '2', '3', '4']",1,2023.2.3,harveyvisual,2.1,[],8,0.75,
20,dot,0.3,['dot'],['density'],black,0,122,122,122,,,45.10021686553955,44.81771802902222,45.11759901046753,dot,"[0.06, 0.1, 0.1, 0.06, 0.06, 0.08, 0.06, 0.06, 0.08, 0.1, 0.06, 0.06, 0.06, 0.1, 0.06, 0.1, 0.06, 0.1, 0.06, 0.1]","[[-0.3859288937374949, -0.4627597027319924], [0.3161418545211272, -0.41880802272935846], [0.5128648431897372, 0.25845405444969555], [-0.5238342530627162, 0.17083507473498788], [-0.3567193934643287, -0.22115345921002744], [0.36182269870904016, 0.028124518507755325], [-0.10736515653007839, -0.5498431970165364], [-0.24494665759419226, 0.5027252406475116], [-0.5477200916624198, -0.07809739372752283], [0.4904512272045979, -0.32454790726049565], [-0.2810528706622433, 0.17696981595591643], [-0.04602066800513549, 0.24611562250342944], [0.043364076486069214, -0.36501220561370357], [0.2842233365586364, 0.49673252332643725], [0.5448427832677653, -0.07692683624189803], [-0.2764369331321313, -0.04170984871153122], [0.014308554346136426, 0.4542202666524955], [0.2357183571661987, -0.11758779676119158], [0.0647169257142286, 0.0537013136667972], [0.21764714214102754, 0.2809344755013955]]",density,black,,,1301830,visual,1,[],"['1', '2', '3', '4']",1,2023.2.3,harveyvisual,2.1,[],8,0.75,
0,pause,0.4,None,None,None,0,123,123,123,,,,,,,,,,,,,1301830,visual,1,[],"['1', '2', '3', '4']",1,2023.2.3,harveyvisual,2.1,[],8,0.75,
20,dot,0.3,['dot'],['density'],black,0,124,124,124,,,45.80020785331726,45.51759099960327,45.81760096549988,dot,"[0.1, 0.06, 0.1, 0.06, 0.08, 0.06, 0.1, 0.1, 0.1, 0.06, 0.08, 0.1, 0.08, 0.08, 0.06, 0.08, 0.06, 0.08, 0.06, 0.1]","[[0.5060402519697457, 0.31180623985481065], [0.5274135166043868, -0.21872756866282317], [-0.5251531643328813, 0.20253403251719743], [-0.11381848165473524, -0.29300136108322267], [0.34923695067551774, -0.09144740040552829], [0.37239996073629245, 0.1011335331163159], [-0.12967540389745674, 0.06655988317992312], [-0.36794197414686225, -0.33153845054155995], [0.5849487438662776, 0.13503630968210734], [0.19016923261950913, 0.22122244643430444], [0.13202920627295622, 0.41139771079936005], [-0.053422600358628, 0.2845149462580526], [0.08353021877850264, 0.0642153124519218], [-0.1670164910985939, -0.5013805476698289], [-0.10856799607776674, 0.5951051803626757], [0.16112753183034767, -0.3457359509180864], [-0.5460571046377112, -0.09649732591719073], [-0.3876657469358353, 0.35315884516278373], [-0.32200739762977987, 0.07615753102487333], [0.07081728346192184, -0.5378814539275151]]",density,black,,,1301830,visual,1,[],"['1', '2', '3', '4']",1,2023.2.3,harveyvisual,2.1,[],8,0.75,
0,pause,0.4,None,None,None,0,125,125,125,,,,,,,,,,,,,1301830,visual,1,[],"['1', '2', '3', '4']",1,2023.2.3,harveyvisual,2.1,[],8,0.75,
20,dot,0.3,['dot'],['density'],black,0,126,126,126,,,46.50021505355835,46.217556953430176,46.51758694648743,dot,"[0.1, 0.08, 0.06, 0.08, 0.1, 0.08, 0.06, 0.06, 0.06, 0.06, 0.06, 0.06, 0.06, 0.1, 0.06, 0.06, 0.06, 0.08, 0.06, 0.08]","[[0.5601162072869582, -0.16529579059695107], [-0.24418147240542032, -0.16718207601817986], [-0.5782612060494058, -0.05391651721063126], [-0.5710357463745195, 0.1914977834918871], [-0.3010730366076305, -0.4716369530835699], [0.07594749803592526, 0.3565832463279087], [0.14410911046849362, -0.3188303261835696], [-0.5071664708456654, -0.2429489534298893], [-0.04858479369760127, -0.12320666296765465], [0.46406988292984763, 0.15111047216848095], [0.2919410129596789, -0.08693306741622042], [0.2421001983862905, 0.22114848450268965], [-0.2875430904398928, 0.4084981920195623], [-0.3448734090637299, 0.14237775403203617], [-0.09548071509328115, -0.4249428657882638], [0.029812927099450826, 0.1650300167376051], [-0.1621322909423416, 0.06821054468779009], [0.3678148673017235, -0.3794992160952357], [0.14405348754924918, 0.5751991497630249], [0.36146244104418246, 0.40724658502936084]]",density,black,,,1301830,visual,1,[],"['1', '2', '3', '4']",1,2023.2.3,harveyvisual,2.1,[],8,0.75,
0,pause,0.4,None,None,None,0,127,127,127,,,,,,,,,,,,,1301830,visual,1,[],"['1', '2', '3', '4']",1,2023.2.3,harveyvisual,2.1,[],8,0.75,
20,dot,0.3,['dot'],['density'],black,0,128,128,128,,,47.200226068496704,46.917587995529175,47.21753287315369,dot,"[0.1, 0.08, 0.08, 0.1, 0.1, 0.06, 0.08, 0.08, 0.08, 0.06, 0.06, 0.1, 0.1, 0.06, 0.08, 0.1, 0.06, 0.08, 0.08, 0.06]","[[-0.024897218690065115, 0.520545372217008], [0.09510318379516625, -0.11131323911254087], [-0.2191093519486147, 0.3875718581246592], [0.199952022284818, 0.05668167040302807], [0.527577555999376, -0.08866845754368066], [-0.06829308078948737, 0.1990304600411129], [0.1781780240784706, 0.5412695196955082], [-0.1009164793498386, -0.06214215356689756], [-0.1415366779076102, -0.511092889268928], [0.3425305972731776, 0.21987029145726783], [-0.5418931253496251, -0.25609360155949956], [-0.48426891098533587, 0.26127236552779703], [0.5545676075416516, 0.12532584025600324], [-0.4019304591531055, -0.04445347615602824], [0.056337176015269, -0.4162318085818888], [0.3209862755358128, -0.09029395892331704], [0.26429052849043244, -0.5023233896921278], [-0.5979383041778091, -0.01498062887510647], [0.399774854745124, -0.3438294251582156], [-0.32229482505164897, -0.3337525407814158]]",density,black,,,1301830,visual,1,[],"['1', '2', '3', '4']",1,2023.2.3,harveyvisual,2.1,[],8,0.75,
0,pause,0.4,None,None,None,0,129,129,129,,,,,,,,,,,,,1301830,visual,1,[],"['1', '2', '3', '4']",1,2023.2.3,harveyvisual,2.1,[],8,0.75,
20,dot,0.3,['dot'],['density'],black,0,130,130,130,,,47.900233030319214,47.617570877075195,47.91766595840454,dot,"[0.06, 0.08, 0.1, 0.08, 0.1, 0.06, 0.08, 0.1, 0.06, 0.1, 0.06, 0.1, 0.08, 0.08, 0.1, 0.1, 0.1, 0.1, 0.08, 0.08]","[[0.12709237060772594, 0.16587177354262828], [-0.20861289927356663, 0.1313902778220094], [0.4824305341205205, -0.006336541748587776], [0.5385485790983392, 0.20916264131204415], [0.36839950995760906, -0.21326491060470915], [-0.4727066842710957, 0.09432451547765258], [-0.04392157831333554, 0.5038349113213486], [-0.17582484780895807, -0.4143867356093254], [0.09092304187476241, -0.5466674340786152], [0.07924307872288938, -0.2535945078970412], [-0.5256971705268096, -0.2116359474290615], [-0.21180316783375497, -0.21312833567274536], [0.28162319984566253, -0.0016410024812599788], [-0.4079226778679875, 0.36185501774782647], [-0.07746307925731055, 0.30748025845875837], [-0.4460445888398507, -0.40864471631295296], [0.3531895355543382, -0.4756387615932531], [0.15160187093356958, 0.5456883828508861], [0.290091653736848, 0.37114307932862123], [0.5627066656095839, -0.21155815838925146]]",density,black,,,1301830,visual,1,[],"['1', '2', '3', '4']",1,2023.2.3,harveyvisual,2.1,[],8,0.75,
0,pause,0.4,None,None,None,0,131,131,131,,,,,,,,,,,,,1301830,visual,1,[],"['1', '2', '3', '4']",1,2023.2.3,harveyvisual,2.1,[],8,0.75,
20,dot,0.3,['dot'],['density'],black,0,132,132,132,,,48.600224018096924,48.31764197349548,48.61764883995056,dot,"[0.08, 0.08, 0.08, 0.08, 0.08, 0.08, 0.1, 0.08, 0.06, 0.06, 0.1, 0.1, 0.1, 0.06, 0.06, 0.06, 0.06, 0.1, 0.1, 0.08]","[[-0.2910284430480265, -0.36246613587966003], [-0.4021371447633997, 0.16852697083567658], [-0.05574255839722808, 0.5457573324450875], [-0.07315667833030448, 0.24470583161246673], [0.188563151427793, 0.32517077321843524], [0.44063040653218566, -0.21307831554150874], [0.28015292271426206, -0.5276832313899366], [0.596433744970342, 0.10068210332652722], [-0.3495866982856464, 0.3596430183991753], [-0.5812333210818558, -0.15984395187248812], [0.41514543289289774, 0.38702753026974135], [0.06476312448901222, -0.2635167973887926], [-0.4844677284651666, -0.34925788505084054], [-0.006640259989798114, 0.042264576915428065], [-0.10602786627888672, -0.40470095335874734], [-0.30273231626776614, -0.09264577343349323], [0.33209074265964533, 0.19830326054514757], [-0.10252539499801105, -0.1351988411723608], [-0.5955874874200038, 0.04834882108073249], [0.26170652387727456, 0.5397765353041254]]",density,black,,,1301830,visual,1,[],"['1', '2', '3', '4']",1,2023.2.3,harveyvisual,2.1,[],8,0.75,
0,pause,0.4,None,None,None,0,133,133,133,,,,,,,,,,,,,1301830,visual,1,[],"['1', '2', '3', '4']",1,2023.2.3,harveyvisual,2.1,[],8,0.75,
20,dot,0.3,['dot'],['density'],black,0,134,134,134,,,49.30022192001343,49.017529010772705,49.317487955093384,dot,"[0.1, 0.1, 0.1, 0.06, 0.1, 0.08, 0.1, 0.08, 0.06, 0.06, 0.08, 0.08, 0.1, 0.08, 0.08, 0.06, 0.06, 0.06, 0.06, 0.08]","[[0.3860581043702901, -0.0011994313607597284], [-0.04339951221940419, -0.5332053878644791], [-0.35405566257387455, 0.3656752011241675], [-0.012962232645393867, -0.09296970319145559], [-0.3516086906442048, -0.2290078415208308], [-0.5438444378292897, 0.15802873511041915], [-0.057544937285938236, 0.2737920876794707], [0.6034133541406571, -0.0010186073284250072], [0.37839138529904937, -0.32931179308681147], [0.046784824212314224, -0.2948459562303268], [0.19359454570707213, 0.2405266044589408], [-0.5436973591061082, -0.24771819804952042], [-0.2178984869644342, 0.11530647201111421], [0.5526034456458507, -0.24589678124851302], [-0.09902171677691551, 0.5799329336314804], [0.3027468646645657, 0.4181197024463501], [0.24435608462154068, -0.18572728191888743], [0.2599918578050996, -0.5342457772463992], [0.4072850790403598, 0.23299324539624044], [-0.2678041883700773, -0.4732352875764334]]",density,black,,,1301830,visual,1,[],"['1', '2', '3', '4']",1,2023.2.3,harveyvisual,2.1,[],8,0.75,
0,pause,0.4,None,None,None,0,135,135,135,,,,,,,,,,,,,1301830,visual,1,[],"['1', '2', '3', '4']",1,2023.2.3,harveyvisual,2.1,[],8,0.75,
20,dot,0.3,['dot'],['density'],black,0,136,136,136,,,50.000205993652344,49.717450857162476,50.01746201515198,dot,"[0.1, 0.08, 0.1, 0.06, 0.08, 0.06, 0.1, 0.06, 0.1, 0.08, 0.1, 0.06, 0.1, 0.06, 0.08, 0.1, 0.1, 0.08, 0.1, 0.08]","[[-0.030700264384701748, -0.26072895828053094], [-0.5353306578693008, -0.04101460350050565], [0.4652988942795545, -0.2416046602258719], [-0.16604273057136132, -0.06508481983894265], [0.10863401486629876, 0.346354847662647], [0.5968865987152051, 0.07680908386274156], [0.3952903798050388, 0.05128480029414478], [-0.20456533622640205, 0.20315186838551835], [0.3693239269074038, -0.4169772095053594], [-0.4418756346874565, 0.4054164825694429], [0.12511317507179975, -0.40328833072623205], [0.23663841843117828, 0.49532814755713717], [-0.26100090458298614, -0.37112776605402575], [0.0038027017639784555, 0.5444023010342167], [-0.4795592837520146, 0.21796065819343136], [0.5286187424242573, 0.256170774863091], [-0.4584243405158742, -0.336358625528522], [0.07589675897998416, -0.058717625521551464], [-0.10630171173371494, -0.5675906588791984], [0.19838101232753347, 0.13930455000407593]]",density,black,,,1301830,visual,1,[],"['1', '2', '3', '4']",1,2023.2.3,harveyvisual,2.1,[],8,0.75,
0,pause,0.4,None,None,None,0,137,137,137,,,,,,,,,,,,,1301830,visual,1,[],"['1', '2', '3', '4']",1,2023.2.3,harveyvisual,2.1,[],8,0.75,
20,dot,0.3,['dot'],['density'],black,0,138,138,138,,,50.70021986961365,50.417428970336914,50.71741700172424,dot,"[0.06, 0.1, 0.06, 0.06, 0.1, 0.1, 0.1, 0.06, 0.08, 0.1, 0.06, 0.06, 0.06, 0.06, 0.06, 0.06, 0.1, 0.08, 0.1, 0.1]","[[0.43960717783505754, -0.295401671425377], [-0.48153119645308895, -0.31765322358046394], [0.1239366702514697, 0.5346271080046453], [0.3334810693841992, 0.43147613045913724], [-0.10830546739489855, -0.27512694243517216], [-0.22027277875240336, -0.09024518263547565], [-0.030723869003986826, 0.16529262878664508], [0.29151987940769597, -0.07711317744154011], [0.5443335484727615, 0.2104407183960184], [-0.5697009122606287, -0.13075137335728657], [-0.5472638753980602, 0.18615920319986007], [-0.039507154882149176, 0.38270408465945005], [0.08329223268455199, -0.5989010185674402], [-0.1977590023170157, 0.2559500710939725], [0.5868891052940485, -0.11503027408442823], [0.30757715563409005, 0.11785404898332641], [-0.1847269510900031, 0.5053890853948743], [-0.32592401245241626, -0.44306103368148664], [-0.36625485854677114, 0.42537017597183047], [0.17675149203967921, -0.36800524823446035]]",density,black,,,1301830,visual,1,[],"['1', '2', '3', '4']",1,2023.2.3,harveyvisual,2.1,[],8,0.75,
0,pause,0.4,None,None,None,0,139,139,139,,,,,,,,,,,,,1301830,visual,1,[],"['1', '2', '3', '4']",1,2023.2.3,harveyvisual,2.1,[],8,0.75,
20,dot,0.3,['dot'],['density'],black,0,140,140,140,,,51.4002149105072,51.11742806434631,51.4174120426178,dot,"[0.1, 0.06, 0.08, 0.06, 0.08, 0.08, 0.06, 0.1, 0.1, 0.06, 0.1, 0.1, 0.1, 0.06, 0.08, 0.08, 0.1, 0.1, 0.1, 0.1]","[[0.538970212692193, 0.1794716800199893], [0.31278830542217884, -0.04992923839549984], [0.36499481910087506, 0.28402037795813123], [-0.023051400560319513, 0.5312258322337479], [-0.25239499671699156, -0.13787648200126734], [-0.06731692287198965, 0.1448221503128907], [-0.3838979648417493, -0.46615512182002367], [-0.038830050935193094, -0.40302205693994847], [0.29685129464033144, -0.26577605955192096], [-0.5369258556275943, 0.10153730894682622], [0.1005087329533142, 0.028601679351169418], [-0.30919636117427196, 0.30908118837774434], [0.22146281623648056, 0.5432591168419675], [0.10673939448197423, -0.5790982489381388], [-0.4937410226761631, -0.12994844810848455], [-0.28510269362093965, 0.10838183374607824], [0.5473728128826066, -0.04772990282078424], [0.11750525734259909, 0.2864047493333107], [-0.09506312121097793, 0.35188098892096564], [-0.24641941034051812, -0.3338551666823129]]",density,black,,,1301830,visual,1,[],"['1', '2', '3', '4']",1,2023.2.3,harveyvisual,2.1,[],8,0.75,
0,pause,0.4,None,None,None,0,141,141,141,,,,,,,,,,,,,1301830,visual,1,[],"['1', '2', '3', '4']",1,2023.2.3,harveyvisual,2.1,[],8,0.75,
20,dot,0.3,['dot'],['density'],black,0,142,142,142,,,52.10020899772644,51.81741690635681,52.11738586425781,dot,"[0.06, 0.08, 0.06, 0.06, 0.08, 0.1, 0.08, 0.1, 0.06, 0.06, 0.08, 0.08, 0.1, 0.06, 0.06, 0.06, 0.08, 0.1, 0.08, 0.08]","[[0.1482318475547274, 0.2561438659810613], [-0.15648609580791278, -0.024256945621523585], [0.4504058709239481, -0.06881857293796068], [0.1776442613172401, 0.568443721117229], [0.38747469131390466, 0.28191161452426006], [-0.02368715779978614, -0.2485434464101835], [-0.20908562515999246, 0.16107439117922617], [0.046030797554267644, -0.45799481512533763], [-0.5057800790878575, 0.2621338114279263], [0.2817109004352518, 0.11936008929208597], [-0.36293672276095024, -0.01170611854284076], [-0.4266362618409584, -0.3957854560450954], [-0.10954356321547903, 0.5209961412646182], [0.5711882846128521, 0.154311972744822], [0.5292177624672291, -0.26662935898136314], [0.2104310199764744, -0.190875582162207], [-0.20926516982143079, -0.3173319506942923], [-0.30876274136907655, 0.40527439505159946], [-0.2648446972418911, -0.5243901787292037], [0.23794552166459537, -0.5119667409152222]]",density,black,,,1301830,visual,1,[],"['1', '2', '3', '4']",1,2023.2.3,harveyvisual,2.1,[],8,0.75,
0,pause,0.4,None,None,None,0,143,143,143,,,,,,,,,,,,,1301830,visual,1,[],"['1', '2', '3', '4']",1,2023.2.3,harveyvisual,2.1,[],8,0.75,
20,dot,0.3,['dot'],['density'],black,0,144,144,144,,,52.800232887268066,52.51738095283508,52.817365884780884,dot,"[0.08, 0.08, 0.1, 0.08, 0.06, 0.06, 0.06, 0.06, 0.06, 0.06, 0.1, 0.06, 0.1, 0.06, 0.06, 0.1, 0.06, 0.06, 0.08, 0.08]","[[-0.08917302075191424, -0.1159828388418579], [-0.1175955551947962, 0.3903411756241739], [-0.5387963858173928, -0.10080108159081813], [0.5233401416478581, -0.19516251386084926], [-0.3475109573787981, 0.20672839226872036], [-0.3116529061874718, -0.27718125149229594], [0.5194266329267742, 0.05507750216662821], [0.2586624036854296, -0.03452215542483428], [0.08894598579247015, -0.38605251812846975], [0.19503321108346305, 0.5060865964701438], [0.4311364423763845, 0.33398314224863407], [-0.5537300031908707, 0.2289777571081697], [0.2503500504814131, -0.5208849894753299], [-0.30558747812606246, -0.05482161145087899], [0.28813060352873054, -0.3037736124461054], [0.18736883054021447, 0.26290661328182574], [-0.16959412684853925, -0.5380240275267963], [-0.3102335273244116, 0.5054928657213639], [-0.050086654924194174, 0.5868097594837687], [-0.03897657620936723, 0.06739586572610379]]",density,black,,,1301830,visual,1,[],"['1', '2', '3', '4']",1,2023.2.3,harveyvisual,2.1,[],8,0.75,
0,pause,0.4,None,None,None,0,145,145,145,,,,,,,,,,,,,1301830,visual,1,[],"['1', '2', '3', '4']",1,2023.2.3,harveyvisual,2.1,[],8,0.75,
20,dot,0.3,['dot'],['density'],black,0,146,146,146,,,53.50021195411682,53.217368841171265,53.51751494407654,dot,"[0.1, 0.06, 0.06, 0.06, 0.1, 0.08, 0.08, 0.06, 0.06, 0.1, 0.06, 0.08, 0.06, 0.1, 0.06, 0.06, 0.08, 0.08, 0.06, 0.06]","[[0.18707637449617498, -0.04817759768187224], [0.21313016856942668, 0.2557054331056695], [-0.06757574578118442, 0.029007508007861116], [0.4834446568920959, -0.17048714393153858], [0.12267924124510377, 0.5609441056519776], [-0.25283559722619786, -0.459098085863172], [0.1585123935810826, -0.2498736237892084], [0.4324855731447014, -0.3850117687003267], [-0.5068838347233695, 0.283475015249445], [-0.46787653526828865, 0.030377294808188238], [0.5514223314091405, 0.24475598124990747], [0.5964326717450482, -0.0008659223588819986], [-0.5690694583902192, -0.16201405221346474], [-0.25147773311223914, 0.09862998851792659], [-0.1452696172508361, 0.5235994406521317], [-0.17004743108632503, -0.24142426108494136], [-0.44125734097921554, -0.3442406053505235], [0.3143157202763438, 0.4901057975026438], [0.06791748757449012, -0.5874842171246373], [-0.3393888511673274, -0.128465921286111]]",density,black,,,1301830,visual,1,[],"['1', '2', '3', '4']",1,2023.2.3,harveyvisual,2.1,[],8,0.75,
0,pause,0.4,None,None,None,0,147,147,147,,,,,,,,,,,,,1301830,visual,1,[],"['1', '2', '3', '4']",1,2023.2.3,harveyvisual,2.1,[],8,0.75,
20,dot,0.3,['dot'],['density'],white,0,148,148,148,,,54.20022392272949,53.917399883270264,54.21732687950134,dot,"[0.06, 0.06, 0.06, 0.06, 0.1, 0.1, 0.08, 0.06, 0.08, 0.06, 0.1, 0.08, 0.06, 0.06, 0.1, 0.06, 0.08, 0.06, 0.1, 0.06]","[[-0.09008908784370939, -0.5800176175316852], [0.4323214584634706, 0.3230538123804764], [0.2564876683790447, 0.5432408199463634], [-0.034194344206083804, 0.4468524945623974], [0.13418236384362248, -0.31535168624908666], [0.02361850824830336, -0.031028676765279206], [0.3466882562568221, -0.30815869873352375], [-0.2094258612003384, -0.3511668482425383], [0.3466599053052811, 0.13620520090411958], [0.27519880184122436, -0.5069923662012079], [0.5225440550779742, 0.041367575215805585], [-0.3426288795804348, 0.28367453959432243], [-0.25244159485953066, -0.08778678419414271], [-0.504554210693797, 0.14331594650680213], [-0.4125906291638241, -0.40123321055055505], [-0.06974687395803947, -0.21208720577867657], [0.353284584060215, -0.091121256448495], [0.13259202988725938, 0.21717325251974684], [-0.43072797868529794, -0.19321592794108086], [0.524100179938436, -0.20564215749250866]]",density,white,,,1301830,visual,1,[],"['1', '2', '3', '4']",1,2023.2.3,harveyvisual,2.1,[],8,0.75,
0,pause,0.4,None,None,None,0,149,149,149,,,,,,,,,,,1,54.293790102005005,1301830,visual,1,[],"['1', '2', '3', '4']",1,2023.2.3,harveyvisual,2.1,[],8,0.75,
20,dot,0.3,['dot'],['density'],black,0,150,150,150,,,54.90021300315857,54.61736989021301,54.91755485534668,dot,"[0.06, 0.06, 0.08, 0.1, 0.08, 0.1, 0.08, 0.08, 0.08, 0.1, 0.06, 0.06, 0.1, 0.06, 0.08, 0.1, 0.08, 0.06, 0.06, 0.06]","[[-0.2129375704448791, 0.381239999827942], [-0.4896800477192665, 0.021451653260190162], [0.20566610521708828, -0.2050838925263297], [0.3475075168006475, 0.415054423522823], [0.011549692816383517, 0.3179016474762052], [0.46714264835816655, 0.18824100726105453], [-0.3296233868282668, -0.3292417769406289], [-0.14374137088911, -0.5171174511116493], [0.26992677317785707, -0.47174192918704344], [0.26857801878285736, 0.11954072144093908], [0.480046294631722, -0.14655196761078854], [-0.34863751785171115, -0.13663781190655955], [-0.5206524164447907, -0.28185115057141163], [-0.11996585691986944, -0.06851257967067848], [-0.048726267159882375, -0.3177327559191721], [-0.3630541525759934, 0.25455424493807005], [0.582425805377142, 0.028474928754884443], [0.08925966678397856, 0.5158998169780267], [-0.2455461559001746, 0.0880153878738924], [0.015353738983548415, 0.06480182317186256]]",density,black,,,1301830,visual,1,[],"['1', '2', '3', '4']",1,2023.2.3,harveyvisual,2.1,[],8,0.75,
0,pause,0.4,None,None,None,0,151,151,151,,,,,,,,,,,,,1301830,visual,1,[],"['1', '2', '3', '4']",1,2023.2.3,harveyvisual,2.1,[],8,0.75,
20,dot,0.3,['dot'],['density'],black,0,152,152,152,,,55.600213050842285,55.31753206253052,55.6173620223999,dot,"[0.06, 0.1, 0.1, 0.08, 0.1, 0.1, 0.08, 0.1, 0.1, 0.1, 0.06, 0.1, 0.1, 0.08, 0.08, 0.08, 0.06, 0.06, 0.06, 0.06]","[[0.3823933546328562, -0.29524307216179135], [-0.5894899330080599, -0.012396132038519983], [0.41578003128744634, 0.2773886248644007], [0.5735597945484253, -0.17357391480005036], [-0.08138122365220857, -0.474752502235522], [-0.13311589338532714, 0.5702842242709996], [0.13908494588208908, -0.12788769291009838], [0.13354433780028407, -0.4852447235558818], [-0.31697766188482973, 0.3941391870349624], [0.20525277061234126, 0.18208430536657816], [-0.2482055095368284, 0.12037369840399259], [-0.08440291536080102, 0.34531800260402856], [-0.39472665957723907, -0.25375992126237834], [0.3642618137643734, 0.009959603518272686], [-0.34534902914756566, -0.050520375990986965], [-0.14426045596343, -0.174797056900034], [-0.5064614880727867, 0.20527078173559032], [0.2128091342896571, 0.5661233045561549], [0.1725108177466388, 0.3728397043081638], [0.5452072879357556, 0.11098302145907096]]",density,black,,,1301830,visual,1,[],"['1', '2', '3', '4']",1,2023.2.3,harveyvisual,2.1,[],8,0.75,
0,pause,0.4,None,None,None,0,153,153,153,,,,,,,,,,,,,1301830,visual,1,[],"['1', '2', '3', '4']",1,2023.2.3,harveyvisual,2.1,[],8,0.75,
20,dot,0.3,['dot'],['density'],black,0,154,154,154,,,56.300211906433105,56.017354011535645,56.31732487678528,dot,"[0.1, 0.08, 0.08, 0.06, 0.1, 0.08, 0.06, 0.08, 0.08, 0.08, 0.1, 0.1, 0.1, 0.06, 0.08, 0.1, 0.1, 0.06, 0.06, 0.08]","[[-0.35416809370881736, -0.2985469121076015], [0.45295022155990183, 0.3997635491399437], [0.2565227640268942, 0.04567962790368274], [0.14148413788534653, -0.4363870297925591], [0.5452231367307881, -0.16234031473857968], [-0.48909660586809034, -0.07081782620925109], [-0.18251109845945318, 0.4950109440264622], [0.28340698004927367, -0.2565614458673367], [0.5102517750667924, 0.16029416412070724], [-0.23652475391841238, -0.02394120701481728], [0.009342041310524407, 0.09222984401888301], [-0.25096768610895565, 0.16792718369232817], [-0.017287371011382002, -0.14284178220327665], [0.34620820165333377, -0.4627381252795287], [-0.02327750345036561, -0.6007839548162297], [-0.5952817447683157, 0.09791622250724304], [-0.37993651443149135, 0.3936361300099966], [0.24475198854091063, 0.49621760092340106], [-0.24625596543147082, -0.5326710746793789], [0.15747313932063745, 0.2301882672160096]]",density,black,,,1301830,visual,1,[],"['1', '2', '3', '4']",1,2023.2.3,harveyvisual,2.1,[],8,0.75,
0,pause,0.4,None,None,None,0,155,155,155,,,,,,,,,,,,,1301830,visual,1,[],"['1', '2', '3', '4']",1,2023.2.3,harveyvisual,2.1,[],8,0.75,
9,dot,0.3,['dot'],['density'],black,0,156,156,156,,,57.00020885467529,56.71733903884888,57.01733183860779,dot,"[0.06, 0.1, 0.08, 0.06, 0.1, 0.1, 0.1, 0.1, 0.08]","[[-0.011980588702785358, -0.14271344386551676], [-0.15345504415890063, -0.3599837049237609], [0.2909474261289129, -0.3591516282942406], [0.16239073734315843, -0.5386624114967425], [0.2227638828830022, -0.11271380419745088], [0.06426208015886789, 0.04859175461581491], [-0.3648571389210414, -0.3413683676300365], [0.3831858227582706, 0.019718563726728144], [0.06479696894599615, -0.3534524636945761]]",density,black,,,1301830,visual,1,[],"['1', '2', '3', '4']",1,2023.2.3,harveyvisual,2.1,[],8,0.75,
0,pause,0.4,None,None,None,0,157,157,157,,,,,,,,,,,,,1301830,visual,1,[],"['1', '2', '3', '4']",1,2023.2.3,harveyvisual,2.1,[],8,0.75,
9,dot,0.3,['dot'],['density'],black,0,158,158,158,,,57.70020890235901,57.4173219203949,57.71724796295166,dot,"[0.08, 0.1, 0.06, 0.08, 0.08, 0.08, 0.08, 0.08, 0.06]","[[0.02295687172906439, -0.4555612238154966], [0.343534432465795, -0.2595759245515751], [-0.16187815285083418, -0.09052449078383604], [0.11251247888811697, -0.27313237114007116], [0.30947849701411384, 0.04064216277921932], [0.06991680920562879, 0.010838090335221196], [-0.17538857600721916, -0.30040513178321704], [-0.11470383471809205, 0.10558329706542706], [-0.35883798189287325, -0.15372405551062507]]",density,black,,,1301830,visual,1,[],"['1', '2', '3', '4']",1,2023.2.3,harveyvisual,2.1,[],8,0.75,
0,pause,0.4,None,None,None,0,159,159,159,,,,,,,,,,,,,1301830,visual,1,[],"['1', '2', '3', '4']",1,2023.2.3,harveyvisual,2.1,[],8,0.75,
9,dot,0.3,['dot'],['density'],black,0,160,160,160,,,58.40021300315857,58.11741399765015,58.41739892959595,dot,"[0.08, 0.08, 0.06, 0.08, 0.06, 0.08, 0.08, 0.08, 0.08]","[[-0.08858128315591524, -0.3480052213079807], [0.37291707470974605, -0.0809562497479422], [-0.04311872097798103, 0.23152249840731254], [0.1734412630875083, -0.16491363602164627], [-0.024044713080900382, -0.04824256513196188], [0.126438571592319, 0.09122014985587756], [-0.2168202887682383, 0.11190421567656858], [-0.23215605484234547, -0.20356583507002532], [0.291417597339289, 0.24351333182926893]]",density,black,,,1301830,visual,1,[],"['1', '2', '3', '4']",1,2023.2.3,harveyvisual,2.1,[],8,0.75,
0,pause,0.4,None,None,None,0,161,161,161,,,,,,,,,,,,,1301830,visual,1,[],"['1', '2', '3', '4']",1,2023.2.3,harveyvisual,2.1,[],8,0.75,
9,dot,0.3,['dot'],['density'],black,0,162,162,162,,,59.10020995140076,58.81725192070007,59.117270946502686,dot,"[0.06, 0.1, 0.06, 0.1, 0.06, 0.08, 0.1, 0.1, 0.08]","[[-0.5242180236495622, 0.2097960018926228], [-0.2671382220306689, 0.3003190330968159], [-0.06183693718886379, 0.22592490829479475], [-0.2001015593906042, -0.14641750634996328], [-0.09246193223873551, 0.43765994221656135], [-0.29330373087767303, 0.05285487614136386], [0.007094383220706952, 0.008748553761596398], [0.1465325421295601, 0.294910430799518], [0.04425292235957525, -0.2230758375085622]]",density,black,,,1301830,visual,1,[],"['1', '2', '3', '4']",1,2023.2.3,harveyvisual,2.1,[],8,0.75,
0,pause,0.4,None,None,None,0,163,163,163,,,,,,,,,,,,,1301830,visual,1,[],"['1', '2', '3', '4']",1,2023.2.3,harveyvisual,2.1,[],8,0.75,
9,dot,0.3,['dot'],['density'],black,0,164,164,164,,,59.80021691322327,59.517263889312744,59.81725788116455,dot,"[0.08, 0.08, 0.1, 0.1, 0.06, 0.1, 0.08, 0.1, 0.06]","[[0.5610971552988853, -0.17060184332349634], [0.41375718760989944, -0.015869013459887487], [0.10524493337967332, -0.4151143617417518], [0.33762937987512565, -0.21166948995529247], [0.31978246251342735, -0.42403070142702926], [0.14918584865882126, 0.054317793641313596], [-0.13687229080136074, -0.3544767643123256], [-0.14284940328496695, -0.15361328447573858], [0.09035025664413378, -0.16809195260635462]]",density,black,,,1301830,visual,1,[],"['1', '2', '3', '4']",1,2023.2.3,harveyvisual,2.1,[],8,0.75,
0,pause,0.4,None,None,None,0,165,165,165,,,,,,,,,,,,,1301830,visual,1,[],"['1', '2', '3', '4']",1,2023.2.3,harveyvisual,2.1,[],8,0.75,
9,dot,0.3,['dot'],['density'],black,0,166,166,166,,,60.500205993652344,60.217177867889404,60.517228841781616,dot,"[0.1, 0.06, 0.08, 0.1, 0.08, 0.08, 0.06, 0.08, 0.06]","[[0.22829877875946783, -0.39640994854570016], [0.3366371496270161, 0.05839125036393789], [-0.11436045239834208, -0.12024221759915668], [-0.02100147820737577, -0.3824026009196371], [0.08479146627654295, 0.024089629435920912], [0.16206374850784472, -0.16075841177209507], [0.38495438842944835, -0.24810596019115372], [-0.23418047716532614, 0.09565997955556291], [0.2111996426858246, 0.23215637940447356]]",density,black,,,1301830,visual,1,[],"['1', '2', '3', '4']",1,2023.2.3,harveyvisual,2.1,[],8,0.75,
0,pause,0.4,None,None,None,0,167,167,167,,,,,,,,,,,,,1301830,visual,1,[],"['1', '2', '3', '4']",1,2023.2.3,harveyvisual,2.1,[],8,0.75,
8,dot,0.3,['dot'],['density'],black,0,168,168,168,,,61.20022487640381,60.91719698905945,61.21716904640198,dot,"[0.06, 0.1, 0.1, 0.08, 0.08, 0.1, 0.06, 0.06]","[[-0.4639556696772753, 0.10472599959088454], [-0.22970357876872852, 0.24758381400794424], [-0.060094057158436125, -0.14613975383200573], [-0.022569829209962654, 0.2677975872319761], [-0.3077859326170116, -0.10488986274105515], [-0.16040535020917, 0.031608708128470005], [-0.5175577931920246, -0.20517812764611504], [0.1194024413118107, 0.007837779916585986]]",density,black,,,1301830,visual,1,[],"['1', '2', '3', '4']",1,2023.2.3,harveyvisual,2.1,[],8,0.75,
0,pause,0.4,None,None,None,0,169,169,169,,,,,,,,,,,,,1301830,visual,1,[],"['1', '2', '3', '4']",1,2023.2.3,harveyvisual,2.1,[],8,0.75,
8,dot,0.3,['dot'],['density'],black,0,170,170,170,,,61.900205850601196,61.61731004714966,61.91731595993042,dot,"[0.1, 0.06, 0.08, 0.1, 0.08, 0.06, 0.08, 0.1]","[[0.17295790489511154, -0.46037743866749825], [0.1416591427765588, 0.05421051799673566], [0.21994266958916148, -0.13656690113679631], [0.3639906379971415, 0.0627265571221228], [0.015481321741344221, -0.13916897583717935], [0.440802488837635, -0.2883976186876931], [0.5157567705321767, -0.08800602901884749], [0.24768837887357187, 0.24424825162618136]]",density,black,,,1301830,visual,1,[],"['1', '2', '3', '4']",1,2023.2.3,harveyvisual,2.1,[],8,0.75,
0,pause,0.4,None,None,None,0,171,171,171,,,,,,,,,,,,,1301830,visual,1,[],"['1', '2', '3', '4']",1,2023.2.3,harveyvisual,2.1,[],8,0.75,
8,dot,0.3,['dot'],['density'],black,0,172,172,172,,,62.60023593902588,62.31718397140503,62.61714792251587,dot,"[0.06, 0.1, 0.08, 0.1, 0.06, 0.08, 0.06, 0.08]","[[0.1740819983727909, -0.16863019829442621], [0.14644114519141543, -0.4524198896657212], [0.0024885361438939093, 0.023531574910491997], [-0.23717340943857948, -0.31112918658627675], [-0.11311749148073028, -0.46867866316561874], [-0.17928248077090506, -0.060241557052319365], [-0.03957999532622772, -0.24759906754331504], [-0.4644327601918011, -0.3627803331480915]]",density,black,,,1301830,visual,1,[],"['1', '2', '3', '4']",1,2023.2.3,harveyvisual,2.1,[],8,0.75,
0,pause,0.4,None,None,None,0,173,173,173,,,,,,,,,,,,,1301830,visual,1,[],"['1', '2', '3', '4']",1,2023.2.3,harveyvisual,2.1,[],8,0.75,
8,dot,0.3,['dot'],['density'],black,0,174,174,174,,,63.300227880477905,63.01717185974121,63.31715703010559,dot,"[0.08, 0.06, 0.06, 0.08, 0.1, 0.08, 0.06, 0.08]","[[-0.3306282708070712, -0.09459634407206743], [0.17708038186302957, -0.36794437316098305], [-0.34368294577136044, -0.39688855169369486], [-0.16397220561896333, 0.03033928826277653], [-0.08476975953586025, -0.41834960305423746], [-0.16765121495786453, -0.2265743681515788], [0.0449590487082352, -0.10546915507075137], [-0.5574709661459258, -0.15664368712912546]]",density,black,,,1301830,visual,1,[],"['1', '2', '3', '4']",1,2023.2.3,harveyvisual,2.1,[],8,0.75,
0,pause,0.4,None,None,None,0,175,175,175,,,,,,,,,,,,,1301830,visual,1,[],"['1', '2', '3', '4']",1,2023.2.3,harveyvisual,2.1,[],8,0.75,
8,dot,0.3,['dot'],['density'],black,0,176,176,176,,,64.00022387504578,63.717120885849,64.01714587211609,dot,"[0.08, 0.1, 0.06, 0.08, 0.08, 0.06, 0.06, 0.1]","[[0.28112832868380594, 0.3075763237432237], [-0.21381995858864508, 0.197554992839043], [0.14035436555963224, -0.1470740351963634], [-0.04856350071149823, -0.017306043905309515], [0.12070301707556046, 0.11279463428917226], [0.35236156425888765, 0.046198621115284964], [-0.012223412543992913, 0.3265760435025566], [0.11745206869397669, 0.49408919182137495]]",density,black,,,1301830,visual,1,[],"['1', '2', '3', '4']",1,2023.2.3,harveyvisual,2.1,[],8,0.75,
0,pause,0.4,None,None,None,0,177,177,177,,,,,,,,,,,,,1301830,visual,1,[],"['1', '2', '3', '4']",1,2023.2.3,harveyvisual,2.1,[],8,0.75,
8,dot,0.3,['dot'],['density'],white,0,178,178,178,,,64.70022988319397,64.41706895828247,64.71708583831787,dot,"[0.1, 0.06, 0.1, 0.1, 0.06, 0.06, 0.06, 0.08]","[[-0.3306282708070712, -0.09459634407206743], [0.17708038186302957, -0.36794437316098305], [-0.34368294577136044, -0.39688855169369486], [-0.16397220561896333, 0.03033928826277653], [-0.08476975953586025, -0.41834960305423746], [-0.16765121495786453, -0.2265743681515788], [0.0449590487082352, -0.10546915507075137], [-0.5574709661459258, -0.15664368712912546]]",density,white,,,1301830,visual,1,[],"['1', '2', '3', '4']",1,2023.2.3,harveyvisual,2.1,[],8,0.75,
0,pause,0.4,None,None,None,0,179,179,179,,,,,,,,,,,1,64.75915002822876,1301830,visual,1,[],"['1', '2', '3', '4']",1,2023.2.3,harveyvisual,2.1,[],8,0.75,
7,dot,0.3,['dot'],['density'],white,0,180,180,180,,,65.4002149105072,65.11707305908203,65.41706085205078,dot,"[0.08, 0.1, 0.06, 0.1, 0.08, 0.06, 0.1]","[[-0.08751196138777266, -0.40239331021683095], [-0.1389983634140625, -0.1821537091642013], [-0.5212097088452917, -0.15879536445288125], [-0.24197016774290594, 0.025691971861017886], [-0.324083892787021, -0.3083678109532634], [0.06465625853811506, -0.19815494036826437], [-0.2569867334647868, -0.5155038850209747]]",density,white,,,1301830,visual,1,[],"['1', '2', '3', '4']",1,2023.2.3,harveyvisual,2.1,[],8,0.75,
0,pause,0.4,None,None,None,0,181,181,181,,,,,,,,,,,1,65.56424808502197,1301830,visual,1,[],"['1', '2', '3', '4']",1,2023.2.3,harveyvisual,2.1,[],8,0.75,
7,dot,0.3,['dot'],['density'],black,0,182,182,182,,,66.10022592544556,65.81703686714172,66.11709189414978,dot,"[0.08, 0.08, 0.06, 0.1, 0.1, 0.08, 0.08]","[[0.06935229908748385, 0.4911641494940837], [-0.19266199922505295, 0.07836852906048222], [0.055274369019684175, 0.020452523162812593], [0.26239471350362015, 0.1001529216481179], [-0.06036973858781391, 0.3360513952533211], [-0.2638544135394649, 0.29089327984911306], [0.14813816713374972, 0.28344041791591096]]",density,black,,,1301830,visual,1,[],"['1', '2', '3', '4']",1,2023.2.3,harveyvisual,2.1,[],8,0.75,
0,pause,0.4,None,None,None,0,183,183,183,,,,,,,,,,,,,1301830,visual,1,[],"['1', '2', '3', '4']",1,2023.2.3,harveyvisual,2.1,[],8,0.75,
7,dot,0.3,['dot'],['density'],black,0,184,184,184,,,66.80021691322327,66.51708889007568,66.81709003448486,dot,"[0.06, 0.08, 0.08, 0.08, 0.08, 0.1, 0.1]","[[0.12902113605384963, -0.35167066519854956], [0.3838909825822851, -0.05572740120406059], [-0.02857767273637445, 0.1549795872955612], [0.19333287999408408, 0.10698923431715611], [-0.08146847087507005, -0.06064403559207536], [0.18020694687254563, -0.15550905334431223], [-0.07225335190945896, -0.28606481362007624]]",density,black,,,1301830,visual,1,[],"['1', '2', '3', '4']",1,2023.2.3,harveyvisual,2.1,[],8,0.75,
0,pause,0.4,None,None,None,0,185,185,185,,,,,,,,,,,,,1301830,visual,1,[],"['1', '2', '3', '4']",1,2023.2.3,harveyvisual,2.1,[],8,0.75,
7,dot,0.3,['dot'],['density'],black,0,186,186,186,,,67.5002179145813,67.21702289581299,67.51702904701233,dot,"[0.1, 0.08, 0.08, 0.1, 0.1, 0.06, 0.08]","[[0.1318978468379982, 0.48780960721302624], [-0.15530952210580917, 0.2429536962773128], [0.21675324185561073, 0.09111206147250148], [0.13033099328542835, 0.28547066376201063], [0.3859901392997328, 0.20497483482614012], [0.014590257841440182, 0.0970646397970693], [0.1730960121663288, -0.1180805096677859]]",density,black,,,1301830,visual,1,[],"['1', '2', '3', '4']",1,2023.2.3,harveyvisual,2.1,[],8,0.75,
0,pause,0.4,None,None,None,0,187,187,187,,,,,,,,,,,,,1301830,visual,1,[],"['1', '2', '3', '4']",1,2023.2.3,harveyvisual,2.1,[],8,0.75,
7,dot,0.3,['dot'],['density'],black,0,188,188,188,,,68.20022106170654,67.91702699661255,68.21698093414307,dot,"[0.06, 0.08, 0.06, 0.08, 0.08, 0.06, 0.08]","[[0.1318978468379982, 0.48780960721302624], [-0.15530952210580917, 0.2429536962773128], [0.21675324185561073, 0.09111206147250148], [0.13033099328542835, 0.28547066376201063], [0.3859901392997328, 0.20497483482614012], [0.014590257841440182, 0.0970646397970693], [0.1730960121663288, -0.1180805096677859]]",density,black,,,1301830,visual,1,[],"['1', '2', '3', '4']",1,2023.2.3,harveyvisual,2.1,[],8,0.75,
0,pause,0.4,None,None,None,0,189,189,189,,,,,,,,,,,,,1301830,visual,1,[],"['1', '2', '3', '4']",1,2023.2.3,harveyvisual,2.1,[],8,0.75,
7,dot,0.3,['dot'],['density'],black,0,190,190,190,,,68.9002149105072,68.61699295043945,68.91699194908142,dot,"[0.1, 0.1, 0.06, 0.1, 0.08, 0.08, 0.06]","[[0.3899189512010899, -0.40728696153528776], [0.20392863561369634, -0.3305625840210526], [0.31626985815109576, 0.13567824844623666], [0.5017338684339655, -0.028549680114735937], [0.11648855723187378, -0.1078833072829627], [0.07041138378868489, 0.08730219371944997], [0.32910598476010167, -0.13660711058181768]]",density,black,,,1301830,visual,1,[],"['1', '2', '3', '4']",1,2023.2.3,harveyvisual,2.1,[],8,0.75,
0,pause,0.4,None,None,None,0,191,191,191,,,,,,,,,,,,,1301830,visual,1,[],"['1', '2', '3', '4']",1,2023.2.3,harveyvisual,2.1,[],8,0.75,
6,dot,0.3,['dot'],['density'],black,0,192,192,192,,,69.6002368927002,69.31712102890015,69.6170928478241,dot,"[0.08, 0.06, 0.1, 0.1, 0.06, 0.1]","[[0.21259181929123794, -0.28356491423097735], [0.48303195854319764, 0.06048455888335473], [0.22913681079270962, 0.07473613686017411], [0.4939377514137012, -0.2837040300549214], [0.055643620130747785, -0.14290468481535015], [0.3711413815128542, -0.10952979375652658]]",density,black,,,1301830,visual,1,[],"['1', '2', '3', '4']",1,2023.2.3,harveyvisual,2.1,[],8,0.75,
0,pause,0.4,None,None,None,0,193,193,193,,,,,,,,,,,,,1301830,visual,1,[],"['1', '2', '3', '4']",1,2023.2.3,harveyvisual,2.1,[],8,0.75,
6,dot,0.3,['dot'],['density'],black,0,194,194,194,,,70.30022406578064,70.01697587966919,70.31693887710571,dot,"[0.1, 0.1, 0.08, 0.08, 0.06, 0.06]","[[0.1344939073868, 0.11682503965153783], [0.2622842826516073, -0.1576809643807538], [0.491422654665352, 0.2653315688189552], [0.5669231994484553, 0.0667155191364867], [0.2299276458131091, 0.29835232047215776], [0.3356420801536577, 0.10517090915368521]]",density,black,,,1301830,visual,1,[],"['1', '2', '3', '4']",1,2023.2.3,harveyvisual,2.1,[],8,0.75,
0,pause,0.4,None,None,None,0,195,195,195,,,,,,,,,,,,,1301830,visual,1,[],"['1', '2', '3', '4']",1,2023.2.3,harveyvisual,2.1,[],8,0.75,
6,dot,0.3,['dot'],['density'],black,0,196,196,196,,,71.0002269744873,70.71691989898682,71.01690006256104,dot,"[0.08, 0.1, 0.06, 0.1, 0.08, 0.08]","[[-0.08086177951302478, 0.2470577028799217], [0.17809040740055945, 0.25721690350386706], [0.248993691455746, -0.144418230259854], [0.04260816027356476, -0.17251108440570345], [0.26201279645255604, 0.07253913185781388], [-0.0017619790798508912, 0.027830886297901026]]",density,black,,,1301830,visual,1,[],"['1', '2', '3', '4']",1,2023.2.3,harveyvisual,2.1,[],8,0.75,
0,pause,0.4,None,None,None,0,197,197,197,,,,,,,,,,,,,1301830,visual,1,[],"['1', '2', '3', '4']",1,2023.2.3,harveyvisual,2.1,[],8,0.75,
6,dot,0.3,['dot'],['density'],white,0,198,198,198,,,71.70022797584534,71.4169409275055,71.71691584587097,dot,"[0.08, 0.1, 0.08, 0.1, 0.08, 0.06]","[[0.23041567882598732, 0.45619944218456715], [0.5278859611842325, 0.18245830030246968], [0.08738225171760033, 0.1578384040678088], [0.20561463112105705, -0.03996865664556224], [0.3021721310554224, 0.21718230064421146], [0.4273755636869532, 0.38341374408431883]]",density,white,,,1301830,visual,1,[],"['1', '2', '3', '4']",1,2023.2.3,harveyvisual,2.1,[],8,0.75,
0,pause,0.4,None,None,None,0,199,199,199,,,,,,,,,,,1,71.84493494033813,1301830,visual,1,[],"['1', '2', '3', '4']",1,2023.2.3,harveyvisual,2.1,[],8,0.75,
6,dot,0.3,['dot'],['density'],black,0,200,200,200,,,72.40023803710938,72.11688590049744,72.41709089279175,dot,"[0.06, 0.1, 0.08, 0.1, 0.1, 0.06]","[[-0.24492162854676555, 0.16704436901929823], [-0.3861886513150086, 0.35601694661450933], [-0.48514013682315105, 0.15596888098880124], [-0.5451465436738104, -0.12931683943359434], [-0.11772959853104834, 0.007676420150436517], [-0.35755989064212684, -0.03355234579502648]]",density,black,,,1301830,visual,1,[],"['1', '2', '3', '4']",1,2023.2.3,harveyvisual,2.1,[],8,0.75,
0,pause,0.4,None,None,None,0,201,201,201,,,,,,,,,,,,,1301830,visual,1,[],"['1', '2', '3', '4']",1,2023.2.3,harveyvisual,2.1,[],8,0.75,
6,dot,0.3,['dot'],['density'],white,0,202,202,202,,,73.10023593902588,72.81702995300293,73.11703991889954,dot,"[0.1, 0.08, 0.06, 0.1, 0.06, 0.1]","[[0.0015484977009578463, -0.37153509484940705], [-0.24631791352898516, -0.16063896847060222], [-0.21037316856202723, -0.37491302730087106], [-0.14520134419833938, 0.05228402714841561], [-0.41979900021501537, -0.27073368115662844], [-0.020720382871846178, -0.14076137757070492]]",density,white,,,1301830,visual,1,[],"['1', '2', '3', '4']",1,2023.2.3,harveyvisual,2.1,[],8,0.75,
0,pause,0.4,None,None,None,0,203,203,203,,,,,,,,,,,1,73.19713401794434,1301830,visual,1,[],"['1', '2', '3', '4']",1,2023.2.3,harveyvisual,2.1,[],8,0.75,
5,dot,0.3,['dot'],['density'],black,0,204,204,204,,,73.80023694038391,73.51700496673584,73.81689691543579,dot,"[0.06, 0.06, 0.06, 0.1, 0.08]","[[-0.26965218803342234, -0.06061691990321757], [-0.44412238708790114, -0.1605793459593267], [-0.2738608688716076, -0.33598391440877745], [-0.06160694910013377, -0.19463283807086704], [-0.16469008497891707, 0.13324638745272324]]",density,black,,,1301830,visual,1,[],"['1', '2', '3', '4']",1,2023.2.3,harveyvisual,2.1,[],8,0.75,
0,pause,0.4,None,None,None,0,205,205,205,,,,,,,,,,,,,1301830,visual,1,[],"['1', '2', '3', '4']",1,2023.2.3,harveyvisual,2.1,[],8,0.75,
5,dot,0.3,['dot'],['density'],black,0,206,206,206,,,74.50022506713867,74.21683692932129,74.51689100265503,dot,"[0.1, 0.1, 0.06, 0.1, 0.1]","[[0.05896558140131438, -0.5342250951568444], [0.41924064092593105, -0.38742881471212404], [0.0789485457987589, -0.15857793529431863], [0.19859038409043042, -0.3300393182504279], [-0.04229804568701367, -0.31959008629620334]]",density,black,,,1301830,visual,1,[],"['1', '2', '3', '4']",1,2023.2.3,harveyvisual,2.1,[],8,0.75,
0,pause,0.4,None,None,None,0,207,207,207,,,,,,,,,,,,,1301830,visual,1,[],"['1', '2', '3', '4']",1,2023.2.3,harveyvisual,2.1,[],8,0.75,
5,dot,0.3,['dot'],['density'],black,0,208,208,208,,,75.2002329826355,74.91686797142029,75.21679902076721,dot,"[0.1, 0.08, 0.08, 0.06, 0.1]","[[0.029171133319913545, -0.11913068329317353], [-0.2981845944788078, -0.46624640290839614], [-0.1844599491613969, -0.04126455345730423], [-0.2900988597239497, -0.2493716418714862], [-0.0791391532727178, -0.3057260733699829]]",density,black,,,1301830,visual,1,[],"['1', '2', '3', '4']",1,2023.2.3,harveyvisual,2.1,[],8,0.75,
0,pause,0.4,None,None,None,0,209,209,209,,,,,,,,,,,,,1301830,visual,1,[],"['1', '2', '3', '4']",1,2023.2.3,harveyvisual,2.1,[],8,0.75,
5,dot,0.3,['dot'],['density'],black,0,210,210,210,,,75.90021586418152,75.61683988571167,75.91680192947388,dot,"[0.08, 0.08, 0.06, 0.06, 0.08]","[[-0.13250041589442924, 0.4634743177333449], [-0.03625216126902591, 0.28212032656479163], [0.10864293512180892, 0.5244886061775208], [-0.2806491611955352, 0.29160063440784684], [-0.17458602784440078, 0.11997474961663163]]",density,black,,,1301830,visual,1,[],"['1', '2', '3', '4']",1,2023.2.3,harveyvisual,2.1,[],8,0.75,
0,pause,0.4,None,None,None,0,211,211,211,,,,,,,,,,,,,1301830,visual,1,[],"['1', '2', '3', '4']",1,2023.2.3,harveyvisual,2.1,[],8,0.75,
5,dot,0.3,['dot'],['density'],black,0,212,212,212,,,76.60023283958435,76.31695103645325,76.61681199073792,dot,"[0.06, 0.08, 0.06, 0.06, 0.08]","[[-0.17224806752104949, 0.21128771658676965], [-0.35983128753182364, -0.1328600505582573], [-0.33716814897054914, 0.09708697582185674], [-0.044562237693599294, -0.03778919281981133], [-0.17109626387405982, -0.21732524013947077]]",density,black,,,1301830,visual,1,[],"['1', '2', '3', '4']",1,2023.2.3,harveyvisual,2.1,[],8,0.75,
0,pause,0.4,None,None,None,0,213,213,213,,,,,,,,,,,,,1301830,visual,1,[],"['1', '2', '3', '4']",1,2023.2.3,harveyvisual,2.1,[],8,0.75,
5,dot,0.3,['dot'],['density'],black,0,214,214,214,,,77.30023097991943,77.01675796508789,77.31673192977905,dot,"[0.06, 0.08, 0.1, 0.1, 0.08]","[[-0.006164932418690097, -0.4528126201229341], [-0.1681524682570009, -0.11721653268637569], [-0.1959903964051736, -0.3710708837277218], [0.03544926667602863, -0.1302589477940128], [0.16830580561999814, -0.32298356607012285]]",density,black,,,1301830,visual,1,[],"['1', '2', '3', '4']",1,2023.2.3,harveyvisual,2.1,[],8,0.75,
0,pause,0.4,None,None,None,0,215,215,215,,,,,,,,,,,,,1301830,visual,1,[],"['1', '2', '3', '4']",1,2023.2.3,harveyvisual,2.1,[],8,0.75,
4,dot,0.3,['dot'],['density'],white,0,216,216,216,,,78.00023484230042,77.71675395965576,78.01672005653381,dot,"[0.08, 0.1, 0.08, 0.06]","[[0.28769160010247724, 0.4706884012140322], [0.03735362687931127, 0.4645781312677133], [0.33102019499247487, 0.1847810932959147], [0.1685132699603264, 0.30497059043407926]]",density,white,,,1301830,visual,1,[],"['1', '2', '3', '4']",1,2023.2.3,harveyvisual,2.1,[],8,0.75,
0,pause,0.4,None,None,None,0,217,217,217,,,,,,,,,,,1,78.14573907852173,1301830,visual,1,[],"['1', '2', '3', '4']",1,2023.2.3,harveyvisual,2.1,[],8,0.75,
4,dot,0.3,['dot'],['density'],black,0,218,218,218,,,78.7002260684967,78.41671800613403,78.71671891212463,dot,"[0.08, 0.1, 0.06, 0.08]","[[0.0015408600658227804, 0.35051751062746694], [-0.20674122870780898, 0.3211588031025307], [-0.08430622538187964, 0.13383917563087117], [0.1780252705082131, 0.19175915241248492]]",density,black,,,1301830,visual,1,[],"['1', '2', '3', '4']",1,2023.2.3,harveyvisual,2.1,[],8,0.75,
0,pause,0.4,None,None,None,0,219,219,219,,,,,,,,,,,,,1301830,visual,1,[],"['1', '2', '3', '4']",1,2023.2.3,harveyvisual,2.1,[],8,0.75,
4,dot,0.3,['dot'],['density'],black,0,220,220,220,,,79.40022587776184,79.11675095558167,79.4166829586029,dot,"[0.08, 0.06, 0.1, 0.1]","[[-0.22711054503220823, -0.5144049053218714], [-0.016307770745122817, -0.5558659767831347], [-0.26432457165568224, -0.2824025039497699], [-0.026303944553407815, -0.34464361634901186]]",density,black,,,1301830,visual,1,[],"['1', '2', '3', '4']",1,2023.2.3,harveyvisual,2.1,[],8,0.75,
0,pause,0.4,None,None,None,0,221,221,221,,,,,,,,,,,,,1301830,visual,1,[],"['1', '2', '3', '4']",1,2023.2.3,harveyvisual,2.1,[],8,0.75,
4,dot,0.3,['dot'],['density'],black,0,222,222,222,,,80.1002299785614,79.81693601608276,80.1167209148407,dot,"[0.08, 0.06, 0.06, 0.1]","[[0.15462156444594843, 0.0379601134824338], [-0.046642739949193296, 0.06510400621286498], [0.12320708371464141, 0.2499967514902957], [-0.13279798436850673, 0.2624558601457805]]",density,black,,,1301830,visual,1,[],"['1', '2', '3', '4']",1,2023.2.3,harveyvisual,2.1,[],8,0.75,
0,pause,0.4,None,None,None,0,223,223,223,,,,,,,,,,,,,1301830,visual,1,[],"['1', '2', '3', '4']",1,2023.2.3,harveyvisual,2.1,[],8,0.75,
4,dot,0.3,['dot'],['density'],black,0,224,224,224,,,80.80021500587463,80.51673603057861,80.81667590141296,dot,"[0.1, 0.1, 0.1, 0.1]","[[0.06081986304483943, 0.35358512719402324], [0.4232304195196481, 0.14579533924648716], [0.12419639750553536, 0.133833625718984], [0.26609561976711055, 0.2970795792082364]]",density,black,,,1301830,visual,1,[],"['1', '2', '3', '4']",1,2023.2.3,harveyvisual,2.1,[],8,0.75,
0,pause,0.4,None,None,None,0,225,225,225,,,,,,,,,,,,,1301830,visual,1,[],"['1', '2', '3', '4']",1,2023.2.3,harveyvisual,2.1,[],8,0.75,
4,dot,0.3,['dot'],['density'],black,0,226,226,226,,,81.5002110004425,81.21675300598145,81.51683592796326,dot,"[0.1, 0.1, 0.1, 0.06]","[[-0.1266132934267609, -0.4419116806690939], [0.09906976576587005, -0.33923851916676484], [0.1053941350115203, -0.5768907290059295], [0.29145715672269834, -0.49787884973145785]]",density,black,,,1301830,visual,1,[],"['1', '2', '3', '4']",1,2023.2.3,harveyvisual,2.1,[],8,0.75,
0,pause,0.4,None,None,None,0,227,227,227,,,,,,,,,,,,,1301830,visual,1,[],"['1', '2', '3', '4']",1,2023.2.3,harveyvisual,2.1,[],8,0.75,
3,dot,0.3,['dot'],['density'],black,0,228,228,228,,,82.20023202896118,81.91684699058533,82.2166759967804,dot,"[0.06, 0.1, 0.06]","[[-0.05604225559701161, -0.5082314702914299], [0.10137377066920354, -0.3837858820064252], [-0.12802807887251882, -0.3142638921214105]]",density,black,,,1301830,visual,1,[],"['1', '2', '3', '4']",1,2023.2.3,harveyvisual,2.1,[],8,0.75,
0,pause,0.4,None,None,None,0,229,229,229,,,,,,,,,,,,,1301830,visual,1,[],"['1', '2', '3', '4']",1,2023.2.3,harveyvisual,2.1,[],8,0.75,
3,dot,0.3,['dot'],['density'],black,0,230,230,230,,,82.90021300315857,82.61666297912598,82.91665506362915,dot,"[0.08, 0.08, 0.08]","[[-0.015545778166788895, 0.3668732894324268], [-0.08169376046335623, 0.5804400028356697], [-0.24536523618143577, 0.46292967544173164]]",density,black,,,1301830,visual,1,[],"['1', '2', '3', '4']",1,2023.2.3,harveyvisual,2.1,[],8,0.75,
0,pause,0.4,None,None,None,0,231,231,231,,,,,,,,,,,,,1301830,visual,1,[],"['1', '2', '3', '4']",1,2023.2.3,harveyvisual,2.1,[],8,0.75,
3,dot,0.3,['dot'],['density'],black,0,232,232,232,,,83.6002299785614,83.31660985946655,83.61684393882751,dot,"[0.08, 0.08, 0.1]","[[0.041215869578383385, -0.00689674906403758], [0.17500875751152645, 0.21459232562634095], [-0.03632281132631849, 0.2012994076415249]]",density,black,,,1301830,visual,1,[],"['1', '2', '3', '4']",1,2023.2.3,harveyvisual,2.1,[],8,0.75,
0,pause,0.4,None,None,None,0,233,233,233,,,,,,,,,,,,,1301830,visual,1,[],"['1', '2', '3', '4']",1,2023.2.3,harveyvisual,2.1,[],8,0.75,
3,dot,0.3,['dot'],['density'],black,0,234,234,234,,,84.30022192001343,84.0165958404541,84.31664299964905,dot,"[0.06, 0.06, 0.08]","[[0.07700183490032705, -0.35627018624379625], [-0.11838355721398923, -0.41989981358322065], [0.04553884901650391, -0.5822363694770394]]",density,black,,,1301830,visual,1,[],"['1', '2', '3', '4']",1,2023.2.3,harveyvisual,2.1,[],8,0.75,
0,pause,0.4,None,None,None,0,235,235,235,,,,,,,,,,,,,1301830,visual,1,[],"['1', '2', '3', '4']",1,2023.2.3,harveyvisual,2.1,[],8,0.75,
3,dot,0.3,['dot'],['density'],black,0,236,236,236,,,85.0002338886261,84.71661400794983,85.01660799980164,dot,"[0.1, 0.08, 0.06]","[[0.16698284004709638, 0.14340522813657522], [0.014382160343152013, -0.0120418799203457], [0.17626274868444566, -0.13037823744598942]]",density,black,,,1301830,visual,1,[],"['1', '2', '3', '4']",1,2023.2.3,harveyvisual,2.1,[],8,0.75,
0,pause,0.4,None,None,None,0,237,237,237,,,,,,,,,,,,,1301830,visual,1,[],"['1', '2', '3', '4']",1,2023.2.3,harveyvisual,2.1,[],8,0.75,
3,dot,0.3,['dot'],['density'],black,0,238,238,238,,,85.70021104812622,85.4166009426117,85.71658086776733,dot,"[0.06, 0.06, 0.1]","[[0.041215869578383385, -0.00689674906403758], [0.17500875751152645, 0.21459232562634095], [-0.03632281132631849, 0.2012994076415249]]",density,black,,,1301830,visual,1,[],"['1', '2', '3', '4']",1,2023.2.3,harveyvisual,2.1,[],8,0.75,
0,pause,0.4,None,None,None,0,239,239,239,,,,,,,,,,,,,1301830,visual,1,[],"['1', '2', '3', '4']",1,2023.2.3,harveyvisual,2.1,[],8,0.75,
2,dot,0.3,['dot'],['density'],black,0,240,240,240,,,86.40022206306458,86.1165418624878,86.41652584075928,dot,"[0.1, 0.08]","[[0.07059805578258149, -0.2458188734665979], [0.058763118304238846, -0.4455693812784497]]",density,black,,,1301830,visual,1,[],"['1', '2', '3', '4']",1,2023.2.3,harveyvisual,2.1,[],8,0.75,
0,pause,0.4,None,None,None,0,241,241,241,,,,,,,,,,,,,1301830,visual,1,[],"['1', '2', '3', '4']",1,2023.2.3,harveyvisual,2.1,[],8,0.75,
2,dot,0.3,['dot'],['density'],black,0,242,242,242,,,87.10023903846741,86.81663489341736,87.1165189743042,dot,"[0.08, 0.08]","[[-0.1809096912417549, 0.4542701565657042], [0.018526046348631375, 0.4698330185089162]]",density,black,,,1301830,visual,1,[],"['1', '2', '3', '4']",1,2023.2.3,harveyvisual,2.1,[],8,0.75,
0,pause,0.4,None,None,None,0,243,243,243,,,,,,,,,,,,,1301830,visual,1,[],"['1', '2', '3', '4']",1,2023.2.3,harveyvisual,2.1,[],8,0.75,
2,dot,0.3,['dot'],['density'],black,0,244,244,244,,,87.80024290084839,87.5166449546814,87.81650185585022,dot,"[0.06, 0.1]","[[0.5159928458027473, 0.13749655768121952], [0.38343727829172375, 0.28833164788761484]]",density,black,,,1301830,visual,1,[],"['1', '2', '3', '4']",1,2023.2.3,harveyvisual,2.1,[],8,0.75,
0,pause,0.4,None,None,None,0,245,245,245,,,,,,,,,,,,,1301830,visual,1,[],"['1', '2', '3', '4']",1,2023.2.3,harveyvisual,2.1,[],8,0.75,
2,dot,0.3,['dot'],['density'],black,0,246,246,246,,,88.50022006034851,88.21648097038269,88.5164749622345,dot,"[0.1, 0.06]","[[0.4162662019019998, 0.09129510669171749], [0.33420900269466314, 0.27427456354974017]]",density,black,,,1301830,visual,1,[],"['1', '2', '3', '4']",1,2023.2.3,harveyvisual,2.1,[],8,0.75,
0,pause,0.4,None,None,None,0,247,247,247,,,,,,,,,,,,,1301830,visual,1,[],"['1', '2', '3', '4']",1,2023.2.3,harveyvisual,2.1,[],8,0.75,
2,dot,0.3,['dot'],['density'],black,0,248,248,248,,,89.20022201538086,88.91646599769592,89.21645998954773,dot,"[0.1, 0.1]","[[-0.15001882639889116, 0.48719053997247297], [-0.1736568080125972, 0.28835755901726084]]",density,black,,,1301830,visual,1,[],"['1', '2', '3', '4']",1,2023.2.3,harveyvisual,2.1,[],8,0.75,
0,pause,0.4,None,None,None,0,249,249,249,,,,,,,,,,,,,1301830,visual,1,[],"['1', '2', '3', '4']",1,2023.2.3,harveyvisual,2.1,[],8,0.75,
2,dot,0.3,['dot'],['density'],black,0,250,250,250,,,89.90024185180664,89.61648201942444,89.91646790504456,dot,"[0.1, 0.1]","[[-0.3970652553054307, 0.36151140161898554], [-0.22306532646831484, 0.26288994227005946]]",density,black,,,1301830,visual,1,[],"['1', '2', '3', '4']",1,2023.2.3,harveyvisual,2.1,[],8,0.75,
0,pause,0.4,None,None,None,0,251,251,251,,,,,,,,,,,,,1301830,visual,1,[],"['1', '2', '3', '4']",1,2023.2.3,harveyvisual,2.1,[],8,0.75,
1,dot,0.3,['dot'],['density'],black,0,252,252,252,,,90.60022306442261,90.31642985343933,90.61640501022339,dot,[0.08],"[0.4230572171255965, 0.15564154118015242]",density,black,,,1301830,visual,1,[],"['1', '2', '3', '4']",1,2023.2.3,harveyvisual,2.1,[],8,0.75,
0,pause,0.4,None,None,None,0,253,253,253,,,,,,,,,,,,,1301830,visual,1,[],"['1', '2', '3', '4']",1,2023.2.3,harveyvisual,2.1,[],8,0.75,
1,dot,0.3,['dot'],['density'],black,0,254,254,254,,,91.30022597312927,91.01654386520386,91.31652998924255,dot,[0.1],"[-0.4309303250570785, -0.37878052449928096]",density,black,,,1301830,visual,1,[],"['1', '2', '3', '4']",1,2023.2.3,harveyvisual,2.1,[],8,0.75,
0,pause,0.4,None,None,None,0,255,255,255,,,,,,,,,,,,,1301830,visual,1,[],"['1', '2', '3', '4']",1,2023.2.3,harveyvisual,2.1,[],8,0.75,
1,dot,0.3,['dot'],['density'],black,0,256,256,256,,,92.00023603439331,91.71634888648987,92.0164098739624,dot,[0.08],"[-0.40242150741388927, 0.27329756427278695]",density,black,,,1301830,visual,1,[],"['1', '2', '3', '4']",1,2023.2.3,harveyvisual,2.1,[],8,0.75,
0,pause,0.4,None,None,None,0,257,257,257,,,,,,,,,,,,,1301830,visual,1,[],"['1', '2', '3', '4']",1,2023.2.3,harveyvisual,2.1,[],8,0.75,
1,dot,0.3,['dot'],['density'],black,0,258,258,258,,,92.70021486282349,92.4163429737091,92.71635603904724,dot,[0.08],"[-0.4913090862596544, 0.31587628757091063]",density,black,,,1301830,visual,1,[],"['1', '2', '3', '4']",1,2023.2.3,harveyvisual,2.1,[],8,0.75,
0,pause,0.4,None,None,None,0,259,259,259,,,,,,,,,,,,,1301830,visual,1,[],"['1', '2', '3', '4']",1,2023.2.3,harveyvisual,2.1,[],8,0.75,
1,dot,0.3,['dot'],['density'],white,0,260,260,260,,,93.40022492408752,93.11634993553162,93.41631984710693,dot,[0.08],"[-0.22356924330877379, 0.41145231278245986]",density,white,,,1301830,visual,1,[],"['1', '2', '3', '4']",1,2023.2.3,harveyvisual,2.1,[],8,0.75,
0,pause,0.4,None,None,None,0,261,261,261,,,,,,,,,,,1,93.62665390968323,1301830,visual,1,[],"['1', '2', '3', '4']",1,2023.2.3,harveyvisual,2.1,[],8,0.75,
1,dot,0.3,['dot'],['density'],black,0,262,262,262,,,94.10023403167725,93.816321849823,94.11630892753601,dot,[0.08],"[0.01430498756481247, 0.36429701967127975]",density,black,,,1301830,visual,1,[],"['1', '2', '3', '4']",1,2023.2.3,harveyvisual,2.1,[],8,0.75,
0,pause,0.4,None,None,None,0,263,263,263,,,,,,,,,,,,,1301830,visual,1,[],"['1', '2', '3', '4']",1,2023.2.3,harveyvisual,2.1,[],8,0.75,
20,dot,0.3,['dot'],['density'],black,0,264,264,264,,,94.80022501945496,94.51637983322144,94.8163628578186,dot,"[0.1, 0.06, 0.1, 0.06, 0.06, 0.08, 0.1, 0.1, 0.06, 0.08, 0.1, 0.1, 0.1, 0.06, 0.1, 0.08, 0.1, 0.08, 0.1, 0.06]","[[0.054477093668445, 0.34157242370929286], [-0.13925764153697584, 0.44488086352572176], [-0.2845412089931314, -0.4564166875029525], [-0.5466575993831722, 0.004776870793766708], [0.12064166961704093, 0.5383887513842333], [-0.3103545200338537, -0.13084017674287246], [0.3234050829363102, -0.23551957654285288], [0.0015472037103143599, -0.3323709155648811], [0.31558914480732225, 0.22144376191691773], [-0.4043464089371136, 0.14447478590205615], [0.03994371120831419, 0.1373360336958196], [-0.016648100332960936, -0.08175861513042304], [-0.0002780170882298316, -0.5307058449834213], [0.579590508905465, 0.02379578695563145], [0.2577545834424103, -0.05359751837125626], [0.2468855240831579, -0.43196775408092314], [-0.1560656485531085, 0.08981681460608948], [0.5552551265345506, 0.23094622940422416], [-0.5070746468650159, -0.1898946051672084], [0.4226152295339908, 0.4181072082880215]]",density,black,,,1301830,visual,1,[],"['1', '2', '3', '4']",1,2023.2.3,harveyvisual,2.1,[],8,0.75,
0,pause,0.4,None,None,None,0,265,265,265,,,,,,,,,,,,,1301830,visual,1,[],"['1', '2', '3', '4']",1,2023.2.3,harveyvisual,2.1,[],8,0.75,
20,dot,0.3,['dot'],['density'],black,0,266,266,266,,,95.50023984909058,95.21628284454346,95.516273021698,dot,"[0.06, 0.06, 0.08, 0.08, 0.08, 0.1, 0.1, 0.1, 0.1, 0.08, 0.1, 0.06, 0.08, 0.1, 0.1, 0.06, 0.1, 0.1, 0.1, 0.1]","[[0.015189295286819227, 0.4831875201186552], [-0.4229312819496305, 0.04788562851058242], [-0.5837021359388102, -0.11758479580396633], [0.4140178908538398, -0.30258802418324626], [-0.005401690281117144, 0.16692025121030762], [0.39726221830212716, 0.20927696627539183], [-0.1803867815609, 0.34239125293829153], [0.215334537319124, 0.533507688440698], [-0.3816001022958263, 0.2729779376833297], [0.24872567732140238, 0.07001276733860473], [-0.4287248807264684, -0.35136461055256396], [-0.07962945014809875, -0.009223170766940458], [-0.17303050200186326, 0.5474418354523312], [-0.5515948527911395, 0.1883371054804799], [-0.0812083374143292, -0.35199401485565773], [0.5032197821972723, -0.05303404912960846], [0.05019556504343159, -0.18536014162712733], [0.11420579653808849, -0.5853181329217788], [-0.2815499919315078, -0.2128561795421146], [0.4155758507352171, 0.4368086461168018]]",density,black,,,1301830,visual,1,[],"['1', '2', '3', '4']",1,2023.2.3,harveyvisual,2.1,[],8,0.75,
