num,mod,duration,shape,ll_cond,colors,.thisRepN,.thisTrialN,.thisN,.thisIndex,thisRow.t,notes,raw_global_time,t_start,t_stop,shapes,size,pos,cond,color,button,RT,participant,session,starting_run,left button (match/odd),right button (non-match/even),samples_per_block,psychopy version,expName,offset,audio,number_runs,radius,
1,dot,0.3,['dot'],['density'],black,0,0,0,0,,,2.4001948833465576,2.1015400886535645,2.4182538986206055,dot,[0.1],"[0.4420174282329864, -0.3383815273201445]",density,black,,,1301830,visual,1,[],"['1', '2', '3', '4']",1,2023.2.3,harveyvisual,2.1,[],8,0.75,
0,pause,0.4,None,None,None,0,1,1,1,,,,,,,,,,,,,1301830,visual,1,[],"['1', '2', '3', '4']",1,2023.2.3,harveyvisual,2.1,[],8,0.75,
1,dot,0.3,['dot'],['density'],black,0,2,2,2,,,3.10021710395813,2.8014519214630127,3.118989944458008,dot,[0.08],"[-0.045934412585722416, -0.12236734128406912]",density,black,,,1301830,visual,1,[],"['1', '2', '3', '4']",1,2023.2.3,harveyvisual,2.1,[],8,0.75,
0,pause,0.4,None,None,None,0,3,3,3,,,,,,,,,,,,,1301830,visual,1,[],"['1', '2', '3', '4']",1,2023.2.3,harveyvisual,2.1,[],8,0.75,
1,dot,0.3,['dot'],['density'],black,0,4,4,4,,,3.800199031829834,3.5019960403442383,3.818974018096924,dot,[0.06],"[-0.40242150741388927, 0.27329756427278695]",density,black,,,1301830,visual,1,[],"['1', '2', '3', '4']",1,2023.2.3,harveyvisual,2.1,[],8,0.75,
0,pause,0.4,None,None,None,0,5,5,5,,,,,,,,,,,,,1301830,visual,1,[],"['1', '2', '3', '4']",1,2023.2.3,harveyvisual,2.1,[],8,0.75,
1,dot,0.3,['dot'],['density'],black,0,6,6,6,,,4.5001890659332275,4.202089071273804,4.518995046615601,dot,[0.1],"[-0.48958603946102763, 0.32731293615049173]",density,black,,,1301830,visual,1,[],"['1', '2', '3', '4']",1,2023.2.3,harveyvisual,2.1,[],8,0.75,
0,pause,0.4,None,None,None,0,7,7,7,,,,,,,,,,,,,1301830,visual,1,[],"['1', '2', '3', '4']",1,2023.2.3,harveyvisual,2.1,[],8,0.75,
1,dot,0.3,['dot'],['density'],black,0,8,8,8,,,5.20021390914917,4.901992082595825,5.2190821170806885,dot,[0.08],"[0.1049869166116724, 0.1335000464341748]",density,black,,,1301830,visual,1,[],"['1', '2', '3', '4']",1,2023.2.3,harveyvisual,2.1,[],8,0.75,
0,pause,0.4,None,None,None,0,9,9,9,,,,,,,,,,,,,1301830,visual,1,[],"['1', '2', '3', '4']",1,2023.2.3,harveyvisual,2.1,[],8,0.75,
1,dot,0.3,['dot'],['density'],black,0,10,10,10,,,5.900217056274414,5.604229927062988,5.921009063720703,dot,[0.08],"[-0.4913090862596544, 0.31587628757091063]",density,black,,,1301830,visual,1,[],"['1', '2', '3', '4']",1,2023.2.3,harveyvisual,2.1,[],8,0.75,
0,pause,0.4,None,None,None,0,11,11,11,,,,,,,,,,,,,1301830,visual,1,[],"['1', '2', '3', '4']",1,2023.2.3,harveyvisual,2.1,[],8,0.75,
2,dot,0.3,['dot'],['density'],black,0,12,12,12,,,6.600204944610596,6.304200887680054,6.620852947235107,dot,"[0.06, 0.08]","[[-0.5356907773971091, -0.01454049690556478], [-0.3936553319468624, 0.1263392020735458]]",density,black,,,1301830,visual,1,[],"['1', '2', '3', '4']",1,2023.2.3,harveyvisual,2.1,[],8,0.75,
0,pause,0.4,None,None,None,0,13,13,13,,,,,,,,,,,,,1301830,visual,1,[],"['1', '2', '3', '4']",1,2023.2.3,harveyvisual,2.1,[],8,0.75,
2,dot,0.3,['dot'],['density'],black,0,14,14,14,,,7.300201892852783,7.004344940185547,7.320955038070679,dot,"[0.06, 0.1]","[[0.075840462383643, -0.21806900392302264], [0.2761252679018853, -0.22101292055433702]]",density,black,,,1301830,visual,1,[],"['1', '2', '3', '4']",1,2023.2.3,harveyvisual,2.1,[],8,0.75,
0,pause,0.4,None,None,None,0,15,15,15,,,,,,,,,,,,,1301830,visual,1,[],"['1', '2', '3', '4']",1,2023.2.3,harveyvisual,2.1,[],8,0.75,
2,dot,0.3,['dot'],['density'],black,0,16,16,16,,,8.00019907951355,7.704168081283569,8.02093505859375,dot,"[0.06, 0.1]","[[-0.4579128382498026, -0.013317831223324628], [-0.28624676016543393, -0.11681778735554697]]",density,black,,,1301830,visual,1,[],"['1', '2', '3', '4']",1,2023.2.3,harveyvisual,2.1,[],8,0.75,
0,pause,0.4,None,None,None,0,17,17,17,,,,,,,,,,,,,1301830,visual,1,[],"['1', '2', '3', '4']",1,2023.2.3,harveyvisual,2.1,[],8,0.75,
2,dot,0.3,['dot'],['density'],black,0,18,18,18,,,8.700215101242065,8.404141902923584,8.720818996429443,dot,"[0.1, 0.1]","[[-0.03288134563171543, -0.4238564918242606], [-0.10611641736664675, -0.2370354775439666]]",density,black,,,1301830,visual,1,[],"['1', '2', '3', '4']",1,2023.2.3,harveyvisual,2.1,[],8,0.75,
0,pause,0.4,None,None,None,0,19,19,19,,,,,,,,,,,,,1301830,visual,1,[],"['1', '2', '3', '4']",1,2023.2.3,harveyvisual,2.1,[],8,0.75,
2,dot,0.3,['dot'],['density'],black,0,20,20,20,,,9.40020203590393,9.104160070419312,9.420799016952515,dot,"[0.1, 0.1]","[[0.3054529246123127, 0.4455278178545299], [0.3548458028228903, 0.2510588499170468]]",density,black,,,1301830,visual,1,[],"['1', '2', '3', '4']",1,2023.2.3,harveyvisual,2.1,[],8,0.75,
0,pause,0.4,None,None,None,0,21,21,21,,,,,,,,,,,,,1301830,visual,1,[],"['1', '2', '3', '4']",1,2023.2.3,harveyvisual,2.1,[],8,0.75,
2,dot,0.3,['dot'],['density'],white,0,22,22,22,,,10.100215911865234,9.804140090942383,10.12078309059143,dot,"[0.1, 0.06]","[[-0.19266755722762574, -0.036106715323925336], [-0.096675332858716, 0.13967695308521302]]",density,white,,,1301830,visual,1,[],"['1', '2', '3', '4']",1,2023.2.3,harveyvisual,2.1,[],8,0.75,
0,pause,0.4,None,None,None,0,23,23,23,,,,,,,,,,,1,10.193282127380371,1301830,visual,1,[],"['1', '2', '3', '4']",1,2023.2.3,harveyvisual,2.1,[],8,0.75,
3,dot,0.3,['dot'],['density'],black,0,24,24,24,,,10.80019497871399,10.52077603340149,10.820782899856567,dot,"[0.1, 0.06, 0.1]","[[0.315495050057846, 0.10724904305018564], [0.5180852452909619, 0.013799590611742229], [0.3819545826159732, -0.1334380777916547]]",density,black,,,1301830,visual,1,[],"['1', '2', '3', '4']",1,2023.2.3,harveyvisual,2.1,[],8,0.75,
0,pause,0.4,None,None,None,0,25,25,25,,,,,,,,,,,,,1301830,visual,1,[],"['1', '2', '3', '4']",1,2023.2.3,harveyvisual,2.1,[],8,0.75,
3,dot,0.3,['dot'],['density'],black,0,26,26,26,,,11.500219106674194,11.22075891494751,11.520782947540283,dot,"[0.06, 0.1, 0.08]","[[-0.04083818552357515, -0.522177599776496], [0.2241586230204485, -0.5188142294055383], [0.09506152973916207, -0.364648334381489]]",density,black,,,1301830,visual,1,[],"['1', '2', '3', '4']",1,2023.2.3,harveyvisual,2.1,[],8,0.75,
0,pause,0.4,None,None,None,0,27,27,27,,,,,,,,,,,,,1301830,visual,1,[],"['1', '2', '3', '4']",1,2023.2.3,harveyvisual,2.1,[],8,0.75,
3,dot,0.3,['dot'],['density'],black,0,28,28,28,,,12.200207948684692,11.920777082443237,12.220763921737671,dot,"[0.06, 0.06, 0.1]","[[0.4995185571857965, 0.14229679706320136], [0.2944600495073675, 0.23335097983198633], [0.330752226915583, 0.0299241169750933]]",density,black,,,1301830,visual,1,[],"['1', '2', '3', '4']",1,2023.2.3,harveyvisual,2.1,[],8,0.75,
0,pause,0.4,None,None,None,0,29,29,29,,,,,,,,,,,,,1301830,visual,1,[],"['1', '2', '3', '4']",1,2023.2.3,harveyvisual,2.1,[],8,0.75,
3,dot,0.3,['dot'],['density'],white,0,30,30,30,,,12.90019702911377,12.620714902877808,12.920878887176514,dot,"[0.06, 0.08, 0.06]","[[-0.15674404860239688, -0.25078459247658497], [0.006578924124220241, -0.41324131210186005], [0.06959682433872849, -0.20549031443856539]]",density,white,,,1301830,visual,1,[],"['1', '2', '3', '4']",1,2023.2.3,harveyvisual,2.1,[],8,0.75,
0,pause,0.4,None,None,None,0,31,31,31,,,,,,,,,,,1,12.999780178070068,1301830,visual,1,[],"['1', '2', '3', '4']",1,2023.2.3,harveyvisual,2.1,[],8,0.75,
3,dot,0.3,['dot'],['density'],white,0,32,32,32,,,13.600205898284912,13.320848941802979,13.62085509300232,dot,"[0.1, 0.06, 0.1]","[[0.026071599024748527, -0.32860913997604846], [-0.11834724389398482, -0.18584523127985947], [0.10068982493997472, -0.12518245043845455]]",density,white,,,1301830,visual,1,[],"['1', '2', '3', '4']",1,2023.2.3,harveyvisual,2.1,[],8,0.75,
0,pause,0.4,None,None,None,0,33,33,33,,,,,,,,,,,1,13.647994041442871,1301830,visual,1,[],"['1', '2', '3', '4']",1,2023.2.3,harveyvisual,2.1,[],8,0.75,
3,dot,0.3,['dot'],['density'],black,0,34,34,34,,,14.30021595954895,14.020834922790527,14.320842027664185,dot,"[0.06, 0.06, 0.08]","[[0.13574725429899362, -0.5423283227425341], [-0.036793286563257144, -0.3768814925557267], [0.16175487704753985, -0.3348017255345844]]",density,black,,,1301830,visual,1,[],"['1', '2', '3', '4']",1,2023.2.3,harveyvisual,2.1,[],8,0.75,
0,pause,0.4,None,None,None,0,35,35,35,,,,,,,,,,,,,1301830,visual,1,[],"['1', '2', '3', '4']",1,2023.2.3,harveyvisual,2.1,[],8,0.75,
4,dot,0.3,['dot'],['density'],black,0,36,36,36,,,15.000200986862183,14.720602035522461,15.020598888397217,dot,"[0.1, 0.08, 0.08, 0.08]","[[0.3510671072586959, 0.39105757673094776], [0.13754249634966464, 0.24690230999823115], [0.2791454519284172, 0.028997379515453933], [0.42442503262497266, 0.18132357243737673]]",density,black,,,1301830,visual,1,[],"['1', '2', '3', '4']",1,2023.2.3,harveyvisual,2.1,[],8,0.75,
0,pause,0.4,None,None,None,0,37,37,37,,,,,,,,,,,,,1301830,visual,1,[],"['1', '2', '3', '4']",1,2023.2.3,harveyvisual,2.1,[],8,0.75,
4,dot,0.3,['dot'],['density'],black,0,38,38,38,,,15.700200080871582,15.420577049255371,15.720689058303833,dot,"[0.08, 0.08, 0.1, 0.06]","[[0.15462156444594843, 0.0379601134824338], [-0.046642739949193296, 0.06510400621286498], [0.12320708371464141, 0.2499967514902957], [-0.13279798436850673, 0.2624558601457805]]",density,black,,,1301830,visual,1,[],"['1', '2', '3', '4']",1,2023.2.3,harveyvisual,2.1,[],8,0.75,
0,pause,0.4,None,None,None,0,39,39,39,,,,,,,,,,,,,1301830,visual,1,[],"['1', '2', '3', '4']",1,2023.2.3,harveyvisual,2.1,[],8,0.75,
4,dot,0.3,['dot'],['density'],black,0,40,40,40,,,16.40020203590393,16.120621919631958,16.42066788673401,dot,"[0.08, 0.08, 0.06, 0.06]","[[0.2472118047986834, -0.10298318101898082], [0.5832669122255578, -0.0503561045998346], [0.411076479450662, -0.2641061246578253], [0.42907679660555237, 0.09101913809416001]]",density,black,,,1301830,visual,1,[],"['1', '2', '3', '4']",1,2023.2.3,harveyvisual,2.1,[],8,0.75,
0,pause,0.4,None,None,None,0,41,41,41,,,,,,,,,,,,,1301830,visual,1,[],"['1', '2', '3', '4']",1,2023.2.3,harveyvisual,2.1,[],8,0.75,
4,dot,0.3,['dot'],['density'],black,0,42,42,42,,,17.100203037261963,16.820658922195435,17.12070608139038,dot,"[0.1, 0.08, 0.08, 0.06]","[[-0.035956560563939345, -0.32709283091503677], [-0.2190429995428959, -0.2035699502326352], [-0.06992348234594314, -0.5664776463754845], [-0.220471277594294, -0.41208836036752056]]",density,black,,,1301830,visual,1,[],"['1', '2', '3', '4']",1,2023.2.3,harveyvisual,2.1,[],8,0.75,
0,pause,0.4,None,None,None,0,43,43,43,,,,,,,,,,,,,1301830,visual,1,[],"['1', '2', '3', '4']",1,2023.2.3,harveyvisual,2.1,[],8,0.75,
4,dot,0.3,['dot'],['density'],black,0,44,44,44,,,17.800198078155518,17.520564079284668,17.820672035217285,dot,"[0.1, 0.1, 0.08, 0.06]","[[-0.3884818304242726, 0.11421243679268873], [-0.11472928134965246, -0.13141119473891247], [-0.1657593024508462, 0.13368900033666462], [-0.36655717599886073, -0.10387254737714131]]",density,black,,,1301830,visual,1,[],"['1', '2', '3', '4']",1,2023.2.3,harveyvisual,2.1,[],8,0.75,
0,pause,0.4,None,None,None,0,45,45,45,,,,,,,,,,,,,1301830,visual,1,[],"['1', '2', '3', '4']",1,2023.2.3,harveyvisual,2.1,[],8,0.75,
4,dot,0.3,['dot'],['density'],black,0,46,46,46,,,18.500196933746338,18.22071099281311,18.520591020584106,dot,"[0.1, 0.08, 0.06, 0.1]","[[-0.24855901342904946, 0.4326179111294549], [-0.33066739519925503, 0.24314919490711104], [-0.015728317870896572, 0.5189617074191414], [-0.09686463175319387, 0.28200212383687606]]",density,black,,,1301830,visual,1,[],"['1', '2', '3', '4']",1,2023.2.3,harveyvisual,2.1,[],8,0.75,
0,pause,0.4,None,None,None,0,47,47,47,,,,,,,,,,,,,1301830,visual,1,[],"['1', '2', '3', '4']",1,2023.2.3,harveyvisual,2.1,[],8,0.75,
5,dot,0.3,['dot'],['density'],black,0,48,48,48,,,19.200196027755737,18.920505046844482,19.220503091812134,dot,"[0.06, 0.1, 0.08, 0.06, 0.06]","[[0.10558973120531606, -0.20428866875977839], [-0.0893225412758366, 0.16524926947551877], [-0.05793580974794309, -0.07826743033729393], [0.11130747138107101, 0.10875249109580729], [0.28035132100960686, -0.09064984251937742]]",density,black,,,1301830,visual,1,[],"['1', '2', '3', '4']",1,2023.2.3,harveyvisual,2.1,[],8,0.75,
0,pause,0.4,None,None,None,0,49,49,49,,,,,,,,,,,,,1301830,visual,1,[],"['1', '2', '3', '4']",1,2023.2.3,harveyvisual,2.1,[],8,0.75,
5,dot,0.3,['dot'],['density'],black,0,50,50,50,,,19.90021300315857,19.62047290802002,19.92051911354065,dot,"[0.06, 0.1, 0.1, 0.1, 0.1]","[[-0.20882687658313398, 0.05979685123170853], [0.07709165915785691, 0.33819008637117026], [0.02323578322535992, 0.12175330968231063], [0.02522363087913582, -0.08718927316059993], [-0.12152044988768049, 0.28453648995279207]]",density,black,,,1301830,visual,1,[],"['1', '2', '3', '4']",1,2023.2.3,harveyvisual,2.1,[],8,0.75,
0,pause,0.4,None,None,None,0,51,51,51,,,,,,,,,,,,,1301830,visual,1,[],"['1', '2', '3', '4']",1,2023.2.3,harveyvisual,2.1,[],8,0.75,
5,dot,0.3,['dot'],['density'],black,0,52,52,52,,,20.60021710395813,20.320453882217407,20.620441913604736,dot,"[0.06, 0.06, 0.06, 0.08, 0.1]","[[0.36014554898799966, 0.387810422325294], [0.055757472799778995, 0.16941293674392635], [0.2210739480460382, 0.008175952352481365], [0.48495712857242873, 0.07425785546611247], [0.25975240449222103, 0.2092734881649904]]",density,black,,,1301830,visual,1,[],"['1', '2', '3', '4']",1,2023.2.3,harveyvisual,2.1,[],8,0.75,
0,pause,0.4,None,None,None,0,53,53,53,,,,,,,,,,,,,1301830,visual,1,[],"['1', '2', '3', '4']",1,2023.2.3,harveyvisual,2.1,[],8,0.75,
5,dot,0.3,['dot'],['density'],black,0,54,54,54,,,21.300209045410156,21.020469903945923,21.320451974868774,dot,"[0.06, 0.08, 0.06, 0.06, 0.1]","[[0.029171133319913545, -0.11913068329317353], [-0.2981845944788078, -0.46624640290839614], [-0.1844599491613969, -0.04126455345730423], [-0.2900988597239497, -0.2493716418714862], [-0.0791391532727178, -0.3057260733699829]]",density,black,,,1301830,visual,1,[],"['1', '2', '3', '4']",1,2023.2.3,harveyvisual,2.1,[],8,0.75,
0,pause,0.4,None,None,None,0,55,55,55,,,,,,,,,,,,,1301830,visual,1,[],"['1', '2', '3', '4']",1,2023.2.3,harveyvisual,2.1,[],8,0.75,
5,dot,0.3,['dot'],['density'],black,0,56,56,56,,,22.000200033187866,21.720474004745483,22.02041792869568,dot,"[0.1, 0.06, 0.06, 0.1, 0.1]","[[-0.08906257038347729, 0.3326351968500321], [0.2173987091792188, 0.026220721131276364], [0.07996259445097068, 0.4821024141609844], [0.14345365083950706, 0.2501481494916038], [-0.03323208063638199, 0.08804517681276208]]",density,black,,,1301830,visual,1,[],"['1', '2', '3', '4']",1,2023.2.3,harveyvisual,2.1,[],8,0.75,
0,pause,0.4,None,None,None,0,57,57,57,,,,,,,,,,,,,1301830,visual,1,[],"['1', '2', '3', '4']",1,2023.2.3,harveyvisual,2.1,[],8,0.75,
5,dot,0.3,['dot'],['density'],black,0,58,58,58,,,22.700206995010376,22.42039704322815,22.720380067825317,dot,"[0.1, 0.06, 0.08, 0.06, 0.1]","[[0.4409169755572007, 0.017856988789309493], [0.10933872532765951, -0.20637645515835812], [0.27728831588229885, 0.198954967346464], [0.3100556643305453, -0.16532657838491105], [0.11148968869271939, 0.006469487304542018]]",density,black,,,1301830,visual,1,[],"['1', '2', '3', '4']",1,2023.2.3,harveyvisual,2.1,[],8,0.75,
0,pause,0.4,None,None,None,0,59,59,59,,,,,,,,,,,,,1301830,visual,1,[],"['1', '2', '3', '4']",1,2023.2.3,harveyvisual,2.1,[],8,0.75,
6,dot,0.3,['dot'],['density'],black,0,60,60,60,,,23.400216102600098,23.12037992477417,23.420382022857666,dot,"[0.08, 0.1, 0.06, 0.08, 0.1, 0.06]","[[-0.4718675517483807, -0.080313523620691], [-0.31247550484642445, -0.23218356379105512], [-0.2575593735283343, 0.24158811959194182], [-0.2948669609652105, 0.017652028830845004], [-0.0883702388727292, 0.027494606567874856], [-0.45154527444290743, 0.17691331155056722]]",density,black,,,1301830,visual,1,[],"['1', '2', '3', '4']",1,2023.2.3,harveyvisual,2.1,[],8,0.75,
0,pause,0.4,None,None,None,0,61,61,61,,,,,,,,,,,,,1301830,visual,1,[],"['1', '2', '3', '4']",1,2023.2.3,harveyvisual,2.1,[],8,0.75,
6,dot,0.3,['dot'],['density'],black,0,62,62,62,,,24.1002140045166,23.820362091064453,24.120413064956665,dot,"[0.08, 0.1, 0.06, 0.1, 0.08, 0.06]","[[-0.3495133471434448, -0.27378397825191725], [-0.13100446626766318, 0.13866361521721876], [-0.5155090776439144, 0.11776884681908774], [-0.4780287848267884, -0.11588239978167382], [-0.11897161770401087, -0.0933943475842369], [-0.303431097341306, -0.010759678588622423]]",density,black,,,1301830,visual,1,[],"['1', '2', '3', '4']",1,2023.2.3,harveyvisual,2.1,[],8,0.75,
0,pause,0.4,None,None,None,0,63,63,63,,,,,,,,,,,,,1301830,visual,1,[],"['1', '2', '3', '4']",1,2023.2.3,harveyvisual,2.1,[],8,0.75,
6,dot,0.3,['dot'],['density'],black,0,64,64,64,,,24.800211906433105,24.520391941070557,24.82038903236389,dot,"[0.08, 0.08, 0.1, 0.06, 0.08, 0.08]","[[0.5108460974500976, 0.10904555526594768], [0.5033362887342737, -0.29902707163897635], [0.3062164979741722, 0.05793810054487639], [0.22849736264613016, -0.28041776899433873], [0.12909977445373055, -0.06500178518750158], [0.41889526300287094, -0.11616960582105396]]",density,black,,,1301830,visual,1,[],"['1', '2', '3', '4']",1,2023.2.3,harveyvisual,2.1,[],8,0.75,
0,pause,0.4,None,None,None,0,65,65,65,,,,,,,,,,,,,1301830,visual,1,[],"['1', '2', '3', '4']",1,2023.2.3,harveyvisual,2.1,[],8,0.75,
6,dot,0.3,['dot'],['density'],black,0,66,66,66,,,25.50021004676819,25.22032403945923,25.52030897140503,dot,"[0.06, 0.08, 0.06, 0.1, 0.1, 0.08]","[[0.3299424372810393, 0.4114780133894161], [0.051944887288218326, -0.03233758374135307], [0.4337222981537534, -0.07578498258626121], [0.10477943773033714, 0.1703675017914044], [0.3400878522727408, 0.20016066552806494], [0.2510029109880425, 0.01747244452819591]]",density,black,,,1301830,visual,1,[],"['1', '2', '3', '4']",1,2023.2.3,harveyvisual,2.1,[],8,0.75,
0,pause,0.4,None,None,None,0,67,67,67,,,,,,,,,,,,,1301830,visual,1,[],"['1', '2', '3', '4']",1,2023.2.3,harveyvisual,2.1,[],8,0.75,
6,dot,0.3,['dot'],['density'],black,0,68,68,68,,,26.2002010345459,25.92033290863037,26.220319986343384,dot,"[0.1, 0.1, 0.06, 0.08, 0.1, 0.08]","[[0.500827999951601, -0.23304028533624072], [0.20916386845998064, 0.08030245107060778], [0.27809793757338463, -0.1905950399710685], [0.08327260932553728, -0.13599284299194644], [0.16768982653485215, -0.38480252821003114], [0.4174962964646186, 0.01069632702004041]]",density,black,,,1301830,visual,1,[],"['1', '2', '3', '4']",1,2023.2.3,harveyvisual,2.1,[],8,0.75,
0,pause,0.4,None,None,None,0,69,69,69,,,,,,,,,,,,,1301830,visual,1,[],"['1', '2', '3', '4']",1,2023.2.3,harveyvisual,2.1,[],8,0.75,
6,dot,0.3,['dot'],['density'],black,0,70,70,70,,,26.900198936462402,26.620296001434326,26.920268058776855,dot,"[0.08, 0.1, 0.06, 0.1, 0.08, 0.06]","[[-0.36874454135919904, -0.07559312273534534], [-0.010504004432700158, -0.20559114413973084], [-0.17044584652251332, 0.17221059634863578], [-0.26251446752681207, -0.3074850979938877], [0.06633568674208327, -0.020893677029436595], [-0.1538914639536258, -0.02772778393149798]]",density,black,,,1301830,visual,1,[],"['1', '2', '3', '4']",1,2023.2.3,harveyvisual,2.1,[],8,0.75,
0,pause,0.4,None,None,None,0,71,71,71,,,,,,,,,,,,,1301830,visual,1,[],"['1', '2', '3', '4']",1,2023.2.3,harveyvisual,2.1,[],8,0.75,
7,dot,0.3,['dot'],['density'],black,0,72,72,72,,,27.600214958190918,27.320261001586914,27.620253086090088,dot,"[0.08, 0.08, 0.08, 0.08, 0.08, 0.06, 0.1]","[[-0.27819289690075527, 0.2483046813246476], [-0.5592260237138849, -0.07980801324287977], [-0.026637344717372308, -0.10521889364121585], [-0.16909952645659185, 0.05101222878256789], [-0.21868546305501066, -0.16482274839932262], [-0.3689572500107929, 0.03738969849335829], [-0.49227831811218986, 0.2063327632277477]]",density,black,,,1301830,visual,1,[],"['1', '2', '3', '4']",1,2023.2.3,harveyvisual,2.1,[],8,0.75,
0,pause,0.4,None,None,None,0,73,73,73,,,,,,,,,,,,,1301830,visual,1,[],"['1', '2', '3', '4']",1,2023.2.3,harveyvisual,2.1,[],8,0.75,
7,dot,0.3,['dot'],['density'],black,0,74,74,74,,,28.30020809173584,28.020308017730713,28.320308923721313,dot,"[0.06, 0.06, 0.06, 0.1, 0.06, 0.06, 0.08]","[[0.21536278937261513, -0.01733091677764761], [-0.08931035591216824, -0.05246349631749078], [0.21870610454298933, 0.21067491250041093], [-0.1587576617113587, 0.26068369883413384], [0.04623079518225047, 0.4568527369480977], [0.022942391481424712, 0.13939122930077608], [-0.27674911739568203, 0.09730719745121558]]",density,black,,,1301830,visual,1,[],"['1', '2', '3', '4']",1,2023.2.3,harveyvisual,2.1,[],8,0.75,
0,pause,0.4,None,None,None,0,75,75,75,,,,,,,,,,,,,1301830,visual,1,[],"['1', '2', '3', '4']",1,2023.2.3,harveyvisual,2.1,[],8,0.75,
7,dot,0.3,['dot'],['density'],white,0,76,76,76,,,29.000205993652344,28.720251083374023,29.020503997802734,dot,"[0.08, 0.06, 0.08, 0.06, 0.06, 0.06, 0.1]","[[-0.4260259763687212, 0.0015611622021723967], [-0.003169876971998007, 0.13415651360788267], [-0.2586764037849864, 0.4417783913692737], [-0.4397986643511286, 0.306274470342183], [-0.0069778791964768315, 0.3653924841843964], [-0.25662591460159173, 0.21046748777052526], [-0.17930648864359452, 0.007725268650954965]]",density,white,,,1301830,visual,1,[],"['1', '2', '3', '4']",1,2023.2.3,harveyvisual,2.1,[],8,0.75,
0,pause,0.4,None,None,None,0,77,77,77,,,,,,,,,,,1,29.082767009735107,1301830,visual,1,[],"['1', '2', '3', '4']",1,2023.2.3,harveyvisual,2.1,[],8,0.75,
7,dot,0.3,['dot'],['density'],black,0,78,78,78,,,29.7002170085907,29.42023992538452,29.720232009887695,dot,"[0.06, 0.06, 0.08, 0.08, 0.1, 0.1, 0.1]","[[-0.3423230189937584, -0.41219609722212536], [-0.1182323968952694, -0.35552357509158045], [-0.4111032443031386, -0.006313161275750597], [-0.5095560862941229, -0.2529410328503813], [-0.2588176969072235, -0.18091026219072012], [-0.0026253510642934245, -0.12197054074907589], [-0.16586784627322051, 0.0941069694468023]]",density,black,,,1301830,visual,1,[],"['1', '2', '3', '4']",1,2023.2.3,harveyvisual,2.1,[],8,0.75,
0,pause,0.4,None,None,None,0,79,79,79,,,,,,,,,,,,,1301830,visual,1,[],"['1', '2', '3', '4']",1,2023.2.3,harveyvisual,2.1,[],8,0.75,
7,dot,0.3,['dot'],['density'],black,0,80,80,80,,,30.400203943252563,30.120260000228882,30.420244932174683,dot,"[0.06, 0.08, 0.06, 0.1, 0.1, 0.1, 0.08]","[[-0.39883248072855915, 0.30823732592088265], [-0.041341486549100435, 0.2390478988097413], [-0.013495537319202725, 0.5211111720540192], [-0.2415889716500472, 0.10795059447242317], [-0.023803066389735523, 0.02076064871433158], [0.14387498046506175, 0.3548008600093999], [-0.24331877599120405, 0.46521846842164205]]",density,black,,,1301830,visual,1,[],"['1', '2', '3', '4']",1,2023.2.3,harveyvisual,2.1,[],8,0.75,
0,pause,0.4,None,None,None,0,81,81,81,,,,,,,,,,,,,1301830,visual,1,[],"['1', '2', '3', '4']",1,2023.2.3,harveyvisual,2.1,[],8,0.75,
7,dot,0.3,['dot'],['density'],black,0,82,82,82,,,31.1002140045166,30.82033395767212,31.120182037353516,dot,"[0.08, 0.06, 0.06, 0.06, 0.08, 0.08, 0.06]","[[-0.2822174821233986, 0.002117056236134186], [-0.10673242512413421, 0.4781556216085482], [-0.18432519539246728, 0.19072201575640843], [-0.4524596318479574, 0.13966285650530724], [0.06907010423411483, 0.2912708813513049], [-0.07412436007020941, -0.021022205933558278], [-0.3208835015251209, 0.3986768431743725]]",density,black,,,1301830,visual,1,[],"['1', '2', '3', '4']",1,2023.2.3,harveyvisual,2.1,[],8,0.75,
0,pause,0.4,None,None,None,0,83,83,83,,,,,,,,,,,,,1301830,visual,1,[],"['1', '2', '3', '4']",1,2023.2.3,harveyvisual,2.1,[],8,0.75,
8,dot,0.3,['dot'],['density'],black,0,84,84,84,,,31.800200939178467,31.520198106765747,31.820173978805542,dot,"[0.08, 0.1, 0.1, 0.1, 0.08, 0.1, 0.06, 0.1]","[[-0.3167478768396544, -0.2124469325344782], [0.11150510454677101, -0.25361932254341324], [0.17657050060311263, -0.496926349220185], [0.20833757931744315, -0.0002320808252021913], [-0.0015234955214533466, 0.034722119540356526], [-0.10690598217119997, -0.19846612199298916], [0.32498422138424443, -0.23444872628509345], [-0.054741640541526956, -0.4230750989992696]]",density,black,,,1301830,visual,1,[],"['1', '2', '3', '4']",1,2023.2.3,harveyvisual,2.1,[],8,0.75,
0,pause,0.4,None,None,None,0,85,85,85,,,,,,,,,,,,,1301830,visual,1,[],"['1', '2', '3', '4']",1,2023.2.3,harveyvisual,2.1,[],8,0.75,
8,dot,0.3,['dot'],['density'],black,0,86,86,86,,,32.50020790100098,32.22019696235657,32.520183086395264,dot,"[0.06, 0.08, 0.06, 0.06, 0.1, 0.1, 0.1, 0.06]","[[0.29210958841889567, 0.026991922891258572], [0.03093533645276146, 0.3258936230244337], [-0.13014708308220477, 0.20110385145229231], [0.463805327987396, 0.2670013362689149], [0.17887675575806267, 0.48912385903522404], [0.2495142025194702, 0.28253247413027655], [0.03200252102949923, -0.1932501096446728], [0.04457092617056691, 0.07668709382136672]]",density,black,,,1301830,visual,1,[],"['1', '2', '3', '4']",1,2023.2.3,harveyvisual,2.1,[],8,0.75,
0,pause,0.4,None,None,None,0,87,87,87,,,,,,,,,,,,,1301830,visual,1,[],"['1', '2', '3', '4']",1,2023.2.3,harveyvisual,2.1,[],8,0.75,
8,dot,0.3,['dot'],['density'],black,0,88,88,88,,,33.20019602775574,32.920145988464355,33.22028398513794,dot,"[0.06, 0.1, 0.08, 0.06, 0.1, 0.08, 0.1, 0.08]","[[0.08034727882022866, 0.21485544138691295], [0.4485208087802622, -0.24912681836757106], [0.26129939989417056, 0.09257513963058502], [0.557413308755299, 0.1511846349250138], [0.2634990941728302, -0.1333032593777782], [0.3632073825345479, 0.269269938976799], [-0.13869722159995554, 0.017464377414806956], [0.4339652718412117, -0.009910074233595774]]",density,black,,,1301830,visual,1,[],"['1', '2', '3', '4']",1,2023.2.3,harveyvisual,2.1,[],8,0.75,
0,pause,0.4,None,None,None,0,89,89,89,,,,,,,,,,,,,1301830,visual,1,[],"['1', '2', '3', '4']",1,2023.2.3,harveyvisual,2.1,[],8,0.75,
8,dot,0.3,['dot'],['density'],black,0,90,90,90,,,33.900224924087524,33.62011909484863,33.920243978500366,dot,"[0.08, 0.06, 0.08, 0.1, 0.1, 0.06, 0.08, 0.1]","[[-0.13214754069031825, -0.5402677255150703], [0.1288984478000013, -0.5519726475135984], [0.27401725229332, -0.34994268047279037], [-0.052680844420756816, 0.006786609240531098], [0.03557367748195712, -0.3699094958310016], [-0.23170140006741713, -0.18198058676873416], [-0.33504621301322857, -0.3611685350886627], [0.0760940577115827, -0.14857148175569432]]",density,black,,,1301830,visual,1,[],"['1', '2', '3', '4']",1,2023.2.3,harveyvisual,2.1,[],8,0.75,
0,pause,0.4,None,None,None,0,91,91,91,,,,,,,,,,,,,1301830,visual,1,[],"['1', '2', '3', '4']",1,2023.2.3,harveyvisual,2.1,[],8,0.75,
8,dot,0.3,['dot'],['density'],black,0,92,92,92,,,34.60022711753845,34.32023096084595,34.62022089958191,dot,"[0.06, 0.1, 0.06, 0.06, 0.1, 0.08, 0.1, 0.08]","[[0.12411109391386341, -0.5343823995123961], [-0.21238427398525783, -0.3197389486612228], [-0.06551876445787266, 0.032183079599910736], [0.22034046694826517, 0.05676208929132721], [0.31747551588691986, -0.13046885784073625], [0.01834943727978222, -0.34316474661021057], [0.10776215616131694, -0.12386070969881222], [-0.2386971922539417, -0.09256206635527232]]",density,black,,,1301830,visual,1,[],"['1', '2', '3', '4']",1,2023.2.3,harveyvisual,2.1,[],8,0.75,
0,pause,0.4,None,None,None,0,93,93,93,,,,,,,,,,,,,1301830,visual,1,[],"['1', '2', '3', '4']",1,2023.2.3,harveyvisual,2.1,[],8,0.75,
8,dot,0.3,['dot'],['density'],black,0,94,94,94,,,35.300215005874634,35.020087003707886,35.32020688056946,dot,"[0.1, 0.1, 0.1, 0.06, 0.06, 0.06, 0.08, 0.1]","[[0.32983457944800887, -0.09988122376634187], [0.002544499336209532, 0.05447162498302279], [0.49322357980250997, 0.04173156098678792], [0.3398992085464782, -0.3241559212022164], [0.12656458423521935, -0.36323236959635974], [0.5072737450674915, -0.19500703868861743], [0.06482113683766944, -0.1422911224505784], [0.25865538318477954, 0.20042726536108785]]",density,black,,,1301830,visual,1,[],"['1', '2', '3', '4']",1,2023.2.3,harveyvisual,2.1,[],8,0.75,
0,pause,0.4,None,None,None,0,95,95,95,,,,,,,,,,,,,1301830,visual,1,[],"['1', '2', '3', '4']",1,2023.2.3,harveyvisual,2.1,[],8,0.75,
9,dot,0.3,['dot'],['density'],black,0,96,96,96,,,36.00020408630371,35.72020506858826,36.02008295059204,dot,"[0.06, 0.1, 0.1, 0.08, 0.1, 0.1, 0.1, 0.06, 0.1]","[[-0.05049485011715354, 0.3013521193238899], [0.15354596755057998, 0.36785015051376163], [0.22995749783639982, 0.07309138415424772], [0.13460311710395165, -0.18603378415368982], [0.33097739113381164, -0.13822260855557728], [-0.16464148731134703, 0.07190493829483618], [0.521154897315396, -0.007803673430992942], [0.02684304494395013, 0.0018704401699241912], [-0.15545279255173522, -0.15329938800760382]]",density,black,,,1301830,visual,1,[],"['1', '2', '3', '4']",1,2023.2.3,harveyvisual,2.1,[],8,0.75,
0,pause,0.4,None,None,None,0,97,97,97,,,,,,,,,,,,,1301830,visual,1,[],"['1', '2', '3', '4']",1,2023.2.3,harveyvisual,2.1,[],8,0.75,
9,dot,0.3,['dot'],['density'],black,0,98,98,98,,,36.70021605491638,36.42018008232117,36.72017002105713,dot,"[0.06, 0.08, 0.08, 0.06, 0.06, 0.08, 0.06, 0.06, 0.1]","[[-0.39546702852536103, 0.05887767166707298], [0.0019437857506851024, 0.07006750722115952], [0.08809400946991845, -0.15083790972035777], [-0.35358057288562594, -0.14123029179452673], [-0.18893042820243505, -0.004761820558363635], [-0.16054322822148615, -0.2701644482013472], [-0.3593088451216199, 0.2649120528395154], [-0.09346394646241396, -0.4621051997984888], [-0.5526246027455071, -0.11781718335669726]]",density,black,,,1301830,visual,1,[],"['1', '2', '3', '4']",1,2023.2.3,harveyvisual,2.1,[],8,0.75,
0,pause,0.4,None,None,None,0,99,99,99,,,,,,,,,,,,,1301830,visual,1,[],"['1', '2', '3', '4']",1,2023.2.3,harveyvisual,2.1,[],8,0.75,
9,dot,0.3,['dot'],['density'],black,0,100,100,100,,,37.400213956832886,37.12003207206726,37.41998791694641,dot,"[0.1, 0.08, 0.1, 0.08, 0.06, 0.08, 0.06, 0.06, 0.08]","[[0.5176022259896301, 0.07013652950073157], [0.29073914382076843, 0.49095716113391286], [0.25755010907869064, 0.10321661572421419], [0.11549350267606502, 0.37871636325142816], [-0.040248060121338324, 0.07603447111469516], [0.35733910828644905, -0.07238149579930037], [0.09184169877402729, -0.10424630849328012], [-0.10934901156313583, -0.14911132891814113], [0.4158094160330474, 0.26019999263529187]]",density,black,,,1301830,visual,1,[],"['1', '2', '3', '4']",1,2023.2.3,harveyvisual,2.1,[],8,0.75,
0,pause,0.4,None,None,None,0,101,101,101,,,,,,,,,,,,,1301830,visual,1,[],"['1', '2', '3', '4']",1,2023.2.3,harveyvisual,2.1,[],8,0.75,
9,dot,0.3,['dot'],['density'],white,0,102,102,102,,,38.100220918655396,37.81998610496521,38.119982957839966,dot,"[0.1, 0.08, 0.1, 0.06, 0.08, 0.06, 0.08, 0.08, 0.1]","[[-0.06218673389315922, -0.4689115343027075], [0.3660477402554353, -0.15396192139437054], [0.1401329754895462, -0.14262156541192547], [0.12293598154832706, -0.38779640022673934], [0.42645158233284447, -0.3607859009111275], [-0.06238477126329685, -0.2564764349502154], [-0.2584688277182379, -0.29964401945706215], [-0.11312192996032899, -0.05439345917292958], [0.19096873654163896, 0.1321853744035435]]",density,white,,,1301830,visual,1,[],"['1', '2', '3', '4']",1,2023.2.3,harveyvisual,2.1,[],8,0.75,
0,pause,0.4,None,None,None,0,103,103,103,,,,,,,,,,,1,38.22872018814087,1301830,visual,1,[],"['1', '2', '3', '4']",1,2023.2.3,harveyvisual,2.1,[],8,0.75,
9,dot,0.3,['dot'],['density'],black,0,104,104,104,,,38.80020189285278,38.5199670791626,38.81995606422424,dot,"[0.1, 0.06, 0.08, 0.06, 0.08, 0.06, 0.08, 0.08, 0.08]","[[0.5571797577834091, 0.07732674165650813], [0.16332656704353227, -0.09331314560094064], [0.4138178119161903, 0.3925230053806507], [0.28711316854655766, 0.07147022394212545], [0.052100496024031176, 0.3810199549023822], [0.2172039135420496, 0.26337040755706287], [-0.2646845915772586, 0.12849707234668142], [0.21844181080216274, 0.4926952285236599], [0.0761275456309072, 0.11718001140956479]]",density,black,,,1301830,visual,1,[],"['1', '2', '3', '4']",1,2023.2.3,harveyvisual,2.1,[],8,0.75,
0,pause,0.4,None,None,None,0,105,105,105,,,,,,,,,,,,,1301830,visual,1,[],"['1', '2', '3', '4']",1,2023.2.3,harveyvisual,2.1,[],8,0.75,
9,dot,0.3,['dot'],['density'],black,0,106,106,106,,,39.50022506713867,39.21994996070862,39.519984006881714,dot,"[0.06, 0.1, 0.1, 0.06, 0.06, 0.06, 0.08, 0.06, 0.1]","[[0.23250081832313607, -0.03448075506690146], [0.3034476098774822, 0.1830296703973891], [-0.18904104685434053, 0.18833284185042862], [0.2553794676357457, 0.5314352583170906], [0.16363099535363254, 0.3461022642192175], [-0.0841935017478271, 0.3664174397160571], [-0.26748786402911323, -0.05736109653727262], [0.043842773669028334, 0.577246673499167], [0.02102957219118283, 0.0979254794926055]]",density,black,,,1301830,visual,1,[],"['1', '2', '3', '4']",1,2023.2.3,harveyvisual,2.1,[],8,0.75,
0,pause,0.4,None,None,None,0,107,107,107,,,,,,,,,,,,,1301830,visual,1,[],"['1', '2', '3', '4']",1,2023.2.3,harveyvisual,2.1,[],8,0.75,
20,dot,0.3,['dot'],['density'],black,0,108,108,108,,,40.20020008087158,39.920084953308105,40.21995806694031,dot,"[0.06, 0.1, 0.08, 0.06, 0.1, 0.1, 0.06, 0.1, 0.1, 0.08, 0.1, 0.06, 0.1, 0.06, 0.06, 0.1, 0.08, 0.1, 0.1, 0.08]","[[-0.46117487098733445, -0.2922824444388916], [0.1724989876067794, -0.10583466514567114], [0.5824425817853472, 0.03400719372911157], [-0.23564490675606448, 0.5198869524242046], [-0.28413296128090004, -0.18164548478427045], [-0.5805298441406149, 0.14325172191463503], [0.5621422437046638, -0.155687840828348], [-0.2194525698969823, -0.43800992719782006], [-0.14582667534444044, 0.3057878434746494], [-0.33221259855540713, 0.21923536338127814], [0.14835128451278856, 0.3610855354557059], [-0.040802475690954854, -0.5162794049309638], [0.25946012056727763, -0.4071107113861755], [-0.36759833637101946, 0.008514990316472792], [0.03133419512028468, -0.34041087398559594], [0.022332807442656977, 0.09800882966414148], [0.3483541023856823, -0.21118252628558787], [0.35731311101134433, 0.34259499918679837], [0.3524800411172433, 0.09006750077943343], [-0.5507287655566903, -0.050694939080530355]]",density,black,,,1301830,visual,1,[],"['1', '2', '3', '4']",1,2023.2.3,harveyvisual,2.1,[],8,0.75,
0,pause,0.4,None,None,None,0,109,109,109,,,,,,,,,,,,,1301830,visual,1,[],"['1', '2', '3', '4']",1,2023.2.3,harveyvisual,2.1,[],8,0.75,
20,dot,0.3,['dot'],['density'],black,0,110,110,110,,,40.90020990371704,40.620105028152466,40.91992211341858,dot,"[0.1, 0.06, 0.1, 0.1, 0.1, 0.1, 0.06, 0.06, 0.08, 0.08, 0.1, 0.1, 0.06, 0.08, 0.08, 0.06, 0.1, 0.1, 0.06, 0.1]","[[0.42691083379631245, 0.3046316709584142], [-0.012507216799772958, -0.17972392205237459], [-0.069728200989151, 0.26880920745911974], [0.2121965582519343, 0.4906328749174803], [0.5786568650684575, -0.14823852293861992], [-0.1879139498557444, 0.5198043957890057], [0.25045369132685347, -0.17545646587035407], [0.2958076042334583, 0.14902860169033427], [-0.5250945946114465, -0.04275816792157089], [-0.48740315035852594, 0.17145007273723345], [-0.3736364588320562, 0.3456355045622646], [-0.21407121481863123, -0.2333994233732743], [-0.2400292218798296, 0.10724142710095819], [-0.5196196498052669, -0.279821607716339], [0.16410595370277226, -0.4370833080214612], [0.02750103764462508, 0.5766291032238849], [-0.2900530751806721, -0.49351792603352057], [-0.0347134369998533, 0.06783312130113894], [0.5407622765946419, 0.11323634781203451], [0.41127966356131707, -0.32529272431590645]]",density,black,,,1301830,visual,1,[],"['1', '2', '3', '4']",1,2023.2.3,harveyvisual,2.1,[],8,0.75,
0,pause,0.4,None,None,None,0,111,111,111,,,,,,,,,,,,,1301830,visual,1,[],"['1', '2', '3', '4']",1,2023.2.3,harveyvisual,2.1,[],8,0.75,
20,dot,0.3,['dot'],['density'],black,0,112,112,112,,,41.60022306442261,41.32009196281433,41.62013792991638,dot,"[0.08, 0.1, 0.08, 0.1, 0.1, 0.08, 0.08, 0.1, 0.06, 0.08, 0.06, 0.08, 0.06, 0.08, 0.06, 0.1, 0.06, 0.1, 0.08, 0.08]","[[0.5184494788704778, -0.26997461078517937], [-0.13231114000509647, -0.4115672865201821], [0.134248860396736, -0.5627261358667387], [-0.5032058984167699, -0.16932132844384953], [0.4415691429346228, 0.041361897386403224], [-0.3146736423910268, 0.02721459939669646], [-0.5545154486763704, 0.20413573579235558], [-0.01100184011675065, 0.22396824530921555], [-0.12399905456759036, -0.04494175792532451], [0.17827837094209253, 0.2962668889590655], [0.502489282794841, 0.282293247361359], [-0.4046861946836356, 0.3302027810231653], [0.1499617518109474, 0.5278611856137023], [-0.1432202495111266, 0.574271103455948], [0.219664478908985, -0.22975737060278323], [0.2238238239314605, 0.1099996397952907], [-0.19244606475427395, 0.29799223705452593], [-0.6045871497190606, 0.002245903474064004], [0.37755984136476795, -0.44078047054247926], [-0.3042865715745888, -0.2991778095957959]]",density,black,,,1301830,visual,1,[],"['1', '2', '3', '4']",1,2023.2.3,harveyvisual,2.1,[],8,0.75,
0,pause,0.4,None,None,None,0,113,113,113,,,,,,,,,,,,,1301830,visual,1,[],"['1', '2', '3', '4']",1,2023.2.3,harveyvisual,2.1,[],8,0.75,
20,dot,0.3,['dot'],['density'],black,0,114,114,114,,,42.30020594596863,42.02009606361389,42.32013511657715,dot,"[0.1, 0.08, 0.1, 0.08, 0.1, 0.06, 0.1, 0.06, 0.1, 0.06, 0.1, 0.1, 0.06, 0.1, 0.1, 0.08, 0.08, 0.1, 0.08, 0.08]","[[0.3664492850647153, 0.45864813539597793], [0.5506945099673753, -0.19181046979282734], [-0.11918504850565648, -0.2229213384273776], [-0.567805905906668, -0.08165364365672348], [0.1441833894665473, 0.014056812129364937], [-0.41686663161086646, 0.3228713235127994], [0.20842139730752163, -0.34658551175720564], [0.08975814827579731, 0.45542185600808094], [0.4151745694898875, 0.13968833944988118], [-0.19531843386876224, -0.46120626204418613], [-0.10949209091171869, 0.4139961832140763], [0.20919307538322962, -0.5644003380071686], [-0.39102134729763977, -0.3342587091067454], [-0.3284773211358955, -0.0074661855460447235], [-0.5554601293280486, 0.19269272344112637], [0.5874109858568305, 0.04867031793748819], [-0.06934422164983689, 0.6004346969175669], [-0.025524854076898085, -0.5806767771136813], [0.39898134866277146, -0.4534903185871174], [0.5001652639114694, 0.31472738636289516]]",density,black,,,1301830,visual,1,[],"['1', '2', '3', '4']",1,2023.2.3,harveyvisual,2.1,[],8,0.75,
0,pause,0.4,None,None,None,0,115,115,115,,,,,,,,,,,,,1301830,visual,1,[],"['1', '2', '3', '4']",1,2023.2.3,harveyvisual,2.1,[],8,0.75,
20,dot,0.3,['dot'],['density'],black,0,116,116,116,,,43.00019907951355,42.72015595436096,43.020143032073975,dot,"[0.1, 0.06, 0.1, 0.08, 0.1, 0.1, 0.08, 0.08, 0.1, 0.06, 0.08, 0.08, 0.06, 0.08, 0.08, 0.1, 0.06, 0.1, 0.06, 0.06]","[[0.12489496460573168, 0.30304119073595936], [-0.5197117068547543, -0.0509547399904286], [-0.21246237324138995, -0.37945440055795154], [-0.2935433564732773, 0.12013950393782358], [0.31959076103099127, 0.2586420851375445], [0.20462499495402853, 0.5469796360216704], [0.5483874604898319, 0.1858400520038958], [-0.5226798712339978, 0.3018895030072044], [0.15558425632030026, -0.23627856589593388], [-0.06821089224274379, 0.23120669784903047], [0.5649798820353616, -0.21246007672261094], [-0.22904436496337294, 0.5496363935749939], [0.22237579957835507, -0.5460367606211363], [-0.05464028347227101, -0.03772253872912179], [-0.5106592420084026, -0.27784484147352184], [0.5059877189352794, -0.015199395460257337], [-0.2640163737256566, 0.3446332939428024], [0.26551235650032345, 0.059706752342154834], [0.028242183437647395, -0.40256278231108417], [0.35096006760280096, -0.146168375343106]]",density,black,,,1301830,visual,1,[],"['1', '2', '3', '4']",1,2023.2.3,harveyvisual,2.1,[],8,0.75,
0,pause,0.4,None,None,None,0,117,117,117,,,,,,,,,,,,,1301830,visual,1,[],"['1', '2', '3', '4']",1,2023.2.3,harveyvisual,2.1,[],8,0.75,
20,dot,0.3,['dot'],['density'],white,0,118,118,118,,,43.70021605491638,43.419848918914795,43.7198269367218,dot,"[0.1, 0.08, 0.1, 0.08, 0.1, 0.1, 0.06, 0.08, 0.08, 0.08, 0.08, 0.06, 0.08, 0.08, 0.1, 0.1, 0.06, 0.06, 0.1, 0.1]","[[-0.4892145571448838, 0.23478034392615754], [-0.09417520213715469, -0.5319388994760799], [0.5721113960238634, -0.03205476812549493], [0.17294896666839676, -0.5298958373885226], [0.30766760518463265, 0.48055218716249704], [0.17873284877964724, -0.3219896993362857], [0.41986588956116344, -0.33953637442958623], [0.2582603599508121, 0.16762950122991616], [-0.28318378914619513, -0.21721683140310033], [0.21674715609935769, -0.018184739660695337], [-0.07099801133553074, 0.27534022297441074], [-0.19786640930125726, 0.4376280509150705], [0.5333503638029039, 0.25888908676970795], [-0.28595511368970933, 0.19468408269337667], [-0.27280490664841184, 0.0056234683692414356], [-0.5973634737661734, 0.06828678726523833], [-0.5733734723007713, -0.1573152737653618], [0.12761376258624968, 0.39543906228201986], [-0.03423876616873245, 0.07446629857315623], [-0.4548113471030418, -0.3905775099188215]]",density,white,,,1301830,visual,1,[],"['1', '2', '3', '4']",1,2023.2.3,harveyvisual,2.1,[],8,0.75,
0,pause,0.4,None,None,None,0,119,119,119,,,,,,,,,,,1,43.82240009307861,1301830,visual,1,[],"['1', '2', '3', '4']",1,2023.2.3,harveyvisual,2.1,[],8,0.75,
20,dot,0.3,['dot'],['density'],black,0,120,120,120,,,44.40020799636841,44.11981511116028,44.419820070266724,dot,"[0.06, 0.1, 0.08, 0.08, 0.06, 0.06, 0.06, 0.08, 0.1, 0.06, 0.08, 0.08, 0.1, 0.06, 0.06, 0.08, 0.06, 0.08, 0.06, 0.06]","[[-0.43148381208111297, 0.3398814925090447], [-0.26986377777679443, -0.43221827175461813], [0.15891983027272394, -0.33961822625041815], [0.2150123473157518, 0.059871942396524824], [0.3334687787332423, -0.47180677846027713], [-0.10177685646960721, -0.1276043887999876], [-0.4017858440004589, -0.22723662067037967], [-0.15068650818427143, 0.47241953746271137], [-0.0690538683173606, -0.34025037095557326], [0.001319236624912179, 0.19844115676234841], [0.49860132611922314, 0.2054787455332699], [0.5731311728209062, -0.04133342843285864], [-0.5935414108003536, 0.056129586953149485], [0.11276174395242122, 0.5928047349351879], [-0.36460411982595753, 0.12285803909847459], [0.38000419258383367, -0.2556957230819405], [0.2559645100529251, 0.3890585006890328], [-0.5755934518488633, -0.14230369315679606], [-0.17643485754540061, 0.06479279463277432], [0.09033283404941916, -0.13971700154961286]]",density,black,,,1301830,visual,1,[],"['1', '2', '3', '4']",1,2023.2.3,harveyvisual,2.1,[],8,0.75,
0,pause,0.4,None,None,None,0,121,121,121,,,,,,,,,,,,,1301830,visual,1,[],"['1', '2', '3', '4']",1,2023.2.3,harveyvisual,2.1,[],8,0.75,
20,dot,0.3,['dot'],['density'],black,0,122,122,122,,,45.10020899772644,44.81980299949646,45.119786977767944,dot,"[0.08, 0.08, 0.1, 0.1, 0.06, 0.06, 0.1, 0.1, 0.1, 0.06, 0.06, 0.08, 0.1, 0.06, 0.1, 0.08, 0.1, 0.1, 0.08, 0.06]","[[0.04230049476226028, 0.4850408284134692], [0.4543634840837104, -0.24081828785305492], [-0.20818702838517206, 0.49279764105007784], [0.1097961134585771, -0.5251840004729987], [0.19002828248089965, 0.24181683109398266], [-0.07639713282649574, -0.08655127370724824], [0.49615497923879903, 0.2797504422596577], [0.4302985221744472, -0.02618232461318254], [-0.420534406142888, -0.1664532965275643], [0.11714042488090726, -0.05213591938871687], [-0.3526596823542306, 0.012953021901581208], [0.2343580831997384, 0.5356498891757777], [-0.04922304475441164, 0.21293290008524002], [-0.49566521448619616, 0.24282511553963027], [0.14375928481475986, -0.25693951610128624], [-0.2148283573586801, -0.5000392683273835], [-0.45310323652401585, -0.39079926869319626], [-0.26215582109825486, -0.31620331658809414], [-0.5917841806023617, 0.05619110420691881], [0.33361760174342114, -0.4870051057031077]]",density,black,,,1301830,visual,1,[],"['1', '2', '3', '4']",1,2023.2.3,harveyvisual,2.1,[],8,0.75,
0,pause,0.4,None,None,None,0,123,123,123,,,,,,,,,,,,,1301830,visual,1,[],"['1', '2', '3', '4']",1,2023.2.3,harveyvisual,2.1,[],8,0.75,
20,dot,0.3,['dot'],['density'],black,0,124,124,124,,,45.80020594596863,45.519766092300415,45.819758892059326,dot,"[0.1, 0.1, 0.06, 0.08, 0.1, 0.06, 0.1, 0.06, 0.06, 0.06, 0.06, 0.08, 0.1, 0.08, 0.1, 0.08, 0.1, 0.06, 0.1, 0.06]","[[-0.4402164011570052, -0.07138464214952173], [-0.253738977695871, 0.21918814390015984], [0.18447442892301336, -0.07515978901456899], [0.46459774219591654, -0.017004757973204776], [0.13333098023413337, 0.1717230663007112], [-0.3168316537395969, 0.5093278543274578], [-0.5619014272249586, 0.22216049306340155], [0.5464302038974126, -0.22628149880889215], [0.06304117387699082, 0.5426518381179569], [0.34837613406469137, -0.4032300421683025], [0.5089202510077736, 0.2963012974144621], [-0.18143382360578775, -0.15755373191565597], [0.33297741474124776, 0.4667491403866041], [-0.04082143783689107, -0.32076186406466534], [0.18601920265977234, -0.30502958177809836], [-0.1034332918254075, 0.4457058582075035], [0.18123082392925738, -0.5433915913450995], [0.16122922276361218, 0.37163357312378853], [-0.40170636195976583, -0.34739100634081865], [-0.17369110486198264, -0.5697362343991189]]",density,black,,,1301830,visual,1,[],"['1', '2', '3', '4']",1,2023.2.3,harveyvisual,2.1,[],8,0.75,
0,pause,0.4,None,None,None,0,125,125,125,,,,,,,,,,,,,1301830,visual,1,[],"['1', '2', '3', '4']",1,2023.2.3,harveyvisual,2.1,[],8,0.75,
20,dot,0.3,['dot'],['density'],white,0,126,126,126,,,46.50019907951355,46.21980309486389,46.51975107192993,dot,"[0.06, 0.08, 0.08, 0.06, 0.06, 0.06, 0.06, 0.1, 0.1, 0.08, 0.1, 0.08, 0.06, 0.06, 0.08, 0.1, 0.1, 0.1, 0.08, 0.08]","[[-0.14947313486220365, -0.044204615452159035], [-0.33841575387596035, -0.02405922811598382], [-0.0009665876954723096, -0.4290600646056585], [-0.5393237443361449, 0.049789655426666746], [0.27754691358543415, -0.36765000450845586], [-0.03614320069738719, 0.15872650880658756], [0.5820663576145787, -0.0672257060862799], [0.5926733666677301, 0.12287021583512492], [-0.2740488275875974, 0.3063029627817013], [-0.21456940071493458, 0.5129489177265715], [-0.3735624468338786, -0.40897697006891864], [0.2105544032041976, 0.3682272308112575], [-0.0012290913207348986, 0.5241275236183962], [-0.19552999114915243, -0.5059474982189363], [0.04534608653711514, -0.14746524798670618], [0.379940574343575, 0.09018123834890596], [0.4164094347038664, 0.291907494693346], [0.393371293752245, -0.11921469031043613], [-0.5300767848682412, -0.2673876947205719], [-0.48143263871110803, 0.2664890551473525]]",density,white,,,1301830,visual,1,[],"['1', '2', '3', '4']",1,2023.2.3,harveyvisual,2.1,[],8,0.75,
0,pause,0.4,None,None,None,0,127,127,127,,,,,,,,,,,1,46.68877410888672,1301830,visual,1,[],"['1', '2', '3', '4']",1,2023.2.3,harveyvisual,2.1,[],8,0.75,
20,dot,0.3,['dot'],['density'],black,0,128,128,128,,,47.2002010345459,46.919800996780396,47.21975493431091,dot,"[0.1, 0.08, 0.08, 0.06, 0.08, 0.1, 0.08, 0.1, 0.06, 0.06, 0.1, 0.08, 0.06, 0.06, 0.08, 0.08, 0.06, 0.06, 0.08, 0.08]","[[-0.37965252755468026, 0.29250593627985744], [-0.09645132762278852, 0.4954241171238757], [0.01209208802337125, -0.2970649274853193], [-0.5367131107675056, 0.182397628690107], [-0.2988615681493765, -0.18143470082283242], [-0.3928157733016927, -0.45317280176014113], [0.31840589571797007, 0.2734429667878243], [-0.5087332069293067, -0.14106916948258233], [0.20756028965596818, 0.5179685989476199], [-0.1313301124469342, 0.1023285193543011], [0.20353089912057742, 0.05685719989825888], [0.43161711036938055, -0.21705390425307658], [0.2808068657769951, -0.3651981275894437], [-0.34584133677747764, 0.03790061610980794], [0.5814524239644453, 0.12716704062858958], [-0.1460657552137939, 0.3018516179560019], [0.5856175061097427, -0.06758234581370948], [0.03762764044509037, -0.5740233121342717], [-0.03135328961069672, -0.09209806126436981], [-0.19641550753641868, -0.3834393681225406]]",density,black,,,1301830,visual,1,[],"['1', '2', '3', '4']",1,2023.2.3,harveyvisual,2.1,[],8,0.75,
0,pause,0.4,None,None,None,0,129,129,129,,,,,,,,,,,,,1301830,visual,1,[],"['1', '2', '3', '4']",1,2023.2.3,harveyvisual,2.1,[],8,0.75,
20,dot,0.3,['dot'],['density'],black,0,130,130,130,,,47.900208950042725,47.61977195739746,47.91975808143616,dot,"[0.06, 0.1, 0.06, 0.08, 0.08, 0.08, 0.1, 0.08, 0.08, 0.08, 0.06, 0.06, 0.06, 0.08, 0.1, 0.1, 0.08, 0.08, 0.08, 0.1]","[[-0.29617766390199396, -0.12500745781807077], [-0.5225529209618616, -0.02939155698157092], [-0.2472143751101452, 0.23786524278820576], [0.4216813480766467, 0.022308157465746714], [0.43842882331210775, -0.4111195029248369], [-0.13211534358064914, 0.42748350197266793], [0.18389613419306516, 0.5149111433062442], [0.038680197077265, 0.12621931962437405], [0.47242332781947016, 0.32783498256616755], [-0.5056659288156121, 0.18698902287134683], [0.5896453646079668, 0.12093599757716564], [0.17278573872186698, 0.2786605594461118], [-0.027081096705301566, -0.20517311699706237], [0.15367382157978104, -0.3587492860669672], [-0.5063245277475782, -0.2944645300001266], [-0.24488253806016408, -0.4060142832910005], [-0.06479243930307099, -0.4880075598412362], [0.5974119826932923, -0.09338829094742795], [0.28312004847177086, -0.21227605438790037], [0.19285542327113325, 0.015338147858328766]]",density,black,,,1301830,visual,1,[],"['1', '2', '3', '4']",1,2023.2.3,harveyvisual,2.1,[],8,0.75,
0,pause,0.4,None,None,None,0,131,131,131,,,,,,,,,,,,,1301830,visual,1,[],"['1', '2', '3', '4']",1,2023.2.3,harveyvisual,2.1,[],8,0.75,
20,dot,0.3,['dot'],['density'],black,0,132,132,132,,,48.60021495819092,48.31978106498718,48.6197669506073,dot,"[0.08, 0.08, 0.06, 0.06, 0.06, 0.08, 0.06, 0.06, 0.1, 0.08, 0.1, 0.08, 0.08, 0.1, 0.06, 0.08, 0.1, 0.08, 0.1, 0.1]","[[0.17971159390386493, 0.14277852327419194], [0.5084974805705195, -0.13329698462897918], [-0.26883962390810195, -0.47856423440782714], [-0.60016271309345, 0.027023554168348105], [0.3999744016434569, 0.44583884446275446], [-0.039725892381398564, 0.07032172229417566], [0.36959227037161246, 0.1274099301719459], [-0.08126662293137488, 0.29629954282044235], [-0.02065211342138018, -0.46145245823007286], [0.21721452946999675, 0.33784970351808274], [-0.05550772368865631, -0.20800660714785885], [-0.07390292948901911, 0.5172825934298702], [0.15317720786709155, -0.25284985823497613], [-0.5310276983831035, -0.19632175481784592], [-0.4052545419543454, 0.3826143923684325], [0.3424912151704116, -0.48928338489987216], [-0.3426615739253052, -0.3004076372619673], [-0.49783400413539697, 0.1895612605538094], [0.5895407365284514, 0.08644059329692527], [-0.3451966522814832, -0.008577458314120934]]",density,black,,,1301830,visual,1,[],"['1', '2', '3', '4']",1,2023.2.3,harveyvisual,2.1,[],8,0.75,
0,pause,0.4,None,None,None,0,133,133,133,,,,,,,,,,,,,1301830,visual,1,[],"['1', '2', '3', '4']",1,2023.2.3,harveyvisual,2.1,[],8,0.75,
20,dot,0.3,['dot'],['density'],black,0,134,134,134,,,49.30019998550415,49.01976299285889,49.3197500705719,dot,"[0.06, 0.08, 0.06, 0.06, 0.1, 0.08, 0.08, 0.06, 0.1, 0.1, 0.06, 0.08, 0.06, 0.06, 0.1, 0.08, 0.08, 0.08, 0.06, 0.08]","[[-0.3831093713419137, -0.07410138115680653], [-0.11551237251952112, -0.4082545313577155], [0.15992914277821102, -0.35559678030001574], [-0.42895396609740777, 0.19859487963983147], [0.34944929648781875, 0.31215901967366266], [0.08282565406433162, -0.12378622429626346], [0.1427410347685245, 0.3553460422900615], [0.3601482162509966, -0.33868803988712703], [0.5389868869647391, -0.27357887449133933], [0.25135105811745917, -0.017989514493610637], [0.006085334184679492, 0.05686455536701851], [-0.2992545584321997, 0.4095190141874939], [0.5903743775177196, -0.008073998259496534], [-0.39236003929842134, -0.3947994779653921], [0.0155674468874617, 0.5549945490254189], [-0.5015338869521362, -0.23947566128408126], [-0.6044938779543877, -0.01510907886878457], [-0.18438932800767938, 0.01446212696892879], [0.412558299460693, 0.08988313922125202], [-0.21369299299756905, 0.20374733779657295]]",density,black,,,1301830,visual,1,[],"['1', '2', '3', '4']",1,2023.2.3,harveyvisual,2.1,[],8,0.75,
0,pause,0.4,None,None,None,0,135,135,135,,,,,,,,,,,,,1301830,visual,1,[],"['1', '2', '3', '4']",1,2023.2.3,harveyvisual,2.1,[],8,0.75,
20,dot,0.3,['dot'],['density'],black,0,136,136,136,,,50.00020694732666,49.719743967056274,50.01973795890808,dot,"[0.08, 0.08, 0.08, 0.06, 0.06, 0.06, 0.06, 0.1, 0.08, 0.08, 0.08, 0.08, 0.06, 0.1, 0.08, 0.1, 0.06, 0.08, 0.06, 0.08]","[[-0.5669427356369217, 0.11702848878171784], [0.2563773551281058, 0.3728133159040077], [0.5711392577333153, 0.0534321355262104], [-0.29213883863660367, -0.127907044014548], [-0.3520961466093091, 0.1987061091184985], [-0.09411606183357035, -0.516398136988739], [-0.46957744775683574, 0.3794571319745764], [0.2855522680109569, 0.044914011156660494], [0.055838142012046954, -0.07141099433614961], [0.38134173894770274, -0.3321732817288344], [0.20187853497755381, -0.5095935702565472], [-0.5058616295066458, -0.22460009765737432], [0.16659296990675188, -0.27959333452920176], [-0.2738496871958962, 0.4018850113920487], [-0.33759129952593425, -0.3628082103879299], [-0.04901365086087772, 0.09763113637682841], [0.07897400921378928, 0.24044325089956609], [0.460000440345088, 0.24326299037479826], [-0.052508122748261, 0.542156935362889], [0.46227962737548356, -0.11975168221237337]]",density,black,,,1301830,visual,1,[],"['1', '2', '3', '4']",1,2023.2.3,harveyvisual,2.1,[],8,0.75,
0,pause,0.4,None,None,None,0,137,137,137,,,,,,,,,,,,,1301830,visual,1,[],"['1', '2', '3', '4']",1,2023.2.3,harveyvisual,2.1,[],8,0.75,
20,dot,0.3,['dot'],['density'],black,0,138,138,138,,,50.70022201538086,50.41966009140015,50.719680070877075,dot,"[0.1, 0.08, 0.08, 0.1, 0.08, 0.06, 0.06, 0.08, 0.08, 0.1, 0.1, 0.08, 0.1, 0.1, 0.1, 0.1, 0.1, 0.1, 0.08, 0.06]","[[0.5382034651816939, -0.05081079567167007], [-0.58223331373792, 0.1191785734736161], [-0.1199023718334441, 0.09427453469947822], [0.03812911562347476, -0.4061124517191552], [-0.538490114846484, -0.0978046548404426], [0.11176160917447986, -0.14508710574946126], [-0.14018615372094018, -0.30121539052343693], [0.35835042918924986, -0.4755271042983917], [0.259964776561073, 0.21309369785803056], [0.3298681665294907, 0.5059920768309895], [0.4668690680432809, 0.2876049350772747], [-0.2834583862866079, -0.4948793229674023], [-0.4360136489692794, 0.3643230424057161], [0.04390325727623923, 0.4511033012270974], [-0.10553099537167387, 0.29971838002614737], [-0.3811918778660807, -0.28388695702116407], [0.06461761907921659, -0.6006665314784071], [-0.35622442393250486, 0.056644058969628486], [0.1722087315593126, 0.03738471994905124], [-0.1960711596211906, 0.5346608745199546]]",density,black,,,1301830,visual,1,[],"['1', '2', '3', '4']",1,2023.2.3,harveyvisual,2.1,[],8,0.75,
0,pause,0.4,None,None,None,0,139,139,139,,,,,,,,,,,,,1301830,visual,1,[],"['1', '2', '3', '4']",1,2023.2.3,harveyvisual,2.1,[],8,0.75,
20,dot,0.3,['dot'],['density'],black,0,140,140,140,,,51.40019989013672,51.119678020477295,51.41967010498047,dot,"[0.06, 0.1, 0.1, 0.1, 0.06, 0.08, 0.08, 0.06, 0.06, 0.1, 0.08, 0.08, 0.08, 0.08, 0.08, 0.1, 0.08, 0.06, 0.1, 0.06]","[[0.29279259740403096, 0.5029908464322166], [-0.5797266167573383, -0.016190984583406953], [0.20660941192690607, 0.18690894336673503], [0.3447704818153897, -0.35901782709360325], [-0.06163712558513201, 0.3000471984888077], [0.5550253418023184, -0.09503898559617091], [0.20039145783349055, -0.1982595777256692], [0.42218721795851055, 0.13961962738889272], [-0.021504673444001088, -0.41765732771532726], [-0.19141670609270695, -0.3156125798359076], [-0.12767789323292078, 0.5038759546722681], [-0.3635004480089873, 0.4739756287654828], [-0.40474800612978135, 0.15589498721507344], [0.48518711424763017, 0.3479770436900284], [-0.12584664542753266, -0.5787013379269224], [-0.18679519631765384, -0.0685477071482764], [-0.3884956570648096, -0.32492693162613595], [-0.03282776224853745, 0.09640667727435925], [0.12511373381829272, 0.3620001806996441], [0.25482391536578497, -0.5432090297352251]]",density,black,,,1301830,visual,1,[],"['1', '2', '3', '4']",1,2023.2.3,harveyvisual,2.1,[],8,0.75,
0,pause,0.4,None,None,None,0,141,141,141,,,,,,,,,,,,,1301830,visual,1,[],"['1', '2', '3', '4']",1,2023.2.3,harveyvisual,2.1,[],8,0.75,
20,dot,0.3,['dot'],['density'],black,0,142,142,142,,,52.10022497177124,51.81965398788452,52.119653940200806,dot,"[0.1, 0.1, 0.08, 0.08, 0.1, 0.08, 0.08, 0.06, 0.08, 0.06, 0.06, 0.06, 0.06, 0.08, 0.1, 0.08, 0.08, 0.06, 0.06, 0.08]","[[-0.5734266109951381, -0.15605380469108357], [-0.25516158974098097, -0.40346244756962907], [0.4447961784805802, 0.19532569184136694], [0.5237133187670747, -0.2848197760757895], [0.03523705475648886, -0.39576199197582607], [-0.409220145027841, 0.36598738975855943], [0.23148973357390634, 0.39268089690762453], [-0.5508883305547512, 0.05502837944227951], [0.31125893779146485, -0.5132681522397251], [-0.18819755647222858, 0.39773223972959604], [-0.2959895934324011, -0.036049420672902954], [0.5324490183614611, -0.050870592504349915], [0.14807500438078736, 0.04630073363832121], [-0.10791830845430439, 0.04477080222127683], [-0.18810945560451414, -0.1919660687522025], [0.0601143489050775, 0.5014055062826877], [0.016625536691954435, -0.6036004975529021], [-0.04130497656293275, 0.25122208224584985], [0.13465707925299553, -0.1745995603838396], [-0.47271043557076564, -0.3200351030170756]]",density,black,,,1301830,visual,1,[],"['1', '2', '3', '4']",1,2023.2.3,harveyvisual,2.1,[],8,0.75,
0,pause,0.4,None,None,None,0,143,143,143,,,,,,,,,,,,,1301830,visual,1,[],"['1', '2', '3', '4']",1,2023.2.3,harveyvisual,2.1,[],8,0.75,
20,dot,0.3,['dot'],['density'],black,0,144,144,144,,,52.80022096633911,52.51978397369385,52.81975793838501,dot,"[0.08, 0.06, 0.1, 0.08, 0.06, 0.06, 0.1, 0.08, 0.1, 0.1, 0.1, 0.08, 0.06, 0.08, 0.1, 0.1, 0.08, 0.06, 0.08, 0.08]","[[-0.4652165577207733, 0.3523907494649471], [-0.4628457045728058, 0.0033937639757212756], [0.3367000858332537, 0.0920901663249809], [-0.11635950230929326, 0.26387082872832124], [0.2374376872695274, -0.4249305557120253], [-0.1210277721703612, -0.2417378284493017], [0.31493270012632113, -0.10472435200529445], [-0.18526602672758352, 0.4513228102255059], [0.46990699638511113, 0.2386025008542012], [-0.2533905888189344, -0.016249318740022223], [-0.20013415196541484, -0.4804772086411873], [0.2381365127523597, 0.5316425279762115], [0.5207169437895055, -0.24284604184981584], [0.05479255770413072, 0.4257249512817435], [-0.3213722288088511, -0.2759754338179451], [0.1397880888567773, 0.09650468641367405], [0.5557539554802108, 0.01773631146427082], [0.09332098357261742, -0.23885812249533755], [-0.05999287685823562, 0.08203900893708227], [-0.5672689914257191, 0.16641601267615166]]",density,black,,,1301830,visual,1,[],"['1', '2', '3', '4']",1,2023.2.3,harveyvisual,2.1,[],8,0.75,
0,pause,0.4,None,None,None,0,145,145,145,,,,,,,,,,,,,1301830,visual,1,[],"['1', '2', '3', '4']",1,2023.2.3,harveyvisual,2.1,[],8,0.75,
20,dot,0.3,['dot'],['density'],black,0,146,146,146,,,53.50021290779114,53.2197630405426,53.519733905792236,dot,"[0.1, 0.1, 0.06, 0.1, 0.06, 0.08, 0.08, 0.06, 0.08, 0.1, 0.08, 0.06, 0.06, 0.06, 0.08, 0.08, 0.08, 0.1, 0.08, 0.1]","[[-0.5935126913257144, 0.03835007174511797], [-0.1540517118511257, 0.5557847603552794], [0.3799174202244371, 0.02486268734953545], [-0.16635030375837634, -0.19441662822656164], [-0.16020566600402053, -0.5475029507412742], [-0.49119468930396476, -0.17954265614850576], [-0.3863564986948772, 0.19196694668118802], [0.2176059914737124, 0.21059466468936727], [-0.2508678938473386, 0.36334915327114425], [0.17099074735159492, -0.37666648012822823], [0.3208421272181631, -0.21613170163839085], [-0.08669156491533403, 0.24524083035749156], [0.6029590440389362, 0.041428387876931295], [0.552915014401968, -0.18240776823845176], [-0.402859648311619, -0.40556837467569096], [-0.32970315342773987, -0.013355749497468872], [0.04575661255622998, 0.41491888151071366], [0.4826727434757748, 0.19926348532147664], [0.1363182378400689, -0.030706335945539065], [-0.023629929871651356, -0.3410710139750916]]",density,black,,,1301830,visual,1,[],"['1', '2', '3', '4']",1,2023.2.3,harveyvisual,2.1,[],8,0.75,
0,pause,0.4,None,None,None,0,147,147,147,,,,,,,,,,,,,1301830,visual,1,[],"['1', '2', '3', '4']",1,2023.2.3,harveyvisual,2.1,[],8,0.75,
20,dot,0.3,['dot'],['density'],black,0,148,148,148,,,54.200217962265015,53.919755935668945,54.21960210800171,dot,"[0.08, 0.06, 0.06, 0.1, 0.06, 0.1, 0.1, 0.06, 0.1, 0.06, 0.1, 0.1, 0.08, 0.06, 0.06, 0.08, 0.1, 0.06, 0.1, 0.1]","[[0.11798347846991797, -0.2704930417240361], [0.328077893853409, -0.18249006014654146], [0.5514069062292103, -0.050304408523500654], [0.3456078525220194, -0.38920569890929957], [0.33941827440173045, 0.1378229506755526], [-0.46411673846378243, 0.2159691022383562], [0.16929433326879584, 0.5598486618854588], [0.3576238527475619, 0.38476972515405394], [-0.11663252536783336, 0.5667351959528636], [-0.5939715268553448, -0.010222408318562734], [-0.07667465604807877, 0.22764776314747792], [-0.1000138098044876, 0.03224106334181276], [0.061017414490024624, -0.4805978496088968], [-0.21776795905783514, 0.3790881574142484], [-0.19800778154984128, -0.30148883430401613], [-0.42878046826718486, -0.25114279581658605], [0.5333715573703811, 0.25489097647360826], [0.14164728819321803, -0.021597130020720168], [-0.13506917194364237, -0.5204183096682795], [0.18297108525577777, 0.26351408640544816]]",density,black,,,1301830,visual,1,[],"['1', '2', '3', '4']",1,2023.2.3,harveyvisual,2.1,[],8,0.75,
0,pause,0.4,None,None,None,0,149,149,149,,,,,,,,,,,,,1301830,visual,1,[],"['1', '2', '3', '4']",1,2023.2.3,harveyvisual,2.1,[],8,0.75,
20,dot,0.3,['dot'],['density'],black,0,150,150,150,,,54.90022301673889,54.61959099769592,54.91970610618591,dot,"[0.1, 0.08, 0.1, 0.06, 0.08, 0.1, 0.1, 0.1, 0.06, 0.06, 0.1, 0.08, 0.06, 0.08, 0.08, 0.08, 0.06, 0.06, 0.08, 0.1]","[[0.5204522804266952, -0.011485834743950374], [-0.2594479392637103, -0.07195172040717812], [-0.5461890187986925, 0.09260263703000288], [0.41258159488511514, 0.27722992895698556], [0.3126782903709985, 0.46531783149195616], [-0.4161226829518896, 0.29136889891315404], [-0.26611434947743096, -0.39983281146076627], [-0.5800157594308581, -0.12214866915045408], [0.1989291433491427, 0.10232513875422111], [-0.45090748258674, -0.33307483978892743], [-0.1186222059165713, 0.25582074292661006], [0.058867127514391604, -0.08977372794244909], [-0.015754357820559006, -0.33489070235146], [0.0174730819241099, 0.5137633456581956], [-0.18800422988732463, 0.542529151027067], [-0.11072230430233893, -0.5191902047166608], [0.5330726680663217, -0.25099200986356685], [-0.26764702020331216, 0.13582078539111941], [0.35254562698499337, -0.35757676029433594], [0.17525869829982776, -0.5166909682617478]]",density,black,,,1301830,visual,1,[],"['1', '2', '3', '4']",1,2023.2.3,harveyvisual,2.1,[],8,0.75,
0,pause,0.4,None,None,None,0,151,151,151,,,,,,,,,,,,,1301830,visual,1,[],"['1', '2', '3', '4']",1,2023.2.3,harveyvisual,2.1,[],8,0.75,
20,dot,0.3,['dot'],['density'],black,0,152,152,152,,,55.60021495819092,55.31969904899597,55.61955690383911,dot,"[0.06, 0.1, 0.08, 0.08, 0.06, 0.06, 0.08, 0.08, 0.08, 0.1, 0.06, 0.08, 0.08, 0.06, 0.08, 0.06, 0.1, 0.1, 0.06, 0.08]","[[0.1584303735238446, 0.5803914378046694], [-0.04844092714132031, -0.28530294683205], [-0.12542819004321593, 0.5695218721956063], [-0.4929372545271812, -0.0898538509470127], [0.49094479409378533, -0.09422856287014314], [0.37140606778872265, 0.08777110590315979], [-0.2597474573622322, 0.1179309660607536], [-0.12247796346939649, 0.3137712097778651], [0.15057062284723843, -0.3222976269348526], [0.221217090904129, -0.5457575972475368], [-0.3113990224615154, -0.19937591545523536], [-0.323662997600783, -0.4026795347821682], [0.3603937229505687, -0.29762871833566373], [0.049626466833955996, -0.022322858415687152], [0.07928679702623509, 0.33023201010040504], [-0.3366367445216473, 0.3161465345624589], [0.3098234200058698, 0.40710691416739275], [0.509452305456419, 0.24536896850763312], [-0.18291975183285986, -0.5595544650681601], [-0.5639661031743729, 0.20955246057714214]]",density,black,,,1301830,visual,1,[],"['1', '2', '3', '4']",1,2023.2.3,harveyvisual,2.1,[],8,0.75,
0,pause,0.4,None,None,None,0,153,153,153,,,,,,,,,,,,,1301830,visual,1,[],"['1', '2', '3', '4']",1,2023.2.3,harveyvisual,2.1,[],8,0.75,
20,dot,0.3,['dot'],['density'],black,0,154,154,154,,,56.30021405220032,56.019553899765015,56.31967902183533,dot,"[0.08, 0.1, 0.06, 0.1, 0.08, 0.08, 0.08, 0.1, 0.08, 0.06, 0.06, 0.08, 0.1, 0.08, 0.08, 0.06, 0.08, 0.1, 0.06, 0.06]","[[-0.2756579028104695, -0.29483614251461954], [0.5533653122304666, 0.1000040440268812], [0.16984878088411315, 0.156185310193533], [-0.3464191613143711, -0.49488203610307735], [0.41516644335844155, -0.17153973051930133], [0.38003935774721265, -0.4336740129303885], [0.07085184531712019, -0.21598154677204606], [-0.051709625757761835, -0.47866879336783646], [-0.058686992259908144, 0.46334483773046975], [-0.27122996122602905, 0.11881593269241297], [-0.5072633885568795, 0.2627429388679512], [-0.5064844878215446, -0.2707873467102544], [0.36011936877001305, 0.2773398131325461], [0.195019062467632, 0.5510913613310707], [-0.5215221626152655, -0.07395383009797762], [-0.35292206423640843, 0.44313903421741985], [-0.2414692856185478, -0.10355204566391835], [-0.04897625464476685, 0.2411964933904015], [0.18848852692357065, -0.5437594395260482], [0.2259943890286119, -0.07419708652780854]]",density,black,,,1301830,visual,1,[],"['1', '2', '3', '4']",1,2023.2.3,harveyvisual,2.1,[],8,0.75,
0,pause,0.4,None,None,None,0,155,155,155,,,,,,,,,,,,,1301830,visual,1,[],"['1', '2', '3', '4']",1,2023.2.3,harveyvisual,2.1,[],8,0.75,
9,dot,0.3,['dot'],['density'],black,0,156,156,156,,,57.00021195411682,56.719578981399536,57.019498109817505,dot,"[0.06, 0.08, 0.08, 0.08, 0.06, 0.06, 0.1, 0.1, 0.1]","[[0.23250081832313607, -0.03448075506690146], [0.3034476098774822, 0.1830296703973891], [-0.18904104685434053, 0.18833284185042862], [0.2553794676357457, 0.5314352583170906], [0.16363099535363254, 0.3461022642192175], [-0.0841935017478271, 0.3664174397160571], [-0.26748786402911323, -0.05736109653727262], [0.043842773669028334, 0.577246673499167], [0.02102957219118283, 0.0979254794926055]]",density,black,,,1301830,visual,1,[],"['1', '2', '3', '4']",1,2023.2.3,harveyvisual,2.1,[],8,0.75,
0,pause,0.4,None,None,None,0,157,157,157,,,,,,,,,,,,,1301830,visual,1,[],"['1', '2', '3', '4']",1,2023.2.3,harveyvisual,2.1,[],8,0.75,
9,dot,0.3,['dot'],['density'],black,0,158,158,158,,,57.70022010803223,57.4196081161499,57.7195999622345,dot,"[0.1, 0.1, 0.06, 0.08, 0.06, 0.08, 0.1, 0.1, 0.06]","[[-0.5586095828397086, -0.08452232608263664], [-0.5120381862419278, 0.15370428824398014], [-0.08562135647518901, 0.024493186907675612], [-0.3204263364507457, 0.2397592637991136], [-0.21279117965626912, -0.18999926927512983], [-0.34615304282718484, -0.002506468551820401], [-0.32642794983948487, 0.4412976810435594], [-0.12278716272436474, 0.3390467791696382], [0.05505897535061007, 0.17426903254619158]]",density,black,,,1301830,visual,1,[],"['1', '2', '3', '4']",1,2023.2.3,harveyvisual,2.1,[],8,0.75,
0,pause,0.4,None,None,None,0,159,159,159,,,,,,,,,,,,,1301830,visual,1,[],"['1', '2', '3', '4']",1,2023.2.3,harveyvisual,2.1,[],8,0.75,
9,dot,0.3,['dot'],['density'],black,0,160,160,160,,,58.400208950042725,58.119462966918945,58.419585943222046,dot,"[0.06, 0.06, 0.06, 0.06, 0.1, 0.08, 0.06, 0.06, 0.1]","[[0.4433726728065019, 0.22320554513198193], [0.1026133663954636, -0.050786049565613584], [0.20022034484770485, 0.4412403735117007], [0.45250313802570796, 0.010227273383000257], [0.037500571895399265, 0.24935285809920393], [0.23874579090912346, 0.11348512554989887], [0.25013734113836505, -0.23502010549412247], [0.4599692436892986, -0.2536974682823114], [0.04694731086691962, -0.2548367103293993]]",density,black,,,1301830,visual,1,[],"['1', '2', '3', '4']",1,2023.2.3,harveyvisual,2.1,[],8,0.75,
0,pause,0.4,None,None,None,0,161,161,161,,,,,,,,,,,,,1301830,visual,1,[],"['1', '2', '3', '4']",1,2023.2.3,harveyvisual,2.1,[],8,0.75,
9,dot,0.3,['dot'],['density'],black,0,162,162,162,,,59.100208044052124,58.819474935531616,59.11943697929382,dot,"[0.06, 0.1, 0.08, 0.06, 0.1, 0.06, 0.06, 0.06, 0.08]","[[-0.06218673389315922, -0.4689115343027075], [0.3660477402554353, -0.15396192139437054], [0.1401329754895462, -0.14262156541192547], [0.12293598154832706, -0.38779640022673934], [0.42645158233284447, -0.3607859009111275], [-0.06238477126329685, -0.2564764349502154], [-0.2584688277182379, -0.29964401945706215], [-0.11312192996032899, -0.05439345917292958], [0.19096873654163896, 0.1321853744035435]]",density,black,,,1301830,visual,1,[],"['1', '2', '3', '4']",1,2023.2.3,harveyvisual,2.1,[],8,0.75,
0,pause,0.4,None,None,None,0,163,163,163,,,,,,,,,,,,,1301830,visual,1,[],"['1', '2', '3', '4']",1,2023.2.3,harveyvisual,2.1,[],8,0.75,
9,dot,0.3,['dot'],['density'],black,0,164,164,164,,,59.80021810531616,59.519562005996704,59.819544076919556,dot,"[0.1, 0.08, 0.06, 0.1, 0.08, 0.1, 0.1, 0.1, 0.1]","[[-0.13146557112902973, 0.14116723461389186], [0.2951467361821443, -0.02824752732805288], [0.19428532799116477, -0.23589609671221848], [-0.28731157875063357, -0.1506919145754202], [-0.013954936164563217, -0.2914313940092583], [0.05437169614590384, 0.05057158482376688], [-0.11710547218270359, -0.5628603002908775], [-0.3181416531292253, -0.36750682532956547], [-0.10064922490671671, -0.07835054634105423]]",density,black,,,1301830,visual,1,[],"['1', '2', '3', '4']",1,2023.2.3,harveyvisual,2.1,[],8,0.75,
0,pause,0.4,None,None,None,0,165,165,165,,,,,,,,,,,,,1301830,visual,1,[],"['1', '2', '3', '4']",1,2023.2.3,harveyvisual,2.1,[],8,0.75,
9,dot,0.3,['dot'],['density'],black,0,166,166,166,,,60.50022101402283,60.219533920288086,60.51952791213989,dot,"[0.08, 0.08, 0.08, 0.08, 0.1, 0.1, 0.06, 0.08, 0.1]","[[-0.4219467838066047, -0.18114019941065054], [-0.2081543488995217, -0.4860059455967178], [-0.008274735502094755, -0.3457533902190916], [0.02376323820852766, -0.0891001390581758], [-0.4116277839025775, 0.058108040724694845], [-0.18144554169200455, -0.05292133149533743], [0.21944315682242976, -0.26450239569476724], [0.11466821484809545, 0.13327019789913197], [-0.2288148866166432, -0.2599929378926301]]",density,black,,,1301830,visual,1,[],"['1', '2', '3', '4']",1,2023.2.3,harveyvisual,2.1,[],8,0.75,
0,pause,0.4,None,None,None,0,167,167,167,,,,,,,,,,,,,1301830,visual,1,[],"['1', '2', '3', '4']",1,2023.2.3,harveyvisual,2.1,[],8,0.75,
8,dot,0.3,['dot'],['density'],white,0,168,168,168,,,61.200210094451904,60.91951894760132,61.219369888305664,dot,"[0.1, 0.1, 0.08, 0.1, 0.08, 0.08, 0.06, 0.06]","[[0.2715518471235014, -0.4245138665073026], [0.03602391524707561, -0.40638782213015096], [0.4828297141312073, -0.09119901312376678], [0.02835794216237903, 0.028275321652194735], [-0.0895445032969687, -0.19822740391127236], [0.3178997883629752, 0.08245100984997318], [0.21920060966397442, -0.22342839817001514], [0.46807969757011175, -0.32427319705723295]]",density,white,,,1301830,visual,1,[],"['1', '2', '3', '4']",1,2023.2.3,harveyvisual,2.1,[],8,0.75,
0,pause,0.4,None,None,None,0,169,169,169,,,,,,,,,,,1,61.39675521850586,1301830,visual,1,[],"['1', '2', '3', '4']",1,2023.2.3,harveyvisual,2.1,[],8,0.75,
8,dot,0.3,['dot'],['density'],black,0,170,170,170,,,61.90022397041321,61.61937594413757,61.91949200630188,dot,"[0.06, 0.06, 0.1, 0.08, 0.08, 0.1, 0.06, 0.1]","[[-0.17382250058115215, 0.008030820220576582], [-0.5561520679887834, 0.09064024109159684], [-0.2322770524578434, -0.18818443710846813], [-0.41357291590276396, -0.2905316508268561], [-0.37423053416790164, -0.04064357687765813], [-0.014699175284411378, 0.15059198662288528], [-0.015485985535575739, -0.1348843831724925], [-0.36639977644872057, 0.228205681233079]]",density,black,,,1301830,visual,1,[],"['1', '2', '3', '4']",1,2023.2.3,harveyvisual,2.1,[],8,0.75,
0,pause,0.4,None,None,None,0,171,171,171,,,,,,,,,,,,,1301830,visual,1,[],"['1', '2', '3', '4']",1,2023.2.3,harveyvisual,2.1,[],8,0.75,
8,dot,0.3,['dot'],['density'],black,0,172,172,172,,,62.600215911865234,62.31934404373169,62.61933493614197,dot,"[0.06, 0.08, 0.1, 0.1, 0.08, 0.1, 0.08, 0.1]","[[0.15461278376755175, 0.017690045563684864], [0.4404146441246234, 0.21813023399178458], [0.05487595867990863, 0.4084021637362207], [-0.13585566436679766, 0.08658391491112073], [0.3753260993018466, -0.0029057217730488138], [0.24206240898487613, 0.3367355195829085], [0.06992318211572668, 0.2078151862649802], [0.2541279777615451, -0.17357647893213385]]",density,black,,,1301830,visual,1,[],"['1', '2', '3', '4']",1,2023.2.3,harveyvisual,2.1,[],8,0.75,
0,pause,0.4,None,None,None,0,173,173,173,,,,,,,,,,,,,1301830,visual,1,[],"['1', '2', '3', '4']",1,2023.2.3,harveyvisual,2.1,[],8,0.75,
8,dot,0.3,['dot'],['density'],black,0,174,174,174,,,63.300209045410156,63.01932501792908,63.31943893432617,dot,"[0.06, 0.08, 0.1, 0.1, 0.06, 0.06, 0.06, 0.08]","[[0.2564657333297123, -0.5164120873644681], [0.16207736998829034, -0.17430025554579232], [0.3801370228700199, -0.12440354324600712], [0.3861419762144276, -0.3474957963553726], [0.023072413076989942, -0.006703975881976366], [-0.07114697953604181, -0.35683211304459495], [0.45447188669532573, 0.06927659529933487], [0.23571610799738704, 0.02784742549372824]]",density,black,,,1301830,visual,1,[],"['1', '2', '3', '4']",1,2023.2.3,harveyvisual,2.1,[],8,0.75,
0,pause,0.4,None,None,None,0,175,175,175,,,,,,,,,,,,,1301830,visual,1,[],"['1', '2', '3', '4']",1,2023.2.3,harveyvisual,2.1,[],8,0.75,
8,dot,0.3,['dot'],['density'],black,0,176,176,176,,,64.00022792816162,63.71943688392639,64.01942205429077,dot,"[0.06, 0.1, 0.1, 0.1, 0.08, 0.08, 0.06, 0.08]","[[-0.503192831713878, 0.2818759502405315], [-0.1851508851951268, 0.5121570681976513], [-0.3428391331654375, 0.06336275884690255], [-0.2620893383019587, 0.2653373399092269], [-0.09201493982796581, 0.138249408295409], [-0.14188251758679749, -0.08598668861617832], [-0.5391716430792404, 0.01870596234549803], [-0.2779852747659758, -0.23950462846526258]]",density,black,,,1301830,visual,1,[],"['1', '2', '3', '4']",1,2023.2.3,harveyvisual,2.1,[],8,0.75,
0,pause,0.4,None,None,None,0,177,177,177,,,,,,,,,,,,,1301830,visual,1,[],"['1', '2', '3', '4']",1,2023.2.3,harveyvisual,2.1,[],8,0.75,
8,dot,0.3,['dot'],['density'],black,0,178,178,178,,,64.70022296905518,64.41926193237305,64.71930289268494,dot,"[0.06, 0.1, 0.08, 0.08, 0.06, 0.1, 0.1, 0.08]","[[0.2564657333297123, -0.5164120873644681], [0.16207736998829034, -0.17430025554579232], [0.3801370228700199, -0.12440354324600712], [0.3861419762144276, -0.3474957963553726], [0.023072413076989942, -0.006703975881976366], [-0.07114697953604181, -0.35683211304459495], [0.45447188669532573, 0.06927659529933487], [0.23571610799738704, 0.02784742549372824]]",density,black,,,1301830,visual,1,[],"['1', '2', '3', '4']",1,2023.2.3,harveyvisual,2.1,[],8,0.75,
0,pause,0.4,None,None,None,0,179,179,179,,,,,,,,,,,,,1301830,visual,1,[],"['1', '2', '3', '4']",1,2023.2.3,harveyvisual,2.1,[],8,0.75,
7,dot,0.3,['dot'],['density'],black,0,180,180,180,,,65.40022397041321,65.11925888061523,65.4193000793457,dot,"[0.08, 0.1, 0.1, 0.1, 0.06, 0.06, 0.08]","[[-0.026372969700101213, 0.05085620782211805], [-0.16304282038196347, -0.3616501386780019], [-0.013762327205412121, -0.14910430285435466], [0.14729449770710015, -0.3647544547161306], [-0.22494517313234175, -0.12035103032643314], [-0.36514670174418407, -0.33057163197754225], [0.21417125919861074, -0.06627923590771367]]",density,black,,,1301830,visual,1,[],"['1', '2', '3', '4']",1,2023.2.3,harveyvisual,2.1,[],8,0.75,
0,pause,0.4,None,None,None,0,181,181,181,,,,,,,,,,,,,1301830,visual,1,[],"['1', '2', '3', '4']",1,2023.2.3,harveyvisual,2.1,[],8,0.75,
7,dot,0.3,['dot'],['density'],black,0,182,182,182,,,66.10022711753845,65.81925892829895,66.11944890022278,dot,"[0.08, 0.08, 0.06, 0.1, 0.08, 0.08, 0.08]","[[0.3302081014073935, 0.19448071361351732], [-0.22286629369238187, 0.3450023392305547], [-0.11533339293480348, 0.13926201039730488], [0.12023407780451623, 0.21240672508650668], [0.2659789407074307, 0.3894086603790018], [0.026604934602130894, 0.39133200849180605], [0.212400253920387, 0.027377351413115796]]",density,black,,,1301830,visual,1,[],"['1', '2', '3', '4']",1,2023.2.3,harveyvisual,2.1,[],8,0.75,
0,pause,0.4,None,None,None,0,183,183,183,,,,,,,,,,,,,1301830,visual,1,[],"['1', '2', '3', '4']",1,2023.2.3,harveyvisual,2.1,[],8,0.75,
7,dot,0.3,['dot'],['density'],black,0,184,184,184,,,66.80022597312927,66.5192539691925,66.81922602653503,dot,"[0.08, 0.1, 0.1, 0.1, 0.06, 0.1, 0.06]","[[-0.4123410031792677, -0.32555807737620884], [-0.11281232420725038, -0.2658066965482441], [-0.16970574590124413, 0.10972852905085191], [-0.380148642061964, 0.19816541478521793], [-0.49975943015608576, -0.10400723965324657], [-0.30003386022098844, -0.09340949099572564], [-0.0679185705411078, -0.06780919729272472]]",density,black,,,1301830,visual,1,[],"['1', '2', '3', '4']",1,2023.2.3,harveyvisual,2.1,[],8,0.75,
0,pause,0.4,None,None,None,0,185,185,185,,,,,,,,,,,,,1301830,visual,1,[],"['1', '2', '3', '4']",1,2023.2.3,harveyvisual,2.1,[],8,0.75,
7,dot,0.3,['dot'],['density'],black,0,186,186,186,,,67.5002179145813,67.21922898292542,67.51921510696411,dot,"[0.06, 0.1, 0.06, 0.1, 0.06, 0.1, 0.1]","[[-0.03978284138183809, -0.43963729991580147], [0.2770736023028816, -0.4460091285183096], [0.4264240077257641, -0.26124456405115876], [0.04351789842027954, -0.004572294527936195], [0.08491707485555088, -0.26540219852266356], [0.2274622265833728, -0.10044916879814345], [0.4232844185721205, -0.050742783717769746]]",density,black,,,1301830,visual,1,[],"['1', '2', '3', '4']",1,2023.2.3,harveyvisual,2.1,[],8,0.75,
0,pause,0.4,None,None,None,0,187,187,187,,,,,,,,,,,,,1301830,visual,1,[],"['1', '2', '3', '4']",1,2023.2.3,harveyvisual,2.1,[],8,0.75,
7,dot,0.3,['dot'],['density'],black,0,188,188,188,,,68.20022010803223,67.91923689842224,68.21919798851013,dot,"[0.1, 0.08, 0.06, 0.08, 0.06, 0.08, 0.06]","[[-0.16635260996794698, 0.28084462036912], [-0.40218122969076125, -0.17991686156932815], [-0.0845402480451966, 0.09445086570213204], [-0.12722724135381816, -0.176029296145206], [-0.3668576348978093, 0.24153552923633032], [-0.5374975881789634, 0.10465170418994485], [-0.31219932221879926, 0.029177302383891702]]",density,black,,,1301830,visual,1,[],"['1', '2', '3', '4']",1,2023.2.3,harveyvisual,2.1,[],8,0.75,
0,pause,0.4,None,None,None,0,189,189,189,,,,,,,,,,,,,1301830,visual,1,[],"['1', '2', '3', '4']",1,2023.2.3,harveyvisual,2.1,[],8,0.75,
7,dot,0.3,['dot'],['density'],black,0,190,190,190,,,68.90021991729736,68.6192090511322,68.91923999786377,dot,"[0.08, 0.06, 0.06, 0.06, 0.06, 0.06, 0.06]","[[-0.3025445156539714, -0.42280529123536587], [0.12162933753582021, -0.2851722644810181], [-0.2753205641105948, -0.038672864930592576], [-0.4202189534315163, -0.18742991959605093], [-0.15636117447925973, -0.27217203193286355], [-0.09967880665522989, -0.47242523529006747], [-0.06261398545311019, -0.08879309989794046]]",density,black,,,1301830,visual,1,[],"['1', '2', '3', '4']",1,2023.2.3,harveyvisual,2.1,[],8,0.75,
0,pause,0.4,None,None,None,0,191,191,191,,,,,,,,,,,,,1301830,visual,1,[],"['1', '2', '3', '4']",1,2023.2.3,harveyvisual,2.1,[],8,0.75,
6,dot,0.3,['dot'],['density'],black,0,192,192,192,,,69.60020589828491,69.31919407844543,69.61915707588196,dot,"[0.1, 0.06, 0.06, 0.1, 0.06, 0.1]","[[-0.4130096743352808, -0.09152271377164663], [-0.19778223104980006, -0.03862987845790588], [-0.5782793278508197, 0.04067119283421001], [-0.2942915267906656, -0.3673297053134895], [-0.33560074172492643, 0.119885218799542], [-0.5263932498355091, -0.25924495598585295]]",density,black,,,1301830,visual,1,[],"['1', '2', '3', '4']",1,2023.2.3,harveyvisual,2.1,[],8,0.75,
0,pause,0.4,None,None,None,0,193,193,193,,,,,,,,,,,,,1301830,visual,1,[],"['1', '2', '3', '4']",1,2023.2.3,harveyvisual,2.1,[],8,0.75,
6,dot,0.3,['dot'],['density'],black,0,194,194,194,,,70.30020499229431,70.01915097236633,70.31914710998535,dot,"[0.06, 0.1, 0.1, 0.06, 0.08, 0.08]","[[0.4838288853419304, 0.012393783640839304], [0.3357737587390128, 0.3939464288632381], [0.48781910936274964, 0.21484656822060386], [0.038497076365425514, 0.2266532147795764], [0.13074852606734502, 0.009493629341700475], [0.2855531954453259, 0.1811044151544938]]",density,black,,,1301830,visual,1,[],"['1', '2', '3', '4']",1,2023.2.3,harveyvisual,2.1,[],8,0.75,
0,pause,0.4,None,None,None,0,195,195,195,,,,,,,,,,,,,1301830,visual,1,[],"['1', '2', '3', '4']",1,2023.2.3,harveyvisual,2.1,[],8,0.75,
6,dot,0.3,['dot'],['density'],black,0,196,196,196,,,71.00020694732666,70.71913194656372,71.01914191246033,dot,"[0.08, 0.08, 0.06, 0.08, 0.08, 0.1]","[[0.4249538099490167, -0.025354946498656116], [0.305005901383002, 0.397829445973664], [0.04954868862097969, 0.09819418046919175], [0.452299537631068, 0.2574679639516015], [0.21081936584905453, -0.08903757916275208], [0.27954488569289765, 0.14103100078867375]]",density,black,,,1301830,visual,1,[],"['1', '2', '3', '4']",1,2023.2.3,harveyvisual,2.1,[],8,0.75,
0,pause,0.4,None,None,None,0,197,197,197,,,,,,,,,,,,,1301830,visual,1,[],"['1', '2', '3', '4']",1,2023.2.3,harveyvisual,2.1,[],8,0.75,
6,dot,0.3,['dot'],['density'],black,0,198,198,198,,,71.70021796226501,71.41908407211304,71.71907997131348,dot,"[0.08, 0.08, 0.08, 0.08, 0.06, 0.1]","[[0.2333794889108542, 0.5108688068097712], [0.17720399199515413, 0.06488002481085814], [0.3526024925964592, 0.16961020277143707], [0.1596713132306006, 0.321837067503818], [0.0007438407140586783, 0.18344495120876914], [0.42757463853404776, 0.37786691715169374]]",density,black,,,1301830,visual,1,[],"['1', '2', '3', '4']",1,2023.2.3,harveyvisual,2.1,[],8,0.75,
0,pause,0.4,None,None,None,0,199,199,199,,,,,,,,,,,,,1301830,visual,1,[],"['1', '2', '3', '4']",1,2023.2.3,harveyvisual,2.1,[],8,0.75,
6,dot,0.3,['dot'],['density'],black,0,200,200,200,,,72.40022897720337,72.11905193328857,72.41905689239502,dot,"[0.1, 0.08, 0.1, 0.1, 0.06, 0.06]","[[0.1982846419110591, -0.5292804859653952], [-0.09533153174900855, -0.5647367288422243], [-0.1659446600366624, -0.36958438178462333], [0.23572970018209544, -0.2476946313124468], [-0.023160452264027947, -0.17140847685647978], [0.035419311136148636, -0.3737635646361638]]",density,black,,,1301830,visual,1,[],"['1', '2', '3', '4']",1,2023.2.3,harveyvisual,2.1,[],8,0.75,
0,pause,0.4,None,None,None,0,201,201,201,,,,,,,,,,,,,1301830,visual,1,[],"['1', '2', '3', '4']",1,2023.2.3,harveyvisual,2.1,[],8,0.75,
6,dot,0.3,['dot'],['density'],black,0,202,202,202,,,73.10023093223572,72.81903791427612,73.11904406547546,dot,"[0.06, 0.08, 0.06, 0.1, 0.06, 0.06]","[[0.01776890784276672, 0.3448500499300058], [-0.18238616215991446, 0.4840889924469993], [-0.2129582374372363, 0.07157874559070018], [-0.41549008775918617, 0.14353268657608398], [0.019487844458329944, 0.1389587799501653], [-0.21004805074000235, 0.2837936954907191]]",density,black,,,1301830,visual,1,[],"['1', '2', '3', '4']",1,2023.2.3,harveyvisual,2.1,[],8,0.75,
0,pause,0.4,None,None,None,0,203,203,203,,,,,,,,,,,,,1301830,visual,1,[],"['1', '2', '3', '4']",1,2023.2.3,harveyvisual,2.1,[],8,0.75,
5,dot,0.3,['dot'],['density'],black,0,204,204,204,,,73.80020403862,73.5190110206604,73.81900191307068,dot,"[0.08, 0.08, 0.1, 0.06, 0.08]","[[-0.16893136043895146, -0.20127892763881453], [-0.5727216740452047, -0.07682091551650742], [-0.343702592036276, -0.060533526953518955], [-0.5038383983260774, 0.15268268748871192], [-0.379488354443274, -0.2704310218069364]]",density,black,,,1301830,visual,1,[],"['1', '2', '3', '4']",1,2023.2.3,harveyvisual,2.1,[],8,0.75,
0,pause,0.4,None,None,None,0,205,205,205,,,,,,,,,,,,,1301830,visual,1,[],"['1', '2', '3', '4']",1,2023.2.3,harveyvisual,2.1,[],8,0.75,
5,dot,0.3,['dot'],['density'],white,0,206,206,206,,,74.50021600723267,74.2189929485321,74.51898193359375,dot,"[0.06, 0.06, 0.08, 0.08, 0.1]","[[0.36014554898799966, 0.387810422325294], [0.055757472799778995, 0.16941293674392635], [0.2210739480460382, 0.008175952352481365], [0.48495712857242873, 0.07425785546611247], [0.25975240449222103, 0.2092734881649904]]",density,white,,,1301830,visual,1,[],"['1', '2', '3', '4']",1,2023.2.3,harveyvisual,2.1,[],8,0.75,
0,pause,0.4,None,None,None,0,207,207,207,,,,,,,,,,,1,74.53225517272949,1301830,visual,1,[],"['1', '2', '3', '4']",1,2023.2.3,harveyvisual,2.1,[],8,0.75,
5,dot,0.3,['dot'],['density'],black,0,208,208,208,,,75.20022106170654,74.9189829826355,75.21897411346436,dot,"[0.08, 0.1, 0.08, 0.08, 0.08]","[[0.10558973120531606, -0.20428866875977839], [-0.0893225412758366, 0.16524926947551877], [-0.05793580974794309, -0.07826743033729393], [0.11130747138107101, 0.10875249109580729], [0.28035132100960686, -0.09064984251937742]]",density,black,,,1301830,visual,1,[],"['1', '2', '3', '4']",1,2023.2.3,harveyvisual,2.1,[],8,0.75,
0,pause,0.4,None,None,None,0,209,209,209,,,,,,,,,,,,,1301830,visual,1,[],"['1', '2', '3', '4']",1,2023.2.3,harveyvisual,2.1,[],8,0.75,
5,dot,0.3,['dot'],['density'],black,0,210,210,210,,,75.90022301673889,75.6189649105072,75.91896796226501,dot,"[0.1, 0.1, 0.1, 0.08, 0.08]","[[-0.20882687658313398, 0.05979685123170853], [0.07709165915785691, 0.33819008637117026], [0.02323578322535992, 0.12175330968231063], [0.02522363087913582, -0.08718927316059993], [-0.12152044988768049, 0.28453648995279207]]",density,black,,,1301830,visual,1,[],"['1', '2', '3', '4']",1,2023.2.3,harveyvisual,2.1,[],8,0.75,
0,pause,0.4,None,None,None,0,211,211,211,,,,,,,,,,,,,1301830,visual,1,[],"['1', '2', '3', '4']",1,2023.2.3,harveyvisual,2.1,[],8,0.75,
5,dot,0.3,['dot'],['density'],black,0,212,212,212,,,76.60020589828491,76.31896901130676,76.6189329624176,dot,"[0.08, 0.08, 0.06, 0.08, 0.1]","[[0.10176071415026891, -0.0029310292721688898], [0.32748853803000494, -0.2831003617774451], [0.10999898603900501, -0.23076615641811304], [0.2383494361888625, 0.16403485824849598], [0.3558293804179042, -0.08171974316418079]]",density,black,,,1301830,visual,1,[],"['1', '2', '3', '4']",1,2023.2.3,harveyvisual,2.1,[],8,0.75,
0,pause,0.4,None,None,None,0,213,213,213,,,,,,,,,,,,,1301830,visual,1,[],"['1', '2', '3', '4']",1,2023.2.3,harveyvisual,2.1,[],8,0.75,
5,dot,0.3,['dot'],['density'],black,0,214,214,214,,,77.30020403862,77.01894307136536,77.3189148902893,dot,"[0.1, 0.06, 0.06, 0.1, 0.06]","[[-0.09836533996777486, -0.13487298234664027], [-0.39372579989196477, -0.3970332615714695], [-0.08519030630468749, -0.3439803803737387], [-0.28676510783747755, -0.22768547842943598], [-0.4191710438677135, -0.018830474544977712]]",density,black,,,1301830,visual,1,[],"['1', '2', '3', '4']",1,2023.2.3,harveyvisual,2.1,[],8,0.75,
0,pause,0.4,None,None,None,0,215,215,215,,,,,,,,,,,,,1301830,visual,1,[],"['1', '2', '3', '4']",1,2023.2.3,harveyvisual,2.1,[],8,0.75,
4,dot,0.3,['dot'],['density'],black,0,216,216,216,,,78.00020790100098,77.71890211105347,78.01888990402222,dot,"[0.06, 0.08, 0.08, 0.06]","[[-0.1807894278345534, -0.050693892368996955], [-0.03778933673514029, -0.29773510453537966], [0.0747201162679791, -0.1287424711559737], [-0.02241484737224569, 0.07404475448468936]]",density,black,,,1301830,visual,1,[],"['1', '2', '3', '4']",1,2023.2.3,harveyvisual,2.1,[],8,0.75,
0,pause,0.4,None,None,None,0,217,217,217,,,,,,,,,,,,,1301830,visual,1,[],"['1', '2', '3', '4']",1,2023.2.3,harveyvisual,2.1,[],8,0.75,
4,dot,0.3,['dot'],['density'],black,0,218,218,218,,,78.70021605491638,78.41888904571533,78.7188789844513,dot,"[0.1, 0.1, 0.06, 0.1]","[[-0.43942495523079517, -0.22401056498097033], [-0.009260832099230759, -0.1633376679159051], [-0.21598309108097546, -0.10172603009605206], [-0.2278206133413005, -0.33154874685782076]]",density,black,,,1301830,visual,1,[],"['1', '2', '3', '4']",1,2023.2.3,harveyvisual,2.1,[],8,0.75,
0,pause,0.4,None,None,None,0,219,219,219,,,,,,,,,,,,,1301830,visual,1,[],"['1', '2', '3', '4']",1,2023.2.3,harveyvisual,2.1,[],8,0.75,
4,dot,0.3,['dot'],['density'],black,0,220,220,220,,,79.40022110939026,79.11887001991272,79.4188539981842,dot,"[0.1, 0.08, 0.06, 0.06]","[[0.010836700166572746, 0.3385055392368038], [-0.21755291078517647, 0.23172276430217797], [0.04881011250022837, 0.13413393103699342], [-0.16894730197854985, 0.4434327172909165]]",density,black,,,1301830,visual,1,[],"['1', '2', '3', '4']",1,2023.2.3,harveyvisual,2.1,[],8,0.75,
0,pause,0.4,None,None,None,0,221,221,221,,,,,,,,,,,,,1301830,visual,1,[],"['1', '2', '3', '4']",1,2023.2.3,harveyvisual,2.1,[],8,0.75,
4,dot,0.3,['dot'],['density'],black,0,222,222,222,,,80.10020589828491,79.81884789466858,80.11882901191711,dot,"[0.1, 0.08, 0.06, 0.1]","[[0.2593869086993074, -0.26887741013308497], [0.09674879007849839, -0.39609983087723066], [-0.011093693993988496, -0.14004324908426333], [0.28630805459639813, -0.4681830009867555]]",density,black,,,1301830,visual,1,[],"['1', '2', '3', '4']",1,2023.2.3,harveyvisual,2.1,[],8,0.75,
0,pause,0.4,None,None,None,0,223,223,223,,,,,,,,,,,,,1301830,visual,1,[],"['1', '2', '3', '4']",1,2023.2.3,harveyvisual,2.1,[],8,0.75,
4,dot,0.3,['dot'],['density'],black,0,224,224,224,,,80.80022096633911,80.51883888244629,80.81884908676147,dot,"[0.1, 0.1, 0.08, 0.06]","[[0.14909032788103166, -0.4768554918693636], [0.26071220381864263, -0.20018841858473793], [0.02634252458519163, -0.30967292471165575], [0.3541358554053611, -0.43808560323820217]]",density,black,,,1301830,visual,1,[],"['1', '2', '3', '4']",1,2023.2.3,harveyvisual,2.1,[],8,0.75,
0,pause,0.4,None,None,None,0,225,225,225,,,,,,,,,,,,,1301830,visual,1,[],"['1', '2', '3', '4']",1,2023.2.3,harveyvisual,2.1,[],8,0.75,
4,dot,0.3,['dot'],['density'],black,0,226,226,226,,,81.5002191066742,81.21880006790161,81.51879501342773,dot,"[0.06, 0.06, 0.1, 0.08]","[[-0.43942495523079517, -0.22401056498097033], [-0.009260832099230759, -0.1633376679159051], [-0.21598309108097546, -0.10172603009605206], [-0.2278206133413005, -0.33154874685782076]]",density,black,,,1301830,visual,1,[],"['1', '2', '3', '4']",1,2023.2.3,harveyvisual,2.1,[],8,0.75,
0,pause,0.4,None,None,None,0,227,227,227,,,,,,,,,,,,,1301830,visual,1,[],"['1', '2', '3', '4']",1,2023.2.3,harveyvisual,2.1,[],8,0.75,
3,dot,0.3,['dot'],['density'],black,0,228,228,228,,,82.20022702217102,81.91880297660828,82.21881699562073,dot,"[0.1, 0.08, 0.08]","[[-0.27441186418729774, -0.31428620701652393], [-0.10438281902574013, -0.2032379983598837], [-0.31523395761825285, -0.08768035506307631]]",density,black,,,1301830,visual,1,[],"['1', '2', '3', '4']",1,2023.2.3,harveyvisual,2.1,[],8,0.75,
0,pause,0.4,None,None,None,0,229,229,229,,,,,,,,,,,,,1301830,visual,1,[],"['1', '2', '3', '4']",1,2023.2.3,harveyvisual,2.1,[],8,0.75,
3,dot,0.3,['dot'],['density'],black,0,230,230,230,,,82.90020895004272,82.61880803108215,82.91880393028259,dot,"[0.06, 0.06, 0.08]","[[-0.32034981165049564, 0.18083778238314796], [-0.3344619052850136, -0.04022521570367012], [-0.13485517643248812, 0.10330846540140716]]",density,black,,,1301830,visual,1,[],"['1', '2', '3', '4']",1,2023.2.3,harveyvisual,2.1,[],8,0.75,
0,pause,0.4,None,None,None,0,231,231,231,,,,,,,,,,,,,1301830,visual,1,[],"['1', '2', '3', '4']",1,2023.2.3,harveyvisual,2.1,[],8,0.75,
3,dot,0.3,['dot'],['density'],black,0,232,232,232,,,83.60020804405212,83.31879091262817,83.61873197555542,dot,"[0.1, 0.06, 0.08]","[[0.29938275938101017, 0.44415474715472736], [0.13070782598704628, 0.5557174004537693], [0.11832456902218637, 0.3273615767427578]]",density,black,,,1301830,visual,1,[],"['1', '2', '3', '4']",1,2023.2.3,harveyvisual,2.1,[],8,0.75,
0,pause,0.4,None,None,None,0,233,233,233,,,,,,,,,,,,,1301830,visual,1,[],"['1', '2', '3', '4']",1,2023.2.3,harveyvisual,2.1,[],8,0.75,
3,dot,0.3,['dot'],['density'],black,0,234,234,234,,,84.30022811889648,84.01878309249878,84.3187689781189,dot,"[0.06, 0.06, 0.06]","[[0.07700183490032705, -0.35627018624379625], [-0.11838355721398923, -0.41989981358322065], [0.04553884901650391, -0.5822363694770394]]",density,black,,,1301830,visual,1,[],"['1', '2', '3', '4']",1,2023.2.3,harveyvisual,2.1,[],8,0.75,
0,pause,0.4,None,None,None,0,235,235,235,,,,,,,,,,,,,1301830,visual,1,[],"['1', '2', '3', '4']",1,2023.2.3,harveyvisual,2.1,[],8,0.75,
3,dot,0.3,['dot'],['density'],black,0,236,236,236,,,85.0002110004425,84.71876192092896,85.01874709129333,dot,"[0.08, 0.1, 0.08]","[[-0.27441186418729774, -0.31428620701652393], [-0.10438281902574013, -0.2032379983598837], [-0.31523395761825285, -0.08768035506307631]]",density,black,,,1301830,visual,1,[],"['1', '2', '3', '4']",1,2023.2.3,harveyvisual,2.1,[],8,0.75,
0,pause,0.4,None,None,None,0,237,237,237,,,,,,,,,,,,,1301830,visual,1,[],"['1', '2', '3', '4']",1,2023.2.3,harveyvisual,2.1,[],8,0.75,
3,dot,0.3,['dot'],['density'],black,0,238,238,238,,,85.70021295547485,85.41871690750122,85.71869707107544,dot,"[0.1, 0.08, 0.06]","[[-0.1591938184585166, 0.2573970255855866], [-0.049574382916532336, 0.44031337398050124], [0.08264166875933507, 0.262381570646859]]",density,black,,,1301830,visual,1,[],"['1', '2', '3', '4']",1,2023.2.3,harveyvisual,2.1,[],8,0.75,
0,pause,0.4,None,None,None,0,239,239,239,,,,,,,,,,,,,1301830,visual,1,[],"['1', '2', '3', '4']",1,2023.2.3,harveyvisual,2.1,[],8,0.75,
2,dot,0.3,['dot'],['density'],black,0,240,240,240,,,86.40021800994873,86.11869406700134,86.41872692108154,dot,"[0.1, 0.06]","[[-0.3970652553054307, 0.36151140161898554], [-0.22306532646831484, 0.26288994227005946]]",density,black,,,1301830,visual,1,[],"['1', '2', '3', '4']",1,2023.2.3,harveyvisual,2.1,[],8,0.75,
0,pause,0.4,None,None,None,0,241,241,241,,,,,,,,,,,,,1301830,visual,1,[],"['1', '2', '3', '4']",1,2023.2.3,harveyvisual,2.1,[],8,0.75,
2,dot,0.3,['dot'],['density'],white,0,242,242,242,,,87.10022807121277,86.81887006759644,87.11884903907776,dot,"[0.06, 0.1]","[[-0.19266755722762574, -0.036106715323925336], [-0.096675332858716, 0.13967695308521302]]",density,white,,,1301830,visual,1,[],"['1', '2', '3', '4']",1,2023.2.3,harveyvisual,2.1,[],8,0.75,
0,pause,0.4,None,None,None,0,243,243,243,,,,,,,,,,,1,87.17994022369385,1301830,visual,1,[],"['1', '2', '3', '4']",1,2023.2.3,harveyvisual,2.1,[],8,0.75,
2,dot,0.3,['dot'],['density'],black,0,244,244,244,,,87.80022501945496,87.51872491836548,87.81885504722595,dot,"[0.06, 0.06]","[[-0.020654750029313704, 0.3891656546739414], [-0.0007759068931318763, 0.19000611836641118]]",density,black,,,1301830,visual,1,[],"['1', '2', '3', '4']",1,2023.2.3,harveyvisual,2.1,[],8,0.75,
0,pause,0.4,None,None,None,0,245,245,245,,,,,,,,,,,,,1301830,visual,1,[],"['1', '2', '3', '4']",1,2023.2.3,harveyvisual,2.1,[],8,0.75,
2,dot,0.3,['dot'],['density'],black,0,246,246,246,,,88.50020909309387,88.21882104873657,88.5186939239502,dot,"[0.08, 0.08]","[[-0.2277318593301165, -0.35289300204507235], [-0.09400723608355734, -0.20388512549033708]]",density,black,,,1301830,visual,1,[],"['1', '2', '3', '4']",1,2023.2.3,harveyvisual,2.1,[],8,0.75,
0,pause,0.4,None,None,None,0,247,247,247,,,,,,,,,,,,,1301830,visual,1,[],"['1', '2', '3', '4']",1,2023.2.3,harveyvisual,2.1,[],8,0.75,
2,dot,0.3,['dot'],['density'],black,0,248,248,248,,,89.20021605491638,88.91867804527283,89.2188229560852,dot,"[0.1, 0.1]","[[0.4101371699595759, -0.046236245446824746], [0.42481245787877703, -0.24684889303111815]]",density,black,,,1301830,visual,1,[],"['1', '2', '3', '4']",1,2023.2.3,harveyvisual,2.1,[],8,0.75,
0,pause,0.4,None,None,None,0,249,249,249,,,,,,,,,,,,,1301830,visual,1,[],"['1', '2', '3', '4']",1,2023.2.3,harveyvisual,2.1,[],8,0.75,
2,dot,0.3,['dot'],['density'],black,0,250,250,250,,,89.90023589134216,89.61862802505493,89.9186110496521,dot,"[0.1, 0.06]","[[-0.20887660672828282, 0.3399455197969581], [-0.34272369919491674, 0.19089688818271272]]",density,black,,,1301830,visual,1,[],"['1', '2', '3', '4']",1,2023.2.3,harveyvisual,2.1,[],8,0.75,
0,pause,0.4,None,None,None,0,251,251,251,,,,,,,,,,,,,1301830,visual,1,[],"['1', '2', '3', '4']",1,2023.2.3,harveyvisual,2.1,[],8,0.75,
1,dot,0.3,['dot'],['density'],black,0,252,252,252,,,90.60023403167725,90.31860089302063,90.61872601509094,dot,[0.08],"[-0.43105706563061386, -0.18359692062194616]",density,black,,,1301830,visual,1,[],"['1', '2', '3', '4']",1,2023.2.3,harveyvisual,2.1,[],8,0.75,
0,pause,0.4,None,None,None,0,253,253,253,,,,,,,,,,,,,1301830,visual,1,[],"['1', '2', '3', '4']",1,2023.2.3,harveyvisual,2.1,[],8,0.75,
1,dot,0.3,['dot'],['density'],black,0,254,254,254,,,91.30020904541016,91.01875305175781,91.3187050819397,dot,[0.1],"[0.0038807231877187303, -0.2777732366953785]",density,black,,,1301830,visual,1,[],"['1', '2', '3', '4']",1,2023.2.3,harveyvisual,2.1,[],8,0.75,
0,pause,0.4,None,None,None,0,255,255,255,,,,,,,,,,,,,1301830,visual,1,[],"['1', '2', '3', '4']",1,2023.2.3,harveyvisual,2.1,[],8,0.75,
1,dot,0.3,['dot'],['density'],black,0,256,256,256,,,92.00022292137146,91.71856689453125,92.0185649394989,dot,[0.1],"[-0.3631366314731191, 0.1590646049745197]",density,black,,,1301830,visual,1,[],"['1', '2', '3', '4']",1,2023.2.3,harveyvisual,2.1,[],8,0.75,
0,pause,0.4,None,None,None,0,257,257,257,,,,,,,,,,,,,1301830,visual,1,[],"['1', '2', '3', '4']",1,2023.2.3,harveyvisual,2.1,[],8,0.75,
1,dot,0.3,['dot'],['density'],black,0,258,258,258,,,92.70023393630981,92.41868209838867,92.7185480594635,dot,[0.08],"[-0.3631366314731191, 0.1590646049745197]",density,black,,,1301830,visual,1,[],"['1', '2', '3', '4']",1,2023.2.3,harveyvisual,2.1,[],8,0.75,
0,pause,0.4,None,None,None,0,259,259,259,,,,,,,,,,,,,1301830,visual,1,[],"['1', '2', '3', '4']",1,2023.2.3,harveyvisual,2.1,[],8,0.75,
1,dot,0.3,['dot'],['density'],black,0,260,260,260,,,93.40021300315857,93.11866211891174,93.41850900650024,dot,[0.08],"[0.1771264825789444, 0.012298414170669998]",density,black,,,1301830,visual,1,[],"['1', '2', '3', '4']",1,2023.2.3,harveyvisual,2.1,[],8,0.75,
0,pause,0.4,None,None,None,0,261,261,261,,,,,,,,,,,,,1301830,visual,1,[],"['1', '2', '3', '4']",1,2023.2.3,harveyvisual,2.1,[],8,0.75,
1,dot,0.3,['dot'],['density'],black,0,262,262,262,,,94.10022497177124,93.81864500045776,94.11863899230957,dot,[0.06],"[0.5163804524385218, 0.172353611070521]",density,black,,,1301830,visual,1,[],"['1', '2', '3', '4']",1,2023.2.3,harveyvisual,2.1,[],8,0.75,
0,pause,0.4,None,None,None,0,263,263,263,,,,,,,,,,,,,1301830,visual,1,[],"['1', '2', '3', '4']",1,2023.2.3,harveyvisual,2.1,[],8,0.75,
20,dot,0.3,['dot'],['density'],white,0,264,264,264,,,94.80022192001343,94.51850199699402,94.81849002838135,dot,"[0.1, 0.1, 0.06, 0.1, 0.1, 0.1, 0.06, 0.06, 0.1, 0.06, 0.1, 0.08, 0.1, 0.06, 0.06, 0.1, 0.08, 0.06, 0.1, 0.1]","[[-0.3116275306329323, -0.06772661129349633], [0.29534960199448046, -0.4343498501020138], [-0.44601557837111533, 0.09140721252074668], [-0.554565959854679, -0.17018330671926016], [-0.4286912710612141, 0.33698883104650507], [-0.3312688531777272, -0.29686693871915243], [0.033078882898195716, -0.28340921323213714], [0.5157834809730518, 0.16380345014848025], [0.43534342494733125, -0.27678712811455985], [-0.01727631171086086, -0.017964652573873252], [-0.16690725723092203, -0.5434214147556327], [0.4254613572146314, -0.046017526598455594], [-0.19239310066964754, 0.3238288133722058], [0.057782931612506694, 0.18647662591201308], [0.23759983005790497, -0.15386597272781322], [0.1523484527840656, 0.567394125323022], [0.34425665283639306, 0.37834603167954467], [-0.049813119708733034, 0.5932881105913366], [0.014996220101459512, -0.4853072242622249], [-0.1601297226027526, -0.20350616877541788]]",density,white,,,1301830,visual,1,[],"['1', '2', '3', '4']",1,2023.2.3,harveyvisual,2.1,[],8,0.75,
0,pause,0.4,None,None,None,0,265,265,265,,,,,,,,,,,1,94.96390700340271,1301830,visual,1,[],"['1', '2', '3', '4']",1,2023.2.3,harveyvisual,2.1,[],8,0.75,
20,dot,0.3,['dot'],['density'],black,0,266,266,266,,,95.50022006034851,95.21861791610718,95.51864409446716,dot,"[0.1, 0.1, 0.08, 0.1, 0.1, 0.08, 0.1, 0.06, 0.06, 0.1, 0.08, 0.06, 0.06, 0.08, 0.08, 0.06, 0.08, 0.08, 0.08, 0.1]","[[-0.05585698488468194, 0.5223075787239648], [-0.47696496990554105, -0.34008272957516494], [-0.05609096970016225, 0.03551389885734024], [-0.3471374717004852, -0.09886891356184219], [-0.07545531634109026, -0.31408138693408905], [0.1809831900648765, -0.1255472849080666], [0.5609415168132547, -0.008009226771865302], [0.1439128059645982, 0.47339905212390665], [-0.5557320474235342, 0.1947004177306648], [-0.014047642150774253, 0.23791614785847237], [-0.5609286949163237, -0.024250582144750704], [0.34534768408429906, 0.2537541490046307], [-0.07676970184308496, -0.5386015271726565], [-0.329706679123303, 0.43501461134011254], [-0.325336072077252, 0.22348162627830814], [0.36883497179070457, -0.31560910424572175], [-0.2995927810102445, -0.4618987149379515], [0.11095977723537764, -0.49838629775937393], [0.30349569319385794, 0.05227807591973499], [0.5343316863247017, -0.20051214632131673]]",density,black,,,1301830,visual,1,[],"['1', '2', '3', '4']",1,2023.2.3,harveyvisual,2.1,[],8,0.75,
