num,mod,duration,shape,ll_cond,colors,.thisRepN,.thisTrialN,.thisN,.thisIndex,thisRow.t,notes,raw_global_time,t_start,t_stop,shapes,size,pos,cond,color,button,RT,participant,session,starting_run,left button (match/odd),right button (non-match/even),samples_per_block,psychopy version,expName,offset,audio,number_runs,radius,
1,dot,0.3,['dot'],['density'],black,0,0,0,0,,,2.400216817855835,2.1124558448791504,2.4123787879943848,dot,[0.1],"[-0.3631366314731191, 0.1590646049745197]",density,black,,,D003,visual,1,[],"['1', '2', '3', '4']",1,2023.2.3,harveyvisual,2.1,[],8,0.75,
0,pause,0.4,None,None,None,0,1,1,1,,,,,,,,,,,,,D003,visual,1,[],"['1', '2', '3', '4']",1,2023.2.3,harveyvisual,2.1,[],8,0.75,
1,dot,0.3,['dot'],['density'],black,0,2,2,2,,,3.1001908779144287,2.8123838901519775,3.112374782562256,dot,[0.06],"[0.4123293050259286, 0.03564095151647579]",density,black,,,D003,visual,1,[],"['1', '2', '3', '4']",1,2023.2.3,harveyvisual,2.1,[],8,0.75,
0,pause,0.4,None,None,None,0,3,3,3,,,,,,,,,,,,,D003,visual,1,[],"['1', '2', '3', '4']",1,2023.2.3,harveyvisual,2.1,[],8,0.75,
1,dot,0.3,['dot'],['density'],black,0,4,4,4,,,3.80021595954895,3.5123488903045654,3.812356948852539,dot,[0.1],"[-0.43105706563061386, -0.18359692062194616]",density,black,,,D003,visual,1,[],"['1', '2', '3', '4']",1,2023.2.3,harveyvisual,2.1,[],8,0.75,
0,pause,0.4,None,None,None,0,5,5,5,,,,,,,,,,,,,D003,visual,1,[],"['1', '2', '3', '4']",1,2023.2.3,harveyvisual,2.1,[],8,0.75,
1,dot,0.3,['dot'],['density'],black,0,6,6,6,,,4.500192880630493,4.212479829788208,4.512315988540649,dot,[0.1],"[0.19623115665255414, 0.1676894875529279]",density,black,,,D003,visual,1,[],"['1', '2', '3', '4']",1,2023.2.3,harveyvisual,2.1,[],8,0.75,
0,pause,0.4,None,None,None,0,7,7,7,,,,,,,,,,,,,D003,visual,1,[],"['1', '2', '3', '4']",1,2023.2.3,harveyvisual,2.1,[],8,0.75,
1,dot,0.3,['dot'],['density'],black,0,8,8,8,,,5.2002058029174805,4.9123759269714355,5.212453842163086,dot,[0.08],"[-0.06064478149429028, 0.10204082006191012]",density,black,,,D003,visual,1,[],"['1', '2', '3', '4']",1,2023.2.3,harveyvisual,2.1,[],8,0.75,
0,pause,0.4,None,None,None,0,9,9,9,,,,,,,,,,,,,D003,visual,1,[],"['1', '2', '3', '4']",1,2023.2.3,harveyvisual,2.1,[],8,0.75,
1,dot,0.3,['dot'],['density'],white,0,10,10,10,,,5.9002158641815186,5.612307786941528,5.912341833114624,dot,[0.1],"[-0.1989246115662565, -0.15069844343359862]",density,white,,,D003,visual,1,[],"['1', '2', '3', '4']",1,2023.2.3,harveyvisual,2.1,[],8,0.75,
0,pause,0.4,None,None,None,0,11,11,11,,,,,,,,,,,1,5.48857307434082,D003,visual,1,[],"['1', '2', '3', '4']",1,2023.2.3,harveyvisual,2.1,[],8,0.75,
2,dot,0.3,['dot'],['density'],black,0,12,12,12,,,6.600198984146118,6.312419891357422,6.612282991409302,dot,"[0.1, 0.08]","[[0.4101371699595759, -0.046236245446824746], [0.42481245787877703, -0.24684889303111815]]",density,black,,,D003,visual,1,[],"['1', '2', '3', '4']",1,2023.2.3,harveyvisual,2.1,[],8,0.75,
0,pause,0.4,None,None,None,0,13,13,13,,,,,,,,,,,,,D003,visual,1,[],"['1', '2', '3', '4']",1,2023.2.3,harveyvisual,2.1,[],8,0.75,
2,dot,0.3,['dot'],['density'],black,0,14,14,14,,,7.300196886062622,7.0123279094696045,7.312251806259155,dot,"[0.08, 0.08]","[[0.09481659993656301, 0.43631713998557026], [0.0662189159667295, 0.23745101446818795]]",density,black,,,D003,visual,1,[],"['1', '2', '3', '4']",1,2023.2.3,harveyvisual,2.1,[],8,0.75,
0,pause,0.4,None,None,None,0,15,15,15,,,,,,,,,,,,,D003,visual,1,[],"['1', '2', '3', '4']",1,2023.2.3,harveyvisual,2.1,[],8,0.75,
2,dot,0.3,['dot'],['density'],black,0,16,16,16,,,8.00020694732666,7.712245941162109,8.012295961380005,dot,"[0.1, 0.06]","[[-0.03288134563171543, -0.4238564918242606], [-0.10611641736664675, -0.2370354775439666]]",density,black,,,D003,visual,1,[],"['1', '2', '3', '4']",1,2023.2.3,harveyvisual,2.1,[],8,0.75,
0,pause,0.4,None,None,None,0,17,17,17,,,,,,,,,,,,,D003,visual,1,[],"['1', '2', '3', '4']",1,2023.2.3,harveyvisual,2.1,[],8,0.75,
2,dot,0.3,['dot'],['density'],black,0,18,18,18,,,8.700194835662842,8.412285804748535,8.71222996711731,dot,"[0.06, 0.08]","[[0.075840462383643, -0.21806900392302264], [0.2761252679018853, -0.22101292055433702]]",density,black,,,D003,visual,1,[],"['1', '2', '3', '4']",1,2023.2.3,harveyvisual,2.1,[],8,0.75,
0,pause,0.4,None,None,None,0,19,19,19,,,,,,,,,,,,,D003,visual,1,[],"['1', '2', '3', '4']",1,2023.2.3,harveyvisual,2.1,[],8,0.75,
2,dot,0.3,['dot'],['density'],black,0,20,20,20,,,9.400201797485352,9.112231969833374,9.41223692893982,dot,"[0.06, 0.06]","[[0.1734117655345296, 0.46860731914486053], [-0.01847566562869785, 0.52581935004857]]",density,black,,,D003,visual,1,[],"['1', '2', '3', '4']",1,2023.2.3,harveyvisual,2.1,[],8,0.75,
0,pause,0.4,None,None,None,0,21,21,21,,,,,,,,,,,,,D003,visual,1,[],"['1', '2', '3', '4']",1,2023.2.3,harveyvisual,2.1,[],8,0.75,
2,dot,0.3,['dot'],['density'],black,0,22,22,22,,,10.100197792053223,9.8122079372406,10.11227297782898,dot,"[0.08, 0.06]","[[0.5159928458027473, 0.13749655768121952], [0.38343727829172375, 0.28833164788761484]]",density,black,,,D003,visual,1,[],"['1', '2', '3', '4']",1,2023.2.3,harveyvisual,2.1,[],8,0.75,
0,pause,0.4,None,None,None,0,23,23,23,,,,,,,,,,,,,D003,visual,1,[],"['1', '2', '3', '4']",1,2023.2.3,harveyvisual,2.1,[],8,0.75,
3,dot,0.3,['dot'],['density'],white,0,24,24,24,,,10.800217866897583,10.512301921844482,10.812260866165161,dot,"[0.06, 0.06, 0.1]","[[-0.476501853024302, 0.3110516410681161], [-0.26865065753742645, 0.4732574608261889], [-0.2772428868380306, 0.2516539537451065]]",density,white,,,D003,visual,1,[],"['1', '2', '3', '4']",1,2023.2.3,harveyvisual,2.1,[],8,0.75,
0,pause,0.4,None,None,None,0,25,25,25,,,,,,,,,,,1,10.394361972808838,D003,visual,1,[],"['1', '2', '3', '4']",1,2023.2.3,harveyvisual,2.1,[],8,0.75,
3,dot,0.3,['dot'],['density'],black,0,26,26,26,,,11.500200986862183,11.212180852890015,11.512164831161499,dot,"[0.06, 0.08, 0.06]","[[0.4290032298944087, 0.1407520187648592], [0.22848299553954127, 0.06362144779139585], [0.3595680574788582, -0.09433362503040832]]",density,black,,,D003,visual,1,[],"['1', '2', '3', '4']",1,2023.2.3,harveyvisual,2.1,[],8,0.75,
0,pause,0.4,None,None,None,0,27,27,27,,,,,,,,,,,,,D003,visual,1,[],"['1', '2', '3', '4']",1,2023.2.3,harveyvisual,2.1,[],8,0.75,
3,dot,0.3,['dot'],['density'],black,0,28,28,28,,,12.200199842453003,11.912173986434937,12.212148904800415,dot,"[0.08, 0.08, 0.06]","[[-0.3082868261871679, -0.3137599619928766], [-0.14816041357862977, -0.19371393562593295], [-0.35304767783039576, -0.10610354059871957]]",density,black,,,D003,visual,1,[],"['1', '2', '3', '4']",1,2023.2.3,harveyvisual,2.1,[],8,0.75,
0,pause,0.4,None,None,None,0,29,29,29,,,,,,,,,,,,,D003,visual,1,[],"['1', '2', '3', '4']",1,2023.2.3,harveyvisual,2.1,[],8,0.75,
3,dot,0.3,['dot'],['density'],black,0,30,30,30,,,12.900211811065674,12.612135887145996,12.912123918533325,dot,"[0.1, 0.08, 0.1]","[[-0.32034981165049564, 0.18083778238314796], [-0.3344619052850136, -0.04022521570367012], [-0.13485517643248812, 0.10330846540140716]]",density,black,,,D003,visual,1,[],"['1', '2', '3', '4']",1,2023.2.3,harveyvisual,2.1,[],8,0.75,
0,pause,0.4,None,None,None,0,31,31,31,,,,,,,,,,,,,D003,visual,1,[],"['1', '2', '3', '4']",1,2023.2.3,harveyvisual,2.1,[],8,0.75,
3,dot,0.3,['dot'],['density'],black,0,32,32,32,,,13.600194931030273,13.312088966369629,13.612112998962402,dot,"[0.1, 0.1, 0.1]","[[0.026071599024748527, -0.32860913997604846], [-0.11834724389398482, -0.18584523127985947], [0.10068982493997472, -0.12518245043845455]]",density,black,,,D003,visual,1,[],"['1', '2', '3', '4']",1,2023.2.3,harveyvisual,2.1,[],8,0.75,
0,pause,0.4,None,None,None,0,33,33,33,,,,,,,,,,,,,D003,visual,1,[],"['1', '2', '3', '4']",1,2023.2.3,harveyvisual,2.1,[],8,0.75,
3,dot,0.3,['dot'],['density'],black,0,34,34,34,,,14.300208806991577,14.012086868286133,14.312055826187134,dot,"[0.06, 0.06, 0.08]","[[0.3835821938049364, -0.20766469641190155], [0.321707527308891, -0.4175939354614905], [0.1897943789354585, -0.2642367600490923]]",density,black,,,D003,visual,1,[],"['1', '2', '3', '4']",1,2023.2.3,harveyvisual,2.1,[],8,0.75,
0,pause,0.4,None,None,None,0,35,35,35,,,,,,,,,,,,,D003,visual,1,[],"['1', '2', '3', '4']",1,2023.2.3,harveyvisual,2.1,[],8,0.75,
4,dot,0.3,['dot'],['density'],black,0,36,36,36,,,15.000202894210815,14.712082862854004,15.012057781219482,dot,"[0.08, 0.06, 0.08, 0.08]","[[0.1665887267295909, 0.08389582001604734], [0.4584359263982055, 0.26405512465689546], [0.4157764543415929, 0.03513878013061779], [0.2392225064082761, 0.29777239984320175]]",density,black,,,D003,visual,1,[],"['1', '2', '3', '4']",1,2023.2.3,harveyvisual,2.1,[],8,0.75,
0,pause,0.4,None,None,None,0,37,37,37,,,,,,,,,,,,,D003,visual,1,[],"['1', '2', '3', '4']",1,2023.2.3,harveyvisual,2.1,[],8,0.75,
4,dot,0.3,['dot'],['density'],black,0,38,38,38,,,15.700219869613647,15.412068843841553,15.71209979057312,dot,"[0.06, 0.1, 0.08, 0.06]","[[0.3428963381299033, -0.004396565162037705], [0.42558881424794154, 0.18301493672810298], [0.5687630200397232, 0.01721079717795714], [0.4301208405972816, -0.23499851958356296]]",density,black,,,D003,visual,1,[],"['1', '2', '3', '4']",1,2023.2.3,harveyvisual,2.1,[],8,0.75,
0,pause,0.4,None,None,None,0,39,39,39,,,,,,,,,,,,,D003,visual,1,[],"['1', '2', '3', '4']",1,2023.2.3,harveyvisual,2.1,[],8,0.75,
4,dot,0.3,['dot'],['density'],black,0,40,40,40,,,16.40019989013672,16.112018823623657,16.412041902542114,dot,"[0.1, 0.06, 0.1, 0.1]","[[-0.2516773625496151, -0.30151264897341506], [-0.16747001932966935, -0.11477707456203952], [0.007305472957725734, -0.4586877449884055], [0.017540980065453668, -0.20354321808263612]]",density,black,,,D003,visual,1,[],"['1', '2', '3', '4']",1,2023.2.3,harveyvisual,2.1,[],8,0.75,
0,pause,0.4,None,None,None,0,41,41,41,,,,,,,,,,,,,D003,visual,1,[],"['1', '2', '3', '4']",1,2023.2.3,harveyvisual,2.1,[],8,0.75,
4,dot,0.3,['dot'],['density'],white,0,42,42,42,,,17.100215911865234,16.812025785446167,17.111995935440063,dot,"[0.1, 0.1, 0.1, 0.08]","[[0.3510671072586959, 0.39105757673094776], [0.13754249634966464, 0.24690230999823115], [0.2791454519284172, 0.028997379515453933], [0.42442503262497266, 0.18132357243737673]]",density,white,,,D003,visual,1,[],"['1', '2', '3', '4']",1,2023.2.3,harveyvisual,2.1,[],8,0.75,
0,pause,0.4,None,None,None,0,43,43,43,,,,,,,,,,,1,16.715952157974243,D003,visual,1,[],"['1', '2', '3', '4']",1,2023.2.3,harveyvisual,2.1,[],8,0.75,
4,dot,0.3,['dot'],['density'],white,0,44,44,44,,,17.800201892852783,17.51253080368042,17.812506914138794,dot,"[0.08, 0.08, 0.08, 0.06]","[[-0.0389916918612136, -0.388752419995929], [-0.2709884701808293, -0.36873671266769453], [0.09349318837137091, -0.23801008290575854], [-0.09100040788429245, -0.11490803606521542]]",density,white,,,D003,visual,1,[],"['1', '2', '3', '4']",1,2023.2.3,harveyvisual,2.1,[],8,0.75,
0,pause,0.4,None,None,None,0,45,45,45,,,,,,,,,,,1,17.459036111831665,D003,visual,1,[],"['1', '2', '3', '4']",1,2023.2.3,harveyvisual,2.1,[],8,0.75,
4,dot,0.3,['dot'],['density'],black,0,46,46,46,,,18.500203847885132,18.212461948394775,18.512486934661865,dot,"[0.08, 0.08, 0.06, 0.08]","[[-0.5372831058023291, 0.07679305146548565], [-0.47746952625478134, -0.11455356156484316], [-0.2888199447118168, 0.02804534169422597], [-0.3317661241759115, -0.2533775510137967]]",density,black,,,D003,visual,1,[],"['1', '2', '3', '4']",1,2023.2.3,harveyvisual,2.1,[],8,0.75,
0,pause,0.4,None,None,None,0,47,47,47,,,,,,,,,,,,,D003,visual,1,[],"['1', '2', '3', '4']",1,2023.2.3,harveyvisual,2.1,[],8,0.75,
5,dot,0.3,['dot'],['density'],black,0,48,48,48,,,19.20020580291748,18.912471771240234,19.212430000305176,dot,"[0.08, 0.08, 0.1, 0.08, 0.08]","[[-0.24811222937808852, -0.0926462173418487], [-0.0684102839715827, 0.053707960252323945], [-0.4199359189551936, 0.028595247832400618], [-0.4311232183625476, -0.17348815390478414], [-0.08153496032007611, -0.23043043025001772]]",density,black,,,D003,visual,1,[],"['1', '2', '3', '4']",1,2023.2.3,harveyvisual,2.1,[],8,0.75,
0,pause,0.4,None,None,None,0,49,49,49,,,,,,,,,,,,,D003,visual,1,[],"['1', '2', '3', '4']",1,2023.2.3,harveyvisual,2.1,[],8,0.75,
5,dot,0.3,['dot'],['density'],black,0,50,50,50,,,19.90021276473999,19.612481832504272,19.912463903427124,dot,"[0.08, 0.06, 0.06, 0.1, 0.1]","[[-0.2338402938730933, 0.15846616122991625], [-0.3229678957369872, -0.0901175890533356], [-0.5034912146055804, 0.021834460539281654], [-0.23914892391179104, -0.28496604153387733], [-0.10132718886958789, -0.1172648190903725]]",density,black,,,D003,visual,1,[],"['1', '2', '3', '4']",1,2023.2.3,harveyvisual,2.1,[],8,0.75,
0,pause,0.4,None,None,None,0,51,51,51,,,,,,,,,,,,,D003,visual,1,[],"['1', '2', '3', '4']",1,2023.2.3,harveyvisual,2.1,[],8,0.75,
5,dot,0.3,['dot'],['density'],black,0,52,52,52,,,20.600201845169067,20.314738988876343,20.61476492881775,dot,"[0.06, 0.1, 0.08, 0.1, 0.08]","[[-0.4709100701083565, 0.02189337908226187], [-0.29145525575644754, 0.3795081276742083], [-0.23690205020139254, 0.016868774910060797], [-0.4278442329265702, 0.22919645259494104], [-0.09991604659712162, 0.23043195716445664]]",density,black,,,D003,visual,1,[],"['1', '2', '3', '4']",1,2023.2.3,harveyvisual,2.1,[],8,0.75,
0,pause,0.4,None,None,None,0,53,53,53,,,,,,,,,,,,,D003,visual,1,[],"['1', '2', '3', '4']",1,2023.2.3,harveyvisual,2.1,[],8,0.75,
5,dot,0.3,['dot'],['density'],white,0,54,54,54,,,21.3002188205719,21.014732837677002,21.314716815948486,dot,"[0.06, 0.1, 0.08, 0.06, 0.06]","[[-0.19096480170835262, 0.2202776521134577], [0.009488999043989208, 0.5721548226574139], [0.16477125949827795, 0.3732973518003487], [0.07476286221063107, 0.1476230553836633], [-0.051949696108355745, 0.36609537475325354]]",density,white,,,D003,visual,1,[],"['1', '2', '3', '4']",1,2023.2.3,harveyvisual,2.1,[],8,0.75,
0,pause,0.4,None,None,None,0,55,55,55,,,,,,,,,,,1,20.967654943466187,D003,visual,1,[],"['1', '2', '3', '4']",1,2023.2.3,harveyvisual,2.1,[],8,0.75,
5,dot,0.3,['dot'],['density'],black,0,56,56,56,,,22.000199794769287,21.714740991592407,22.014692783355713,dot,"[0.06, 0.08, 0.1, 0.06, 0.06]","[[-0.11834215492801986, 0.412508379109845], [0.31881799646300274, 0.30859303438359803], [-0.06368743078099719, 0.10105058071702504], [0.1133485112468387, 0.46262203184429457], [0.11957051434631445, 0.24197418837926052]]",density,black,,,D003,visual,1,[],"['1', '2', '3', '4']",1,2023.2.3,harveyvisual,2.1,[],8,0.75,
0,pause,0.4,None,None,None,0,57,57,57,,,,,,,,,,,,,D003,visual,1,[],"['1', '2', '3', '4']",1,2023.2.3,harveyvisual,2.1,[],8,0.75,
5,dot,0.3,['dot'],['density'],black,0,58,58,58,,,22.70022177696228,22.414686918258667,22.715106964111328,dot,"[0.06, 0.1, 0.1, 0.08, 0.08]","[[0.2947939438731228, -0.23060267152592065], [-0.16069394766121817, -0.3416383267983795], [0.17571447256805817, -0.04795497140357211], [-0.06398416024856234, -0.043165972544212804], [0.046845399773749824, -0.2436216536023896]]",density,black,,,D003,visual,1,[],"['1', '2', '3', '4']",1,2023.2.3,harveyvisual,2.1,[],8,0.75,
0,pause,0.4,None,None,None,0,59,59,59,,,,,,,,,,,,,D003,visual,1,[],"['1', '2', '3', '4']",1,2023.2.3,harveyvisual,2.1,[],8,0.75,
6,dot,0.3,['dot'],['density'],black,0,60,60,60,,,23.400211811065674,23.115765810012817,23.414692878723145,dot,"[0.1, 0.1, 0.06, 0.1, 0.08, 0.06]","[[-0.060066269329224556, -0.3459973645598818], [-0.2267112282887438, -0.46433083725857055], [-0.03368736353914721, -0.0592740518520544], [0.1129416353875032, -0.20466059509733167], [0.13908697530976044, -0.42386339769443276], [-0.2931789080149146, -0.2669036372638095]]",density,black,,,D003,visual,1,[],"['1', '2', '3', '4']",1,2023.2.3,harveyvisual,2.1,[],8,0.75,
0,pause,0.4,None,None,None,0,61,61,61,,,,,,,,,,,,,D003,visual,1,[],"['1', '2', '3', '4']",1,2023.2.3,harveyvisual,2.1,[],8,0.75,
6,dot,0.3,['dot'],['density'],black,0,62,62,62,,,24.100221872329712,23.81480884552002,24.114675998687744,dot,"[0.06, 0.1, 0.06, 0.08, 0.06, 0.06]","[[-0.12151555870586603, -0.4812968000001843], [0.16790488833295267, -0.2471088416996458], [0.27214716196035416, -0.49820278546509117], [-0.038147587524033764, -0.29309333197091036], [0.014949188681413147, -0.08915939926713055], [0.06798063624072649, -0.5852336971646088]]",density,black,,,D003,visual,1,[],"['1', '2', '3', '4']",1,2023.2.3,harveyvisual,2.1,[],8,0.75,
0,pause,0.4,None,None,None,0,63,63,63,,,,,,,,,,,,,D003,visual,1,[],"['1', '2', '3', '4']",1,2023.2.3,harveyvisual,2.1,[],8,0.75,
6,dot,0.3,['dot'],['density'],black,0,64,64,64,,,24.800208806991577,24.514657974243164,24.81464695930481,dot,"[0.06, 0.08, 0.08, 0.1, 0.1, 0.06]","[[-0.560843418842529, -0.11752527585456686], [-0.31277608783648175, 0.04003545118838376], [-0.18207900664359264, -0.3652956678781814], [-0.41442909117718774, -0.4038021739217259], [-0.14446849917993246, -0.07035639226176245], [-0.3420415871796019, -0.1631057353810994]]",density,black,,,D003,visual,1,[],"['1', '2', '3', '4']",1,2023.2.3,harveyvisual,2.1,[],8,0.75,
0,pause,0.4,None,None,None,0,65,65,65,,,,,,,,,,,,,D003,visual,1,[],"['1', '2', '3', '4']",1,2023.2.3,harveyvisual,2.1,[],8,0.75,
6,dot,0.3,['dot'],['density'],black,0,66,66,66,,,25.5002019405365,25.21461582183838,25.51463484764099,dot,"[0.06, 0.06, 0.08, 0.1, 0.1, 0.06]","[[-0.5042184434856596, 0.24959378884587158], [-0.14877643798118484, -0.059020126001740114], [-0.46546181494132466, -0.1471818588402077], [-0.26957518187208745, -0.22263810459524838], [-0.2342448443914648, 0.21754944417529726], [-0.37109182385784195, 0.03297203532481631]]",density,black,,,D003,visual,1,[],"['1', '2', '3', '4']",1,2023.2.3,harveyvisual,2.1,[],8,0.75,
0,pause,0.4,None,None,None,0,67,67,67,,,,,,,,,,,,,D003,visual,1,[],"['1', '2', '3', '4']",1,2023.2.3,harveyvisual,2.1,[],8,0.75,
6,dot,0.3,['dot'],['density'],black,0,68,68,68,,,26.200214862823486,25.914628982543945,26.214589834213257,dot,"[0.1, 0.06, 0.06, 0.1, 0.08, 0.06]","[[-0.4130096743352808, -0.09152271377164663], [-0.19778223104980006, -0.03862987845790588], [-0.5782793278508197, 0.04067119283421001], [-0.2942915267906656, -0.3673297053134895], [-0.33560074172492643, 0.119885218799542], [-0.5263932498355091, -0.25924495598585295]]",density,black,,,D003,visual,1,[],"['1', '2', '3', '4']",1,2023.2.3,harveyvisual,2.1,[],8,0.75,
0,pause,0.4,None,None,None,0,69,69,69,,,,,,,,,,,,,D003,visual,1,[],"['1', '2', '3', '4']",1,2023.2.3,harveyvisual,2.1,[],8,0.75,
6,dot,0.3,['dot'],['density'],black,0,70,70,70,,,26.900205850601196,26.614608764648438,26.914604902267456,dot,"[0.06, 0.06, 0.08, 0.08, 0.08, 0.1]","[[0.1643264729387965, -0.2471077239796436], [-0.22534804549937193, -0.4918728234310363], [-0.026166131246113146, -0.09278119687647148], [-0.24451989516519138, -0.21339523607155425], [0.11868454116144263, -0.4574197693624388], [-0.058907778787058426, -0.30919141315076737]]",density,black,,,D003,visual,1,[],"['1', '2', '3', '4']",1,2023.2.3,harveyvisual,2.1,[],8,0.75,
0,pause,0.4,None,None,None,0,71,71,71,,,,,,,,,,,,,D003,visual,1,[],"['1', '2', '3', '4']",1,2023.2.3,harveyvisual,2.1,[],8,0.75,
7,dot,0.3,['dot'],['density'],black,0,72,72,72,,,27.600204944610596,27.31563687324524,27.61457586288452,dot,"[0.06, 0.06, 0.06, 0.06, 0.06, 0.1, 0.08]","[[0.06935229908748385, 0.4911641494940837], [-0.19266199922505295, 0.07836852906048222], [0.055274369019684175, 0.020452523162812593], [0.26239471350362015, 0.1001529216481179], [-0.06036973858781391, 0.3360513952533211], [-0.2638544135394649, 0.29089327984911306], [0.14813816713374972, 0.28344041791591096]]",density,black,,,D003,visual,1,[],"['1', '2', '3', '4']",1,2023.2.3,harveyvisual,2.1,[],8,0.75,
0,pause,0.4,None,None,None,0,73,73,73,,,,,,,,,,,,,D003,visual,1,[],"['1', '2', '3', '4']",1,2023.2.3,harveyvisual,2.1,[],8,0.75,
7,dot,0.3,['dot'],['density'],black,0,74,74,74,,,28.300211906433105,28.014700889587402,28.31567692756653,dot,"[0.1, 0.06, 0.06, 0.1, 0.08, 0.08, 0.06]","[[0.3474653327129969, -0.31878285251617694], [0.04167069501601444, -0.04495125607964222], [-0.05005146056072613, -0.501422524998621], [-0.11295401278341419, -0.30095052262615135], [0.08710344590613708, -0.2932726077696002], [0.25592372840254046, -0.13825923460737455], [-0.15770825932276006, -0.07757053521742455]]",density,black,,,D003,visual,1,[],"['1', '2', '3', '4']",1,2023.2.3,harveyvisual,2.1,[],8,0.75,
0,pause,0.4,None,None,None,0,75,75,75,,,,,,,,,,,,,D003,visual,1,[],"['1', '2', '3', '4']",1,2023.2.3,harveyvisual,2.1,[],8,0.75,
7,dot,0.3,['dot'],['density'],black,0,76,76,76,,,29.000208854675293,28.714691877365112,29.014686822891235,dot,"[0.06, 0.06, 0.08, 0.1, 0.08, 0.08, 0.08]","[[-0.23675386446936744, -0.019099737415117023], [-0.3793299299598963, 0.3840296974489508], [0.16444052853698826, 0.25964081185693966], [-0.17441972694422359, 0.2376971805458075], [0.025313303261310992, 0.0859287266400301], [-0.3760941870171968, 0.1722047307528389], [-0.012854506600276856, 0.3778399739802858]]",density,black,,,D003,visual,1,[],"['1', '2', '3', '4']",1,2023.2.3,harveyvisual,2.1,[],8,0.75,
0,pause,0.4,None,None,None,0,77,77,77,,,,,,,,,,,,,D003,visual,1,[],"['1', '2', '3', '4']",1,2023.2.3,harveyvisual,2.1,[],8,0.75,
7,dot,0.3,['dot'],['density'],black,0,78,78,78,,,29.700209856033325,29.414673805236816,29.714539766311646,dot,"[0.06, 0.08, 0.1, 0.08, 0.06, 0.06, 0.08]","[[0.06935229908748385, 0.4911641494940837], [-0.19266199922505295, 0.07836852906048222], [0.055274369019684175, 0.020452523162812593], [0.26239471350362015, 0.1001529216481179], [-0.06036973858781391, 0.3360513952533211], [-0.2638544135394649, 0.29089327984911306], [0.14813816713374972, 0.28344041791591096]]",density,black,,,D003,visual,1,[],"['1', '2', '3', '4']",1,2023.2.3,harveyvisual,2.1,[],8,0.75,
0,pause,0.4,None,None,None,0,79,79,79,,,,,,,,,,,,,D003,visual,1,[],"['1', '2', '3', '4']",1,2023.2.3,harveyvisual,2.1,[],8,0.75,
7,dot,0.3,['dot'],['density'],black,0,80,80,80,,,30.40019989013672,30.11453080177307,30.41450595855713,dot,"[0.1, 0.08, 0.1, 0.1, 0.1, 0.08, 0.06]","[[0.21536278937261513, -0.01733091677764761], [-0.08931035591216824, -0.05246349631749078], [0.21870610454298933, 0.21067491250041093], [-0.1587576617113587, 0.26068369883413384], [0.04623079518225047, 0.4568527369480977], [0.022942391481424712, 0.13939122930077608], [-0.27674911739568203, 0.09730719745121558]]",density,black,,,D003,visual,1,[],"['1', '2', '3', '4']",1,2023.2.3,harveyvisual,2.1,[],8,0.75,
0,pause,0.4,None,None,None,0,81,81,81,,,,,,,,,,,,,D003,visual,1,[],"['1', '2', '3', '4']",1,2023.2.3,harveyvisual,2.1,[],8,0.75,
7,dot,0.3,['dot'],['density'],black,0,82,82,82,,,31.100197792053223,30.81449794769287,31.114500999450684,dot,"[0.06, 0.1, 0.06, 0.06, 0.1, 0.06, 0.06]","[[-0.2314520007693297, 0.33838000150240727], [-0.18132207761103206, 0.5552670473927488], [0.017458222085991553, 0.32213086183097556], [0.10538257653630445, 0.5364165263315271], [-0.32661765694444117, 0.13553859080651098], [0.2001110614088519, 0.2352342526365964], [-0.07707990285528175, 0.1388757586163816]]",density,black,,,D003,visual,1,[],"['1', '2', '3', '4']",1,2023.2.3,harveyvisual,2.1,[],8,0.75,
0,pause,0.4,None,None,None,0,83,83,83,,,,,,,,,,,,,D003,visual,1,[],"['1', '2', '3', '4']",1,2023.2.3,harveyvisual,2.1,[],8,0.75,
8,dot,0.3,['dot'],['density'],white,0,84,84,84,,,31.800216913223267,31.518008947372437,31.814482927322388,dot,"[0.1, 0.06, 0.08, 0.1, 0.08, 0.06, 0.08, 0.1]","[[0.1740819983727909, -0.16863019829442621], [0.14644114519141543, -0.4524198896657212], [0.0024885361438939093, 0.023531574910491997], [-0.23717340943857948, -0.31112918658627675], [-0.11311749148073028, -0.46867866316561874], [-0.17928248077090506, -0.060241557052319365], [-0.03957999532622772, -0.24759906754331504], [-0.4644327601918011, -0.3627803331480915]]",density,white,,,D003,visual,1,[],"['1', '2', '3', '4']",1,2023.2.3,harveyvisual,2.1,[],8,0.75,
0,pause,0.4,None,None,None,0,85,85,85,,,,,,,,,,,1,31.318928956985474,D003,visual,1,[],"['1', '2', '3', '4']",1,2023.2.3,harveyvisual,2.1,[],8,0.75,
8,dot,0.3,['dot'],['density'],white,0,86,86,86,,,32.50022077560425,32.21459984779358,32.51446294784546,dot,"[0.08, 0.06, 0.08, 0.08, 0.06, 0.08, 0.06, 0.1]","[[0.11895989691250043, -0.4531686673706004], [-0.16516506104640707, -0.03240926074491446], [0.03539791161122963, 0.017706842047032937], [0.2602726326243711, -0.2021454296306109], [-0.07993394910368964, -0.42305571474287856], [-0.2833532244481061, -0.22994433794129646], [0.3633812293108319, -0.4186270945829863], [-0.04042382183071007, -0.1991401458565282]]",density,white,,,D003,visual,1,[],"['1', '2', '3', '4']",1,2023.2.3,harveyvisual,2.1,[],8,0.75,
0,pause,0.4,None,None,None,0,87,87,87,,,,,,,,,,,1,32.15903401374817,D003,visual,1,[],"['1', '2', '3', '4']",1,2023.2.3,harveyvisual,2.1,[],8,0.75,
8,dot,0.3,['dot'],['density'],white,0,88,88,88,,,33.20021080970764,32.914458990097046,33.21532082557678,dot,"[0.1, 0.1, 0.06, 0.08, 0.1, 0.1, 0.06, 0.1]","[[-0.19427332908310624, 0.44975086906229733], [-0.40583056883657587, 0.41268852933836647], [-0.1064323235824443, 0.09134240931295125], [0.037438273390647224, 0.2873761216870531], [-0.27580465694358225, 0.2567900319995576], [0.047234249799456944, 0.4983172858691376], [0.15563182967593078, 0.1192504703698398], [-0.32834908909536226, -0.014402300111889832]]",density,white,,,D003,visual,1,[],"['1', '2', '3', '4']",1,2023.2.3,harveyvisual,2.1,[],8,0.75,
0,pause,0.4,None,None,None,0,89,89,89,,,,,,,,,,,1,32.75994515419006,D003,visual,1,[],"['1', '2', '3', '4']",1,2023.2.3,harveyvisual,2.1,[],8,0.75,
8,dot,0.3,['dot'],['density'],black,0,90,90,90,,,33.90019679069519,33.61444592475891,33.91445183753967,dot,"[0.1, 0.08, 0.1, 0.08, 0.06, 0.06, 0.06, 0.1]","[[-0.30918623351354413, -0.2762980118811315], [0.03442122464869854, -0.32944299641312663], [0.20656618624830034, -0.4515266663928406], [0.20458815773351877, -0.002924552385479317], [-0.054765695239429084, -0.14491701700869716], [-0.0008776159608741382, 0.05441634750414142], [0.19975410704164612, -0.21252729673777132], [-0.19330391669800595, 0.14377227853430027]]",density,black,,,D003,visual,1,[],"['1', '2', '3', '4']",1,2023.2.3,harveyvisual,2.1,[],8,0.75,
0,pause,0.4,None,None,None,0,91,91,91,,,,,,,,,,,,,D003,visual,1,[],"['1', '2', '3', '4']",1,2023.2.3,harveyvisual,2.1,[],8,0.75,
8,dot,0.3,['dot'],['density'],white,0,92,92,92,,,34.60019898414612,34.31440281867981,34.61438488960266,dot,"[0.08, 0.1, 0.06, 0.06, 0.06, 0.1, 0.06, 0.08]","[[0.4359105889063985, -0.17362457700912998], [-0.10421753759268779, -0.0599030042764737], [0.3870326705858601, 0.24174009796940588], [0.2566713073165989, 0.014561377540278508], [0.2306797840234149, -0.3263374489921181], [0.47690301692068965, 0.04601699051563034], [0.08674944532705724, -0.15383855565976665], [0.03609124925759635, 0.09790267139194009]]",density,white,,,D003,visual,1,[],"['1', '2', '3', '4']",1,2023.2.3,harveyvisual,2.1,[],8,0.75,
0,pause,0.4,None,None,None,0,93,93,93,,,,,,,,,,,1,34.23109412193298,D003,visual,1,[],"['1', '2', '3', '4']",1,2023.2.3,harveyvisual,2.1,[],8,0.75,
8,dot,0.3,['dot'],['density'],black,0,94,94,94,,,35.30020999908447,35.01440787315369,35.314379930496216,dot,"[0.06, 0.08, 0.1, 0.06, 0.08, 0.06, 0.06, 0.06]","[[0.32983457944800887, -0.09988122376634187], [0.002544499336209532, 0.05447162498302279], [0.49322357980250997, 0.04173156098678792], [0.3398992085464782, -0.3241559212022164], [0.12656458423521935, -0.36323236959635974], [0.5072737450674915, -0.19500703868861743], [0.06482113683766944, -0.1422911224505784], [0.25865538318477954, 0.20042726536108785]]",density,black,,,D003,visual,1,[],"['1', '2', '3', '4']",1,2023.2.3,harveyvisual,2.1,[],8,0.75,
0,pause,0.4,None,None,None,0,95,95,95,,,,,,,,,,,,,D003,visual,1,[],"['1', '2', '3', '4']",1,2023.2.3,harveyvisual,2.1,[],8,0.75,
9,dot,0.3,['dot'],['density'],white,0,96,96,96,,,36.00020098686218,35.71437096595764,36.014338970184326,dot,"[0.06, 0.08, 0.1, 0.1, 0.06, 0.1, 0.06, 0.08, 0.1]","[[-0.08830733675648182, -0.32541118850070216], [0.2573655446525002, -0.0029570100823114536], [0.27547652153196345, -0.34332263321768475], [-0.10322368112243578, -0.12113330350182801], [-0.09512634339583304, 0.07974184968350245], [0.1087639633701519, -0.14934854126711464], [-0.2976800736237512, -0.022953619774800198], [0.014308470788770018, -0.5004438889851849], [-0.3557422450128242, -0.24953541402881954]]",density,white,,,D003,visual,1,[],"['1', '2', '3', '4']",1,2023.2.3,harveyvisual,2.1,[],8,0.75,
0,pause,0.4,None,None,None,0,97,97,97,,,,,,,,,,,1,35.54526710510254,D003,visual,1,[],"['1', '2', '3', '4']",1,2023.2.3,harveyvisual,2.1,[],8,0.75,
9,dot,0.3,['dot'],['density'],black,0,98,98,98,,,36.70022177696228,36.41435194015503,36.71435499191284,dot,"[0.06, 0.1, 0.06, 0.06, 0.08, 0.06, 0.1, 0.1, 0.08]","[[-0.03413633707233166, 0.539775862693792], [0.03045342777742709, 0.14881397110038386], [0.3968101769942594, 0.3516381959676015], [-0.12464897846505978, 0.27513009849494485], [0.24828272947848068, 0.13372878599656182], [0.1825630446668698, 0.5466865974155928], [-0.40057775338259505, 0.3148646888607764], [0.06988801613907401, -0.06658504348068199], [0.07277149512897427, 0.3699912437376705]]",density,black,,,D003,visual,1,[],"['1', '2', '3', '4']",1,2023.2.3,harveyvisual,2.1,[],8,0.75,
0,pause,0.4,None,None,None,0,99,99,99,,,,,,,,,,,,,D003,visual,1,[],"['1', '2', '3', '4']",1,2023.2.3,harveyvisual,2.1,[],8,0.75,
9,dot,0.3,['dot'],['density'],black,0,100,100,100,,,37.40020298957825,37.11435580253601,37.415443897247314,dot,"[0.1, 0.1, 0.1, 0.08, 0.08, 0.06, 0.1, 0.1, 0.1]","[[0.019793807854907846, -0.43234396454466956], [-0.19026732246162045, -0.30921043426246514], [0.04019268118281429, 0.04496242893187172], [-0.3995051790572048, -0.35321755636659735], [-0.3855517065125252, -0.10705750392277943], [0.08372722599267078, -0.1679482296571974], [0.2622756688563642, -0.3928589043728353], [-0.14305193053609555, -0.047108980659819465], [-0.27076529918092873, 0.10825753519043561]]",density,black,,,D003,visual,1,[],"['1', '2', '3', '4']",1,2023.2.3,harveyvisual,2.1,[],8,0.75,
0,pause,0.4,None,None,None,0,101,101,101,,,,,,,,,,,,,D003,visual,1,[],"['1', '2', '3', '4']",1,2023.2.3,harveyvisual,2.1,[],8,0.75,
9,dot,0.3,['dot'],['density'],black,0,102,102,102,,,38.10021376609802,37.81433892250061,38.11432600021362,dot,"[0.06, 0.1, 0.08, 0.1, 0.06, 0.08, 0.1, 0.08, 0.08]","[[-0.011980588702785358, -0.14271344386551676], [-0.15345504415890063, -0.3599837049237609], [0.2909474261289129, -0.3591516282942406], [0.16239073734315843, -0.5386624114967425], [0.2227638828830022, -0.11271380419745088], [0.06426208015886789, 0.04859175461581491], [-0.3648571389210414, -0.3413683676300365], [0.3831858227582706, 0.019718563726728144], [0.06479696894599615, -0.3534524636945761]]",density,black,,,D003,visual,1,[],"['1', '2', '3', '4']",1,2023.2.3,harveyvisual,2.1,[],8,0.75,
0,pause,0.4,None,None,None,0,103,103,103,,,,,,,,,,,,,D003,visual,1,[],"['1', '2', '3', '4']",1,2023.2.3,harveyvisual,2.1,[],8,0.75,
9,dot,0.3,['dot'],['density'],black,0,104,104,104,,,38.80021286010742,38.515437841415405,38.81429982185364,dot,"[0.06, 0.06, 0.06, 0.08, 0.06, 0.08, 0.1, 0.08, 0.1]","[[-0.01550530976013749, -0.4685693709261764], [-0.18673980358629047, -0.03677939788938074], [-0.492500386343057, -0.31631588298646995], [-0.31211872613566405, -0.49615226168915794], [-0.29213402726227655, -0.2779210730957987], [-0.48141959868665407, -0.11483975315711048], [0.2805727548720413, -0.20550850813502752], [-0.0662162642732561, -0.2200496541038322], [0.06776853683421198, -0.046300179137656175]]",density,black,,,D003,visual,1,[],"['1', '2', '3', '4']",1,2023.2.3,harveyvisual,2.1,[],8,0.75,
0,pause,0.4,None,None,None,0,105,105,105,,,,,,,,,,,,,D003,visual,1,[],"['1', '2', '3', '4']",1,2023.2.3,harveyvisual,2.1,[],8,0.75,
9,dot,0.3,['dot'],['density'],black,0,106,106,106,,,39.500218868255615,39.21541976928711,39.514280796051025,dot,"[0.06, 0.06, 0.1, 0.06, 0.06, 0.1, 0.06, 0.1, 0.06]","[[0.31750259908069645, 0.09103062301409195], [-0.10814993995151222, -0.14883262012051235], [0.2615101699546999, -0.13245952524223892], [0.014531427323725789, 0.3887544696515085], [-0.1117096847062306, 0.09593752649312724], [0.07810272484559946, -0.019955638642360052], [-0.26173373106631487, 0.2840804484106463], [0.4370020372247476, 0.2669512546191977], [0.11115841416421544, 0.18722161068425575]]",density,black,,,D003,visual,1,[],"['1', '2', '3', '4']",1,2023.2.3,harveyvisual,2.1,[],8,0.75,
0,pause,0.4,None,None,None,0,107,107,107,,,,,,,,,,,,,D003,visual,1,[],"['1', '2', '3', '4']",1,2023.2.3,harveyvisual,2.1,[],8,0.75,
20,dot,0.3,['dot'],['density'],black,0,108,108,108,,,40.2002158164978,39.91428589820862,40.214271783828735,dot,"[0.06, 0.08, 0.1, 0.08, 0.08, 0.06, 0.06, 0.06, 0.1, 0.08, 0.06, 0.06, 0.06, 0.06, 0.06, 0.1, 0.1, 0.06, 0.06, 0.06]","[[0.35659788859721675, 0.32585435884498476], [0.05677016369094812, 0.08501560440918421], [-0.2731951891171856, 0.508096149812799], [0.5478984559964094, 0.007463332316312188], [-0.5311488396370948, 0.10596216958041382], [-0.34045333520764076, -0.005811808807664465], [-0.14504960968839625, 0.15031385763045757], [-0.006499454556089579, -0.41247468686389227], [0.12885832225219707, 0.45332399106799903], [0.40373065527101437, -0.4299820019297172], [0.3354482401251345, 0.061628089789367735], [-0.17268913552664628, -0.11553192171936605], [0.18514516796868874, -0.29408365475226117], [-0.4872874648629988, -0.25114504315612574], [0.5281920481104531, -0.20699464938716738], [-0.33944546614882715, 0.24592497185868611], [-0.30663226743570504, -0.5095455483343333], [-0.16229556359374975, 0.3400151269655012], [0.5288089255712848, 0.2393866427551517], [0.3254144449566855, -0.12951330412288026]]",density,black,,,D003,visual,1,[],"['1', '2', '3', '4']",1,2023.2.3,harveyvisual,2.1,[],8,0.75,
0,pause,0.4,None,None,None,0,109,109,109,,,,,,,,,,,,,D003,visual,1,[],"['1', '2', '3', '4']",1,2023.2.3,harveyvisual,2.1,[],8,0.75,
20,dot,0.3,['dot'],['density'],white,0,110,110,110,,,40.90020990371704,40.61426377296448,40.914262771606445,dot,"[0.08, 0.08, 0.06, 0.1, 0.1, 0.1, 0.06, 0.06, 0.1, 0.08, 0.06, 0.1, 0.06, 0.06, 0.1, 0.06, 0.06, 0.06, 0.1, 0.06]","[[-0.0757747221905073, 0.27012525317044556], [-0.39253665458794323, 0.24156658410019194], [0.026165532913152045, -0.08423556823099454], [0.25175572281428626, -0.06504291291752873], [0.028895911212680203, -0.55408325741465], [0.23000098650714618, 0.3149873919345926], [0.4937180495454051, 0.000982699707105461], [-0.4843290979837986, -0.17532424093509286], [0.3820549706429792, -0.335495540918992], [0.0020416998605233827, -0.31591422138339886], [0.41509284358966003, 0.2333026880583811], [-0.4348451840431855, -0.3815935744911344], [-0.299411850097116, -0.020049311555769722], [-0.008992638632644434, 0.4732334146794269], [0.1045617771569125, 0.12159680214905455], [-0.2432074223746245, -0.4120292195668357], [-0.3521204392163743, 0.47610857980231003], [-0.572740154927452, 0.04627067183591957], [0.20266730168709213, 0.5335923819852724], [0.5516935841846943, -0.2474300342745192]]",density,white,,,D003,visual,1,[],"['1', '2', '3', '4']",1,2023.2.3,harveyvisual,2.1,[],8,0.75,
0,pause,0.4,None,None,None,0,111,111,111,,,,,,,,,,,1,40.382895946502686,D003,visual,1,[],"['1', '2', '3', '4']",1,2023.2.3,harveyvisual,2.1,[],8,0.75,
20,dot,0.3,['dot'],['density'],white,0,112,112,112,,,41.60020899772644,41.31537985801697,41.614250898361206,dot,"[0.1, 0.06, 0.08, 0.1, 0.08, 0.1, 0.1, 0.06, 0.06, 0.08, 0.08, 0.1, 0.06, 0.1, 0.08, 0.1, 0.06, 0.08, 0.08, 0.08]","[[-0.5257123461678443, 0.022124397740912627], [-0.13629946665245818, 0.3357229719080529], [0.2703727841596234, -0.23400509420727617], [-0.20229536206857157, -0.10656522698703891], [-0.046069814313407065, -0.24068448999411318], [0.3145145918692792, 0.21812214789244044], [-0.0012741942637896075, -0.4634834184130383], [-0.4176153543518527, 0.34226457926713266], [0.13462960989144812, 0.15453981016703366], [-0.0649338871398023, 0.5297575227855438], [-0.30753390581386025, -0.28889525092835633], [0.5795257447096017, 0.04035210834832975], [0.1456985466529842, -0.03659494409019781], [-0.07768798989055381, 0.0929467625699757], [-0.5277601856781188, -0.21438668207483097], [-0.25324888071987206, 0.18104580347356947], [0.2891435973472358, 0.4486276483594819], [0.4877113841319164, -0.23192756139550216], [-0.225529044514869, -0.5433419141867807], [0.32726197291543324, -0.4827206716326983]]",density,white,,,D003,visual,1,[],"['1', '2', '3', '4']",1,2023.2.3,harveyvisual,2.1,[],8,0.75,
0,pause,0.4,None,None,None,0,113,113,113,,,,,,,,,,,1,41.07693600654602,D003,visual,1,[],"['1', '2', '3', '4']",1,2023.2.3,harveyvisual,2.1,[],8,0.75,
20,dot,0.3,['dot'],['density'],black,0,114,114,114,,,42.30021786689758,42.01419496536255,42.31423091888428,dot,"[0.1, 0.1, 0.06, 0.1, 0.08, 0.08, 0.1, 0.08, 0.06, 0.1, 0.08, 0.1, 0.06, 0.1, 0.1, 0.1, 0.08, 0.06, 0.1, 0.08]","[[0.5204522804266952, -0.011485834743950374], [-0.2594479392637103, -0.07195172040717812], [-0.5461890187986925, 0.09260263703000288], [0.41258159488511514, 0.27722992895698556], [0.3126782903709985, 0.46531783149195616], [-0.4161226829518896, 0.29136889891315404], [-0.26611434947743096, -0.39983281146076627], [-0.5800157594308581, -0.12214866915045408], [0.1989291433491427, 0.10232513875422111], [-0.45090748258674, -0.33307483978892743], [-0.1186222059165713, 0.25582074292661006], [0.058867127514391604, -0.08977372794244909], [-0.015754357820559006, -0.33489070235146], [0.0174730819241099, 0.5137633456581956], [-0.18800422988732463, 0.542529151027067], [-0.11072230430233893, -0.5191902047166608], [0.5330726680663217, -0.25099200986356685], [-0.26764702020331216, 0.13582078539111941], [0.35254562698499337, -0.35757676029433594], [0.17525869829982776, -0.5166909682617478]]",density,black,,,D003,visual,1,[],"['1', '2', '3', '4']",1,2023.2.3,harveyvisual,2.1,[],8,0.75,
0,pause,0.4,None,None,None,0,115,115,115,,,,,,,,,,,,,D003,visual,1,[],"['1', '2', '3', '4']",1,2023.2.3,harveyvisual,2.1,[],8,0.75,
20,dot,0.3,['dot'],['density'],black,0,116,116,116,,,43.00020694732666,42.71419596672058,43.014174938201904,dot,"[0.08, 0.1, 0.08, 0.1, 0.08, 0.1, 0.1, 0.08, 0.1, 0.08, 0.06, 0.08, 0.06, 0.1, 0.08, 0.08, 0.06, 0.06, 0.08, 0.06]","[[-0.40854243832565246, -0.31039674923618654], [0.16125099896192596, -0.19434471193882258], [0.5564475290353238, 0.06894941910992397], [-0.1853534907847591, -0.3871874110899005], [-0.2803383809783083, -0.13397534950190476], [0.256214707403833, -0.5444071104291704], [-0.07270191258733483, -0.10942050685148969], [-0.04000046421583914, 0.5184057971786217], [-0.31152961891173503, 0.11733651379529608], [-0.11537146828897571, 0.20973743450353466], [-0.22304225206231543, 0.4493196220696528], [0.17195020249227866, 0.4245827158818912], [0.05859954641327281, 0.09508167243824217], [0.3680414643114531, -0.18798040279778533], [0.017219541418317053, -0.3605456091846966], [0.4215832242882048, 0.21043816788008118], [-0.5083976030288883, 0.2763278653450047], [0.43236982060888474, -0.36818115882747415], [-0.5969468292052634, 0.030429682177518874], [0.04592013790449234, -0.6033836439362529]]",density,black,,,D003,visual,1,[],"['1', '2', '3', '4']",1,2023.2.3,harveyvisual,2.1,[],8,0.75,
0,pause,0.4,None,None,None,0,117,117,117,,,,,,,,,,,,,D003,visual,1,[],"['1', '2', '3', '4']",1,2023.2.3,harveyvisual,2.1,[],8,0.75,
20,dot,0.3,['dot'],['density'],black,0,118,118,118,,,43.70020890235901,43.414177894592285,43.71416997909546,dot,"[0.08, 0.08, 0.1, 0.08, 0.08, 0.06, 0.08, 0.08, 0.06, 0.08, 0.06, 0.06, 0.1, 0.1, 0.1, 0.08, 0.06, 0.06, 0.1, 0.06]","[[0.599863953677303, 0.017247872478016], [0.10147214378324876, 0.3494111612002345], [-0.33552941341465925, 0.13205831844862104], [-0.4041096163149195, -0.20858149018789957], [-0.4664339989069177, -0.016710391049860718], [-0.4540405522179788, 0.2996285852905333], [0.18991836335921863, -0.18728898838870828], [-0.02513233383443736, -0.5570087896032289], [-0.22504592783476085, 0.3957808793317017], [0.49506045403955545, -0.3242033179199756], [0.42296562422558026, 0.16324767539428559], [0.48926153219860014, 0.34605113996761167], [0.29848631338651965, -0.3782690351560182], [0.026923511257529453, 0.10533391523674984], [0.44366825296831347, -0.1349972152148292], [0.0016605157970784878, -0.33302855023000827], [-0.27403444361453033, -0.04997985066265248], [0.28578999471881406, 0.42027719565266863], [-0.22118305059392912, -0.3212511711900986], [0.2645823420618776, -0.0097594085065007]]",density,black,,,D003,visual,1,[],"['1', '2', '3', '4']",1,2023.2.3,harveyvisual,2.1,[],8,0.75,
0,pause,0.4,None,None,None,0,119,119,119,,,,,,,,,,,,,D003,visual,1,[],"['1', '2', '3', '4']",1,2023.2.3,harveyvisual,2.1,[],8,0.75,
20,dot,0.3,['dot'],['density'],black,0,120,120,120,,,44.40022277832031,44.114179849624634,44.4142107963562,dot,"[0.08, 0.06, 0.08, 0.08, 0.08, 0.06, 0.06, 0.1, 0.08, 0.1, 0.1, 0.08, 0.08, 0.06, 0.1, 0.06, 0.08, 0.1, 0.1, 0.1]","[[0.6000366045426192, -0.003159834872910161], [-0.18105414820748272, -0.019039404359266543], [-0.5539899710374494, -0.09249810942152756], [-0.21599464191614692, 0.29053950360841896], [0.08693125944279789, -0.2729515824554096], [0.09074831074637901, -0.5765025418775764], [0.12144611146810325, 0.15350060131987586], [-0.5005715495616188, 0.17051118722434566], [0.3059242045169269, 0.02998210244408961], [0.4541466558956492, 0.17010021731896036], [0.2520068290615176, -0.4705732934336589], [0.44441354185810955, -0.18027413912147414], [0.04604250405755972, 0.4354883023802535], [0.2604270384401728, 0.3511607587064063], [0.06481003579147215, -0.07660627079090487], [-0.12770628878006285, -0.20462736931295078], [-0.3280084111620933, -0.41426131562912333], [-0.43541546689558, 0.36544317886255967], [-0.1569277502181456, 0.5087736280371137], [-0.3214345106304049, -0.17845592030842766]]",density,black,,,D003,visual,1,[],"['1', '2', '3', '4']",1,2023.2.3,harveyvisual,2.1,[],8,0.75,
0,pause,0.4,None,None,None,0,121,121,121,,,,,,,,,,,,,D003,visual,1,[],"['1', '2', '3', '4']",1,2023.2.3,harveyvisual,2.1,[],8,0.75,
20,dot,0.3,['dot'],['density'],black,0,122,122,122,,,45.10021686553955,44.81419491767883,45.11418581008911,dot,"[0.06, 0.1, 0.06, 0.08, 0.08, 0.06, 0.1, 0.06, 0.08, 0.08, 0.1, 0.08, 0.06, 0.06, 0.08, 0.08, 0.1, 0.08, 0.1, 0.06]","[[0.16225928892369712, 0.37936181604784214], [0.3867929127625863, 0.23549890600768641], [-0.19092167907172414, 0.11003185530809123], [0.4891724329875705, -0.2524318314549772], [-0.5825118728926549, 0.05052936156939042], [0.1407159642125091, -0.02314996900471966], [0.05770346474222954, -0.49403537340702663], [-0.2529900936726092, 0.42881153495499424], [-0.3534017964976418, -0.02400563846945314], [-0.027019899941919445, 0.4925912459819821], [-0.22552805662874326, -0.25128837210775895], [0.5448535222484449, 0.11722611194482468], [-0.41342189087496906, 0.3078637277836282], [-0.24369377061292752, -0.4513653177339737], [0.2654642981060136, -0.27461947019556593], [0.3396671767852655, 0.005861298934356829], [-0.03095391189157415, -0.30923945388671903], [0.13337996807026775, 0.18451360140537276], [0.287388102561689, -0.4632829176140406], [-0.5650870606104245, -0.14593606086686461]]",density,black,,,D003,visual,1,[],"['1', '2', '3', '4']",1,2023.2.3,harveyvisual,2.1,[],8,0.75,
0,pause,0.4,None,None,None,0,123,123,123,,,,,,,,,,,,,D003,visual,1,[],"['1', '2', '3', '4']",1,2023.2.3,harveyvisual,2.1,[],8,0.75,
20,dot,0.3,['dot'],['density'],black,0,124,124,124,,,45.800219774246216,45.51415491104126,45.81415581703186,dot,"[0.08, 0.08, 0.08, 0.08, 0.06, 0.08, 0.06, 0.08, 0.06, 0.08, 0.1, 0.1, 0.1, 0.06, 0.1, 0.06, 0.08, 0.08, 0.1, 0.1]","[[0.4996505331426321, 0.0829081631633462], [0.20374830127438914, 0.3790974213000715], [-0.5307537112708507, -0.28384341216927983], [-0.294804797509961, -0.4281428781270836], [-0.31516328554721545, 0.09507860400814261], [-0.534728455560381, 0.025028480893797167], [-9.170994184859449e-05, 0.17250189924733683], [0.13531212143638305, 0.006364994774144983], [0.34240662242497144, -0.3404108608736941], [-0.21637093338719787, 0.28889573874426144], [0.055738911475553876, -0.22196047636059757], [0.46026893464722984, -0.1878911585773003], [-0.04693440627119361, 0.42146723520305507], [-0.3519070792577782, -0.15501797602564832], [0.2137372190726209, -0.5016800584157374], [-0.08592353293377031, -0.423230337191172], [-0.44801848595818494, 0.3811412614248645], [-0.0697728043846727, -0.013719905323949955], [0.39781278169631806, 0.3859348141730903], [-0.20453721339893316, 0.5343927648900135]]",density,black,,,D003,visual,1,[],"['1', '2', '3', '4']",1,2023.2.3,harveyvisual,2.1,[],8,0.75,
0,pause,0.4,None,None,None,0,125,125,125,,,,,,,,,,,,,D003,visual,1,[],"['1', '2', '3', '4']",1,2023.2.3,harveyvisual,2.1,[],8,0.75,
20,dot,0.3,['dot'],['density'],black,0,126,126,126,,,46.500202894210815,46.21524095535278,46.51412081718445,dot,"[0.06, 0.08, 0.1, 0.06, 0.06, 0.08, 0.08, 0.08, 0.06, 0.1, 0.1, 0.1, 0.06, 0.06, 0.08, 0.08, 0.1, 0.1, 0.1, 0.1]","[[0.024448512879970852, -0.3386845436059591], [0.5009669230016415, 0.23730931008621986], [-0.5165325427008013, 0.29023742027556776], [0.5797262267033453, 0.040705552546112855], [0.4500567585943266, -0.3440425677042004], [0.24579318320115873, 0.08894124492934163], [-0.42377351048204587, -0.1432368789203825], [-0.33290960328659364, -0.36681475494417504], [-0.12455741691597372, -0.016398330951517437], [-0.21181293151588304, 0.42879080034589834], [-0.21535793635271477, -0.5275451787737748], [0.5596227647975777, -0.18102084656102335], [0.19729165473212806, -0.5687645018557096], [-0.5962089897210038, 0.0031702058971830593], [0.32154959656155246, -0.1999256708146927], [0.13413349690648668, 0.459457780259117], [-0.10724886008675527, 0.2507574575950464], [0.1430326817275469, 0.26329562742704393], [-0.37903135767773666, 0.1193592983102687], [0.10055457396324807, -0.12906111584328794]]",density,black,,,D003,visual,1,[],"['1', '2', '3', '4']",1,2023.2.3,harveyvisual,2.1,[],8,0.75,
0,pause,0.4,None,None,None,0,127,127,127,,,,,,,,,,,,,D003,visual,1,[],"['1', '2', '3', '4']",1,2023.2.3,harveyvisual,2.1,[],8,0.75,
20,dot,0.3,['dot'],['density'],white,0,128,128,128,,,47.20019888877869,46.91407799720764,47.2140908241272,dot,"[0.08, 0.1, 0.1, 0.06, 0.06, 0.1, 0.06, 0.06, 0.1, 0.06, 0.06, 0.1, 0.06, 0.08, 0.1, 0.08, 0.1, 0.06, 0.1, 0.06]","[[-0.5391123158739693, -0.09783324017168687], [0.16346714565696596, 0.5722268833680682], [0.42109933031878233, -0.3649434546212666], [-0.16980285629138658, 0.23605217627731234], [-0.24495918543914008, -0.4150467234531376], [-0.31939699296718893, 0.3891309095424592], [0.5362664696044609, -0.09514668967700324], [0.04309719396742362, 0.27461791103218003], [-0.493665403072025, 0.3045355430294919], [0.22241436436054707, -0.22389958358051937], [-0.36354854579743634, 0.07178259877131615], [0.20193783666712828, 0.10501458530929209], [0.3462838894095931, 0.33858042139292105], [0.097930306417779, -0.5398124488151492], [-0.14046813089499155, 0.0023336094139255747], [-0.05455581311825053, -0.4236780362414566], [-0.3322853162276394, -0.2364107743379188], [0.5547977616687593, 0.23091074836439837], [0.007925992828446193, -0.12909373969132648], [0.39417048762044127, 0.10144513608618183]]",density,white,,,D003,visual,1,[],"['1', '2', '3', '4']",1,2023.2.3,harveyvisual,2.1,[],8,0.75,
0,pause,0.4,None,None,None,0,129,129,129,,,,,,,,,,,1,46.706653118133545,D003,visual,1,[],"['1', '2', '3', '4']",1,2023.2.3,harveyvisual,2.1,[],8,0.75,
20,dot,0.3,['dot'],['density'],black,0,130,130,130,,,47.900200843811035,47.61414289474487,47.91403579711914,dot,"[0.08, 0.1, 0.08, 0.06, 0.08, 0.06, 0.06, 0.06, 0.06, 0.08, 0.1, 0.06, 0.06, 0.06, 0.08, 0.08, 0.08, 0.1, 0.08, 0.08]","[[0.22560194310967274, 0.45515798890705306], [0.5417297957654253, 0.15632913000248144], [0.09418169622291894, -0.060377195074285184], [-0.42349257435764504, -0.15993522927809461], [0.05280506724256606, -0.2716177532129993], [-0.22532373376623105, 0.3827697298492517], [0.2862618720080503, -0.5031243644506392], [-0.22368785224190507, 0.1860434563798795], [-0.0900884111111172, -0.5219405655829591], [-0.2968904055017862, -0.008345889864193268], [0.5653860836712002, -0.0641144937460513], [0.10713417485129861, 0.2620220846117448], [-0.4511338894216224, 0.20832973339390976], [0.3662718972263088, -0.32513323041415926], [-0.11068095052610771, -0.04935166418417858], [-0.28990396354597503, -0.31333828600967284], [0.2604912729350958, 0.13349444847524183], [-0.5931038826303586, 0.02631725672586835], [-0.1503800112593665, 0.5694000031611115], [0.4319923329910119, 0.3545588971202769]]",density,black,,,D003,visual,1,[],"['1', '2', '3', '4']",1,2023.2.3,harveyvisual,2.1,[],8,0.75,
0,pause,0.4,None,None,None,0,131,131,131,,,,,,,,,,,,,D003,visual,1,[],"['1', '2', '3', '4']",1,2023.2.3,harveyvisual,2.1,[],8,0.75,
20,dot,0.3,['dot'],['density'],black,0,132,132,132,,,48.600204944610596,48.3140709400177,48.61408495903015,dot,"[0.06, 0.08, 0.08, 0.1, 0.06, 0.08, 0.08, 0.08, 0.08, 0.1, 0.1, 0.08, 0.1, 0.1, 0.08, 0.08, 0.06, 0.08, 0.08, 0.08]","[[-0.037613537339917236, -0.432279726159454], [0.003051840806087669, 0.5414052246722495], [0.5157092209762962, -0.07274071699215057], [-0.33429171072990416, 0.00914689963742199], [-0.1707878289336388, 0.18144987138630708], [-0.5740800048185031, -0.16409316022788561], [0.19736425215954878, -0.06913337802519481], [-0.5077309776818235, 0.2744054386491334], [-0.3982845559817104, -0.4041564298361416], [0.3520963807223707, -0.21596328593719993], [-0.19677426968297868, 0.42923800959634306], [-0.21447990600343753, -0.19969697802920577], [-0.5943480462690282, 0.048250506918884106], [0.3648979170414256, 0.3328393237533811], [0.5023212328185799, -0.33684458773915205], [0.10526477727623829, -0.2500421356503], [0.014457304553681438, 0.014754353948086885], [0.35932743710595727, 0.10803850408041482], [0.150815972510991, 0.23523721170827516], [0.26544473055310003, -0.42428313625078745]]",density,black,,,D003,visual,1,[],"['1', '2', '3', '4']",1,2023.2.3,harveyvisual,2.1,[],8,0.75,
0,pause,0.4,None,None,None,0,133,133,133,,,,,,,,,,,,,D003,visual,1,[],"['1', '2', '3', '4']",1,2023.2.3,harveyvisual,2.1,[],8,0.75,
20,dot,0.3,['dot'],['density'],black,0,134,134,134,,,49.30021691322327,49.01401996612549,49.314021825790405,dot,"[0.06, 0.08, 0.08, 0.1, 0.1, 0.08, 0.1, 0.1, 0.06, 0.06, 0.08, 0.06, 0.06, 0.08, 0.06, 0.08, 0.1, 0.1, 0.08, 0.08]","[[-0.054200836439749045, -0.19364689546593428], [0.13600162042363928, 0.45092831690185675], [-0.4589518009606127, 0.33867429729895565], [0.410623479828384, -0.28633839052158505], [0.5001665612060463, 0.19259045683779957], [0.567562168450957, -0.07996517264814143], [-0.004722469383480976, -0.49104377202051264], [-0.20437974018625377, 0.5376083752060189], [-0.18504027563951558, 0.3453758896311574], [-0.3489231706746897, 0.07574709751950442], [-0.19770988237504838, -0.34660051355142785], [-0.5025490666386365, -0.15693224207586381], [-0.5752899273406566, 0.039187237236993466], [0.2527942566028629, 0.09183055637505799], [-0.41419032011899387, -0.39038478849089286], [0.09430967050265338, -0.012000738177147974], [0.36781516394675684, 0.3832537666994114], [0.18582494415426487, -0.3840015760706914], [-0.01717678698684011, 0.21198316787985605], [0.19215462306358122, -0.18928882359576327]]",density,black,,,D003,visual,1,[],"['1', '2', '3', '4']",1,2023.2.3,harveyvisual,2.1,[],8,0.75,
0,pause,0.4,None,None,None,0,135,135,135,,,,,,,,,,,,,D003,visual,1,[],"['1', '2', '3', '4']",1,2023.2.3,harveyvisual,2.1,[],8,0.75,
20,dot,0.3,['dot'],['density'],black,0,136,136,136,,,50.00022792816162,49.71410894393921,50.014912843704224,dot,"[0.1, 0.06, 0.06, 0.08, 0.06, 0.08, 0.08, 0.08, 0.06, 0.1, 0.1, 0.1, 0.06, 0.1, 0.06, 0.06, 0.1, 0.06, 0.06, 0.1]","[[-0.22397903134909602, 0.22713048320274476], [0.09734108527345886, 0.06469937398518089], [0.4879637567252054, -0.2865573999627197], [0.09270812949744744, 0.3983475441510784], [0.10693903929967774, -0.3162079259638412], [0.3995137353872845, 0.23924781538931839], [-0.38905451602494034, 0.014474545485302193], [-0.10404762076039498, 0.02376178840384735], [0.06628241146864466, -0.5537036394751438], [-0.21499929168853132, -0.1755518842146095], [-0.5207391883440037, 0.1883224056899418], [-0.3301357007830769, 0.5045496576134869], [-0.1447176253411025, 0.43146487103001696], [-0.4986074752841604, -0.26266808338199366], [0.6030189875364022, -0.03114655419222155], [-0.2530360666665668, -0.5012243931565354], [0.2956093790804487, -0.33618797024618474], [0.31446633575371696, 0.49133975469145685], [-0.5732181136743826, -0.06781867271513428], [0.3305632112882422, -0.003028840056876203]]",density,black,,,D003,visual,1,[],"['1', '2', '3', '4']",1,2023.2.3,harveyvisual,2.1,[],8,0.75,
0,pause,0.4,None,None,None,0,137,137,137,,,,,,,,,,,,,D003,visual,1,[],"['1', '2', '3', '4']",1,2023.2.3,harveyvisual,2.1,[],8,0.75,
20,dot,0.3,['dot'],['density'],black,0,138,138,138,,,50.70021986961365,50.41401290893555,50.7140109539032,dot,"[0.1, 0.08, 0.1, 0.06, 0.1, 0.06, 0.1, 0.08, 0.08, 0.08, 0.06, 0.08, 0.08, 0.06, 0.08, 0.08, 0.1, 0.1, 0.1, 0.06]","[[0.37872332190403946, 0.45420029792606204], [-0.10612589974520059, -0.5084292453661419], [-0.10876905521982477, 0.09581924200132497], [0.40558594417500726, 0.029847144661257596], [-0.2836170281670387, 0.33895604755028397], [-0.5923562634281869, -0.03736992107014528], [0.2341755793766882, -0.22128632405387594], [-0.06420685414372707, 0.44613742215570895], [0.5859315888444806, -0.08786824621413208], [0.2200620992056841, -0.4175029664453467], [-0.4517290476899759, 0.17793486546783455], [-0.2992387638619462, -0.2452143334548489], [-0.03843108238797299, -0.25237044714964163], [-0.5484415338698263, -0.22201475829292805], [-0.3275191589032373, -0.03602836301511231], [0.5733646387577943, 0.19177783266282325], [0.15925926703458482, 0.4175558223393314], [0.0936592116474706, 0.14150718176929222], [0.0805781808095376, -0.07754070078076392], [0.45744077987005693, -0.34870936419694043]]",density,black,,,D003,visual,1,[],"['1', '2', '3', '4']",1,2023.2.3,harveyvisual,2.1,[],8,0.75,
0,pause,0.4,None,None,None,0,139,139,139,,,,,,,,,,,,,D003,visual,1,[],"['1', '2', '3', '4']",1,2023.2.3,harveyvisual,2.1,[],8,0.75,
20,dot,0.3,['dot'],['density'],black,0,140,140,140,,,51.40022897720337,51.11819887161255,51.41398286819458,dot,"[0.08, 0.08, 0.06, 0.08, 0.06, 0.08, 0.1, 0.08, 0.08, 0.1, 0.08, 0.06, 0.1, 0.08, 0.06, 0.08, 0.08, 0.08, 0.08, 0.08]","[[0.5585176423058617, 0.15536323827441942], [-0.1662745341701129, -0.10182329742409274], [-0.4581619591361751, 0.2474855495719347], [-0.1675884961050716, 0.36752985510362857], [0.24493476352590327, -0.18757938219577036], [0.01660141567523965, -0.028707093631410885], [-0.34319388711094256, -0.3157022973760942], [0.14185871358568103, 0.5606039070674241], [0.4471389985031221, -0.011688701512495736], [-0.07869834639968709, -0.4468083977042657], [0.07017664401466128, 0.22207115277827505], [-0.43531691888957813, -0.136939247985771], [0.16754470153355716, -0.5069921236394993], [-0.5758305926465801, 0.06613529307408997], [0.3969329822940767, 0.326817156015688], [0.5214776448095583, -0.21284143810521206], [-0.33715513983326545, 0.4999645764742785], [0.273975272948083, 0.15819348107188635], [0.03862617316177752, -0.2650671276132837], [-0.13981189039824526, 0.17549569001524912]]",density,black,,,D003,visual,1,[],"['1', '2', '3', '4']",1,2023.2.3,harveyvisual,2.1,[],8,0.75,
0,pause,0.4,None,None,None,0,141,141,141,,,,,,,,,,,,,D003,visual,1,[],"['1', '2', '3', '4']",1,2023.2.3,harveyvisual,2.1,[],8,0.75,
20,dot,0.3,['dot'],['density'],black,0,142,142,142,,,52.10021781921387,51.81398296356201,52.11504292488098,dot,"[0.1, 0.08, 0.08, 0.08, 0.06, 0.1, 0.06, 0.06, 0.1, 0.08, 0.1, 0.06, 0.1, 0.06, 0.08, 0.06, 0.1, 0.1, 0.06, 0.06]","[[-0.3800545107451896, 0.2163989174512848], [-0.3586776655890136, -0.12645979842696875], [0.122671603105595, -0.46880184248423745], [-0.011304631685645439, 0.6023667173392899], [0.5815665852722808, 0.14560904876750289], [0.5800595203895796, -0.15408324692207953], [-0.16801022407990168, -0.5512096244562528], [0.46802471271775115, -0.32117020180517697], [0.23032377621908373, 0.18471029590815147], [-0.08656796758521457, 0.00707749468851393], [0.26505523482469795, 0.3949143264895143], [-0.5874475679367861, 0.12509316021822536], [-0.3941503563713824, -0.37982733368089155], [0.41258715529009093, 0.26157994520980027], [0.18013333206891569, -0.05158997064090798], [-0.13589586723816027, 0.21867132382331544], [-0.19803180332808334, 0.4118026756378754], [-0.41979894000073253, 0.4134595154944567], [0.05875290486526974, -0.28546907246856856], [-0.5890890938921663, -0.09236636119955258]]",density,black,,,D003,visual,1,[],"['1', '2', '3', '4']",1,2023.2.3,harveyvisual,2.1,[],8,0.75,
0,pause,0.4,None,None,None,0,143,143,143,,,,,,,,,,,,,D003,visual,1,[],"['1', '2', '3', '4']",1,2023.2.3,harveyvisual,2.1,[],8,0.75,
20,dot,0.3,['dot'],['density'],black,0,144,144,144,,,52.80022382736206,52.513975858688354,52.81396794319153,dot,"[0.1, 0.06, 0.08, 0.1, 0.08, 0.1, 0.06, 0.08, 0.08, 0.1, 0.1, 0.1, 0.1, 0.06, 0.1, 0.06, 0.06, 0.08, 0.06, 0.06]","[[0.10378231117229231, 0.5518400647043008], [-0.07383634633287661, -0.5496796730327005], [-0.3147201809422691, -0.261367468091138], [-0.3822361859436041, 0.2526645908260843], [-0.5650962768110899, 0.05560081160216471], [0.24137580407992099, -0.4571014356784423], [-0.09766990587231072, -0.026615659090638788], [0.21674602080856453, 0.13406776800364795], [0.5211046841079191, 0.28584119167749794], [0.3664696704058369, -0.05003134379805896], [0.29008683874422403, 0.46789845149039], [0.08074163302910475, 0.29478977154324615], [0.5833219557664094, -0.010459643747809555], [0.406209479975462, -0.3196549122218927], [0.17614910301407793, -0.10557526735936534], [-0.35434919900324124, -0.4709018065154826], [-0.2761852271297039, 0.49861056711171625], [-0.10307626250898094, 0.5818861427301752], [-0.023755337393225107, -0.30089796159691057], [-0.5757220245163157, -0.1670888028972002]]",density,black,,,D003,visual,1,[],"['1', '2', '3', '4']",1,2023.2.3,harveyvisual,2.1,[],8,0.75,
0,pause,0.4,None,None,None,0,145,145,145,,,,,,,,,,,,,D003,visual,1,[],"['1', '2', '3', '4']",1,2023.2.3,harveyvisual,2.1,[],8,0.75,
20,dot,0.3,['dot'],['density'],black,0,146,146,146,,,53.50021696090698,53.21398878097534,53.513967990875244,dot,"[0.1, 0.06, 0.1, 0.1, 0.06, 0.06, 0.06, 0.06, 0.06, 0.06, 0.08, 0.1, 0.08, 0.08, 0.06, 0.08, 0.08, 0.06, 0.08, 0.1]","[[-0.3136841745751212, 0.01176768587875987], [0.387420498194313, -0.3860945111626771], [0.3077702743550572, -0.2138942988895725], [-0.5802842395383235, -0.10944004939204821], [-0.11521898455149104, 0.12253802229329747], [0.566344014629896, -0.14925425862528302], [0.13449157249762678, -0.39847664968031304], [0.10912158974473762, 0.11792204913668891], [0.41826924127834053, 0.3667036460538239], [0.01573086324410866, 0.2933042549468001], [-0.24936736926403574, -0.5310218225315241], [-0.5546118286926506, 0.22221028697709921], [-0.1382342452366394, -0.17864506447795958], [0.06509064755299909, -0.14605404394079363], [0.13572081170518302, 0.4421748216521686], [-0.31258933791788085, 0.273022791682869], [0.5201302990967837, 0.12871014351835414], [-0.2500354999862049, 0.5477982949290948], [-0.2779707446593469, -0.32578753809953215], [-0.05875866315483602, -0.3662720490226837]]",density,black,,,D003,visual,1,[],"['1', '2', '3', '4']",1,2023.2.3,harveyvisual,2.1,[],8,0.75,
0,pause,0.4,None,None,None,0,147,147,147,,,,,,,,,,,,,D003,visual,1,[],"['1', '2', '3', '4']",1,2023.2.3,harveyvisual,2.1,[],8,0.75,
20,dot,0.3,['dot'],['density'],black,0,148,148,148,,,54.200209856033325,53.91391181945801,54.21388387680054,dot,"[0.1, 0.06, 0.08, 0.06, 0.08, 0.08, 0.1, 0.1, 0.06, 0.06, 0.1, 0.08, 0.08, 0.1, 0.08, 0.06, 0.08, 0.08, 0.06, 0.06]","[[-0.4057060036470227, -0.304540356688887], [-0.43717566204025216, 0.11669383291683239], [0.15059961481589657, -0.24424906730015256], [-0.1476382780991094, -0.14972092147860483], [-0.43153823203090913, -0.08581857342532806], [0.4112013619302136, 0.43890829520987273], [0.19106874144270214, -0.04102424931515258], [0.09756953393815448, 0.2607314740993619], [-0.048555407473073964, 0.4315990375694392], [0.5193297895075292, 0.1989792122196874], [0.42212827314740975, -0.34445118409518855], [-0.21072935182796398, 0.30443710989072004], [0.487702357649081, -0.1440585189972304], [0.1300379084567902, -0.5801571494518376], [-0.07073938841572103, -0.5802289651076576], [0.20921460044607654, 0.4757213653482062], [-0.01701071366541984, -0.35222315658251807], [-0.42028973552822624, 0.3706899849393563], [0.018390641209068748, 0.07047804989065609], [-0.29327097949178127, -0.4651505115479647]]",density,black,,,D003,visual,1,[],"['1', '2', '3', '4']",1,2023.2.3,harveyvisual,2.1,[],8,0.75,
0,pause,0.4,None,None,None,0,149,149,149,,,,,,,,,,,,,D003,visual,1,[],"['1', '2', '3', '4']",1,2023.2.3,harveyvisual,2.1,[],8,0.75,
20,dot,0.3,['dot'],['density'],black,0,150,150,150,,,54.900213956832886,54.61393880844116,54.91393494606018,dot,"[0.06, 0.06, 0.08, 0.08, 0.1, 0.08, 0.1, 0.06, 0.06, 0.08, 0.06, 0.06, 0.1, 0.1, 0.08, 0.1, 0.06, 0.1, 0.06, 0.08]","[[-0.10984537924103344, 0.5848980389458622], [-0.5509893834943452, -0.06249540054170796], [-0.05723955812790915, -0.16975905450153683], [-0.2464537560874383, 0.013785049199778632], [-0.33785194605819163, -0.38012505884693293], [0.3894511567903727, 0.16180847620729738], [0.10099838103323655, 0.44455859259782105], [0.5823161095375057, -0.06819920738605474], [-0.4299174886823526, 0.32418536766972417], [0.15844722493763075, -0.2630153775813332], [0.07839348871511465, 0.1747629905235173], [0.4191100560997957, 0.4045659166201753], [-0.2306769234854696, 0.31011444666444477], [-0.07285426832165642, -0.3928917440775127], [0.34575866517014475, -0.42925825683413665], [0.5092307089249503, -0.2736922498111675], [0.08697971904310098, -0.5564054547545773], [0.16257262605398848, -0.05249437240211863], [-0.13874072943986226, -0.5786009619015186], [0.3826832208122736, -0.1034073026738963]]",density,black,,,D003,visual,1,[],"['1', '2', '3', '4']",1,2023.2.3,harveyvisual,2.1,[],8,0.75,
0,pause,0.4,None,None,None,0,151,151,151,,,,,,,,,,,,,D003,visual,1,[],"['1', '2', '3', '4']",1,2023.2.3,harveyvisual,2.1,[],8,0.75,
20,dot,0.3,['dot'],['density'],black,0,152,152,152,,,55.60021090507507,55.313891887664795,55.613868951797485,dot,"[0.06, 0.1, 0.08, 0.06, 0.08, 0.08, 0.06, 0.06, 0.1, 0.08, 0.06, 0.08, 0.1, 0.1, 0.1, 0.08, 0.08, 0.08, 0.08, 0.06]","[[0.4912761873446473, -0.13919627610480992], [0.17119846685596907, -0.12897530278045877], [0.14027852716575695, 0.08134259303287339], [-0.5055974325761844, 0.2679089762746487], [-0.6042752095502472, -0.0319279486270516], [-0.2628338668506584, -0.45780219899263264], [0.31295748425153636, 0.2931287752678977], [-0.49916317047363357, -0.2655937525620028], [0.009630962850574964, 0.23458430575137512], [-0.23385444441930814, -0.022385321051336282], [0.45164531768186145, 0.0604293330212578], [0.156692886622671, 0.4913385386676705], [-0.2812724792477976, 0.3499193432048836], [0.22794839802271094, -0.38127576134213326], [-0.4214995565463382, 0.06187995944920627], [-0.08341903433129516, 0.5975132468369407], [-0.08491070921296218, -0.29859653105598966], [-0.05547876908389715, 0.04609093060545255], [0.4460467239761722, -0.36222488585856405], [0.06642910516196165, -0.5000308952439703]]",density,black,,,D003,visual,1,[],"['1', '2', '3', '4']",1,2023.2.3,harveyvisual,2.1,[],8,0.75,
0,pause,0.4,None,None,None,0,153,153,153,,,,,,,,,,,,,D003,visual,1,[],"['1', '2', '3', '4']",1,2023.2.3,harveyvisual,2.1,[],8,0.75,
20,dot,0.3,['dot'],['density'],white,0,154,154,154,,,56.300219774246216,56.013855934143066,56.31384897232056,dot,"[0.06, 0.1, 0.06, 0.06, 0.06, 0.08, 0.06, 0.06, 0.08, 0.1, 0.06, 0.08, 0.06, 0.08, 0.06, 0.1, 0.06, 0.08, 0.1, 0.1]","[[0.5603831022775995, -0.1771067637538481], [-0.19079779044917844, -0.3246753168453914], [0.025715392282285476, 0.33095714667820664], [0.5632754320326782, 0.2048873039117445], [-0.6018502841771138, 0.009038086781411228], [0.3439299258510492, -0.17313670093415895], [-0.49368489119007486, -0.20756636248854007], [0.389795352785791, 0.013091560042526873], [-0.42180773070001853, 0.37514640850654846], [-0.19621438543313552, -0.09648137884659375], [0.2469624231585551, 0.4722440935651889], [0.015228246165923442, -0.5628198728198256], [0.09381590870768142, -0.11169994480018497], [-0.03765905919658985, 0.5689258414134448], [-0.38490576817076916, 0.11468572897701662], [0.13512584251508253, 0.10295031834469148], [0.026743584758729844, -0.3391913998723807], [-0.16616677675693997, 0.21441402595551973], [-0.17695452985436178, -0.5152969440323302], [0.3024981965392779, 0.2606244694941623]]",density,white,,,D003,visual,1,[],"['1', '2', '3', '4']",1,2023.2.3,harveyvisual,2.1,[],8,0.75,
0,pause,0.4,None,None,None,0,155,155,155,,,,,,,,,,,1,55.781733989715576,D003,visual,1,[],"['1', '2', '3', '4']",1,2023.2.3,harveyvisual,2.1,[],8,0.75,
9,dot,0.3,['dot'],['density'],black,0,156,156,156,,,57.00020384788513,56.7138397693634,57.01383399963379,dot,"[0.08, 0.1, 0.06, 0.06, 0.1, 0.08, 0.1, 0.1, 0.1]","[[0.019793807854907846, -0.43234396454466956], [-0.19026732246162045, -0.30921043426246514], [0.04019268118281429, 0.04496242893187172], [-0.3995051790572048, -0.35321755636659735], [-0.3855517065125252, -0.10705750392277943], [0.08372722599267078, -0.1679482296571974], [0.2622756688563642, -0.3928589043728353], [-0.14305193053609555, -0.047108980659819465], [-0.27076529918092873, 0.10825753519043561]]",density,black,,,D003,visual,1,[],"['1', '2', '3', '4']",1,2023.2.3,harveyvisual,2.1,[],8,0.75,
0,pause,0.4,None,None,None,0,157,157,157,,,,,,,,,,,,,D003,visual,1,[],"['1', '2', '3', '4']",1,2023.2.3,harveyvisual,2.1,[],8,0.75,
9,dot,0.3,['dot'],['density'],black,0,158,158,158,,,57.70022177696228,57.413843870162964,57.71495580673218,dot,"[0.1, 0.06, 0.06, 0.1, 0.1, 0.08, 0.1, 0.1, 0.06]","[[0.21556792455118703, 0.37642033042102185], [0.14366510572844648, -0.18651452926789283], [0.49642287684820396, -0.0794158383055628], [-0.04770628609247857, -0.12519201939426747], [0.20310136493979325, 0.154094551714378], [-0.004065485174475974, 0.09100382633055243], [-0.018053901421587658, 0.34918523294118026], [0.29624623666919286, -0.053344657000752645], [-0.2018857737562037, 0.01971770186205045]]",density,black,,,D003,visual,1,[],"['1', '2', '3', '4']",1,2023.2.3,harveyvisual,2.1,[],8,0.75,
0,pause,0.4,None,None,None,0,159,159,159,,,,,,,,,,,,,D003,visual,1,[],"['1', '2', '3', '4']",1,2023.2.3,harveyvisual,2.1,[],8,0.75,
9,dot,0.3,['dot'],['density'],white,0,160,160,160,,,58.40020179748535,58.11380076408386,58.413795948028564,dot,"[0.06, 0.1, 0.1, 0.1, 0.08, 0.08, 0.1, 0.08, 0.1]","[[0.08964926938552661, 0.05394775442474662], [0.013667798857315082, 0.3651287039276397], [-0.3518235196438996, 0.4482863301015001], [0.0843039828244993, 0.5528122926054443], [-0.16049547673848438, 0.0730005648255046], [-0.2144141911430125, 0.27623828598157274], [0.3465547907671387, 0.0307758660088046], [-0.13596480001028877, 0.5242376261272882], [0.2304522598158348, 0.3521277948761275]]",density,white,,,D003,visual,1,[],"['1', '2', '3', '4']",1,2023.2.3,harveyvisual,2.1,[],8,0.75,
0,pause,0.4,None,None,None,0,161,161,161,,,,,,,,,,,1,57.92307114601135,D003,visual,1,[],"['1', '2', '3', '4']",1,2023.2.3,harveyvisual,2.1,[],8,0.75,
9,dot,0.3,['dot'],['density'],black,0,162,162,162,,,59.10020589828491,58.81550192832947,59.113783836364746,dot,"[0.1, 0.06, 0.06, 0.06, 0.08, 0.08, 0.06, 0.08, 0.1]","[[-0.03971785412685378, -0.013307253576883936], [-0.1795931736998084, 0.3973594317450326], [-0.3834375522639881, 0.20263766925149762], [-0.17272229141218848, -0.19949677387464254], [-0.5360333538572699, -0.009032368777402771], [-0.28286279854376034, -0.008232758075431683], [0.17411699897949384, -0.08382665075843401], [-0.16068367208365952, 0.1786486522774764], [0.029814794500374706, 0.34001547930781484]]",density,black,,,D003,visual,1,[],"['1', '2', '3', '4']",1,2023.2.3,harveyvisual,2.1,[],8,0.75,
0,pause,0.4,None,None,None,0,163,163,163,,,,,,,,,,,,,D003,visual,1,[],"['1', '2', '3', '4']",1,2023.2.3,harveyvisual,2.1,[],8,0.75,
9,dot,0.3,['dot'],['density'],black,0,164,164,164,,,59.80022692680359,59.51376795768738,59.81374478340149,dot,"[0.08, 0.06, 0.06, 0.1, 0.06, 0.1, 0.06, 0.1, 0.06]","[[0.005765111513037631, -0.143111035787845], [-0.396275933094447, -0.3321437400526764], [0.037546025436095476, -0.5612590109297682], [-0.23561619682408028, -0.19372599185683617], [-0.24582953746203298, -0.47553838121684505], [-0.07047609790874906, -0.3562711323606942], [-0.09403038697424164, 0.06164574472317626], [0.13577280496850042, -0.3868547356250126], [0.15608206217807025, 0.06264253907795621]]",density,black,,,D003,visual,1,[],"['1', '2', '3', '4']",1,2023.2.3,harveyvisual,2.1,[],8,0.75,
0,pause,0.4,None,None,None,0,165,165,165,,,,,,,,,,,,,D003,visual,1,[],"['1', '2', '3', '4']",1,2023.2.3,harveyvisual,2.1,[],8,0.75,
9,dot,0.3,['dot'],['density'],black,0,166,166,166,,,60.50021576881409,60.213785886764526,60.51375889778137,dot,"[0.06, 0.08, 0.1, 0.06, 0.06, 0.1, 0.06, 0.06, 0.1]","[[0.4433726728065019, 0.22320554513198193], [0.1026133663954636, -0.050786049565613584], [0.20022034484770485, 0.4412403735117007], [0.45250313802570796, 0.010227273383000257], [0.037500571895399265, 0.24935285809920393], [0.23874579090912346, 0.11348512554989887], [0.25013734113836505, -0.23502010549412247], [0.4599692436892986, -0.2536974682823114], [0.04694731086691962, -0.2548367103293993]]",density,black,,,D003,visual,1,[],"['1', '2', '3', '4']",1,2023.2.3,harveyvisual,2.1,[],8,0.75,
0,pause,0.4,None,None,None,0,167,167,167,,,,,,,,,,,,,D003,visual,1,[],"['1', '2', '3', '4']",1,2023.2.3,harveyvisual,2.1,[],8,0.75,
8,dot,0.3,['dot'],['density'],black,0,168,168,168,,,61.20022678375244,60.91376090049744,61.2148699760437,dot,"[0.1, 0.06, 0.08, 0.1, 0.1, 0.08, 0.06, 0.08]","[[-0.012034279999911439, 0.06556808781241986], [-0.3446774290598954, 0.11122635080299646], [0.22428040003470762, 0.1796687910302273], [-0.037221971777983635, 0.5300244249381355], [-0.1456717336157172, 0.2672263832914442], [0.040508406505222534, 0.3412803201140432], [-0.26975617824218623, 0.48628578621654683], [0.24128509790231628, 0.4122343446782376]]",density,black,,,D003,visual,1,[],"['1', '2', '3', '4']",1,2023.2.3,harveyvisual,2.1,[],8,0.75,
0,pause,0.4,None,None,None,0,169,169,169,,,,,,,,,,,,,D003,visual,1,[],"['1', '2', '3', '4']",1,2023.2.3,harveyvisual,2.1,[],8,0.75,
8,dot,0.3,['dot'],['density'],black,0,170,170,170,,,61.90022683143616,61.614863872528076,61.91376185417175,dot,"[0.06, 0.08, 0.06, 0.06, 0.1, 0.1, 0.06, 0.08]","[[-0.2875956673588428, -0.37608972473646446], [0.1738442798715151, -0.5418380206356169], [-0.005791994605287101, -0.36400925298789194], [0.15381919852689818, -0.2106776783026027], [-0.02243369038452208, -0.11017027562433494], [-0.1375601387891928, -0.5383184991665005], [0.3481619806761259, -0.4256719133417836], [-0.2437856683810358, -0.16373273019932677]]",density,black,,,D003,visual,1,[],"['1', '2', '3', '4']",1,2023.2.3,harveyvisual,2.1,[],8,0.75,
0,pause,0.4,None,None,None,0,171,171,171,,,,,,,,,,,,,D003,visual,1,[],"['1', '2', '3', '4']",1,2023.2.3,harveyvisual,2.1,[],8,0.75,
8,dot,0.3,['dot'],['density'],black,0,172,172,172,,,62.60021090507507,62.313761949539185,62.61373996734619,dot,"[0.08, 0.08, 0.08, 0.08, 0.1, 0.06, 0.08, 0.1]","[[-0.20800618360187478, -0.297823595680997], [0.0208603014005115, -0.46570844314230314], [-0.33947416747489917, -0.46414587466331364], [-0.2657502487478435, -0.0024929956194721667], [-0.07971030345085922, -0.1368829558420488], [0.12327021606192319, -0.12614842517591618], [-0.10944837079043952, 0.12795643756026515], [-0.4050023469846894, -0.16101207847090707]]",density,black,,,D003,visual,1,[],"['1', '2', '3', '4']",1,2023.2.3,harveyvisual,2.1,[],8,0.75,
0,pause,0.4,None,None,None,0,173,173,173,,,,,,,,,,,,,D003,visual,1,[],"['1', '2', '3', '4']",1,2023.2.3,harveyvisual,2.1,[],8,0.75,
8,dot,0.3,['dot'],['density'],black,0,174,174,174,,,63.300230979919434,63.01374077796936,63.31372284889221,dot,"[0.06, 0.08, 0.1, 0.08, 0.1, 0.1, 0.1, 0.08]","[[-0.258715538922871, 0.3828151050353194], [-0.4384035523576633, -0.18689856672911037], [-0.5586779833045601, 0.15056420889708766], [-0.1699372658897842, -0.04883432605429875], [-0.36053016753151684, 0.02858569738219561], [-0.199221799186684, 0.1876786431210615], [0.004458053620249285, 0.1240038339062716], [0.019420137312414813, -0.16023679021787893]]",density,black,,,D003,visual,1,[],"['1', '2', '3', '4']",1,2023.2.3,harveyvisual,2.1,[],8,0.75,
0,pause,0.4,None,None,None,0,175,175,175,,,,,,,,,,,,,D003,visual,1,[],"['1', '2', '3', '4']",1,2023.2.3,harveyvisual,2.1,[],8,0.75,
8,dot,0.3,['dot'],['density'],black,0,176,176,176,,,64.00022292137146,63.7137348651886,64.0136468410492,dot,"[0.08, 0.08, 0.08, 0.08, 0.06, 0.08, 0.1, 0.1]","[[0.11895989691250043, -0.4531686673706004], [-0.16516506104640707, -0.03240926074491446], [0.03539791161122963, 0.017706842047032937], [0.2602726326243711, -0.2021454296306109], [-0.07993394910368964, -0.42305571474287856], [-0.2833532244481061, -0.22994433794129646], [0.3633812293108319, -0.4186270945829863], [-0.04042382183071007, -0.1991401458565282]]",density,black,,,D003,visual,1,[],"['1', '2', '3', '4']",1,2023.2.3,harveyvisual,2.1,[],8,0.75,
0,pause,0.4,None,None,None,0,177,177,177,,,,,,,,,,,,,D003,visual,1,[],"['1', '2', '3', '4']",1,2023.2.3,harveyvisual,2.1,[],8,0.75,
8,dot,0.3,['dot'],['density'],black,0,178,178,178,,,64.70020699501038,64.41371083259583,64.7136619091034,dot,"[0.1, 0.1, 0.1, 0.08, 0.1, 0.08, 0.06, 0.08]","[[0.12411109391386341, -0.5343823995123961], [-0.21238427398525783, -0.3197389486612228], [-0.06551876445787266, 0.032183079599910736], [0.22034046694826517, 0.05676208929132721], [0.31747551588691986, -0.13046885784073625], [0.01834943727978222, -0.34316474661021057], [0.10776215616131694, -0.12386070969881222], [-0.2386971922539417, -0.09256206635527232]]",density,black,,,D003,visual,1,[],"['1', '2', '3', '4']",1,2023.2.3,harveyvisual,2.1,[],8,0.75,
0,pause,0.4,None,None,None,0,179,179,179,,,,,,,,,,,,,D003,visual,1,[],"['1', '2', '3', '4']",1,2023.2.3,harveyvisual,2.1,[],8,0.75,
7,dot,0.3,['dot'],['density'],white,0,180,180,180,,,65.40024399757385,65.11363697052002,65.41364598274231,dot,"[0.06, 0.06, 0.08, 0.08, 0.1, 0.1, 0.08]","[[-0.0015444251822213466, 0.17452400993182896], [-0.3864233363803332, 0.3856338194384884], [-0.45841970572989144, 0.11901701190004808], [-0.23552014845846486, 0.11986313412455778], [-0.06694767956243396, -0.029831379541550785], [-0.3576154478026905, -0.11072010138878656], [-0.17113735677840214, 0.37123035181888253]]",density,white,1,64.85084509849548,D003,visual,1,[],"['1', '2', '3', '4']",1,2023.2.3,harveyvisual,2.1,[],8,0.75,
0,pause,0.4,None,None,None,0,181,181,181,,,,,,,,,,,,,D003,visual,1,[],"['1', '2', '3', '4']",1,2023.2.3,harveyvisual,2.1,[],8,0.75,
7,dot,0.3,['dot'],['density'],black,0,182,182,182,,,66.10021996498108,65.81367683410645,66.11360883712769,dot,"[0.1, 0.08, 0.08, 0.1, 0.1, 0.1, 0.06]","[[-0.23895008888738212, 0.05027357720500052], [0.04847041368780161, 0.3376116924566045], [0.007425979130163878, -0.07582657330311053], [-0.16109724709992976, 0.33554312732420544], [-0.17199436159673825, -0.1887904434853683], [0.1858169564317131, 0.14031933770952934], [-0.038655615351801086, 0.15226176997737048]]",density,black,,,D003,visual,1,[],"['1', '2', '3', '4']",1,2023.2.3,harveyvisual,2.1,[],8,0.75,
0,pause,0.4,None,None,None,0,183,183,183,,,,,,,,,,,,,D003,visual,1,[],"['1', '2', '3', '4']",1,2023.2.3,harveyvisual,2.1,[],8,0.75,
7,dot,0.3,['dot'],['density'],black,0,184,184,184,,,66.80021786689758,66.5136559009552,66.81361293792725,dot,"[0.08, 0.08, 0.06, 0.06, 0.1, 0.1, 0.1]","[[-0.23867826801906328, -0.4967507610264224], [-0.008572732368673055, -0.07934474412745643], [-0.2066881937132076, -0.2790710878612567], [0.21709551483580575, -0.47507177834902015], [0.2058411173229685, -0.17553172422760346], [-0.015438952742397984, -0.3568653319460787], [-0.011603255668745115, -0.5749057065343526]]",density,black,,,D003,visual,1,[],"['1', '2', '3', '4']",1,2023.2.3,harveyvisual,2.1,[],8,0.75,
0,pause,0.4,None,None,None,0,185,185,185,,,,,,,,,,,,,D003,visual,1,[],"['1', '2', '3', '4']",1,2023.2.3,harveyvisual,2.1,[],8,0.75,
7,dot,0.3,['dot'],['density'],black,0,186,186,186,,,67.50022888183594,67.21362686157227,67.51465678215027,dot,"[0.06, 0.06, 0.06, 0.08, 0.1, 0.06, 0.06]","[[0.27964692832129656, -0.15500474148311624], [0.48019533028943556, 0.09933774746227163], [0.08203545767143021, 0.28019381302663365], [0.05572057582720619, -0.1426303369841539], [0.31711281236335803, 0.2944831276535668], [-0.041479771322150735, 0.11885700406191958], [0.21045310206912196, 0.07075003364957701]]",density,black,,,D003,visual,1,[],"['1', '2', '3', '4']",1,2023.2.3,harveyvisual,2.1,[],8,0.75,
0,pause,0.4,None,None,None,0,187,187,187,,,,,,,,,,,,,D003,visual,1,[],"['1', '2', '3', '4']",1,2023.2.3,harveyvisual,2.1,[],8,0.75,
7,dot,0.3,['dot'],['density'],black,0,188,188,188,,,68.20021796226501,67.91361379623413,68.21356678009033,dot,"[0.1, 0.08, 0.06, 0.06, 0.08, 0.06, 0.08]","[[-0.23022292756182125, -0.05768485575552839], [-0.3970021412728509, -0.1722837668104814], [-0.2989980436724142, -0.5015189566068301], [-0.1887121522124618, -0.3052937986494308], [-0.001193606839323686, -0.45187687349833133], [-0.45251418858811787, -0.367940027934103], [0.11213422846620591, -0.19711986939188722]]",density,black,,,D003,visual,1,[],"['1', '2', '3', '4']",1,2023.2.3,harveyvisual,2.1,[],8,0.75,
0,pause,0.4,None,None,None,0,189,189,189,,,,,,,,,,,,,D003,visual,1,[],"['1', '2', '3', '4']",1,2023.2.3,harveyvisual,2.1,[],8,0.75,
7,dot,0.3,['dot'],['density'],black,0,190,190,190,,,68.90022683143616,68.61359477043152,68.91358184814453,dot,"[0.1, 0.1, 0.1, 0.1, 0.06, 0.08, 0.1]","[[-0.3616029487054454, 0.4456424486886853], [-0.1496406170718537, 0.08450683720449656], [-0.4229793897960434, 0.19545916586121675], [-0.050735401720141765, 0.4582308035931027], [-0.23416009772798219, 0.28880413379285297], [0.00916417092529717, 0.20866532064640267], [0.0895043828575618, 0.020292244516940467]]",density,black,,,D003,visual,1,[],"['1', '2', '3', '4']",1,2023.2.3,harveyvisual,2.1,[],8,0.75,
0,pause,0.4,None,None,None,0,191,191,191,,,,,,,,,,,,,D003,visual,1,[],"['1', '2', '3', '4']",1,2023.2.3,harveyvisual,2.1,[],8,0.75,
6,dot,0.3,['dot'],['density'],black,0,192,192,192,,,69.60020899772644,69.31353688240051,69.61354088783264,dot,"[0.08, 0.1, 0.1, 0.1, 0.08, 0.06]","[[0.404576257273406, 0.0700140295133255], [0.16236872381874318, -0.0021128728600973284], [0.5529541989122894, -0.15659614737169442], [0.13702497511457395, -0.2589057080071786], [0.36740063964394665, -0.3636528069500345], [0.3132750905084481, -0.159771579268986]]",density,black,,,D003,visual,1,[],"['1', '2', '3', '4']",1,2023.2.3,harveyvisual,2.1,[],8,0.75,
0,pause,0.4,None,None,None,0,193,193,193,,,,,,,,,,,,,D003,visual,1,[],"['1', '2', '3', '4']",1,2023.2.3,harveyvisual,2.1,[],8,0.75,
6,dot,0.3,['dot'],['density'],black,0,194,194,194,,,70.30022478103638,70.01353979110718,70.3135437965393,dot,"[0.06, 0.06, 0.06, 0.08, 0.06, 0.08]","[[0.23041567882598732, 0.45619944218456715], [0.5278859611842325, 0.18245830030246968], [0.08738225171760033, 0.1578384040678088], [0.20561463112105705, -0.03996865664556224], [0.3021721310554224, 0.21718230064421146], [0.4273755636869532, 0.38341374408431883]]",density,black,,,D003,visual,1,[],"['1', '2', '3', '4']",1,2023.2.3,harveyvisual,2.1,[],8,0.75,
0,pause,0.4,None,None,None,0,195,195,195,,,,,,,,,,,,,D003,visual,1,[],"['1', '2', '3', '4']",1,2023.2.3,harveyvisual,2.1,[],8,0.75,
6,dot,0.3,['dot'],['density'],black,0,196,196,196,,,71.0002110004425,70.71353387832642,71.01347994804382,dot,"[0.1, 0.06, 0.08, 0.06, 0.06, 0.08]","[[0.4536033237290603, -0.10703390074252807], [0.4090862681261178, 0.14156446515860444], [0.3446070222150913, -0.333203595144996], [0.1541486512624917, 0.13839280063469406], [0.16833114318264894, -0.23068973514796048], [0.2520001164899556, -0.04323865486760776]]",density,black,,,D003,visual,1,[],"['1', '2', '3', '4']",1,2023.2.3,harveyvisual,2.1,[],8,0.75,
0,pause,0.4,None,None,None,0,197,197,197,,,,,,,,,,,,,D003,visual,1,[],"['1', '2', '3', '4']",1,2023.2.3,harveyvisual,2.1,[],8,0.75,
6,dot,0.3,['dot'],['density'],black,0,198,198,198,,,71.70022988319397,71.41354584693909,71.71351599693298,dot,"[0.1, 0.08, 0.1, 0.06, 0.1, 0.06]","[[-0.37443702985748106, 0.32648296684105377], [-0.5461381080049402, 0.20900463425646473], [-0.03667792491240075, 0.12745261621840673], [-0.13670974087354773, 0.4115775839407936], [-0.3800981804337871, 0.05314619565530939], [-0.23016292349935943, 0.18714801531232822]]",density,black,,,D003,visual,1,[],"['1', '2', '3', '4']",1,2023.2.3,harveyvisual,2.1,[],8,0.75,
0,pause,0.4,None,None,None,0,199,199,199,,,,,,,,,,,,,D003,visual,1,[],"['1', '2', '3', '4']",1,2023.2.3,harveyvisual,2.1,[],8,0.75,
6,dot,0.3,['dot'],['density'],black,0,200,200,200,,,72.40020990371704,72.11346387863159,72.41453385353088,dot,"[0.1, 0.06, 0.08, 0.08, 0.06, 0.06]","[[0.23041567882598732, 0.45619944218456715], [0.5278859611842325, 0.18245830030246968], [0.08738225171760033, 0.1578384040678088], [0.20561463112105705, -0.03996865664556224], [0.3021721310554224, 0.21718230064421146], [0.4273755636869532, 0.38341374408431883]]",density,black,,,D003,visual,1,[],"['1', '2', '3', '4']",1,2023.2.3,harveyvisual,2.1,[],8,0.75,
0,pause,0.4,None,None,None,0,201,201,201,,,,,,,,,,,,,D003,visual,1,[],"['1', '2', '3', '4']",1,2023.2.3,harveyvisual,2.1,[],8,0.75,
6,dot,0.3,['dot'],['density'],white,0,202,202,202,,,73.1002209186554,72.81344294548035,73.11342477798462,dot,"[0.08, 0.06, 0.1, 0.08, 0.08, 0.06]","[[0.21259181929123794, -0.28356491423097735], [0.48303195854319764, 0.06048455888335473], [0.22913681079270962, 0.07473613686017411], [0.4939377514137012, -0.2837040300549214], [0.055643620130747785, -0.14290468481535015], [0.3711413815128542, -0.10952979375652658]]",density,white,,,D003,visual,1,[],"['1', '2', '3', '4']",1,2023.2.3,harveyvisual,2.1,[],8,0.75,
0,pause,0.4,None,None,None,0,203,203,203,,,,,,,,,,,1,72.63486194610596,D003,visual,1,[],"['1', '2', '3', '4']",1,2023.2.3,harveyvisual,2.1,[],8,0.75,
5,dot,0.3,['dot'],['density'],black,0,204,204,204,,,73.8002119064331,73.51343083381653,73.81343388557434,dot,"[0.06, 0.08, 0.08, 0.06, 0.08]","[[-0.0036269740154891753, 0.5431219823242713], [-0.2646325594942043, 0.5073179604697073], [-0.41902475937036154, 0.37311436690984484], [-0.007163214206743488, 0.2887893175302695], [-0.2156098228659233, 0.2684642371109035]]",density,black,,,D003,visual,1,[],"['1', '2', '3', '4']",1,2023.2.3,harveyvisual,2.1,[],8,0.75,
0,pause,0.4,None,None,None,0,205,205,205,,,,,,,,,,,,,D003,visual,1,[],"['1', '2', '3', '4']",1,2023.2.3,harveyvisual,2.1,[],8,0.75,
5,dot,0.3,['dot'],['density'],black,0,206,206,206,,,74.5002110004425,74.21342277526855,74.51340699195862,dot,"[0.1, 0.06, 0.1, 0.08, 0.08]","[[-0.10197385386246118, 0.24760023034087644], [-0.014646448823952617, 0.47519555304773536], [-0.21360058910662874, 0.441350445979826], [-0.3878570731713836, 0.20534708698022924], [-0.24187982362067023, 0.06730525069120082]]",density,black,,,D003,visual,1,[],"['1', '2', '3', '4']",1,2023.2.3,harveyvisual,2.1,[],8,0.75,
0,pause,0.4,None,None,None,0,207,207,207,,,,,,,,,,,,,D003,visual,1,[],"['1', '2', '3', '4']",1,2023.2.3,harveyvisual,2.1,[],8,0.75,
5,dot,0.3,['dot'],['density'],black,0,208,208,208,,,75.20021891593933,74.91342091560364,75.21340799331665,dot,"[0.08, 0.1, 0.06, 0.08, 0.06]","[[-0.26965218803342234, -0.06061691990321757], [-0.44412238708790114, -0.1605793459593267], [-0.2738608688716076, -0.33598391440877745], [-0.06160694910013377, -0.19463283807086704], [-0.16469008497891707, 0.13324638745272324]]",density,black,,,D003,visual,1,[],"['1', '2', '3', '4']",1,2023.2.3,harveyvisual,2.1,[],8,0.75,
0,pause,0.4,None,None,None,0,209,209,209,,,,,,,,,,,,,D003,visual,1,[],"['1', '2', '3', '4']",1,2023.2.3,harveyvisual,2.1,[],8,0.75,
5,dot,0.3,['dot'],['density'],black,0,210,210,210,,,75.90021991729736,75.61339688301086,75.91338586807251,dot,"[0.06, 0.1, 0.06, 0.06, 0.06]","[[0.07471778162596296, -0.10525453490666745], [0.30258431325283514, -0.18125951612401361], [-0.10797831538154114, 0.025200229490558432], [0.07898181201564736, 0.11749757771993925], [0.31731369449760916, 0.032388289652815004]]",density,black,,,D003,visual,1,[],"['1', '2', '3', '4']",1,2023.2.3,harveyvisual,2.1,[],8,0.75,
0,pause,0.4,None,None,None,0,211,211,211,,,,,,,,,,,,,D003,visual,1,[],"['1', '2', '3', '4']",1,2023.2.3,harveyvisual,2.1,[],8,0.75,
5,dot,0.3,['dot'],['density'],black,0,212,212,212,,,76.6002209186554,76.31333494186401,76.61448383331299,dot,"[0.08, 0.08, 0.06, 0.08, 0.1]","[[-0.09836533996777486, -0.13487298234664027], [-0.39372579989196477, -0.3970332615714695], [-0.08519030630468749, -0.3439803803737387], [-0.28676510783747755, -0.22768547842943598], [-0.4191710438677135, -0.018830474544977712]]",density,black,,,D003,visual,1,[],"['1', '2', '3', '4']",1,2023.2.3,harveyvisual,2.1,[],8,0.75,
0,pause,0.4,None,None,None,0,213,213,213,,,,,,,,,,,,,D003,visual,1,[],"['1', '2', '3', '4']",1,2023.2.3,harveyvisual,2.1,[],8,0.75,
5,dot,0.3,['dot'],['density'],black,0,214,214,214,,,77.30021977424622,77.01333498954773,77.31334590911865,dot,"[0.1, 0.06, 0.1, 0.06, 0.1]","[[0.36014554898799966, 0.387810422325294], [0.055757472799778995, 0.16941293674392635], [0.2210739480460382, 0.008175952352481365], [0.48495712857242873, 0.07425785546611247], [0.25975240449222103, 0.2092734881649904]]",density,black,,,D003,visual,1,[],"['1', '2', '3', '4']",1,2023.2.3,harveyvisual,2.1,[],8,0.75,
0,pause,0.4,None,None,None,0,215,215,215,,,,,,,,,,,,,D003,visual,1,[],"['1', '2', '3', '4']",1,2023.2.3,harveyvisual,2.1,[],8,0.75,
4,dot,0.3,['dot'],['density'],black,0,216,216,216,,,78.00021576881409,77.71331191062927,78.01329898834229,dot,"[0.08, 0.08, 0.08, 0.06]","[[-0.46485289602757673, 0.3603628353310837], [-0.30733625211232357, 0.21626236973196436], [-0.38991578213366157, 0.024479253410336757], [-0.570234662048439, 0.14093512067028166]]",density,black,,,D003,visual,1,[],"['1', '2', '3', '4']",1,2023.2.3,harveyvisual,2.1,[],8,0.75,
0,pause,0.4,None,None,None,0,217,217,217,,,,,,,,,,,,,D003,visual,1,[],"['1', '2', '3', '4']",1,2023.2.3,harveyvisual,2.1,[],8,0.75,
4,dot,0.3,['dot'],['density'],black,0,218,218,218,,,78.70022583007812,78.4133369922638,78.71332097053528,dot,"[0.06, 0.08, 0.1, 0.1]","[[0.13421512820946938, -0.5336194340609706], [0.2622623892029083, -0.3575253733063478], [0.024533045116508903, -0.3376850530006363], [0.166924465117498, -0.0963569090623874]]",density,black,,,D003,visual,1,[],"['1', '2', '3', '4']",1,2023.2.3,harveyvisual,2.1,[],8,0.75,
0,pause,0.4,None,None,None,0,219,219,219,,,,,,,,,,,,,D003,visual,1,[],"['1', '2', '3', '4']",1,2023.2.3,harveyvisual,2.1,[],8,0.75,
4,dot,0.3,['dot'],['density'],black,0,220,220,220,,,79.40021395683289,79.11330485343933,79.41330194473267,dot,"[0.08, 0.08, 0.1, 0.08]","[[-0.22711054503220823, -0.5144049053218714], [-0.016307770745122817, -0.5558659767831347], [-0.26432457165568224, -0.2824025039497699], [-0.026303944553407815, -0.34464361634901186]]",density,black,,,D003,visual,1,[],"['1', '2', '3', '4']",1,2023.2.3,harveyvisual,2.1,[],8,0.75,
0,pause,0.4,None,None,None,0,221,221,221,,,,,,,,,,,,,D003,visual,1,[],"['1', '2', '3', '4']",1,2023.2.3,harveyvisual,2.1,[],8,0.75,
4,dot,0.3,['dot'],['density'],black,0,222,222,222,,,80.10022282600403,79.81329798698425,80.11330199241638,dot,"[0.1, 0.1, 0.08, 0.06]","[[0.2541297109701026, -0.03410267595110144], [0.396116024817599, -0.19002287009394117], [0.4303711222235913, 0.2602585224666286], [0.4446461975978109, 0.027516111316963392]]",density,black,,,D003,visual,1,[],"['1', '2', '3', '4']",1,2023.2.3,harveyvisual,2.1,[],8,0.75,
0,pause,0.4,None,None,None,0,223,223,223,,,,,,,,,,,,,D003,visual,1,[],"['1', '2', '3', '4']",1,2023.2.3,harveyvisual,2.1,[],8,0.75,
4,dot,0.3,['dot'],['density'],black,0,224,224,224,,,80.80023288726807,80.51327776908875,80.81325387954712,dot,"[0.1, 0.08, 0.1, 0.1]","[[0.107131415583101, 0.03171316484874249], [0.3330877778846877, 0.14211400081541528], [0.23058747141838212, -0.24340322486593785], [0.3173726134345681, -0.05921806988573682]]",density,black,,,D003,visual,1,[],"['1', '2', '3', '4']",1,2023.2.3,harveyvisual,2.1,[],8,0.75,
0,pause,0.4,None,None,None,0,225,225,225,,,,,,,,,,,,,D003,visual,1,[],"['1', '2', '3', '4']",1,2023.2.3,harveyvisual,2.1,[],8,0.75,
4,dot,0.3,['dot'],['density'],white,0,226,226,226,,,81.50021481513977,81.21323680877686,81.51326394081116,dot,"[0.06, 0.1, 0.08, 0.1]","[[-0.4918595852306691, 0.19162898845839058], [-0.30188041745692074, 0.10218906117132437], [-0.3018224646415858, -0.14357118929282034], [-0.4853871342809682, -0.061736688026617866]]",density,white,,,D003,visual,1,[],"['1', '2', '3', '4']",1,2023.2.3,harveyvisual,2.1,[],8,0.75,
0,pause,0.4,None,None,None,0,227,227,227,,,,,,,,,,,1,81.01191306114197,D003,visual,1,[],"['1', '2', '3', '4']",1,2023.2.3,harveyvisual,2.1,[],8,0.75,
3,dot,0.3,['dot'],['density'],black,0,228,228,228,,,82.20021390914917,81.9132308959961,82.21322298049927,dot,"[0.06, 0.06, 0.06]","[[0.03752440580708033, 0.5298990797186869], [-0.14535247226304113, 0.44143535861080874], [0.07857889528852925, 0.30774558950641073]]",density,black,,,D003,visual,1,[],"['1', '2', '3', '4']",1,2023.2.3,harveyvisual,2.1,[],8,0.75,
0,pause,0.4,None,None,None,0,229,229,229,,,,,,,,,,,,,D003,visual,1,[],"['1', '2', '3', '4']",1,2023.2.3,harveyvisual,2.1,[],8,0.75,
3,dot,0.3,['dot'],['density'],black,0,230,230,230,,,82.90022492408752,82.61419177055359,82.91320586204529,dot,"[0.06, 0.06, 0.06]","[[-0.09236249555143743, 0.14437879021360575], [0.06053771141254397, 0.008702735453236923], [-0.17336599953316903, -0.04113967592870183]]",density,black,,,D003,visual,1,[],"['1', '2', '3', '4']",1,2023.2.3,harveyvisual,2.1,[],8,0.75,
0,pause,0.4,None,None,None,0,231,231,231,,,,,,,,,,,,,D003,visual,1,[],"['1', '2', '3', '4']",1,2023.2.3,harveyvisual,2.1,[],8,0.75,
3,dot,0.3,['dot'],['density'],black,0,232,232,232,,,83.6002209186554,83.31321477890015,83.61438584327698,dot,"[0.08, 0.1, 0.08]","[[0.2656832518280197, 0.0014864193765316018], [0.3503107158811183, -0.1826455867164705], [0.5188928509039705, -0.04177453376365527]]",density,black,,,D003,visual,1,[],"['1', '2', '3', '4']",1,2023.2.3,harveyvisual,2.1,[],8,0.75,
0,pause,0.4,None,None,None,0,233,233,233,,,,,,,,,,,,,D003,visual,1,[],"['1', '2', '3', '4']",1,2023.2.3,harveyvisual,2.1,[],8,0.75,
3,dot,0.3,['dot'],['density'],black,0,234,234,234,,,84.30021381378174,84.01314282417297,84.31317281723022,dot,"[0.08, 0.1, 0.08]","[[0.13574725429899362, -0.5423283227425341], [-0.036793286563257144, -0.3768814925557267], [0.16175487704753985, -0.3348017255345844]]",density,black,,,D003,visual,1,[],"['1', '2', '3', '4']",1,2023.2.3,harveyvisual,2.1,[],8,0.75,
0,pause,0.4,None,None,None,0,235,235,235,,,,,,,,,,,,,D003,visual,1,[],"['1', '2', '3', '4']",1,2023.2.3,harveyvisual,2.1,[],8,0.75,
3,dot,0.3,['dot'],['density'],black,0,236,236,236,,,85.00022292137146,84.71427083015442,85.01314687728882,dot,"[0.06, 0.08, 0.1]","[[0.5267872668145167, -0.16137547842759675], [0.3420119191573968, -0.036920749927643534], [0.3185462880061428, -0.2399114968218526]]",density,black,,,D003,visual,1,[],"['1', '2', '3', '4']",1,2023.2.3,harveyvisual,2.1,[],8,0.75,
0,pause,0.4,None,None,None,0,237,237,237,,,,,,,,,,,,,D003,visual,1,[],"['1', '2', '3', '4']",1,2023.2.3,harveyvisual,2.1,[],8,0.75,
3,dot,0.3,['dot'],['density'],black,0,238,238,238,,,85.7002158164978,85.41314792633057,85.7142539024353,dot,"[0.06, 0.08, 0.06]","[[-0.1591938184585166, 0.2573970255855866], [-0.049574382916532336, 0.44031337398050124], [0.08264166875933507, 0.262381570646859]]",density,black,,,D003,visual,1,[],"['1', '2', '3', '4']",1,2023.2.3,harveyvisual,2.1,[],8,0.75,
0,pause,0.4,None,None,None,0,239,239,239,,,,,,,,,,,,,D003,visual,1,[],"['1', '2', '3', '4']",1,2023.2.3,harveyvisual,2.1,[],8,0.75,
2,dot,0.3,['dot'],['density'],white,0,240,240,240,,,86.40021991729736,86.11310076713562,86.41309189796448,dot,"[0.06, 0.08]","[[-0.09730612249650272, 0.4989075015380273], [-0.22752244688881013, 0.34485221713342457]]",density,white,,,D003,visual,1,[],"['1', '2', '3', '4']",1,2023.2.3,harveyvisual,2.1,[],8,0.75,
0,pause,0.4,None,None,None,0,241,241,241,,,,,,,,,,,1,85.95648002624512,D003,visual,1,[],"['1', '2', '3', '4']",1,2023.2.3,harveyvisual,2.1,[],8,0.75,
2,dot,0.3,['dot'],['density'],black,0,242,242,242,,,87.10021591186523,86.81310892105103,87.11312294006348,dot,"[0.06, 0.1]","[[-0.22226122312079244, -0.00806926593831646], [-0.023245446524914906, -0.037240983575548024]]",density,black,,,D003,visual,1,[],"['1', '2', '3', '4']",1,2023.2.3,harveyvisual,2.1,[],8,0.75,
0,pause,0.4,None,None,None,0,243,243,243,,,,,,,,,,,,,D003,visual,1,[],"['1', '2', '3', '4']",1,2023.2.3,harveyvisual,2.1,[],8,0.75,
2,dot,0.3,['dot'],['density'],black,0,244,244,244,,,87.80021977424622,87.5130569934845,87.81306290626526,dot,"[0.1, 0.06]","[[-0.2277318593301165, -0.35289300204507235], [-0.09400723608355734, -0.20388512549033708]]",density,black,,,D003,visual,1,[],"['1', '2', '3', '4']",1,2023.2.3,harveyvisual,2.1,[],8,0.75,
0,pause,0.4,None,None,None,0,245,245,245,,,,,,,,,,,,,D003,visual,1,[],"['1', '2', '3', '4']",1,2023.2.3,harveyvisual,2.1,[],8,0.75,
2,dot,0.3,['dot'],['density'],black,0,246,246,246,,,88.50022888183594,88.213045835495,88.51303791999817,dot,"[0.06, 0.1]","[[0.3054529246123127, 0.4455278178545299], [0.3548458028228903, 0.2510588499170468]]",density,black,,,D003,visual,1,[],"['1', '2', '3', '4']",1,2023.2.3,harveyvisual,2.1,[],8,0.75,
0,pause,0.4,None,None,None,0,247,247,247,,,,,,,,,,,,,D003,visual,1,[],"['1', '2', '3', '4']",1,2023.2.3,harveyvisual,2.1,[],8,0.75,
2,dot,0.3,['dot'],['density'],black,0,248,248,248,,,89.20021677017212,88.91302394866943,89.21300387382507,dot,"[0.08, 0.1]","[[0.500151128333041, 0.1656925720118866], [0.3771979967144504, 0.3235340638115745]]",density,black,,,D003,visual,1,[],"['1', '2', '3', '4']",1,2023.2.3,harveyvisual,2.1,[],8,0.75,
0,pause,0.4,None,None,None,0,249,249,249,,,,,,,,,,,,,D003,visual,1,[],"['1', '2', '3', '4']",1,2023.2.3,harveyvisual,2.1,[],8,0.75,
2,dot,0.3,['dot'],['density'],black,0,250,250,250,,,89.90021681785583,89.61300992965698,89.91302394866943,dot,"[0.06, 0.08]","[[0.07059805578258149, -0.2458188734665979], [0.058763118304238846, -0.4455693812784497]]",density,black,,,D003,visual,1,[],"['1', '2', '3', '4']",1,2023.2.3,harveyvisual,2.1,[],8,0.75,
0,pause,0.4,None,None,None,0,251,251,251,,,,,,,,,,,,,D003,visual,1,[],"['1', '2', '3', '4']",1,2023.2.3,harveyvisual,2.1,[],8,0.75,
1,dot,0.3,['dot'],['density'],black,0,252,252,252,,,90.6002209186554,90.31302499771118,90.61298680305481,dot,[0.1],"[0.1771264825789444, 0.012298414170669998]",density,black,,,D003,visual,1,[],"['1', '2', '3', '4']",1,2023.2.3,harveyvisual,2.1,[],8,0.75,
0,pause,0.4,None,None,None,0,253,253,253,,,,,,,,,,,,,D003,visual,1,[],"['1', '2', '3', '4']",1,2023.2.3,harveyvisual,2.1,[],8,0.75,
1,dot,0.3,['dot'],['density'],black,0,254,254,254,,,91.30021286010742,91.01300597190857,91.31298685073853,dot,[0.08],"[-0.045934412585722416, -0.12236734128406912]",density,black,,,D003,visual,1,[],"['1', '2', '3', '4']",1,2023.2.3,harveyvisual,2.1,[],8,0.75,
0,pause,0.4,None,None,None,0,255,255,255,,,,,,,,,,,,,D003,visual,1,[],"['1', '2', '3', '4']",1,2023.2.3,harveyvisual,2.1,[],8,0.75,
1,dot,0.3,['dot'],['density'],black,0,256,256,256,,,92.00021290779114,91.71296691894531,92.01297497749329,dot,[0.1],"[0.1049869166116724, 0.1335000464341748]",density,black,,,D003,visual,1,[],"['1', '2', '3', '4']",1,2023.2.3,harveyvisual,2.1,[],8,0.75,
0,pause,0.4,None,None,None,0,257,257,257,,,,,,,,,,,,,D003,visual,1,[],"['1', '2', '3', '4']",1,2023.2.3,harveyvisual,2.1,[],8,0.75,
1,dot,0.3,['dot'],['density'],black,0,258,258,258,,,92.70023488998413,92.41294884681702,92.71293687820435,dot,[0.08],"[0.4230572171255965, 0.15564154118015242]",density,black,,,D003,visual,1,[],"['1', '2', '3', '4']",1,2023.2.3,harveyvisual,2.1,[],8,0.75,
0,pause,0.4,None,None,None,0,259,259,259,,,,,,,,,,,,,D003,visual,1,[],"['1', '2', '3', '4']",1,2023.2.3,harveyvisual,2.1,[],8,0.75,
1,dot,0.3,['dot'],['density'],white,0,260,260,260,,,93.40023398399353,93.11384677886963,93.41290593147278,dot,[0.06],"[-0.4519365434524677, 0.22287683068434597]",density,white,,,D003,visual,1,[],"['1', '2', '3', '4']",1,2023.2.3,harveyvisual,2.1,[],8,0.75,
0,pause,0.4,None,None,None,0,261,261,261,,,,,,,,,,,1,92.98932003974915,D003,visual,1,[],"['1', '2', '3', '4']",1,2023.2.3,harveyvisual,2.1,[],8,0.75,
1,dot,0.3,['dot'],['density'],black,0,262,262,262,,,94.10023093223572,93.81289982795715,94.11289191246033,dot,[0.1],"[0.01430498756481247, 0.36429701967127975]",density,black,,,D003,visual,1,[],"['1', '2', '3', '4']",1,2023.2.3,harveyvisual,2.1,[],8,0.75,
0,pause,0.4,None,None,None,0,263,263,263,,,,,,,,,,,,,D003,visual,1,[],"['1', '2', '3', '4']",1,2023.2.3,harveyvisual,2.1,[],8,0.75,
20,dot,0.3,['dot'],['density'],black,0,264,264,264,,,94.80020880699158,94.51288390159607,94.81286597251892,dot,"[0.06, 0.08, 0.08, 0.08, 0.08, 0.08, 0.08, 0.06, 0.08, 0.08, 0.06, 0.08, 0.1, 0.08, 0.08, 0.08, 0.08, 0.06, 0.06, 0.06]","[[0.48878507324716847, 0.01490959668786801], [-0.22981410217191411, -0.2865021070519143], [0.004877114537920613, 0.21252654704536567], [-0.24691649641623808, -0.09710771926643441], [0.24490936155090393, 0.4610886764507883], [0.5638273090153078, 0.19035423516986374], [-0.49235619917574547, -0.34953546192074425], [-0.47846591541422256, 0.04298826632953889], [0.15518562261527646, 0.019918466184198236], [-0.4339629051544439, 0.4106382267882376], [0.22740900210436876, -0.19122362952166394], [0.10159408736507636, -0.3702904305517357], [-0.14169985188058082, -0.5569413381031331], [-0.06414962478619102, -0.0023510394956326452], [-0.22373804636568445, 0.49237873059592197], [0.4241120949704874, 0.3829733437608392], [0.37228893151241993, -0.40251878023475673], [-0.2215549061612171, 0.266933753309023], [-0.5640882478918882, -0.16179634217219394], [0.06518795895333762, 0.4000317548461342]]",density,black,,,D003,visual,1,[],"['1', '2', '3', '4']",1,2023.2.3,harveyvisual,2.1,[],8,0.75,
0,pause,0.4,None,None,None,0,265,265,265,,,,,,,,,,,,,D003,visual,1,[],"['1', '2', '3', '4']",1,2023.2.3,harveyvisual,2.1,[],8,0.75,
20,dot,0.3,['dot'],['density'],black,0,266,266,266,,,95.50022983551025,95.21287894248962,95.51398491859436,dot,"[0.1, 0.08, 0.08, 0.08, 0.1, 0.06, 0.06, 0.08, 0.08, 0.1, 0.06, 0.06, 0.06, 0.06, 0.06, 0.1, 0.06, 0.08, 0.06, 0.08]","[[0.3304908138099013, 0.4119923288407301], [0.5073998019806804, -0.1596185549076665], [-0.36867508181642294, -0.0954462532836089], [0.4734321061765271, 0.23700005736826185], [-0.0038836446818879544, -0.11239092507078247], [-0.22265107025469172, 0.34143983646263343], [-0.31927478344396104, -0.3734797660556083], [0.3549406308166446, -0.4796855762372329], [-0.5245025980356098, 0.1347903419878576], [0.09425871150165688, 0.364456192638424], [-0.008440414704642851, -0.40251546921163617], [-0.2016292236291034, 0.13421438476771053], [-0.573502855421681, -0.07967725830266481], [0.21892690322357844, -0.25333075021582163], [0.1284643224891605, -0.5799690877340063], [0.2240800447722866, 0.07921808420454202], [-0.4403132873777478, 0.30561462473160894], [-0.18089393001678333, 0.5569855002643895], [0.5915312844794308, 0.029205053168170125], [0.0018853722150277141, 0.15733545773349056]]",density,black,,,D003,visual,1,[],"['1', '2', '3', '4']",1,2023.2.3,harveyvisual,2.1,[],8,0.75,
0,pause,0.4,None,None,None,0,267,267,267,,,,,,,,,,,,,D003,visual,1,[],"['1', '2', '3', '4']",1,2023.2.3,harveyvisual,2.1,[],8,0.75,
