num,mod,duration,shape,ll_cond,colors,.thisRepN,.thisTrialN,.thisN,.thisIndex,thisRow.t,notes,raw_global_time,t_start,t_stop,shapes,size,pos,cond,color,button,RT,participant,session,starting_run,left button (match/odd),right button (non-match/even),samples_per_block,psychopy version,expName,offset,audio,number_runs,radius,
1,dot,0.3,['dot'],['density'],black,0,0,0,0,,,2.400357961654663,2.113115072250366,2.4130420684814453,dot,[0.08],"[0.2443568370277045, -0.23874091154858243]",density,black,,,N008,visual,1,[],"['1', '2', '3', '4']",1,2023.2.3,harveyvisual,2.1,[],8,0.75,
0,pause,0.4,None,None,None,0,1,1,1,,,,,,,,,,,,,N008,visual,1,[],"['1', '2', '3', '4']",1,2023.2.3,harveyvisual,2.1,[],8,0.75,
1,dot,0.3,['dot'],['density'],black,0,2,2,2,,,3.1003589630126953,2.813042163848877,3.1135849952697754,dot,[0.1],"[0.19623115665255414, 0.1676894875529279]",density,black,,,N008,visual,1,[],"['1', '2', '3', '4']",1,2023.2.3,harveyvisual,2.1,[],8,0.75,
0,pause,0.4,None,None,None,0,3,3,3,,,,,,,,,,,,,N008,visual,1,[],"['1', '2', '3', '4']",1,2023.2.3,harveyvisual,2.1,[],8,0.75,
1,dot,0.3,['dot'],['density'],black,0,4,4,4,,,3.800356149673462,3.513720989227295,3.8135361671447754,dot,[0.06],"[-0.3631366314731191, 0.1590646049745197]",density,black,,,N008,visual,1,[],"['1', '2', '3', '4']",1,2023.2.3,harveyvisual,2.1,[],8,0.75,
0,pause,0.4,None,None,None,0,5,5,5,,,,,,,,,,,,,N008,visual,1,[],"['1', '2', '3', '4']",1,2023.2.3,harveyvisual,2.1,[],8,0.75,
1,dot,0.3,['dot'],['density'],black,0,6,6,6,,,4.500365972518921,4.213788986206055,4.5138161182403564,dot,[0.06],"[0.4765699730395091, 0.34560502551113614]",density,black,,,N008,visual,1,[],"['1', '2', '3', '4']",1,2023.2.3,harveyvisual,2.1,[],8,0.75,
0,pause,0.4,None,None,None,0,7,7,7,,,,,,,,,,,,,N008,visual,1,[],"['1', '2', '3', '4']",1,2023.2.3,harveyvisual,2.1,[],8,0.75,
1,dot,0.3,['dot'],['density'],black,0,8,8,8,,,5.200366973876953,4.913573980331421,5.213490009307861,dot,[0.08],"[-0.3678067964802796, -0.3513177213804687]",density,black,,,N008,visual,1,[],"['1', '2', '3', '4']",1,2023.2.3,harveyvisual,2.1,[],8,0.75,
0,pause,0.4,None,None,None,0,9,9,9,,,,,,,,,,,,,N008,visual,1,[],"['1', '2', '3', '4']",1,2023.2.3,harveyvisual,2.1,[],8,0.75,
1,dot,0.3,['dot'],['density'],black,0,10,10,10,,,5.900365114212036,5.613486051559448,5.915796995162964,dot,[0.1],"[0.43730911014729085, 0.38068286015665653]",density,black,,,N008,visual,1,[],"['1', '2', '3', '4']",1,2023.2.3,harveyvisual,2.1,[],8,0.75,
0,pause,0.4,None,None,None,0,11,11,11,,,,,,,,,,,,,N008,visual,1,[],"['1', '2', '3', '4']",1,2023.2.3,harveyvisual,2.1,[],8,0.75,
2,dot,0.3,['dot'],['density'],black,0,12,12,12,,,6.600361108779907,6.315807104110718,6.615784168243408,dot,"[0.06, 0.06]","[[-0.4149324818804315, 0.28007444048998836], [-0.5260390884397633, 0.11347960973083408]]",density,black,,,N008,visual,1,[],"['1', '2', '3', '4']",1,2023.2.3,harveyvisual,2.1,[],8,0.75,
0,pause,0.4,None,None,None,0,13,13,13,,,,,,,,,,,,,N008,visual,1,[],"['1', '2', '3', '4']",1,2023.2.3,harveyvisual,2.1,[],8,0.75,
2,dot,0.3,['dot'],['density'],black,0,14,14,14,,,7.300357103347778,7.015826940536499,7.315758943557739,dot,"[0.06, 0.08]","[[-0.22897676209827808, 0.468650264003531], [-0.0598036877009514, 0.5760211786176329]]",density,black,,,N008,visual,1,[],"['1', '2', '3', '4']",1,2023.2.3,harveyvisual,2.1,[],8,0.75,
0,pause,0.4,None,None,None,0,15,15,15,,,,,,,,,,,,,N008,visual,1,[],"['1', '2', '3', '4']",1,2023.2.3,harveyvisual,2.1,[],8,0.75,
2,dot,0.3,['dot'],['density'],black,0,16,16,16,,,8.000350952148438,7.715775966644287,8.015789031982422,dot,"[0.1, 0.08]","[[0.3054529246123127, 0.4455278178545299], [0.3548458028228903, 0.2510588499170468]]",density,black,,,N008,visual,1,[],"['1', '2', '3', '4']",1,2023.2.3,harveyvisual,2.1,[],8,0.75,
0,pause,0.4,None,None,None,0,17,17,17,,,,,,,,,,,,,N008,visual,1,[],"['1', '2', '3', '4']",1,2023.2.3,harveyvisual,2.1,[],8,0.75,
2,dot,0.3,['dot'],['density'],black,0,18,18,18,,,8.700354099273682,8.415744066238403,8.715801000595093,dot,"[0.06, 0.08]","[[0.24265818653156754, -0.3775895252336694], [0.4224299169789366, -0.289759305909148]]",density,black,,,N008,visual,1,[],"['1', '2', '3', '4']",1,2023.2.3,harveyvisual,2.1,[],8,0.75,
0,pause,0.4,None,None,None,0,19,19,19,,,,,,,,,,,,,N008,visual,1,[],"['1', '2', '3', '4']",1,2023.2.3,harveyvisual,2.1,[],8,0.75,
2,dot,0.3,['dot'],['density'],black,0,20,20,20,,,9.40035104751587,9.115808010101318,9.415723085403442,dot,"[0.1, 0.08]","[[-0.21141336561075566, 0.4273762957479495], [-0.1407142259739198, 0.23984948612333498]]",density,black,,,N008,visual,1,[],"['1', '2', '3', '4']",1,2023.2.3,harveyvisual,2.1,[],8,0.75,
0,pause,0.4,None,None,None,0,21,21,21,,,,,,,,,,,,,N008,visual,1,[],"['1', '2', '3', '4']",1,2023.2.3,harveyvisual,2.1,[],8,0.75,
2,dot,0.3,['dot'],['density'],black,0,22,22,22,,,10.100350141525269,9.815742015838623,10.115715026855469,dot,"[0.1, 0.1]","[[0.5159928458027473, 0.13749655768121952], [0.38343727829172375, 0.28833164788761484]]",density,black,,,N008,visual,1,[],"['1', '2', '3', '4']",1,2023.2.3,harveyvisual,2.1,[],8,0.75,
0,pause,0.4,None,None,None,0,23,23,23,,,,,,,,,,,,,N008,visual,1,[],"['1', '2', '3', '4']",1,2023.2.3,harveyvisual,2.1,[],8,0.75,
3,dot,0.3,['dot'],['density'],black,0,24,24,24,,,10.800354957580566,10.515712976455688,10.815699100494385,dot,"[0.06, 0.06, 0.1]","[[0.35100391059830643, -0.4491085892346253], [0.13011513135189492, -0.5590284990295896], [0.16905753934955023, -0.35714526366544236]]",density,black,,,N008,visual,1,[],"['1', '2', '3', '4']",1,2023.2.3,harveyvisual,2.1,[],8,0.75,
0,pause,0.4,None,None,None,0,25,25,25,,,,,,,,,,,,,N008,visual,1,[],"['1', '2', '3', '4']",1,2023.2.3,harveyvisual,2.1,[],8,0.75,
3,dot,0.3,['dot'],['density'],black,0,26,26,26,,,11.50035810470581,11.215686082839966,11.515653133392334,dot,"[0.08, 0.06, 0.1]","[[-0.17592395544936776, 0.40510565415719324], [-0.30566154612550034, 0.21848422264492345], [-0.39822260978708685, 0.43144058222919995]]",density,black,,,N008,visual,1,[],"['1', '2', '3', '4']",1,2023.2.3,harveyvisual,2.1,[],8,0.75,
0,pause,0.4,None,None,None,0,27,27,27,,,,,,,,,,,,,N008,visual,1,[],"['1', '2', '3', '4']",1,2023.2.3,harveyvisual,2.1,[],8,0.75,
3,dot,0.3,['dot'],['density'],white,0,28,28,28,,,12.200368165969849,11.915663957595825,12.215687990188599,dot,"[0.1, 0.1, 0.08]","[[0.35100391059830643, -0.4491085892346253], [0.13011513135189492, -0.5590284990295896], [0.16905753934955023, -0.35714526366544236]]",density,white,,,N008,visual,1,[],"['1', '2', '3', '4']",1,2023.2.3,harveyvisual,2.1,[],8,0.75,
0,pause,0.4,None,None,None,0,29,29,29,,,,,,,,,,,1,12.301261901855469,N008,visual,1,[],"['1', '2', '3', '4']",1,2023.2.3,harveyvisual,2.1,[],8,0.75,
3,dot,0.3,['dot'],['density'],black,0,30,30,30,,,12.90036916732788,12.61564302444458,12.915634155273438,dot,"[0.08, 0.06, 0.1]","[[-0.5649268285189266, -0.02945458741690218], [-0.36332336008090005, 0.05160617148840915], [-0.5004673786076542, 0.20230308468415367]]",density,black,,,N008,visual,1,[],"['1', '2', '3', '4']",1,2023.2.3,harveyvisual,2.1,[],8,0.75,
0,pause,0.4,None,None,None,0,31,31,31,,,,,,,,,,,,,N008,visual,1,[],"['1', '2', '3', '4']",1,2023.2.3,harveyvisual,2.1,[],8,0.75,
3,dot,0.3,['dot'],['density'],black,0,32,32,32,,,13.600350141525269,13.31561803817749,13.615798950195312,dot,"[0.08, 0.1, 0.08]","[[-0.15674404860239688, -0.25078459247658497], [0.006578924124220241, -0.41324131210186005], [0.06959682433872849, -0.20549031443856539]]",density,black,,,N008,visual,1,[],"['1', '2', '3', '4']",1,2023.2.3,harveyvisual,2.1,[],8,0.75,
0,pause,0.4,None,None,None,0,33,33,33,,,,,,,,,,,,,N008,visual,1,[],"['1', '2', '3', '4']",1,2023.2.3,harveyvisual,2.1,[],8,0.75,
3,dot,0.3,['dot'],['density'],black,0,34,34,34,,,14.30034613609314,14.015781164169312,14.315754175186157,dot,"[0.1, 0.08, 0.08]","[[0.3935061822875672, 0.2255916562549388], [0.5507663609445765, 0.05974239467682067], [0.33737455125106675, -0.013318187219183488]]",density,black,,,N008,visual,1,[],"['1', '2', '3', '4']",1,2023.2.3,harveyvisual,2.1,[],8,0.75,
0,pause,0.4,None,None,None,0,35,35,35,,,,,,,,,,,,,N008,visual,1,[],"['1', '2', '3', '4']",1,2023.2.3,harveyvisual,2.1,[],8,0.75,
4,dot,0.3,['dot'],['density'],black,0,36,36,36,,,15.000350952148438,14.7157461643219,15.015758991241455,dot,"[0.08, 0.08, 0.08, 0.06]","[[0.3428963381299033, -0.004396565162037705], [0.42558881424794154, 0.18301493672810298], [0.5687630200397232, 0.01721079717795714], [0.4301208405972816, -0.23499851958356296]]",density,black,,,N008,visual,1,[],"['1', '2', '3', '4']",1,2023.2.3,harveyvisual,2.1,[],8,0.75,
0,pause,0.4,None,None,None,0,37,37,37,,,,,,,,,,,,,N008,visual,1,[],"['1', '2', '3', '4']",1,2023.2.3,harveyvisual,2.1,[],8,0.75,
4,dot,0.3,['dot'],['density'],black,0,38,38,38,,,15.700359106063843,15.415651082992554,15.715728044509888,dot,"[0.1, 0.06, 0.06, 0.06]","[[-0.47693618450386616, -0.1525114564248906], [-0.12413069550496705, 0.03327587270375396], [-0.32964510574757994, -0.012304557788591533], [-0.22851041427491325, -0.22018408257550984]]",density,black,,,N008,visual,1,[],"['1', '2', '3', '4']",1,2023.2.3,harveyvisual,2.1,[],8,0.75,
0,pause,0.4,None,None,None,0,39,39,39,,,,,,,,,,,,,N008,visual,1,[],"['1', '2', '3', '4']",1,2023.2.3,harveyvisual,2.1,[],8,0.75,
4,dot,0.3,['dot'],['density'],black,0,40,40,40,,,16.400354146957397,16.11576509475708,16.415749073028564,dot,"[0.08, 0.08, 0.08, 0.1]","[[0.0004228548582206217, 0.4437421379736539], [0.24572762857664815, 0.2260868474052859], [0.007756854070108054, 0.1846819218217072], [0.22099789303306372, 0.4278063517398125]]",density,black,,,N008,visual,1,[],"['1', '2', '3', '4']",1,2023.2.3,harveyvisual,2.1,[],8,0.75,
0,pause,0.4,None,None,None,0,41,41,41,,,,,,,,,,,,,N008,visual,1,[],"['1', '2', '3', '4']",1,2023.2.3,harveyvisual,2.1,[],8,0.75,
4,dot,0.3,['dot'],['density'],black,0,42,42,42,,,17.10037112236023,16.81569814682007,17.115694046020508,dot,"[0.08, 0.06, 0.08, 0.06]","[[0.06326389353998313, -0.3457479010937814], [-0.07512051392095552, -0.02196355495157639], [0.09410934090401228, -0.14113260442523076], [-0.13717358852421138, -0.29916566844175635]]",density,black,,,N008,visual,1,[],"['1', '2', '3', '4']",1,2023.2.3,harveyvisual,2.1,[],8,0.75,
0,pause,0.4,None,None,None,0,43,43,43,,,,,,,,,,,,,N008,visual,1,[],"['1', '2', '3', '4']",1,2023.2.3,harveyvisual,2.1,[],8,0.75,
4,dot,0.3,['dot'],['density'],black,0,44,44,44,,,17.800343990325928,17.5157310962677,17.815675020217896,dot,"[0.1, 0.1, 0.08, 0.06]","[[-0.1266132934267609, -0.4419116806690939], [0.09906976576587005, -0.33923851916676484], [0.1053941350115203, -0.5768907290059295], [0.29145715672269834, -0.49787884973145785]]",density,black,,,N008,visual,1,[],"['1', '2', '3', '4']",1,2023.2.3,harveyvisual,2.1,[],8,0.75,
0,pause,0.4,None,None,None,0,45,45,45,,,,,,,,,,,,,N008,visual,1,[],"['1', '2', '3', '4']",1,2023.2.3,harveyvisual,2.1,[],8,0.75,
4,dot,0.3,['dot'],['density'],black,0,46,46,46,,,18.50036311149597,18.215667963027954,18.51570701599121,dot,"[0.1, 0.08, 0.08, 0.06]","[[-0.24855901342904946, 0.4326179111294549], [-0.33066739519925503, 0.24314919490711104], [-0.015728317870896572, 0.5189617074191414], [-0.09686463175319387, 0.28200212383687606]]",density,black,,,N008,visual,1,[],"['1', '2', '3', '4']",1,2023.2.3,harveyvisual,2.1,[],8,0.75,
0,pause,0.4,None,None,None,0,47,47,47,,,,,,,,,,,,,N008,visual,1,[],"['1', '2', '3', '4']",1,2023.2.3,harveyvisual,2.1,[],8,0.75,
5,dot,0.3,['dot'],['density'],black,0,48,48,48,,,19.200353145599365,18.915651082992554,19.215644121170044,dot,"[0.1, 0.1, 0.06, 0.08, 0.08]","[[0.10176071415026891, -0.0029310292721688898], [0.32748853803000494, -0.2831003617774451], [0.10999898603900501, -0.23076615641811304], [0.2383494361888625, 0.16403485824849598], [0.3558293804179042, -0.08171974316418079]]",density,black,,,N008,visual,1,[],"['1', '2', '3', '4']",1,2023.2.3,harveyvisual,2.1,[],8,0.75,
0,pause,0.4,None,None,None,0,49,49,49,,,,,,,,,,,,,N008,visual,1,[],"['1', '2', '3', '4']",1,2023.2.3,harveyvisual,2.1,[],8,0.75,
5,dot,0.3,['dot'],['density'],white,0,50,50,50,,,19.900362968444824,19.615641117095947,19.915621042251587,dot,"[0.06, 0.06, 0.1, 0.08, 0.06]","[[-0.47409275164437775, -0.17842554437930905], [-0.28800513042966097, -0.4059597382025641], [-0.20075697267214665, 0.008887320625593834], [-0.2708677629513771, -0.1868162154653106], [-0.0886924353013077, -0.2820475711339636]]",density,white,,,N008,visual,1,[],"['1', '2', '3', '4']",1,2023.2.3,harveyvisual,2.1,[],8,0.75,
0,pause,0.4,None,None,None,0,51,51,51,,,,,,,,,,,1,19.96224308013916,N008,visual,1,[],"['1', '2', '3', '4']",1,2023.2.3,harveyvisual,2.1,[],8,0.75,
5,dot,0.3,['dot'],['density'],white,0,52,52,52,,,20.60036611557007,20.315616130828857,20.615617036819458,dot,"[0.06, 0.08, 0.06, 0.08, 0.06]","[[0.029171133319913545, -0.11913068329317353], [-0.2981845944788078, -0.46624640290839614], [-0.1844599491613969, -0.04126455345730423], [-0.2900988597239497, -0.2493716418714862], [-0.0791391532727178, -0.3057260733699829]]",density,white,,,N008,visual,1,[],"['1', '2', '3', '4']",1,2023.2.3,harveyvisual,2.1,[],8,0.75,
0,pause,0.4,None,None,None,0,53,53,53,,,,,,,,,,,1,20.65550994873047,N008,visual,1,[],"['1', '2', '3', '4']",1,2023.2.3,harveyvisual,2.1,[],8,0.75,
5,dot,0.3,['dot'],['density'],black,0,54,54,54,,,21.300358057022095,21.01560115814209,21.315598011016846,dot,"[0.06, 0.08, 0.1, 0.06, 0.08]","[[-0.4709100701083565, 0.02189337908226187], [-0.29145525575644754, 0.3795081276742083], [-0.23690205020139254, 0.016868774910060797], [-0.4278442329265702, 0.22919645259494104], [-0.09991604659712162, 0.23043195716445664]]",density,black,,,N008,visual,1,[],"['1', '2', '3', '4']",1,2023.2.3,harveyvisual,2.1,[],8,0.75,
0,pause,0.4,None,None,None,0,55,55,55,,,,,,,,,,,,,N008,visual,1,[],"['1', '2', '3', '4']",1,2023.2.3,harveyvisual,2.1,[],8,0.75,
5,dot,0.3,['dot'],['density'],black,0,56,56,56,,,22.000355005264282,21.715607166290283,22.0155930519104,dot,"[0.1, 0.1, 0.08, 0.06, 0.1]","[[0.36014554898799966, 0.387810422325294], [0.055757472799778995, 0.16941293674392635], [0.2210739480460382, 0.008175952352481365], [0.48495712857242873, 0.07425785546611247], [0.25975240449222103, 0.2092734881649904]]",density,black,,,N008,visual,1,[],"['1', '2', '3', '4']",1,2023.2.3,harveyvisual,2.1,[],8,0.75,
0,pause,0.4,None,None,None,0,57,57,57,,,,,,,,,,,,,N008,visual,1,[],"['1', '2', '3', '4']",1,2023.2.3,harveyvisual,2.1,[],8,0.75,
5,dot,0.3,['dot'],['density'],black,0,58,58,58,,,22.70035696029663,22.415590047836304,22.715403079986572,dot,"[0.1, 0.06, 0.08, 0.06, 0.1]","[[-0.16255238243643175, 0.17860987090823105], [-0.3708934258622909, -0.17994308192218272], [-0.3873401471382859, 0.23755408526324856], [-0.3082462149465763, 0.01808515368093923], [-0.09381294098683406, -0.04001219282613638]]",density,black,,,N008,visual,1,[],"['1', '2', '3', '4']",1,2023.2.3,harveyvisual,2.1,[],8,0.75,
0,pause,0.4,None,None,None,0,59,59,59,,,,,,,,,,,,,N008,visual,1,[],"['1', '2', '3', '4']",1,2023.2.3,harveyvisual,2.1,[],8,0.75,
6,dot,0.3,['dot'],['density'],black,0,60,60,60,,,23.400354146957397,23.11540913581848,23.415400981903076,dot,"[0.08, 0.08, 0.1, 0.1, 0.08, 0.06]","[[-0.5042184434856596, 0.24959378884587158], [-0.14877643798118484, -0.059020126001740114], [-0.46546181494132466, -0.1471818588402077], [-0.26957518187208745, -0.22263810459524838], [-0.2342448443914648, 0.21754944417529726], [-0.37109182385784195, 0.03297203532481631]]",density,black,,,N008,visual,1,[],"['1', '2', '3', '4']",1,2023.2.3,harveyvisual,2.1,[],8,0.75,
0,pause,0.4,None,None,None,0,61,61,61,,,,,,,,,,,,,N008,visual,1,[],"['1', '2', '3', '4']",1,2023.2.3,harveyvisual,2.1,[],8,0.75,
6,dot,0.3,['dot'],['density'],black,0,62,62,62,,,24.100345134735107,23.81540298461914,24.115358114242554,dot,"[0.1, 0.1, 0.1, 0.1, 0.06, 0.1]","[[-0.24492162854676555, 0.16704436901929823], [-0.3861886513150086, 0.35601694661450933], [-0.48514013682315105, 0.15596888098880124], [-0.5451465436738104, -0.12931683943359434], [-0.11772959853104834, 0.007676420150436517], [-0.35755989064212684, -0.03355234579502648]]",density,black,,,N008,visual,1,[],"['1', '2', '3', '4']",1,2023.2.3,harveyvisual,2.1,[],8,0.75,
0,pause,0.4,None,None,None,0,63,63,63,,,,,,,,,,,,,N008,visual,1,[],"['1', '2', '3', '4']",1,2023.2.3,harveyvisual,2.1,[],8,0.75,
6,dot,0.3,['dot'],['density'],black,0,64,64,64,,,24.800347089767456,24.515372037887573,24.815402030944824,dot,"[0.06, 0.06, 0.08, 0.06, 0.06, 0.06]","[[0.404576257273406, 0.0700140295133255], [0.16236872381874318, -0.0021128728600973284], [0.5529541989122894, -0.15659614737169442], [0.13702497511457395, -0.2589057080071786], [0.36740063964394665, -0.3636528069500345], [0.3132750905084481, -0.159771579268986]]",density,black,,,N008,visual,1,[],"['1', '2', '3', '4']",1,2023.2.3,harveyvisual,2.1,[],8,0.75,
0,pause,0.4,None,None,None,0,65,65,65,,,,,,,,,,,,,N008,visual,1,[],"['1', '2', '3', '4']",1,2023.2.3,harveyvisual,2.1,[],8,0.75,
6,dot,0.3,['dot'],['density'],black,0,66,66,66,,,25.50035810470581,25.215352058410645,25.515326976776123,dot,"[0.08, 0.1, 0.1, 0.08, 0.06, 0.08]","[[0.1442800129286608, -0.025670240792647715], [-0.253335145558221, 0.06312541807928282], [0.15340240856287354, 0.2410349392962658], [-0.1639657784688781, 0.25075335361279655], [-0.07910231793701084, -0.12784096878077061], [-0.011661193723423325, 0.11361106492824657]]",density,black,,,N008,visual,1,[],"['1', '2', '3', '4']",1,2023.2.3,harveyvisual,2.1,[],8,0.75,
0,pause,0.4,None,None,None,0,67,67,67,,,,,,,,,,,,,N008,visual,1,[],"['1', '2', '3', '4']",1,2023.2.3,harveyvisual,2.1,[],8,0.75,
6,dot,0.3,['dot'],['density'],black,0,68,68,68,,,26.20037007331848,25.91530704498291,26.215333938598633,dot,"[0.06, 0.1, 0.06, 0.08, 0.06, 0.1]","[[-0.3078382271761739, 0.4361778186671046], [-0.059169983783578364, 0.44796520308269433], [-0.3209935464877752, 0.22545519901795916], [-0.10826469778565927, 0.24929594343002343], [-0.016554185736113114, 0.06783813438016018], [-0.29360476626160575, 0.00756342739423081]]",density,black,,,N008,visual,1,[],"['1', '2', '3', '4']",1,2023.2.3,harveyvisual,2.1,[],8,0.75,
0,pause,0.4,None,None,None,0,69,69,69,,,,,,,,,,,,,N008,visual,1,[],"['1', '2', '3', '4']",1,2023.2.3,harveyvisual,2.1,[],8,0.75,
6,dot,0.3,['dot'],['density'],white,0,70,70,70,,,26.900366067886353,26.61530113220215,26.915292978286743,dot,"[0.08, 0.1, 0.08, 0.08, 0.06, 0.08]","[[0.1643264729387965, -0.2471077239796436], [-0.22534804549937193, -0.4918728234310363], [-0.026166131246113146, -0.09278119687647148], [-0.24451989516519138, -0.21339523607155425], [0.11868454116144263, -0.4574197693624388], [-0.058907778787058426, -0.30919141315076737]]",density,white,,,N008,visual,1,[],"['1', '2', '3', '4']",1,2023.2.3,harveyvisual,2.1,[],8,0.75,
0,pause,0.4,None,None,None,0,71,71,71,,,,,,,,,,,1,26.94111704826355,N008,visual,1,[],"['1', '2', '3', '4']",1,2023.2.3,harveyvisual,2.1,[],8,0.75,
7,dot,0.3,['dot'],['density'],black,0,72,72,72,,,27.600358963012695,27.315283060073853,27.61536717414856,dot,"[0.1, 0.06, 0.06, 0.08, 0.08, 0.06, 0.1]","[[0.3899189512010899, -0.40728696153528776], [0.20392863561369634, -0.3305625840210526], [0.31626985815109576, 0.13567824844623666], [0.5017338684339655, -0.028549680114735937], [0.11648855723187378, -0.1078833072829627], [0.07041138378868489, 0.08730219371944997], [0.32910598476010167, -0.13660711058181768]]",density,black,,,N008,visual,1,[],"['1', '2', '3', '4']",1,2023.2.3,harveyvisual,2.1,[],8,0.75,
0,pause,0.4,None,None,None,0,73,73,73,,,,,,,,,,,,,N008,visual,1,[],"['1', '2', '3', '4']",1,2023.2.3,harveyvisual,2.1,[],8,0.75,
7,dot,0.3,['dot'],['density'],black,0,74,74,74,,,28.300366163253784,28.015279054641724,28.315269947052002,dot,"[0.08, 0.06, 0.06, 0.1, 0.06, 0.08, 0.08]","[[-0.4260259763687212, 0.0015611622021723967], [-0.003169876971998007, 0.13415651360788267], [-0.2586764037849864, 0.4417783913692737], [-0.4397986643511286, 0.306274470342183], [-0.0069778791964768315, 0.3653924841843964], [-0.25662591460159173, 0.21046748777052526], [-0.17930648864359452, 0.007725268650954965]]",density,black,,,N008,visual,1,[],"['1', '2', '3', '4']",1,2023.2.3,harveyvisual,2.1,[],8,0.75,
0,pause,0.4,None,None,None,0,75,75,75,,,,,,,,,,,,,N008,visual,1,[],"['1', '2', '3', '4']",1,2023.2.3,harveyvisual,2.1,[],8,0.75,
7,dot,0.3,['dot'],['density'],black,0,76,76,76,,,29.000350952148438,28.715264081954956,29.015264987945557,dot,"[0.08, 0.1, 0.06, 0.08, 0.1, 0.06, 0.1]","[[-0.16635260996794698, 0.28084462036912], [-0.40218122969076125, -0.17991686156932815], [-0.0845402480451966, 0.09445086570213204], [-0.12722724135381816, -0.176029296145206], [-0.3668576348978093, 0.24153552923633032], [-0.5374975881789634, 0.10465170418994485], [-0.31219932221879926, 0.029177302383891702]]",density,black,,,N008,visual,1,[],"['1', '2', '3', '4']",1,2023.2.3,harveyvisual,2.1,[],8,0.75,
0,pause,0.4,None,None,None,0,77,77,77,,,,,,,,,,,,,N008,visual,1,[],"['1', '2', '3', '4']",1,2023.2.3,harveyvisual,2.1,[],8,0.75,
7,dot,0.3,['dot'],['density'],black,0,78,78,78,,,29.700363159179688,29.41524600982666,29.715232133865356,dot,"[0.1, 0.08, 0.1, 0.1, 0.06, 0.08, 0.1]","[[-0.23022292756182125, -0.05768485575552839], [-0.3970021412728509, -0.1722837668104814], [-0.2989980436724142, -0.5015189566068301], [-0.1887121522124618, -0.3052937986494308], [-0.001193606839323686, -0.45187687349833133], [-0.45251418858811787, -0.367940027934103], [0.11213422846620591, -0.19711986939188722]]",density,black,,,N008,visual,1,[],"['1', '2', '3', '4']",1,2023.2.3,harveyvisual,2.1,[],8,0.75,
0,pause,0.4,None,None,None,0,79,79,79,,,,,,,,,,,,,N008,visual,1,[],"['1', '2', '3', '4']",1,2023.2.3,harveyvisual,2.1,[],8,0.75,
7,dot,0.3,['dot'],['density'],black,0,80,80,80,,,30.400362968444824,30.115296125411987,30.415289163589478,dot,"[0.08, 0.08, 0.08, 0.06, 0.06, 0.1, 0.1]","[[0.21536278937261513, -0.01733091677764761], [-0.08931035591216824, -0.05246349631749078], [0.21870610454298933, 0.21067491250041093], [-0.1587576617113587, 0.26068369883413384], [0.04623079518225047, 0.4568527369480977], [0.022942391481424712, 0.13939122930077608], [-0.27674911739568203, 0.09730719745121558]]",density,black,,,N008,visual,1,[],"['1', '2', '3', '4']",1,2023.2.3,harveyvisual,2.1,[],8,0.75,
0,pause,0.4,None,None,None,0,81,81,81,,,,,,,,,,,,,N008,visual,1,[],"['1', '2', '3', '4']",1,2023.2.3,harveyvisual,2.1,[],8,0.75,
7,dot,0.3,['dot'],['density'],black,0,82,82,82,,,31.100367069244385,30.815421104431152,31.115406036376953,dot,"[0.1, 0.06, 0.1, 0.08, 0.06, 0.1, 0.06]","[[-0.23867826801906328, -0.4967507610264224], [-0.008572732368673055, -0.07934474412745643], [-0.2066881937132076, -0.2790710878612567], [0.21709551483580575, -0.47507177834902015], [0.2058411173229685, -0.17553172422760346], [-0.015438952742397984, -0.3568653319460787], [-0.011603255668745115, -0.5749057065343526]]",density,black,,,N008,visual,1,[],"['1', '2', '3', '4']",1,2023.2.3,harveyvisual,2.1,[],8,0.75,
0,pause,0.4,None,None,None,0,83,83,83,,,,,,,,,,,,,N008,visual,1,[],"['1', '2', '3', '4']",1,2023.2.3,harveyvisual,2.1,[],8,0.75,
8,dot,0.3,['dot'],['density'],black,0,84,84,84,,,31.800368070602417,31.51541304588318,31.815412044525146,dot,"[0.06, 0.1, 0.08, 0.1, 0.06, 0.08, 0.06, 0.1]","[[-0.13214754069031825, -0.5402677255150703], [0.1288984478000013, -0.5519726475135984], [0.27401725229332, -0.34994268047279037], [-0.052680844420756816, 0.006786609240531098], [0.03557367748195712, -0.3699094958310016], [-0.23170140006741713, -0.18198058676873416], [-0.33504621301322857, -0.3611685350886627], [0.0760940577115827, -0.14857148175569432]]",density,black,,,N008,visual,1,[],"['1', '2', '3', '4']",1,2023.2.3,harveyvisual,2.1,[],8,0.75,
0,pause,0.4,None,None,None,0,85,85,85,,,,,,,,,,,,,N008,visual,1,[],"['1', '2', '3', '4']",1,2023.2.3,harveyvisual,2.1,[],8,0.75,
8,dot,0.3,['dot'],['density'],black,0,86,86,86,,,32.500367164611816,32.21537899971008,32.51538109779358,dot,"[0.06, 0.06, 0.06, 0.08, 0.08, 0.1, 0.08, 0.1]","[[0.4578461037593053, -0.0425280984807614], [0.3105081462658962, -0.253400778181943], [0.5107466611240274, 0.18303335057259504], [0.05013881804369301, 0.21472050036076742], [0.11913774150617627, -0.046477809882714556], [0.3069987493408211, 0.11186211070896974], [0.10261508471656716, -0.25482825738733483], [-0.08881417545548334, 0.035709595317019026]]",density,black,,,N008,visual,1,[],"['1', '2', '3', '4']",1,2023.2.3,harveyvisual,2.1,[],8,0.75,
0,pause,0.4,None,None,None,0,87,87,87,,,,,,,,,,,,,N008,visual,1,[],"['1', '2', '3', '4']",1,2023.2.3,harveyvisual,2.1,[],8,0.75,
8,dot,0.3,['dot'],['density'],black,0,88,88,88,,,33.20035099983215,32.91540217399597,33.2151460647583,dot,"[0.1, 0.08, 0.08, 0.08, 0.1, 0.1, 0.08, 0.06]","[[-0.08486713456805763, -0.4233549652310786], [-0.34121661687321897, 0.009931669871959016], [0.06179899905610707, -0.01287726204627424], [-0.01080387642187049, -0.20774715314808884], [-0.2259787915635077, -0.2257096572683263], [-0.31087639520469923, -0.4457762681120083], [-0.07938707884489006, 0.17996906985975966], [-0.13919465900414296, -0.03133413505419433]]",density,black,,,N008,visual,1,[],"['1', '2', '3', '4']",1,2023.2.3,harveyvisual,2.1,[],8,0.75,
0,pause,0.4,None,None,None,0,89,89,89,,,,,,,,,,,,,N008,visual,1,[],"['1', '2', '3', '4']",1,2023.2.3,harveyvisual,2.1,[],8,0.75,
8,dot,0.3,['dot'],['density'],black,0,90,90,90,,,33.90035700798035,33.61516308784485,33.915311098098755,dot,"[0.1, 0.08, 0.08, 0.08, 0.06, 0.1, 0.1, 0.1]","[[0.3129921899656287, 0.2226642157048143], [0.41298599633021416, -0.001766323215076977], [0.013785601627645026, 0.39275307090924344], [-0.009407606244017683, 0.02333367620517349], [0.20163499737495916, -0.08731087547331118], [0.31235423233837933, 0.42762820752661124], [0.10705959187470679, 0.21318577255187057], [-0.13233007013452783, 0.20605257250075132]]",density,black,,,N008,visual,1,[],"['1', '2', '3', '4']",1,2023.2.3,harveyvisual,2.1,[],8,0.75,
0,pause,0.4,None,None,None,0,91,91,91,,,,,,,,,,,,,N008,visual,1,[],"['1', '2', '3', '4']",1,2023.2.3,harveyvisual,2.1,[],8,0.75,
8,dot,0.3,['dot'],['density'],black,0,92,92,92,,,34.600372076034546,34.31531095504761,34.615314960479736,dot,"[0.1, 0.08, 0.1, 0.08, 0.06, 0.08, 0.08, 0.1]","[[-0.012034279999911439, 0.06556808781241986], [-0.3446774290598954, 0.11122635080299646], [0.22428040003470762, 0.1796687910302273], [-0.037221971777983635, 0.5300244249381355], [-0.1456717336157172, 0.2672263832914442], [0.040508406505222534, 0.3412803201140432], [-0.26975617824218623, 0.48628578621654683], [0.24128509790231628, 0.4122343446782376]]",density,black,,,N008,visual,1,[],"['1', '2', '3', '4']",1,2023.2.3,harveyvisual,2.1,[],8,0.75,
0,pause,0.4,None,None,None,0,93,93,93,,,,,,,,,,,,,N008,visual,1,[],"['1', '2', '3', '4']",1,2023.2.3,harveyvisual,2.1,[],8,0.75,
8,dot,0.3,['dot'],['density'],black,0,94,94,94,,,35.30036807060242,35.01530194282532,35.31526207923889,dot,"[0.08, 0.1, 0.06, 0.08, 0.06, 0.06, 0.1, 0.1]","[[-0.43120034012996816, -0.3965796075128045], [0.1478983624034229, -0.46770986256388064], [-0.23058307999139557, -0.3238539366063682], [-0.07988642296593639, -0.13993938361429092], [-0.08664795903044427, -0.5418074813242995], [0.11879255589163208, -0.1637425359681226], [-0.09873641234556067, 0.08705286872936738], [-0.025120016651009644, -0.34045580780112095]]",density,black,,,N008,visual,1,[],"['1', '2', '3', '4']",1,2023.2.3,harveyvisual,2.1,[],8,0.75,
0,pause,0.4,None,None,None,0,95,95,95,,,,,,,,,,,,,N008,visual,1,[],"['1', '2', '3', '4']",1,2023.2.3,harveyvisual,2.1,[],8,0.75,
9,dot,0.3,['dot'],['density'],black,0,96,96,96,,,36.000354051589966,35.715250968933105,36.015239000320435,dot,"[0.1, 0.06, 0.06, 0.06, 0.06, 0.1, 0.1, 0.06, 0.08]","[[-0.05049485011715354, 0.3013521193238899], [0.15354596755057998, 0.36785015051376163], [0.22995749783639982, 0.07309138415424772], [0.13460311710395165, -0.18603378415368982], [0.33097739113381164, -0.13822260855557728], [-0.16464148731134703, 0.07190493829483618], [0.521154897315396, -0.007803673430992942], [0.02684304494395013, 0.0018704401699241912], [-0.15545279255173522, -0.15329938800760382]]",density,black,,,N008,visual,1,[],"['1', '2', '3', '4']",1,2023.2.3,harveyvisual,2.1,[],8,0.75,
0,pause,0.4,None,None,None,0,97,97,97,,,,,,,,,,,,,N008,visual,1,[],"['1', '2', '3', '4']",1,2023.2.3,harveyvisual,2.1,[],8,0.75,
9,dot,0.3,['dot'],['density'],black,0,98,98,98,,,36.70035409927368,36.415239095687866,36.71521711349487,dot,"[0.08, 0.06, 0.06, 0.08, 0.06, 0.1, 0.06, 0.06, 0.06]","[[0.12352761201622256, -0.5468572532837559], [0.3269537579821693, -0.14821727133703638], [-0.17374906020363926, -0.07190913605219341], [-0.07646026346349713, -0.5341566642345157], [0.06446752128858728, 0.011530587655488696], [0.17734850627899523, -0.32847254707869106], [-0.01015131191695844, -0.24065236825376074], [-0.3732824370369478, -0.21519922319826376], [-0.23017550258214428, -0.35747389881463476]]",density,black,,,N008,visual,1,[],"['1', '2', '3', '4']",1,2023.2.3,harveyvisual,2.1,[],8,0.75,
0,pause,0.4,None,None,None,0,99,99,99,,,,,,,,,,,,,N008,visual,1,[],"['1', '2', '3', '4']",1,2023.2.3,harveyvisual,2.1,[],8,0.75,
9,dot,0.3,['dot'],['density'],black,0,100,100,100,,,37.40037202835083,37.115214109420776,37.41520309448242,dot,"[0.08, 0.06, 0.06, 0.06, 0.1, 0.1, 0.06, 0.1, 0.08]","[[0.12352761201622256, -0.5468572532837559], [0.3269537579821693, -0.14821727133703638], [-0.17374906020363926, -0.07190913605219341], [-0.07646026346349713, -0.5341566642345157], [0.06446752128858728, 0.011530587655488696], [0.17734850627899523, -0.32847254707869106], [-0.01015131191695844, -0.24065236825376074], [-0.3732824370369478, -0.21519922319826376], [-0.23017550258214428, -0.35747389881463476]]",density,black,,,N008,visual,1,[],"['1', '2', '3', '4']",1,2023.2.3,harveyvisual,2.1,[],8,0.75,
0,pause,0.4,None,None,None,0,101,101,101,,,,,,,,,,,,,N008,visual,1,[],"['1', '2', '3', '4']",1,2023.2.3,harveyvisual,2.1,[],8,0.75,
9,dot,0.3,['dot'],['density'],white,0,102,102,102,,,38.100383043289185,37.81519317626953,38.11506509780884,dot,"[0.1, 0.08, 0.1, 0.06, 0.08, 0.06, 0.1, 0.1, 0.1]","[[0.43694394638140777, -0.3313910020207278], [-0.12671083892604185, -0.2904925475365486], [0.20104083284362928, 0.10806727359081147], [0.1376754545064979, -0.09924520624161907], [0.19021248837847174, -0.31516489548878085], [0.3653456942078643, -0.09076399745187974], [0.1403131072824284, -0.5562242851951704], [-0.005445667935095978, 0.0898710966384087], [-0.11923067905189093, -0.07827803450029165]]",density,white,,,N008,visual,1,[],"['1', '2', '3', '4']",1,2023.2.3,harveyvisual,2.1,[],8,0.75,
0,pause,0.4,None,None,None,0,103,103,103,,,,,,,,,,,,,N008,visual,1,[],"['1', '2', '3', '4']",1,2023.2.3,harveyvisual,2.1,[],8,0.75,
9,dot,0.3,['dot'],['density'],black,0,104,104,104,,,38.80034899711609,38.5150830745697,38.81503510475159,dot,"[0.06, 0.06, 0.06, 0.06, 0.06, 0.08, 0.08, 0.06, 0.08]","[[0.4907720478217397, -0.04420899316542184], [0.34945142516086164, 0.15252383324094793], [0.5574461082468273, 0.19132091369540322], [0.27860246559707486, -0.040271372914082004], [0.05137088633600719, 0.3166781443626957], [0.3859483744724672, 0.35594746641407654], [0.08124150308634055, -0.11830714188255424], [-0.07254784919135501, 0.1430213671552253], [0.33979531306265204, -0.26214422422440126]]",density,black,,,N008,visual,1,[],"['1', '2', '3', '4']",1,2023.2.3,harveyvisual,2.1,[],8,0.75,
0,pause,0.4,None,None,None,0,105,105,105,,,,,,,,,,,,,N008,visual,1,[],"['1', '2', '3', '4']",1,2023.2.3,harveyvisual,2.1,[],8,0.75,
9,dot,0.3,['dot'],['density'],black,0,106,106,106,,,39.50036096572876,39.21506214141846,39.51502203941345,dot,"[0.08, 0.06, 0.1, 0.06, 0.06, 0.1, 0.06, 0.08, 0.1]","[[0.4907720478217397, -0.04420899316542184], [0.34945142516086164, 0.15252383324094793], [0.5574461082468273, 0.19132091369540322], [0.27860246559707486, -0.040271372914082004], [0.05137088633600719, 0.3166781443626957], [0.3859483744724672, 0.35594746641407654], [0.08124150308634055, -0.11830714188255424], [-0.07254784919135501, 0.1430213671552253], [0.33979531306265204, -0.26214422422440126]]",density,black,,,N008,visual,1,[],"['1', '2', '3', '4']",1,2023.2.3,harveyvisual,2.1,[],8,0.75,
0,pause,0.4,None,None,None,0,107,107,107,,,,,,,,,,,,,N008,visual,1,[],"['1', '2', '3', '4']",1,2023.2.3,harveyvisual,2.1,[],8,0.75,
20,dot,0.3,['dot'],['density'],black,0,108,108,108,,,40.20037007331848,39.915152072906494,40.21501898765564,dot,"[0.08, 0.1, 0.1, 0.08, 0.08, 0.06, 0.06, 0.08, 0.06, 0.06, 0.06, 0.08, 0.06, 0.1, 0.08, 0.1, 0.08, 0.06, 0.1, 0.1]","[[-0.2907589219705592, -0.024756069772239764], [0.2704781693624345, 0.24728637149460297], [-0.31211414852116454, -0.5059439072861551], [0.09507841083278157, -0.2100070758935439], [-0.07105883672686497, 0.1331004320044893], [0.44685423727169227, 0.06293707945567084], [0.26180385457534516, 0.47937517919049655], [0.33817703256279386, -0.12856342044362962], [-0.2832946688430601, -0.2790566338407137], [-0.5855284500895105, 0.032379825340628166], [-0.12361626018139027, 0.5572465143498375], [-0.08328088720851223, 0.32637886364116764], [-0.0016756499784843504, -0.5434975152408932], [-0.4138108845132516, 0.12360958769894115], [0.5130380675223783, -0.26681027788333733], [0.30362998575873446, -0.5235642646950843], [0.13432155097726173, 0.011255203227677923], [-0.4787627009678729, -0.23054851994073708], [-0.4416285273501233, 0.3407308261714333], [-0.10232823832268167, -0.13484002401470008]]",density,black,,,N008,visual,1,[],"['1', '2', '3', '4']",1,2023.2.3,harveyvisual,2.1,[],8,0.75,
0,pause,0.4,None,None,None,0,109,109,109,,,,,,,,,,,,,N008,visual,1,[],"['1', '2', '3', '4']",1,2023.2.3,harveyvisual,2.1,[],8,0.75,
20,dot,0.3,['dot'],['density'],black,0,110,110,110,,,40.90036606788635,40.61513304710388,40.91511511802673,dot,"[0.06, 0.06, 0.08, 0.08, 0.06, 0.08, 0.08, 0.1, 0.1, 0.06, 0.08, 0.1, 0.06, 0.1, 0.08, 0.1, 0.08, 0.08, 0.06, 0.06]","[[-0.5352028244472594, -0.09835078499305], [-0.3662349793204268, -0.3325541822863155], [-0.19978958131282581, 0.5571669409662399], [-0.38208173911950893, 0.35313989563928105], [-0.04490492387426237, -0.14950588014275012], [-0.1743335429284974, -0.32578990923672874], [0.6044715599029099, 0.010730256989759133], [-0.0471664479388586, 0.12967760566482778], [0.36499032284787414, 0.10114150621665308], [0.12089331555109006, 0.5420027117316597], [0.13335733974095598, -0.3478664330436515], [0.46812481895784364, -0.3154666416104402], [0.14427798298723604, -0.5543526610223812], [-0.21508491177507538, 0.01378346278645759], [-0.411949544666666, 0.08507879232345028], [-0.5596785649390094, 0.21414412789870174], [0.24481741453525263, -0.17294789746174488], [0.13942558848677533, 0.26151738205996855], [0.3704107225219778, 0.40911102484388456], [-0.18757551902702874, 0.2808930770878315]]",density,black,,,N008,visual,1,[],"['1', '2', '3', '4']",1,2023.2.3,harveyvisual,2.1,[],8,0.75,
0,pause,0.4,None,None,None,0,111,111,111,,,,,,,,,,,,,N008,visual,1,[],"['1', '2', '3', '4']",1,2023.2.3,harveyvisual,2.1,[],8,0.75,
20,dot,0.3,['dot'],['density'],black,0,112,112,112,,,41.60036611557007,41.31512403488159,41.61510515213013,dot,"[0.1, 0.06, 0.08, 0.06, 0.1, 0.08, 0.1, 0.08, 0.08, 0.08, 0.08, 0.06, 0.1, 0.08, 0.1, 0.1, 0.1, 0.08, 0.1, 0.08]","[[-0.5815976365545591, 0.15674034621237934], [-0.15374359173188568, 0.49485232675394586], [-0.25945830428399214, -0.20512820113419833], [0.03530294047018445, 0.18081927798441177], [0.4086441522640244, 0.2783207863434655], [-0.5958928224597481, -0.055629095971708245], [0.20920464716701093, 0.486760247231217], [-0.35264479663902165, 0.2109660877099762], [-0.013505062982355542, -0.015055279957617906], [0.3984904893397704, -0.3234622306790156], [-0.2778854355575246, -0.42311955017934644], [0.5411345650091398, 0.12905916406015588], [0.495740617959204, -0.14313950468074654], [0.11080469394775339, -0.43439441667998235], [0.18744188384490967, -0.11786603547214553], [-0.06590039995193497, -0.33602189919154885], [-0.14602730730341146, 0.26138823491593666], [0.34536682838685295, 0.04650028879927165], [-0.40619489684534427, -0.02092052839870473], [-0.438867559552525, -0.31798833277222727]]",density,black,,,N008,visual,1,[],"['1', '2', '3', '4']",1,2023.2.3,harveyvisual,2.1,[],8,0.75,
0,pause,0.4,None,None,None,0,113,113,113,,,,,,,,,,,,,N008,visual,1,[],"['1', '2', '3', '4']",1,2023.2.3,harveyvisual,2.1,[],8,0.75,
20,dot,0.3,['dot'],['density'],black,0,114,114,114,,,42.300349950790405,42.01496505737305,42.31494617462158,dot,"[0.08, 0.1, 0.08, 0.06, 0.06, 0.06, 0.1, 0.06, 0.06, 0.1, 0.06, 0.06, 0.08, 0.1, 0.1, 0.08, 0.06, 0.1, 0.08, 0.1]","[[-0.25581148043463514, 0.3682598840862563], [0.4867411057276402, 0.10019344366703292], [-0.10101092714554372, -0.09271233533061185], [0.2612007701954673, -0.37505017502662297], [0.3485218062271618, 0.3964168905088705], [-0.049354729194276636, -0.3296535905949651], [-0.4298766757447011, 0.06453834621737475], [-0.0916211126083446, -0.5598903091677435], [-0.057982949092165614, 0.26568451047186326], [0.16533870944032836, 0.047369045146441136], [-0.3314012567888742, -0.1427753482406942], [-0.5657757460331855, -0.07388463187856642], [0.1316050951464417, -0.5777561571843792], [0.39927503112440743, -0.06831433035040907], [0.6001588686578293, -0.0718037049075387], [-0.47892162113473646, -0.3483586275230528], [-0.23652970188457667, -0.39873340728161555], [-0.45758696046628233, 0.293632797457592], [0.0578263430061976, 0.4250903906374687], [-0.12470773712683947, 0.5480352552468174]]",density,black,,,N008,visual,1,[],"['1', '2', '3', '4']",1,2023.2.3,harveyvisual,2.1,[],8,0.75,
0,pause,0.4,None,None,None,0,115,115,115,,,,,,,,,,,,,N008,visual,1,[],"['1', '2', '3', '4']",1,2023.2.3,harveyvisual,2.1,[],8,0.75,
20,dot,0.3,['dot'],['density'],black,0,116,116,116,,,43.00037598609924,42.71494913101196,43.0151150226593,dot,"[0.06, 0.1, 0.08, 0.06, 0.1, 0.08, 0.06, 0.06, 0.1, 0.1, 0.1, 0.1, 0.08, 0.1, 0.06, 0.08, 0.1, 0.06, 0.06, 0.1]","[[0.11361560075760657, 0.41933070561767605], [0.4413206562275259, 0.009754845034056658], [0.27337149968248264, -0.44559079242828387], [0.028072940070598684, 0.004474346343825708], [-0.22353731108406244, -0.1476295969634877], [-0.11090044820197809, 0.5245773111220899], [-0.38090470268978616, 0.37143884514352765], [-0.2374456915856668, 0.19936982042533735], [0.38452010958423744, 0.24104955733091626], [0.3431970814661307, -0.24016169275932692], [-0.07105115012999397, -0.3959480628195903], [-0.5014853899156156, -0.21124915997591076], [0.566871980486981, -0.1323407387103115], [-0.5946402462647172, 0.09756698727842524], [0.39904999088481896, 0.4300408267476009], [-0.35735718745717415, -0.007076961085342115], [0.11793230629038398, -0.16549889020107977], [0.08002883576296471, 0.18968017962972294], [-0.3242349135786131, -0.37956593209035683], [0.2304017110373131, 0.004711014945922742]]",density,black,,,N008,visual,1,[],"['1', '2', '3', '4']",1,2023.2.3,harveyvisual,2.1,[],8,0.75,
0,pause,0.4,None,None,None,0,117,117,117,,,,,,,,,,,,,N008,visual,1,[],"['1', '2', '3', '4']",1,2023.2.3,harveyvisual,2.1,[],8,0.75,
20,dot,0.3,['dot'],['density'],black,0,118,118,118,,,43.70037508010864,43.41490817070007,43.71494793891907,dot,"[0.06, 0.08, 0.08, 0.08, 0.08, 0.06, 0.06, 0.06, 0.1, 0.08, 0.06, 0.06, 0.08, 0.1, 0.08, 0.08, 0.06, 0.08, 0.08, 0.06]","[[0.4156005299768878, -0.3157801962759287], [0.18243398772533792, 0.14678338544223624], [-0.04474676141909184, -0.31993060050722627], [-0.4893240682676753, -0.1286060279139581], [-0.08763201748182692, -0.5459736511876524], [0.3363986081039734, -0.4917415181772231], [0.48839254553205624, -0.04874352549027716], [0.4238344392209411, 0.167132766031226], [-0.29476480050433035, -0.3281166222234031], [-0.042795261683771235, 0.26717869071841627], [-0.04921909648109446, 0.5694741271618293], [0.11055159306388518, 0.44591257245473204], [-0.5663363112719048, 0.10832453293173874], [-0.10546929672719585, -0.04819790666855073], [-0.45820484379127036, 0.3241686978142535], [-0.3183379093822895, 0.08157841964483525], [0.2118119947784758, -0.17018996929970215], [0.28405400974858586, 0.3095582561781449], [0.11347997798770915, -0.4326087450820734], [-0.2473779304380117, 0.4303675654510293]]",density,black,,,N008,visual,1,[],"['1', '2', '3', '4']",1,2023.2.3,harveyvisual,2.1,[],8,0.75,
0,pause,0.4,None,None,None,0,119,119,119,,,,,,,,,,,,,N008,visual,1,[],"['1', '2', '3', '4']",1,2023.2.3,harveyvisual,2.1,[],8,0.75,
20,dot,0.3,['dot'],['density'],black,0,120,120,120,,,44.400360107421875,44.11495399475098,44.41494607925415,dot,"[0.1, 0.06, 0.06, 0.06, 0.1, 0.1, 0.06, 0.1, 0.08, 0.08, 0.06, 0.1, 0.08, 0.1, 0.08, 0.08, 0.06, 0.08, 0.06, 0.06]","[[-0.0052247841668866535, -0.20894578648619977], [-0.3187519452062245, -0.2532755445415123], [-0.08684084561937977, 0.005980670450795866], [0.5872042657826414, -0.026895706742564446], [0.2287182183680765, -0.10375835982744952], [-0.5529979350718457, 0.016682152642304743], [0.18523940306205977, -0.31116588101067266], [0.3436882450034151, 0.09570973079965572], [-0.36870724356538354, 0.41984004418173304], [0.3771806683746062, 0.4024706752102392], [0.12622186909373545, 0.4348539246726537], [-0.5282027409343202, 0.27332976585673724], [0.3934017329913341, -0.23188176558232138], [-0.09916132403219813, -0.5711165705672824], [-0.07430913290860419, 0.37038775459259277], [-0.3136582507158033, 0.23824716946790303], [0.06471189868284477, 0.22685159301606317], [-0.061369531731756854, 0.5628560588408325], [0.3047866043899332, -0.5114327935439599], [-0.15349453103200855, -0.3793106786791066]]",density,black,,,N008,visual,1,[],"['1', '2', '3', '4']",1,2023.2.3,harveyvisual,2.1,[],8,0.75,
0,pause,0.4,None,None,None,0,121,121,121,,,,,,,,,,,,,N008,visual,1,[],"['1', '2', '3', '4']",1,2023.2.3,harveyvisual,2.1,[],8,0.75,
20,dot,0.3,['dot'],['density'],black,0,122,122,122,,,45.100362062454224,44.814927101135254,45.114917039871216,dot,"[0.06, 0.08, 0.08, 0.08, 0.1, 0.1, 0.08, 0.06, 0.1, 0.06, 0.1, 0.08, 0.1, 0.06, 0.1, 0.08, 0.06, 0.06, 0.08, 0.08]","[[0.13819021032622214, -0.2969691488065597], [0.4385986453908207, -0.3115634866079937], [-0.38492778876377587, 0.2188571209915265], [-0.2069964047315489, -0.3559819810053093], [-0.2166936108974855, 0.32369258082423547], [-0.26369979534415466, 0.0415072858352461], [0.30697235832707137, 0.13510493789162137], [0.37961426878257887, 0.40815972302393394], [0.17468157308239818, 0.3645889017405255], [-0.5584628167493476, -0.21728679802357465], [-0.034942350684382895, -0.18985810065513054], [-0.04954611452634605, 0.2043532135549727], [-0.028588024658502298, -0.6028896484325549], [0.2725602547287148, -0.4939050167029697], [0.5809319602709732, -0.1633809902214211], [-0.577760957949984, 0.053827043400372615], [0.547994022439186, 0.2122451090857072], [0.1091418731680297, 0.09063304827424334], [0.06158372297459336, 0.5873806267640334], [-0.17745077610144033, 0.5514028470826997]]",density,black,,,N008,visual,1,[],"['1', '2', '3', '4']",1,2023.2.3,harveyvisual,2.1,[],8,0.75,
0,pause,0.4,None,None,None,0,123,123,123,,,,,,,,,,,,,N008,visual,1,[],"['1', '2', '3', '4']",1,2023.2.3,harveyvisual,2.1,[],8,0.75,
20,dot,0.3,['dot'],['density'],black,0,124,124,124,,,45.80036902427673,45.514902114868164,45.814876079559326,dot,"[0.08, 0.08, 0.1, 0.06, 0.1, 0.06, 0.1, 0.08, 0.1, 0.1, 0.06, 0.06, 0.06, 0.06, 0.1, 0.06, 0.1, 0.08, 0.08, 0.08]","[[-0.2874567776836703, -0.2058107947316718], [0.1814550050452598, 0.41021363430513913], [-0.10208082202853419, -0.16223508419129024], [0.03337851204287523, -0.5434211079004913], [-0.20367224366832293, -0.5480383208755466], [-0.2897414391207357, 0.036511766093423215], [0.10051457573376765, -0.09724604888681154], [0.49083760137120425, 0.08279785987757171], [0.3480018722774447, -0.37722445439308006], [-0.5185915886038798, 0.18723640498819905], [-0.5211054622083475, -0.10237299626112462], [0.1606673737306602, -0.3018749457924304], [0.2827180017179607, 0.14274012410701775], [0.39674172982555855, -0.0944971128632292], [-0.1356360104127144, 0.436113702759541], [-0.471444000139961, -0.3523221757501646], [-0.06649331381835832, 0.11710449903392217], [-0.3164015565642089, 0.5089668146365394], [0.10175746290401544, 0.22027257085779095], [0.3889597813112309, 0.3188188679433403]]",density,black,,,N008,visual,1,[],"['1', '2', '3', '4']",1,2023.2.3,harveyvisual,2.1,[],8,0.75,
0,pause,0.4,None,None,None,0,125,125,125,,,,,,,,,,,,,N008,visual,1,[],"['1', '2', '3', '4']",1,2023.2.3,harveyvisual,2.1,[],8,0.75,
20,dot,0.3,['dot'],['density'],black,0,126,126,126,,,46.50037908554077,46.21486711502075,46.51485896110535,dot,"[0.1, 0.06, 0.08, 0.1, 0.1, 0.1, 0.08, 0.06, 0.06, 0.1, 0.1, 0.06, 0.06, 0.08, 0.08, 0.06, 0.1, 0.1, 0.08, 0.1]","[[0.361531315065321, 0.35649331711362114], [-0.10601628965853016, 0.5489664742188538], [0.38435227778507874, -0.3317393803684559], [-0.1547324019094422, -0.3071914440173341], [0.5826869611111795, -0.15399887483489516], [-0.5610540055397603, -0.0680533407917864], [0.02451615088322756, -0.20557406840709525], [-0.3571297146146732, 0.1292832473727607], [0.11257322680053938, -0.3908346504765964], [-0.24477408664140077, -0.02618863526780879], [0.5792748494232604, 0.14851113213425451], [0.1593917485177594, 0.03126222541404844], [0.4026554726168997, 0.04426151358256869], [-0.5913957571703529, 0.12015139585415827], [0.009805109712625604, 0.17306647492574412], [-0.44009045427362603, 0.3520892427305721], [-0.23391932364652068, 0.38738224483908523], [-0.40438275098596455, -0.2795162327932351], [0.2865800158257129, -0.5260269431140696], [0.044469459087594476, 0.4110072295975641]]",density,black,,,N008,visual,1,[],"['1', '2', '3', '4']",1,2023.2.3,harveyvisual,2.1,[],8,0.75,
0,pause,0.4,None,None,None,0,127,127,127,,,,,,,,,,,,,N008,visual,1,[],"['1', '2', '3', '4']",1,2023.2.3,harveyvisual,2.1,[],8,0.75,
20,dot,0.3,['dot'],['density'],white,0,128,128,128,,,47.20037007331848,46.91483998298645,47.21486496925354,dot,"[0.1, 0.08, 0.06, 0.06, 0.1, 0.1, 0.06, 0.08, 0.06, 0.1, 0.08, 0.08, 0.06, 0.1, 0.1, 0.08, 0.1, 0.1, 0.1, 0.08]","[[0.06769964056133115, 0.48172837865730644], [0.40846946410230267, -0.2882192484610571], [0.3518517001873821, 0.24674239099463796], [-0.37847398774761903, 0.08090982182414796], [0.06021136161226981, -0.07763840838492309], [0.23329567757738523, -0.39540233310472384], [-0.1584613459516398, 0.06267336105155774], [-0.0898157436359387, -0.3287541795190851], [-0.24116832068784927, -0.5122293016266932], [0.05457707165055514, -0.5489752791415682], [0.338422300673874, 0.003451626318886958], [-0.4092222112599076, -0.35830446417626177], [-0.39492246412945875, 0.2932467480450864], [-0.5865294671076033, -0.07530215225845704], [-0.14264151838043643, 0.5537573644826974], [0.5557240654407988, 0.17435383919398695], [-0.3194221120617022, -0.18497239678037747], [0.1533169274974644, 0.2056357316526476], [0.5732214028234505, -0.07620611615331127], [-0.3398688900789003, 0.4829637873572238]]",density,white,,,N008,visual,1,[],"['1', '2', '3', '4']",1,2023.2.3,harveyvisual,2.1,[],8,0.75,
0,pause,0.4,None,None,None,0,129,129,129,,,,,,,,,,,1,47.29956102371216,N008,visual,1,[],"['1', '2', '3', '4']",1,2023.2.3,harveyvisual,2.1,[],8,0.75,
20,dot,0.3,['dot'],['density'],black,0,130,130,130,,,47.9003701210022,47.614856004714966,47.91484498977661,dot,"[0.06, 0.08, 0.1, 0.08, 0.1, 0.08, 0.1, 0.06, 0.06, 0.1, 0.06, 0.06, 0.06, 0.08, 0.06, 0.06, 0.1, 0.06, 0.1, 0.08]","[[0.3306898819804357, -0.48489990779231934], [-0.21962488818248227, 0.0797457074736021], [-0.10848770974750094, -0.1404416886823434], [0.2393840884149151, -0.2663294689248424], [-0.09431099900491902, -0.5599390619814917], [0.020852209696103463, 0.5973276853491866], [0.5845119671323348, -0.13595957781236925], [-0.505236529752457, 0.2220940000800603], [0.31377168097396924, 0.16064737687740815], [-0.0013987013940593984, 0.39709749356691193], [0.2978445626078069, -0.07492393899026428], [-0.37082292522391, 0.41858512758280125], [-0.3987742233116321, -0.2546576685414993], [0.045620315665738764, -0.29869460409506093], [-0.3764877688906507, -0.4562537036226162], [0.19770209296893915, 0.4861175419476732], [-0.21335092283460372, -0.3393199885588618], [0.5175589677469526, 0.06549224769730821], [-0.4770564197581425, -0.06121471978629017], [0.040771123993830205, 0.15080354023620635]]",density,black,,,N008,visual,1,[],"['1', '2', '3', '4']",1,2023.2.3,harveyvisual,2.1,[],8,0.75,
0,pause,0.4,None,None,None,0,131,131,131,,,,,,,,,,,,,N008,visual,1,[],"['1', '2', '3', '4']",1,2023.2.3,harveyvisual,2.1,[],8,0.75,
20,dot,0.3,['dot'],['density'],black,0,132,132,132,,,48.60035705566406,48.314805030822754,48.61482310295105,dot,"[0.08, 0.08, 0.06, 0.08, 0.08, 0.1, 0.1, 0.1, 0.1, 0.06, 0.06, 0.06, 0.06, 0.06, 0.08, 0.08, 0.06, 0.1, 0.1, 0.08]","[[0.20177419145914766, -0.21144240969041833], [-0.18695916583534, 0.04114048694389372], [-0.10164945833146721, -0.5422245292420793], [-0.06469949155302168, -0.1569962040073819], [-0.4029719546700191, 0.38733248279963806], [0.5573322795269088, 0.15345348453912824], [0.03573367526276838, 0.15583186250677894], [0.36792341482289714, 0.2702190842367988], [0.5899843935939727, -0.06535658798380209], [0.4460210214315613, -0.24296217306298784], [-0.6047646773593484, -0.004705827254816393], [0.22623933315352274, -0.4736571105889702], [-0.3985884753179171, -0.25178271373900096], [-0.19651455836429726, 0.29094321333643214], [-0.22788532397771027, 0.516930973485854], [-0.5049314181053343, 0.19576234728851627], [-0.040930530613707994, 0.4810417034008506], [0.33433316452470674, 0.4807010616343703], [0.3317454932489947, 0.03413658349488613], [-0.4052633363988186, -0.019725813517309843]]",density,black,,,N008,visual,1,[],"['1', '2', '3', '4']",1,2023.2.3,harveyvisual,2.1,[],8,0.75,
0,pause,0.4,None,None,None,0,133,133,133,,,,,,,,,,,,,N008,visual,1,[],"['1', '2', '3', '4']",1,2023.2.3,harveyvisual,2.1,[],8,0.75,
20,dot,0.3,['dot'],['density'],black,0,134,134,134,,,49.30037713050842,49.01483106613159,49.3148090839386,dot,"[0.06, 0.1, 0.06, 0.08, 0.08, 0.1, 0.1, 0.1, 0.1, 0.1, 0.1, 0.06, 0.08, 0.06, 0.06, 0.06, 0.06, 0.06, 0.08, 0.06]","[[0.5637313036962682, -0.11543755486771297], [-0.4923910337541827, -0.15271872579310256], [0.432865100630465, -0.3378475997322824], [-0.35680266809212047, 0.09656184775749205], [-0.07130977157618845, -0.12041673381052415], [-0.17633860245006644, 0.5553797851439102], [-0.21539139154511605, 0.2863903380537032], [-0.04237548629527166, -0.32905120147703254], [-0.11730799567401329, 0.1128840259153977], [-0.26419350128808233, -0.06929829143920307], [0.09008644965665447, 0.04242220464972879], [0.18085960461293416, 0.45942582820381506], [-0.5292587537049632, 0.27101160954547654], [0.37794528785986403, 0.09229274876194316], [0.27793130911020414, 0.2963758269470128], [-0.1892719054570831, -0.452864439691231], [0.03954029827665073, -0.5036857704467657], [-0.5798888757022135, 0.08076704662905318], [0.016511530161550048, 0.3024307217375126], [0.2648127180012777, -0.1409285244871747]]",density,black,,,N008,visual,1,[],"['1', '2', '3', '4']",1,2023.2.3,harveyvisual,2.1,[],8,0.75,
0,pause,0.4,None,None,None,0,135,135,135,,,,,,,,,,,,,N008,visual,1,[],"['1', '2', '3', '4']",1,2023.2.3,harveyvisual,2.1,[],8,0.75,
20,dot,0.3,['dot'],['density'],black,0,136,136,136,,,50.0003559589386,49.714776039123535,50.014764070510864,dot,"[0.08, 0.06, 0.08, 0.08, 0.08, 0.1, 0.1, 0.08, 0.06, 0.1, 0.1, 0.08, 0.06, 0.08, 0.08, 0.1, 0.06, 0.08, 0.08, 0.06]","[[0.4709725631812357, -0.27084756479328387], [-0.32378585328721243, 0.22865672025048056], [-0.530092555351635, 0.007549295203533035], [-0.4651270736477474, -0.20519738639408014], [0.23434071458322936, -0.2948590492176527], [-0.02188465064599754, -0.45842356326422284], [-0.0022823446170293638, 0.33670756329170237], [0.4466707094666368, 0.01583256871487332], [-0.23353137599047225, -0.3632653727273099], [-0.20657994037524785, -0.1374955443825761], [0.3241201057282789, 0.1643893240936697], [0.04137634150119851, 0.09521687975416737], [0.4818582865545066, 0.33616419582511364], [-0.1698336042455756, 0.10979030332536754], [0.25329284341030645, 0.3742494066755203], [0.23463626314316455, -0.5338478534161868], [-0.5606268165974174, 0.2025705188370403], [-0.048655228722218946, 0.5802688865789737], [0.0619269536357725, -0.2142575208753385], [0.19867252144509817, -0.023534320790487673]]",density,black,,,N008,visual,1,[],"['1', '2', '3', '4']",1,2023.2.3,harveyvisual,2.1,[],8,0.75,
0,pause,0.4,None,None,None,0,137,137,137,,,,,,,,,,,,,N008,visual,1,[],"['1', '2', '3', '4']",1,2023.2.3,harveyvisual,2.1,[],8,0.75,
20,dot,0.3,['dot'],['density'],black,0,138,138,138,,,50.700353145599365,50.41476011276245,50.714755058288574,dot,"[0.1, 0.06, 0.1, 0.1, 0.06, 0.08, 0.06, 0.08, 0.06, 0.1, 0.1, 0.1, 0.06, 0.1, 0.08, 0.08, 0.08, 0.1, 0.08, 0.08]","[[0.1259657432388347, 0.2978974423854531], [-0.5439368016795553, 0.1652472536423899], [0.34201087032595656, -0.23526104420568633], [0.1555870090418926, -0.015540625187401624], [-0.014530028490101987, 0.5138169151778473], [-0.22101425945813313, -0.026584976742608513], [0.6025219358871089, 0.03196439877353896], [-0.29686322868101755, 0.39242759793105453], [0.4777868091120291, 0.28288651582502194], [0.26009456562290456, -0.4341407629497971], [-0.18235109669628258, 0.2067236620448567], [-0.5756264727127536, -0.16516546794505774], [0.37911344591517393, 0.10722355978486148], [-0.37750045710549746, -0.1645499070537071], [0.0782817358710759, -0.36184095259741683], [-0.4121107914134237, 0.027712560637277284], [-0.17530983057155558, -0.27214777969018483], [-0.054965118404565305, -0.5976882726109684], [0.27009013359385703, 0.5051538921135313], [-0.2733451094561213, -0.5174748842613823]]",density,black,,,N008,visual,1,[],"['1', '2', '3', '4']",1,2023.2.3,harveyvisual,2.1,[],8,0.75,
0,pause,0.4,None,None,None,0,139,139,139,,,,,,,,,,,,,N008,visual,1,[],"['1', '2', '3', '4']",1,2023.2.3,harveyvisual,2.1,[],8,0.75,
20,dot,0.3,['dot'],['density'],white,0,140,140,140,,,51.40036106109619,51.114875078201294,51.414894104003906,dot,"[0.1, 0.08, 0.08, 0.1, 0.1, 0.06, 0.08, 0.08, 0.1, 0.08, 0.08, 0.1, 0.1, 0.06, 0.1, 0.06, 0.08, 0.1, 0.08, 0.06]","[[0.5532866066604493, 0.0405572582273194], [-0.5200387649483781, 0.01052280422406271], [0.06532571169654167, -0.08965197075646847], [-0.2934997923624568, -0.037400103079782365], [-0.2862359224163123, -0.37642438928684446], [-0.3860346135307271, 0.377128617689719], [-0.12742702411474316, 0.5676583477279951], [0.012411016912394768, -0.5253104843048749], [0.28016922196400396, -0.03655732980542109], [0.3741131826021421, 0.43367401859510535], [0.10457120557119426, 0.4712194921271289], [-0.06868457604532163, 0.1767995107990341], [0.16721075276838537, -0.36020014195057], [0.3350127077286922, -0.25718944654086817], [0.3268681368483931, -0.47928085904893175], [-0.11621075945425957, -0.2321874879579281], [-0.467452534268072, -0.24687596361222292], [-0.4017757519533106, 0.16934573918094986], [0.5214532030756304, -0.15990017813362567], [0.16774460886593612, 0.18591807434520435]]",density,white,,,N008,visual,1,[],"['1', '2', '3', '4']",1,2023.2.3,harveyvisual,2.1,[],8,0.75,
0,pause,0.4,None,None,None,0,141,141,141,,,,,,,,,,,1,51.503395080566406,N008,visual,1,[],"['1', '2', '3', '4']",1,2023.2.3,harveyvisual,2.1,[],8,0.75,
20,dot,0.3,['dot'],['density'],black,0,142,142,142,,,52.10037612915039,51.81485199928284,52.11486601829529,dot,"[0.06, 0.08, 0.1, 0.1, 0.06, 0.06, 0.08, 0.06, 0.06, 0.08, 0.06, 0.1, 0.08, 0.06, 0.1, 0.1, 0.1, 0.1, 0.1, 0.08]","[[-0.3582092094116158, 0.4616452140312672], [0.563292469680338, -0.04968440649866923], [-0.10666478449918182, 0.11811577486292024], [-0.02581321839547701, -0.20482200766089037], [0.41333685343940363, 0.39189895087560145], [0.26933810306808526, -0.12091396550062877], [-0.2693543082836662, -0.17640240834538906], [-0.1520401354252034, -0.375088632141952], [0.5382574251122435, 0.14983070361598871], [-0.5998226161086903, 0.04788008480343274], [0.1226875661021587, 0.5858801128504995], [0.13088104950210822, 0.3433396617937835], [0.29695168021863916, 0.12047960064656194], [0.3028133366316157, -0.5094084052306841], [-0.013806374886868311, -0.5565786831832458], [-0.1588745354946528, 0.39567568001040676], [-0.3853375306207867, -0.0099589227559575], [-0.4239520621779339, 0.23908322806851928], [0.5545260734538365, -0.24252871994850295], [-0.396786334986, -0.4179274009978922]]",density,black,,,N008,visual,1,[],"['1', '2', '3', '4']",1,2023.2.3,harveyvisual,2.1,[],8,0.75,
0,pause,0.4,None,None,None,0,143,143,143,,,,,,,,,,,,,N008,visual,1,[],"['1', '2', '3', '4']",1,2023.2.3,harveyvisual,2.1,[],8,0.75,
20,dot,0.3,['dot'],['density'],black,0,144,144,144,,,52.8003671169281,52.51485300064087,52.81486511230469,dot,"[0.1, 0.1, 0.1, 0.06, 0.08, 0.1, 0.1, 0.08, 0.1, 0.08, 0.06, 0.06, 0.08, 0.1, 0.06, 0.06, 0.08, 0.08, 0.08, 0.06]","[[0.1458744252438745, 0.19809854620711564], [0.08550324620372163, -0.4531468987894287], [-0.49637590541331084, -0.01459028448138494], [0.46352656521617297, -0.17246932315280272], [-0.2131997477887343, -0.019823347482297637], [-0.1453085928540263, -0.5523624884508361], [0.1647324552856606, -0.06692232523135266], [-0.43974776520045555, -0.2773102822892527], [-0.25022056741214993, -0.22253222781740878], [-0.14840150486510267, 0.45501600594555736], [-0.27824048439737, 0.29189971175912854], [0.4963448129323914, 0.3141169359670963], [0.2259255252105843, 0.5129470473916883], [0.41595223114083113, -0.4391969600615625], [0.5879786470666372, 0.011030955826230981], [0.22733797342222195, -0.2509579944387955], [-0.5133112305328209, 0.18807214141011475], [-0.007237723837860033, -0.16445771664673808], [0.38719347012784944, 0.1392914822447846], [-0.05834962977688385, 0.2751364726934362]]",density,black,,,N008,visual,1,[],"['1', '2', '3', '4']",1,2023.2.3,harveyvisual,2.1,[],8,0.75,
0,pause,0.4,None,None,None,0,145,145,145,,,,,,,,,,,,,N008,visual,1,[],"['1', '2', '3', '4']",1,2023.2.3,harveyvisual,2.1,[],8,0.75,
20,dot,0.3,['dot'],['density'],black,0,146,146,146,,,53.50037503242493,53.21475601196289,53.5148241519928,dot,"[0.06, 0.06, 0.1, 0.08, 0.1, 0.08, 0.08, 0.06, 0.06, 0.1, 0.06, 0.1, 0.1, 0.06, 0.1, 0.1, 0.08, 0.06, 0.1, 0.1]","[[-0.16482588653953334, -0.20895224685902425], [0.4920767326975096, 0.006036932499980718], [-0.4251461218171309, -0.28791800802838535], [0.13213686213166675, 0.07346873006917765], [0.5260197701328063, 0.19847606132549261], [-0.431027524162083, 0.2526432131844869], [-0.12795555038018358, 0.2615401454856229], [0.3289770520907215, -0.23248442500028776], [0.2852494380143703, 0.36749778561420876], [-0.5744016001965341, 0.12617635517407705], [-0.20460782490696916, 0.5513692474277818], [-0.3763661550269738, -0.014189263151839993], [0.15126107387819332, -0.46931069009512494], [-0.1730570516127986, -0.001860851666500296], [-0.3544438176752855, -0.46574008992564203], [-0.5809842588127366, -0.16703342553239603], [0.1452868930311454, 0.5155899280636204], [-0.09463133611417451, -0.44448766983068566], [0.0024678860295502814, -0.09185981798775755], [0.0820393884732642, 0.2738746875632302]]",density,black,,,N008,visual,1,[],"['1', '2', '3', '4']",1,2023.2.3,harveyvisual,2.1,[],8,0.75,
0,pause,0.4,None,None,None,0,147,147,147,,,,,,,,,,,,,N008,visual,1,[],"['1', '2', '3', '4']",1,2023.2.3,harveyvisual,2.1,[],8,0.75,
20,dot,0.3,['dot'],['density'],black,0,148,148,148,,,54.200369119644165,53.914828062057495,54.21479105949402,dot,"[0.08, 0.08, 0.06, 0.08, 0.08, 0.1, 0.08, 0.08, 0.08, 0.06, 0.1, 0.06, 0.1, 0.1, 0.08, 0.1, 0.08, 0.1, 0.1, 0.1]","[[0.15430163514071704, -0.5702090297748107], [-0.3650668892015986, -0.011749290664606005], [0.3643423965632786, 0.38926218966729625], [0.010476621468456626, -0.17048529361683828], [-0.4941061219558399, -0.29427181889375525], [-0.3536802283810556, 0.2827518478360928], [-0.11297789235148875, 0.4218031979131116], [0.3227092745081316, 0.08233058393691328], [-0.17253120782130033, 0.04631988350173355], [-0.09299155533373671, -0.5599260763711627], [0.5239654861651984, 0.2537225233417468], [0.10841979944820013, -0.34176095735006123], [0.12630074932570423, 0.15187705546582297], [0.34337446990692655, -0.4569511359660011], [0.5017205061417279, -0.01798958354726643], [-0.5690950205353345, -0.07746049565533328], [0.05185435443643016, 0.5687020549534922], [-0.5241898120572923, 0.17110010940385034], [0.5135361721797028, -0.25768281990781183], [-0.22724948007922874, -0.22925054299926234]]",density,black,,,N008,visual,1,[],"['1', '2', '3', '4']",1,2023.2.3,harveyvisual,2.1,[],8,0.75,
0,pause,0.4,None,None,None,0,149,149,149,,,,,,,,,,,,,N008,visual,1,[],"['1', '2', '3', '4']",1,2023.2.3,harveyvisual,2.1,[],8,0.75,
20,dot,0.3,['dot'],['density'],black,0,150,150,150,,,54.90036201477051,54.614794969558716,54.91478514671326,dot,"[0.06, 0.06, 0.06, 0.08, 0.1, 0.08, 0.1, 0.08, 0.06, 0.06, 0.06, 0.1, 0.06, 0.08, 0.08, 0.06, 0.06, 0.1, 0.1, 0.1]","[[-0.37601723296865475, -0.016427660696876567], [-0.5641965409481027, 0.05112084024153321], [-0.012951360426489589, 0.23338434972104527], [0.42979779119862516, 0.27904328444258264], [-0.0061147366508321754, 0.47758184717008334], [0.18128333296917998, 0.41730339096508506], [0.3965753104252595, -0.16288030115763613], [0.05835731453982751, -0.11308455345531959], [-0.18388934297720744, 0.12543679634157967], [-0.3852914284325021, 0.24475592465264817], [0.4291816211815481, 0.046400254165171906], [-0.2566618482694336, -0.3093205581084631], [0.25002412677300523, -0.286303712169971], [0.26680735932231014, 0.18010428581341165], [0.4085495376826639, -0.4348285374426481], [-0.35834975602414515, 0.4500069039832717], [-0.0716659371579631, -0.48199171756717674], [0.5921521853745285, -0.0965800773086101], [-0.5663423571716376, -0.18588991808581334], [-0.05570715626263645, -0.26491696301823864]]",density,black,,,N008,visual,1,[],"['1', '2', '3', '4']",1,2023.2.3,harveyvisual,2.1,[],8,0.75,
0,pause,0.4,None,None,None,0,151,151,151,,,,,,,,,,,,,N008,visual,1,[],"['1', '2', '3', '4']",1,2023.2.3,harveyvisual,2.1,[],8,0.75,
20,dot,0.3,['dot'],['density'],white,0,152,152,152,,,55.60036015510559,55.31483197212219,55.614766120910645,dot,"[0.1, 0.06, 0.1, 0.1, 0.06, 0.06, 0.08, 0.08, 0.06, 0.1, 0.08, 0.06, 0.06, 0.08, 0.1, 0.06, 0.1, 0.1, 0.06, 0.1]","[[0.5784707083240977, 0.04758636276606623], [0.28800632799342696, 0.016259417400239173], [-0.32167284038061816, 0.27103760230760576], [-0.38174924084389295, -0.3758306203769321], [-0.0936313475748426, 0.42040228156500026], [-0.27576504749031744, 0.002830941533350506], [0.24415650625812657, -0.44840575574216085], [-0.42531914922461606, -0.19015285061158896], [-0.546395888393799, 0.09526123389379748], [0.38280393295472714, 0.41068194607319175], [0.25866343908861245, 0.2520426056787134], [0.10712252699525537, -0.22193426313129527], [-0.16877642166396378, -0.264385300762579], [-0.11348202587947098, -0.585911222052941], [-0.1340533471576434, 0.17638983223477755], [0.05278743260451224, -0.4893971753814486], [0.4426634521254694, 0.19031753252806077], [0.4446403128605979, -0.28151571021432303], [0.15703234517204967, 0.5026642931958332], [0.029829050194544515, 0.06121584324030771]]",density,white,,,N008,visual,1,[],"['1', '2', '3', '4']",1,2023.2.3,harveyvisual,2.1,[],8,0.75,
0,pause,0.4,None,None,None,0,153,153,153,,,,,,,,,,,1,55.67391490936279,N008,visual,1,[],"['1', '2', '3', '4']",1,2023.2.3,harveyvisual,2.1,[],8,0.75,
20,dot,0.3,['dot'],['density'],black,0,154,154,154,,,56.30036497116089,56.01484203338623,56.31478810310364,dot,"[0.08, 0.1, 0.08, 0.08, 0.08, 0.06, 0.08, 0.1, 0.06, 0.06, 0.08, 0.1, 0.06, 0.1, 0.1, 0.1, 0.06, 0.06, 0.1, 0.06]","[[0.05379798886814269, -0.04843302958181328], [0.49920726333624554, 0.032238589762998426], [-0.04747000123844625, -0.2413061913885895], [-0.2628756441076881, -0.23096198983379485], [0.33530395822549974, 0.2597850102792658], [-0.5284503927079814, 0.014879988972069602], [0.5522503327485891, 0.23118606998968108], [-0.47054088789829895, 0.2719931723623253], [0.2917443916858188, -0.16417644701141432], [-0.0021527052070486885, 0.13713843056389696], [-0.21753838427080668, 0.3564988056385594], [0.07318832366429773, 0.517354680637645], [0.276733167745853, -0.49072638461905616], [-0.39533864153509846, -0.3974168755545471], [-0.0274814016060404, -0.5471400993295367], [0.2908407690524356, 0.4850988202552222], [0.1672528564857445, -0.3275027812871108], [0.30369236318949155, 0.047995310165361404], [0.5548231060514227, -0.2017197570950064], [-0.3015445356367957, 0.16055281595372217]]",density,black,,,N008,visual,1,[],"['1', '2', '3', '4']",1,2023.2.3,harveyvisual,2.1,[],8,0.75,
0,pause,0.4,None,None,None,0,155,155,155,,,,,,,,,,,,,N008,visual,1,[],"['1', '2', '3', '4']",1,2023.2.3,harveyvisual,2.1,[],8,0.75,
9,dot,0.3,['dot'],['density'],black,0,156,156,156,,,57.000357151031494,56.7148380279541,57.014780044555664,dot,"[0.06, 0.08, 0.06, 0.1, 0.1, 0.08, 0.08, 0.1, 0.08]","[[0.43694394638140777, -0.3313910020207278], [-0.12671083892604185, -0.2904925475365486], [0.20104083284362928, 0.10806727359081147], [0.1376754545064979, -0.09924520624161907], [0.19021248837847174, -0.31516489548878085], [0.3653456942078643, -0.09076399745187974], [0.1403131072824284, -0.5562242851951704], [-0.005445667935095978, 0.0898710966384087], [-0.11923067905189093, -0.07827803450029165]]",density,black,,,N008,visual,1,[],"['1', '2', '3', '4']",1,2023.2.3,harveyvisual,2.1,[],8,0.75,
0,pause,0.4,None,None,None,0,157,157,157,,,,,,,,,,,,,N008,visual,1,[],"['1', '2', '3', '4']",1,2023.2.3,harveyvisual,2.1,[],8,0.75,
9,dot,0.3,['dot'],['density'],black,0,158,158,158,,,57.7003710269928,57.41482996940613,57.714853048324585,dot,"[0.06, 0.06, 0.1, 0.08, 0.1, 0.08, 0.06, 0.1, 0.06]","[[-0.05049485011715354, 0.3013521193238899], [0.15354596755057998, 0.36785015051376163], [0.22995749783639982, 0.07309138415424772], [0.13460311710395165, -0.18603378415368982], [0.33097739113381164, -0.13822260855557728], [-0.16464148731134703, 0.07190493829483618], [0.521154897315396, -0.007803673430992942], [0.02684304494395013, 0.0018704401699241912], [-0.15545279255173522, -0.15329938800760382]]",density,black,,,N008,visual,1,[],"['1', '2', '3', '4']",1,2023.2.3,harveyvisual,2.1,[],8,0.75,
0,pause,0.4,None,None,None,0,159,159,159,,,,,,,,,,,,,N008,visual,1,[],"['1', '2', '3', '4']",1,2023.2.3,harveyvisual,2.1,[],8,0.75,
9,dot,0.3,['dot'],['density'],black,0,160,160,160,,,58.4003529548645,58.11480212211609,58.41480803489685,dot,"[0.1, 0.1, 0.1, 0.1, 0.08, 0.08, 0.1, 0.06, 0.1]","[[-0.15654783233563613, 0.5456880468186037], [-0.24757731968740795, 0.34117179271889175], [0.237608115185398, 0.5379153628426676], [0.0469559873873498, 0.0609843963705915], [0.17872629641391088, 0.30721368784738284], [-0.014663874177430473, 0.385293302856951], [-0.1034840675008618, 0.1993866575147459], [0.37552485507684036, 0.26074226948317425], [-0.1631567374159006, -0.0021534685146951615]]",density,black,,,N008,visual,1,[],"['1', '2', '3', '4']",1,2023.2.3,harveyvisual,2.1,[],8,0.75,
0,pause,0.4,None,None,None,0,161,161,161,,,,,,,,,,,,,N008,visual,1,[],"['1', '2', '3', '4']",1,2023.2.3,harveyvisual,2.1,[],8,0.75,
9,dot,0.3,['dot'],['density'],black,0,162,162,162,,,59.100358963012695,58.81457209587097,59.11458396911621,dot,"[0.08, 0.1, 0.06, 0.1, 0.08, 0.06, 0.1, 0.08, 0.06]","[[0.21556792455118703, 0.37642033042102185], [0.14366510572844648, -0.18651452926789283], [0.49642287684820396, -0.0794158383055628], [-0.04770628609247857, -0.12519201939426747], [0.20310136493979325, 0.154094551714378], [-0.004065485174475974, 0.09100382633055243], [-0.018053901421587658, 0.34918523294118026], [0.29624623666919286, -0.053344657000752645], [-0.2018857737562037, 0.01971770186205045]]",density,black,,,N008,visual,1,[],"['1', '2', '3', '4']",1,2023.2.3,harveyvisual,2.1,[],8,0.75,
0,pause,0.4,None,None,None,0,163,163,163,,,,,,,,,,,,,N008,visual,1,[],"['1', '2', '3', '4']",1,2023.2.3,harveyvisual,2.1,[],8,0.75,
9,dot,0.3,['dot'],['density'],black,0,164,164,164,,,59.80035996437073,59.514567136764526,59.814571142196655,dot,"[0.06, 0.1, 0.1, 0.08, 0.08, 0.1, 0.1, 0.1, 0.06]","[[0.16751238249231654, 0.5577961240465925], [-0.27296145406993233, 0.4862198967380745], [-0.029185467938656964, 0.15062746822878756], [-0.0646201772689005, 0.5687739076077192], [0.1739328392933146, 0.3418730943321047], [-0.141244529573345, 0.32572795328380527], [-0.5161698704605421, 0.1834233825743511], [0.21727962056556488, 0.12903401361548372], [-0.23724269532595021, 0.10991409904419316]]",density,black,,,N008,visual,1,[],"['1', '2', '3', '4']",1,2023.2.3,harveyvisual,2.1,[],8,0.75,
0,pause,0.4,None,None,None,0,165,165,165,,,,,,,,,,,,,N008,visual,1,[],"['1', '2', '3', '4']",1,2023.2.3,harveyvisual,2.1,[],8,0.75,
9,dot,0.3,['dot'],['density'],black,0,166,166,166,,,60.50036311149597,60.21448802947998,60.514528036117554,dot,"[0.06, 0.06, 0.06, 0.08, 0.08, 0.1, 0.08, 0.1, 0.06]","[[0.16751238249231654, 0.5577961240465925], [-0.27296145406993233, 0.4862198967380745], [-0.029185467938656964, 0.15062746822878756], [-0.0646201772689005, 0.5687739076077192], [0.1739328392933146, 0.3418730943321047], [-0.141244529573345, 0.32572795328380527], [-0.5161698704605421, 0.1834233825743511], [0.21727962056556488, 0.12903401361548372], [-0.23724269532595021, 0.10991409904419316]]",density,black,,,N008,visual,1,[],"['1', '2', '3', '4']",1,2023.2.3,harveyvisual,2.1,[],8,0.75,
0,pause,0.4,None,None,None,0,167,167,167,,,,,,,,,,,,,N008,visual,1,[],"['1', '2', '3', '4']",1,2023.2.3,harveyvisual,2.1,[],8,0.75,
8,dot,0.3,['dot'],['density'],black,0,168,168,168,,,61.20035195350647,60.91451406478882,61.214476108551025,dot,"[0.08, 0.1, 0.06, 0.1, 0.06, 0.06, 0.08, 0.1]","[[-0.3167478768396544, -0.2124469325344782], [0.11150510454677101, -0.25361932254341324], [0.17657050060311263, -0.496926349220185], [0.20833757931744315, -0.0002320808252021913], [-0.0015234955214533466, 0.034722119540356526], [-0.10690598217119997, -0.19846612199298916], [0.32498422138424443, -0.23444872628509345], [-0.054741640541526956, -0.4230750989992696]]",density,black,,,N008,visual,1,[],"['1', '2', '3', '4']",1,2023.2.3,harveyvisual,2.1,[],8,0.75,
0,pause,0.4,None,None,None,0,169,169,169,,,,,,,,,,,,,N008,visual,1,[],"['1', '2', '3', '4']",1,2023.2.3,harveyvisual,2.1,[],8,0.75,
8,dot,0.3,['dot'],['density'],black,0,170,170,170,,,61.90035605430603,61.614474058151245,61.914458990097046,dot,"[0.06, 0.06, 0.1, 0.08, 0.08, 0.06, 0.06, 0.06]","[[-0.16499387414028463, -0.418455346753131], [0.031011941373623824, -0.006148034068666969], [-0.4150712424924157, -0.28668557629476243], [-0.199054958380199, -0.21375968732837633], [-0.4870789535587041, 0.00515905815181239], [-0.198479811208303, 0.006815000109153054], [-0.3273741662815474, 0.19008037141614484], [0.04340096687518584, -0.25044408321713213]]",density,black,,,N008,visual,1,[],"['1', '2', '3', '4']",1,2023.2.3,harveyvisual,2.1,[],8,0.75,
0,pause,0.4,None,None,None,0,171,171,171,,,,,,,,,,,,,N008,visual,1,[],"['1', '2', '3', '4']",1,2023.2.3,harveyvisual,2.1,[],8,0.75,
8,dot,0.3,['dot'],['density'],black,0,172,172,172,,,62.600353956222534,62.314440965652466,62.61460614204407,dot,"[0.06, 0.06, 0.06, 0.08, 0.06, 0.06, 0.08, 0.1]","[[-0.19427332908310624, 0.44975086906229733], [-0.40583056883657587, 0.41268852933836647], [-0.1064323235824443, 0.09134240931295125], [0.037438273390647224, 0.2873761216870531], [-0.27580465694358225, 0.2567900319995576], [0.047234249799456944, 0.4983172858691376], [0.15563182967593078, 0.1192504703698398], [-0.32834908909536226, -0.014402300111889832]]",density,black,,,N008,visual,1,[],"['1', '2', '3', '4']",1,2023.2.3,harveyvisual,2.1,[],8,0.75,
0,pause,0.4,None,None,None,0,173,173,173,,,,,,,,,,,,,N008,visual,1,[],"['1', '2', '3', '4']",1,2023.2.3,harveyvisual,2.1,[],8,0.75,
8,dot,0.3,['dot'],['density'],black,0,174,174,174,,,63.30036401748657,63.01459217071533,63.31458497047424,dot,"[0.08, 0.06, 0.06, 0.1, 0.1, 0.08, 0.08, 0.1]","[[-0.4639556696772753, 0.10472599959088454], [-0.22970357876872852, 0.24758381400794424], [-0.060094057158436125, -0.14613975383200573], [-0.022569829209962654, 0.2677975872319761], [-0.3077859326170116, -0.10488986274105515], [-0.16040535020917, 0.031608708128470005], [-0.5175577931920246, -0.20517812764611504], [0.1194024413118107, 0.007837779916585986]]",density,black,,,N008,visual,1,[],"['1', '2', '3', '4']",1,2023.2.3,harveyvisual,2.1,[],8,0.75,
0,pause,0.4,None,None,None,0,175,175,175,,,,,,,,,,,,,N008,visual,1,[],"['1', '2', '3', '4']",1,2023.2.3,harveyvisual,2.1,[],8,0.75,
8,dot,0.3,['dot'],['density'],black,0,176,176,176,,,64.00036597251892,63.71443796157837,64.01444816589355,dot,"[0.1, 0.08, 0.1, 0.06, 0.06, 0.1, 0.08, 0.06]","[[-0.19427332908310624, 0.44975086906229733], [-0.40583056883657587, 0.41268852933836647], [-0.1064323235824443, 0.09134240931295125], [0.037438273390647224, 0.2873761216870531], [-0.27580465694358225, 0.2567900319995576], [0.047234249799456944, 0.4983172858691376], [0.15563182967593078, 0.1192504703698398], [-0.32834908909536226, -0.014402300111889832]]",density,black,,,N008,visual,1,[],"['1', '2', '3', '4']",1,2023.2.3,harveyvisual,2.1,[],8,0.75,
0,pause,0.4,None,None,None,0,177,177,177,,,,,,,,,,,,,N008,visual,1,[],"['1', '2', '3', '4']",1,2023.2.3,harveyvisual,2.1,[],8,0.75,
8,dot,0.3,['dot'],['density'],black,0,178,178,178,,,64.7003800868988,64.4145770072937,64.71440196037292,dot,"[0.08, 0.08, 0.1, 0.06, 0.1, 0.08, 0.08, 0.06]","[[0.28112832868380594, 0.3075763237432237], [-0.21381995858864508, 0.197554992839043], [0.14035436555963224, -0.1470740351963634], [-0.04856350071149823, -0.017306043905309515], [0.12070301707556046, 0.11279463428917226], [0.35236156425888765, 0.046198621115284964], [-0.012223412543992913, 0.3265760435025566], [0.11745206869397669, 0.49408919182137495]]",density,black,,,N008,visual,1,[],"['1', '2', '3', '4']",1,2023.2.3,harveyvisual,2.1,[],8,0.75,
0,pause,0.4,None,None,None,0,179,179,179,,,,,,,,,,,,,N008,visual,1,[],"['1', '2', '3', '4']",1,2023.2.3,harveyvisual,2.1,[],8,0.75,
7,dot,0.3,['dot'],['density'],black,0,180,180,180,,,65.40036916732788,65.11440014839172,65.41438007354736,dot,"[0.06, 0.06, 0.1, 0.08, 0.08, 0.08, 0.08]","[[-0.08751196138777266, -0.40239331021683095], [-0.1389983634140625, -0.1821537091642013], [-0.5212097088452917, -0.15879536445288125], [-0.24197016774290594, 0.025691971861017886], [-0.324083892787021, -0.3083678109532634], [0.06465625853811506, -0.19815494036826437], [-0.2569867334647868, -0.5155038850209747]]",density,black,,,N008,visual,1,[],"['1', '2', '3', '4']",1,2023.2.3,harveyvisual,2.1,[],8,0.75,
0,pause,0.4,None,None,None,0,181,181,181,,,,,,,,,,,,,N008,visual,1,[],"['1', '2', '3', '4']",1,2023.2.3,harveyvisual,2.1,[],8,0.75,
7,dot,0.3,['dot'],['density'],black,0,182,182,182,,,66.10037517547607,65.81436514854431,66.1143810749054,dot,"[0.08, 0.08, 0.1, 0.06, 0.06, 0.08, 0.08]","[[-0.4123410031792677, -0.32555807737620884], [-0.11281232420725038, -0.2658066965482441], [-0.16970574590124413, 0.10972852905085191], [-0.380148642061964, 0.19816541478521793], [-0.49975943015608576, -0.10400723965324657], [-0.30003386022098844, -0.09340949099572564], [-0.0679185705411078, -0.06780919729272472]]",density,black,,,N008,visual,1,[],"['1', '2', '3', '4']",1,2023.2.3,harveyvisual,2.1,[],8,0.75,
0,pause,0.4,None,None,None,0,183,183,183,,,,,,,,,,,,,N008,visual,1,[],"['1', '2', '3', '4']",1,2023.2.3,harveyvisual,2.1,[],8,0.75,
7,dot,0.3,['dot'],['density'],black,0,184,184,184,,,66.8003671169281,66.51436805725098,66.81435894966125,dot,"[0.06, 0.06, 0.08, 0.06, 0.08, 0.06, 0.06]","[[-0.1635229753841098, 0.12186382262109141], [0.03437657187081179, 0.5178389267683822], [0.324184412335695, 0.17931743601205324], [0.08929018524031027, 0.11005745596178185], [-0.1318259817332877, 0.4026967659136047], [-0.053046683696667, -0.06058584598870606], [0.042745683665752716, 0.304616966822181]]",density,black,,,N008,visual,1,[],"['1', '2', '3', '4']",1,2023.2.3,harveyvisual,2.1,[],8,0.75,
0,pause,0.4,None,None,None,0,185,185,185,,,,,,,,,,,,,N008,visual,1,[],"['1', '2', '3', '4']",1,2023.2.3,harveyvisual,2.1,[],8,0.75,
7,dot,0.3,['dot'],['density'],black,0,186,186,186,,,67.50036096572876,67.21432614326477,67.51431202888489,dot,"[0.08, 0.1, 0.08, 0.06, 0.08, 0.1, 0.08]","[[0.2037857981676222, -0.1815971672986122], [0.4890839798603071, 0.25295445478885614], [0.1294833597440532, 0.050421522491765555], [0.5249724357971474, 0.014331621614536631], [0.4084294087299191, -0.1546943519977724], [0.31356179590401956, 0.13415696527685209], [-0.016262925640377804, -0.1588315022511765]]",density,black,,,N008,visual,1,[],"['1', '2', '3', '4']",1,2023.2.3,harveyvisual,2.1,[],8,0.75,
0,pause,0.4,None,None,None,0,187,187,187,,,,,,,,,,,,,N008,visual,1,[],"['1', '2', '3', '4']",1,2023.2.3,harveyvisual,2.1,[],8,0.75,
7,dot,0.3,['dot'],['density'],black,0,188,188,188,,,68.20036602020264,67.91431903839111,68.21430611610413,dot,"[0.08, 0.1, 0.06, 0.1, 0.08, 0.06, 0.1]","[[0.373835093542847, 0.13553027784675922], [0.025265531087721685, -0.15487691700731251], [0.38086488534306906, -0.0720131222026176], [0.4315741710459581, -0.28075472739566504], [0.18097069018870113, 0.01647246612045595], [0.1962900518120967, -0.2624101628120604], [0.08955660480178401, 0.2127528718980948]]",density,black,,,N008,visual,1,[],"['1', '2', '3', '4']",1,2023.2.3,harveyvisual,2.1,[],8,0.75,
0,pause,0.4,None,None,None,0,189,189,189,,,,,,,,,,,,,N008,visual,1,[],"['1', '2', '3', '4']",1,2023.2.3,harveyvisual,2.1,[],8,0.75,
7,dot,0.3,['dot'],['density'],black,0,190,190,190,,,68.90036916732788,68.61429905891418,68.9142849445343,dot,"[0.1, 0.08, 0.08, 0.08, 0.1, 0.1, 0.08]","[[-0.3242652666020733, -0.24505345323409705], [-0.563286395470885, 0.11160295583497896], [-0.1647097641571906, 0.12111961656459011], [-0.36052488434271157, 0.18805397786199418], [-0.09510517377503278, -0.06720219285628748], [-0.3867432997129629, -0.05120750304069932], [-0.32798962767594847, 0.38554234766764234]]",density,black,,,N008,visual,1,[],"['1', '2', '3', '4']",1,2023.2.3,harveyvisual,2.1,[],8,0.75,
0,pause,0.4,None,None,None,0,191,191,191,,,,,,,,,,,,,N008,visual,1,[],"['1', '2', '3', '4']",1,2023.2.3,harveyvisual,2.1,[],8,0.75,
6,dot,0.3,['dot'],['density'],black,0,192,192,192,,,69.60035514831543,69.31431198120117,69.61427402496338,dot,"[0.06, 0.1, 0.1, 0.1, 0.06, 0.06]","[[-0.362545063880459, -0.421860962952156], [-0.24010638466002518, -0.0327569241266412], [-0.22622339336134992, -0.23590116153186103], [-0.41823503972227205, -0.14060420183103206], [-0.028992295722001654, -0.1293578273409096], [-0.1459617666416116, -0.4591052827033254]]",density,black,,,N008,visual,1,[],"['1', '2', '3', '4']",1,2023.2.3,harveyvisual,2.1,[],8,0.75,
0,pause,0.4,None,None,None,0,193,193,193,,,,,,,,,,,,,N008,visual,1,[],"['1', '2', '3', '4']",1,2023.2.3,harveyvisual,2.1,[],8,0.75,
6,dot,0.3,['dot'],['density'],black,0,194,194,194,,,70.30037713050842,70.01425099372864,70.31424403190613,dot,"[0.06, 0.08, 0.08, 0.06, 0.1, 0.06]","[[-0.3622751979984162, 0.41275935807220604], [-0.5464806003183257, 0.06358334875023645], [-0.15518785678585886, 0.34969079698534317], [-0.3231370338359737, -0.02193421190541931], [-0.3473470749510941, 0.19885557425221048], [-0.12382976466594668, 0.04156566071734393]]",density,black,,,N008,visual,1,[],"['1', '2', '3', '4']",1,2023.2.3,harveyvisual,2.1,[],8,0.75,
0,pause,0.4,None,None,None,0,195,195,195,,,,,,,,,,,,,N008,visual,1,[],"['1', '2', '3', '4']",1,2023.2.3,harveyvisual,2.1,[],8,0.75,
6,dot,0.3,['dot'],['density'],white,0,196,196,196,,,71.00037097930908,70.71426105499268,71.01427507400513,dot,"[0.06, 0.08, 0.08, 0.06, 0.1, 0.1]","[[0.1442800129286608, -0.025670240792647715], [-0.253335145558221, 0.06312541807928282], [0.15340240856287354, 0.2410349392962658], [-0.1639657784688781, 0.25075335361279655], [-0.07910231793701084, -0.12784096878077061], [-0.011661193723423325, 0.11361106492824657]]",density,white,,,N008,visual,1,[],"['1', '2', '3', '4']",1,2023.2.3,harveyvisual,2.1,[],8,0.75,
0,pause,0.4,None,None,None,0,197,197,197,,,,,,,,,,,1,71.1946051120758,N008,visual,1,[],"['1', '2', '3', '4']",1,2023.2.3,harveyvisual,2.1,[],8,0.75,
6,dot,0.3,['dot'],['density'],black,0,198,198,198,,,71.70036101341248,71.41423797607422,71.71422910690308,dot,"[0.1, 0.06, 0.06, 0.1, 0.06, 0.08]","[[0.23041567882598732, 0.45619944218456715], [0.5278859611842325, 0.18245830030246968], [0.08738225171760033, 0.1578384040678088], [0.20561463112105705, -0.03996865664556224], [0.3021721310554224, 0.21718230064421146], [0.4273755636869532, 0.38341374408431883]]",density,black,,,N008,visual,1,[],"['1', '2', '3', '4']",1,2023.2.3,harveyvisual,2.1,[],8,0.75,
0,pause,0.4,None,None,None,0,199,199,199,,,,,,,,,,,,,N008,visual,1,[],"['1', '2', '3', '4']",1,2023.2.3,harveyvisual,2.1,[],8,0.75,
6,dot,0.3,['dot'],['density'],black,0,200,200,200,,,72.40035700798035,72.11594200134277,72.41425108909607,dot,"[0.1, 0.06, 0.06, 0.08, 0.1, 0.08]","[[0.4838288853419304, 0.012393783640839304], [0.3357737587390128, 0.3939464288632381], [0.48781910936274964, 0.21484656822060386], [0.038497076365425514, 0.2266532147795764], [0.13074852606734502, 0.009493629341700475], [0.2855531954453259, 0.1811044151544938]]",density,black,,,N008,visual,1,[],"['1', '2', '3', '4']",1,2023.2.3,harveyvisual,2.1,[],8,0.75,
0,pause,0.4,None,None,None,0,201,201,201,,,,,,,,,,,,,N008,visual,1,[],"['1', '2', '3', '4']",1,2023.2.3,harveyvisual,2.1,[],8,0.75,
6,dot,0.3,['dot'],['density'],black,0,202,202,202,,,73.10038113594055,72.81426501274109,73.11426210403442,dot,"[0.08, 0.06, 0.08, 0.1, 0.06, 0.1]","[[-0.11553075830627273, 0.47698778124428043], [-0.1112787518129194, 0.10456141670764223], [-0.48855705683845824, 0.21494657582805063], [-0.2538299919008863, 0.2532006538804931], [-0.3271837865365474, 0.4662148945367939], [0.006792750312598743, 0.27345996435494924]]",density,black,,,N008,visual,1,[],"['1', '2', '3', '4']",1,2023.2.3,harveyvisual,2.1,[],8,0.75,
0,pause,0.4,None,None,None,0,203,203,203,,,,,,,,,,,,,N008,visual,1,[],"['1', '2', '3', '4']",1,2023.2.3,harveyvisual,2.1,[],8,0.75,
5,dot,0.3,['dot'],['density'],black,0,204,204,204,,,73.80036616325378,73.51424503326416,73.81425094604492,dot,"[0.08, 0.06, 0.08, 0.08, 0.06]","[[0.27183890960736007, -0.2807898153303064], [0.09520185447546438, -0.14661409162522948], [0.4811798017999712, -0.08799056171856828], [0.2824926782126669, -0.029701986940959574], [0.07325476391384783, 0.10525290151012107]]",density,black,,,N008,visual,1,[],"['1', '2', '3', '4']",1,2023.2.3,harveyvisual,2.1,[],8,0.75,
0,pause,0.4,None,None,None,0,205,205,205,,,,,,,,,,,,,N008,visual,1,[],"['1', '2', '3', '4']",1,2023.2.3,harveyvisual,2.1,[],8,0.75,
5,dot,0.3,['dot'],['density'],black,0,206,206,206,,,74.5003731250763,74.2141740322113,74.51415705680847,dot,"[0.06, 0.08, 0.1, 0.1, 0.08]","[[-0.4004020094395207, -0.04445243948850948], [-0.17181756668418613, -0.18180129995893848], [-0.46264198425852476, 0.17889071841303528], [-0.23640824159873003, 0.08340028676903545], [-0.2824747884808712, 0.2826805534387526]]",density,black,,,N008,visual,1,[],"['1', '2', '3', '4']",1,2023.2.3,harveyvisual,2.1,[],8,0.75,
0,pause,0.4,None,None,None,0,207,207,207,,,,,,,,,,,,,N008,visual,1,[],"['1', '2', '3', '4']",1,2023.2.3,harveyvisual,2.1,[],8,0.75,
5,dot,0.3,['dot'],['density'],black,0,208,208,208,,,75.20035195350647,74.91413903236389,75.21413612365723,dot,"[0.08, 0.06, 0.06, 0.08, 0.06]","[[0.27183890960736007, -0.2807898153303064], [0.09520185447546438, -0.14661409162522948], [0.4811798017999712, -0.08799056171856828], [0.2824926782126669, -0.029701986940959574], [0.07325476391384783, 0.10525290151012107]]",density,black,,,N008,visual,1,[],"['1', '2', '3', '4']",1,2023.2.3,harveyvisual,2.1,[],8,0.75,
0,pause,0.4,None,None,None,0,209,209,209,,,,,,,,,,,,,N008,visual,1,[],"['1', '2', '3', '4']",1,2023.2.3,harveyvisual,2.1,[],8,0.75,
5,dot,0.3,['dot'],['density'],black,0,210,210,210,,,75.90035915374756,75.61412310600281,75.91410398483276,dot,"[0.08, 0.1, 0.06, 0.1, 0.06]","[[-0.4702494158317004, 0.19352793081356498], [-0.36864189631283095, -0.2113573127283173], [-0.3573601989406874, -0.007363185939446715], [-0.15559938224235453, -0.02548680069503583], [-0.25069196230576396, 0.1747846118010945]]",density,black,,,N008,visual,1,[],"['1', '2', '3', '4']",1,2023.2.3,harveyvisual,2.1,[],8,0.75,
0,pause,0.4,None,None,None,0,211,211,211,,,,,,,,,,,,,N008,visual,1,[],"['1', '2', '3', '4']",1,2023.2.3,harveyvisual,2.1,[],8,0.75,
5,dot,0.3,['dot'],['density'],black,0,212,212,212,,,76.6003589630127,76.3141119480133,76.61408996582031,dot,"[0.08, 0.08, 0.1, 0.06, 0.1]","[[-0.16893136043895146, -0.20127892763881453], [-0.5727216740452047, -0.07682091551650742], [-0.343702592036276, -0.060533526953518955], [-0.5038383983260774, 0.15268268748871192], [-0.379488354443274, -0.2704310218069364]]",density,black,,,N008,visual,1,[],"['1', '2', '3', '4']",1,2023.2.3,harveyvisual,2.1,[],8,0.75,
0,pause,0.4,None,None,None,0,213,213,213,,,,,,,,,,,,,N008,visual,1,[],"['1', '2', '3', '4']",1,2023.2.3,harveyvisual,2.1,[],8,0.75,
5,dot,0.3,['dot'],['density'],black,0,214,214,214,,,77.30038714408875,77.0140950679779,77.31411099433899,dot,"[0.06, 0.06, 0.08, 0.08, 0.1]","[[-0.006164932418690097, -0.4528126201229341], [-0.1681524682570009, -0.11721653268637569], [-0.1959903964051736, -0.3710708837277218], [0.03544926667602863, -0.1302589477940128], [0.16830580561999814, -0.32298356607012285]]",density,black,,,N008,visual,1,[],"['1', '2', '3', '4']",1,2023.2.3,harveyvisual,2.1,[],8,0.75,
0,pause,0.4,None,None,None,0,215,215,215,,,,,,,,,,,,,N008,visual,1,[],"['1', '2', '3', '4']",1,2023.2.3,harveyvisual,2.1,[],8,0.75,
4,dot,0.3,['dot'],['density'],black,0,216,216,216,,,78.00037908554077,77.71408009529114,78.01406407356262,dot,"[0.06, 0.08, 0.08, 0.1]","[[-0.22375678750486633, 0.16938766720995918], [-0.03438308412182927, 0.2632029670309489], [0.15312837370161694, 0.1265605786946886], [-0.035433382102469414, 0.014828983441921377]]",density,black,,,N008,visual,1,[],"['1', '2', '3', '4']",1,2023.2.3,harveyvisual,2.1,[],8,0.75,
0,pause,0.4,None,None,None,0,217,217,217,,,,,,,,,,,,,N008,visual,1,[],"['1', '2', '3', '4']",1,2023.2.3,harveyvisual,2.1,[],8,0.75,
4,dot,0.3,['dot'],['density'],black,0,218,218,218,,,78.70035600662231,78.41406416893005,78.71405696868896,dot,"[0.06, 0.1, 0.06, 0.06]","[[0.14909032788103166, -0.4768554918693636], [0.26071220381864263, -0.20018841858473793], [0.02634252458519163, -0.30967292471165575], [0.3541358554053611, -0.43808560323820217]]",density,black,,,N008,visual,1,[],"['1', '2', '3', '4']",1,2023.2.3,harveyvisual,2.1,[],8,0.75,
0,pause,0.4,None,None,None,0,219,219,219,,,,,,,,,,,,,N008,visual,1,[],"['1', '2', '3', '4']",1,2023.2.3,harveyvisual,2.1,[],8,0.75,
4,dot,0.3,['dot'],['density'],white,0,220,220,220,,,79.40036797523499,79.11403608322144,79.41402697563171,dot,"[0.06, 0.1, 0.1, 0.08]","[[0.37520814465037905, -0.4432880181017862], [0.4692830223283075, -0.19655799526205012], [0.3063896805601884, -0.036788685454167226], [0.2471196723673293, -0.2344474043623998]]",density,white,,,N008,visual,1,[],"['1', '2', '3', '4']",1,2023.2.3,harveyvisual,2.1,[],8,0.75,
0,pause,0.4,None,None,None,0,221,221,221,,,,,,,,,,,1,79.63966989517212,N008,visual,1,[],"['1', '2', '3', '4']",1,2023.2.3,harveyvisual,2.1,[],8,0.75,
4,dot,0.3,['dot'],['density'],black,0,222,222,222,,,80.10037612915039,79.8140230178833,80.11401414871216,dot,"[0.1, 0.1, 0.08, 0.06]","[[0.14909032788103166, -0.4768554918693636], [0.26071220381864263, -0.20018841858473793], [0.02634252458519163, -0.30967292471165575], [0.3541358554053611, -0.43808560323820217]]",density,black,,,N008,visual,1,[],"['1', '2', '3', '4']",1,2023.2.3,harveyvisual,2.1,[],8,0.75,
0,pause,0.4,None,None,None,0,223,223,223,,,,,,,,,,,,,N008,visual,1,[],"['1', '2', '3', '4']",1,2023.2.3,harveyvisual,2.1,[],8,0.75,
4,dot,0.3,['dot'],['density'],black,0,224,224,224,,,80.80038499832153,80.5140221118927,80.81403112411499,dot,"[0.1, 0.08, 0.1, 0.1]","[[-0.5372831058023291, 0.07679305146548565], [-0.47746952625478134, -0.11455356156484316], [-0.2888199447118168, 0.02804534169422597], [-0.3317661241759115, -0.2533775510137967]]",density,black,,,N008,visual,1,[],"['1', '2', '3', '4']",1,2023.2.3,harveyvisual,2.1,[],8,0.75,
0,pause,0.4,None,None,None,0,225,225,225,,,,,,,,,,,,,N008,visual,1,[],"['1', '2', '3', '4']",1,2023.2.3,harveyvisual,2.1,[],8,0.75,
4,dot,0.3,['dot'],['density'],black,0,226,226,226,,,81.50036811828613,81.21401715278625,81.51400995254517,dot,"[0.06, 0.08, 0.06, 0.08]","[[0.06019618102804278, 0.17823994931545822], [-0.1876584465411705, -0.07971170835358893], [0.026807447441335588, -0.04038633305360204], [-0.17818728785032123, 0.12753763641901858]]",density,black,,,N008,visual,1,[],"['1', '2', '3', '4']",1,2023.2.3,harveyvisual,2.1,[],8,0.75,
0,pause,0.4,None,None,None,0,227,227,227,,,,,,,,,,,,,N008,visual,1,[],"['1', '2', '3', '4']",1,2023.2.3,harveyvisual,2.1,[],8,0.75,
3,dot,0.3,['dot'],['density'],black,0,228,228,228,,,82.20038199424744,81.91399908065796,82.21398305892944,dot,"[0.1, 0.06, 0.1]","[[0.3935061822875672, 0.2255916562549388], [0.5507663609445765, 0.05974239467682067], [0.33737455125106675, -0.013318187219183488]]",density,black,,,N008,visual,1,[],"['1', '2', '3', '4']",1,2023.2.3,harveyvisual,2.1,[],8,0.75,
0,pause,0.4,None,None,None,0,229,229,229,,,,,,,,,,,,,N008,visual,1,[],"['1', '2', '3', '4']",1,2023.2.3,harveyvisual,2.1,[],8,0.75,
3,dot,0.3,['dot'],['density'],black,0,230,230,230,,,82.90037202835083,82.61398506164551,82.91410613059998,dot,"[0.08, 0.1, 0.06]","[[0.13507679288784277, 0.012189921546254917], [0.31506600046810584, 0.10578898906948993], [0.12756957777796288, 0.2513869495778075]]",density,black,,,N008,visual,1,[],"['1', '2', '3', '4']",1,2023.2.3,harveyvisual,2.1,[],8,0.75,
0,pause,0.4,None,None,None,0,231,231,231,,,,,,,,,,,,,N008,visual,1,[],"['1', '2', '3', '4']",1,2023.2.3,harveyvisual,2.1,[],8,0.75,
3,dot,0.3,['dot'],['density'],black,0,232,232,232,,,83.6003589630127,83.3140959739685,83.61408710479736,dot,"[0.1, 0.08, 0.06]","[[-0.3082868261871679, -0.3137599619928766], [-0.14816041357862977, -0.19371393562593295], [-0.35304767783039576, -0.10610354059871957]]",density,black,,,N008,visual,1,[],"['1', '2', '3', '4']",1,2023.2.3,harveyvisual,2.1,[],8,0.75,
0,pause,0.4,None,None,None,0,233,233,233,,,,,,,,,,,,,N008,visual,1,[],"['1', '2', '3', '4']",1,2023.2.3,harveyvisual,2.1,[],8,0.75,
3,dot,0.3,['dot'],['density'],black,0,234,234,234,,,84.30037903785706,84.0141179561615,84.31391215324402,dot,"[0.06, 0.06, 0.08]","[[0.3935061822875672, 0.2255916562549388], [0.5507663609445765, 0.05974239467682067], [0.33737455125106675, -0.013318187219183488]]",density,black,,,N008,visual,1,[],"['1', '2', '3', '4']",1,2023.2.3,harveyvisual,2.1,[],8,0.75,
0,pause,0.4,None,None,None,0,235,235,235,,,,,,,,,,,,,N008,visual,1,[],"['1', '2', '3', '4']",1,2023.2.3,harveyvisual,2.1,[],8,0.75,
3,dot,0.3,['dot'],['density'],black,0,236,236,236,,,85.00036907196045,84.71390295028687,85.01389813423157,dot,"[0.1, 0.06, 0.1]","[[0.4995185571857965, 0.14229679706320136], [0.2944600495073675, 0.23335097983198633], [0.330752226915583, 0.0299241169750933]]",density,black,,,N008,visual,1,[],"['1', '2', '3', '4']",1,2023.2.3,harveyvisual,2.1,[],8,0.75,
0,pause,0.4,None,None,None,0,237,237,237,,,,,,,,,,,,,N008,visual,1,[],"['1', '2', '3', '4']",1,2023.2.3,harveyvisual,2.1,[],8,0.75,
3,dot,0.3,['dot'],['density'],black,0,238,238,238,,,85.70036602020264,85.41388607025146,85.71386313438416,dot,"[0.06, 0.06, 0.08]","[[-0.10589639487257244, 0.35295021258352427], [0.12780035046084517, 0.3479378296372768], [0.013663645537612555, 0.51889388118174]]",density,black,,,N008,visual,1,[],"['1', '2', '3', '4']",1,2023.2.3,harveyvisual,2.1,[],8,0.75,
0,pause,0.4,None,None,None,0,239,239,239,,,,,,,,,,,,,N008,visual,1,[],"['1', '2', '3', '4']",1,2023.2.3,harveyvisual,2.1,[],8,0.75,
2,dot,0.3,['dot'],['density'],black,0,240,240,240,,,86.40036511421204,86.11387395858765,86.41384196281433,dot,"[0.1, 0.1]","[[0.28379985726396956, 0.19228106150028407], [0.10160376615595414, 0.2763535177041957]]",density,black,,,N008,visual,1,[],"['1', '2', '3', '4']",1,2023.2.3,harveyvisual,2.1,[],8,0.75,
0,pause,0.4,None,None,None,0,241,241,241,,,,,,,,,,,,,N008,visual,1,[],"['1', '2', '3', '4']",1,2023.2.3,harveyvisual,2.1,[],8,0.75,
2,dot,0.3,['dot'],['density'],black,0,242,242,242,,,87.10036301612854,86.81385016441345,87.11383700370789,dot,"[0.08, 0.06]","[[-0.020654750029313704, 0.3891656546739414], [-0.0007759068931318763, 0.19000611836641118]]",density,black,,,N008,visual,1,[],"['1', '2', '3', '4']",1,2023.2.3,harveyvisual,2.1,[],8,0.75,
0,pause,0.4,None,None,None,0,243,243,243,,,,,,,,,,,,,N008,visual,1,[],"['1', '2', '3', '4']",1,2023.2.3,harveyvisual,2.1,[],8,0.75,
2,dot,0.3,['dot'],['density'],black,0,244,244,244,,,87.80036807060242,87.51383805274963,87.81382203102112,dot,"[0.06, 0.1]","[[-0.19482721327365293, -0.5079820576301489], [-0.36119809377872014, -0.396546877814361]]",density,black,,,N008,visual,1,[],"['1', '2', '3', '4']",1,2023.2.3,harveyvisual,2.1,[],8,0.75,
0,pause,0.4,None,None,None,0,245,245,245,,,,,,,,,,,,,N008,visual,1,[],"['1', '2', '3', '4']",1,2023.2.3,harveyvisual,2.1,[],8,0.75,
2,dot,0.3,['dot'],['density'],black,0,246,246,246,,,88.50037693977356,88.21381616592407,88.51380705833435,dot,"[0.08, 0.08]","[[0.500151128333041, 0.1656925720118866], [0.3771979967144504, 0.3235340638115745]]",density,black,,,N008,visual,1,[],"['1', '2', '3', '4']",1,2023.2.3,harveyvisual,2.1,[],8,0.75,
0,pause,0.4,None,None,None,0,247,247,247,,,,,,,,,,,,,N008,visual,1,[],"['1', '2', '3', '4']",1,2023.2.3,harveyvisual,2.1,[],8,0.75,
2,dot,0.3,['dot'],['density'],black,0,248,248,248,,,89.2003800868988,88.91380715370178,89.2138020992279,dot,"[0.08, 0.06]","[[-0.5356907773971091, -0.01454049690556478], [-0.3936553319468624, 0.1263392020735458]]",density,black,,,N008,visual,1,[],"['1', '2', '3', '4']",1,2023.2.3,harveyvisual,2.1,[],8,0.75,
0,pause,0.4,None,None,None,0,249,249,249,,,,,,,,,,,,,N008,visual,1,[],"['1', '2', '3', '4']",1,2023.2.3,harveyvisual,2.1,[],8,0.75,
2,dot,0.3,['dot'],['density'],black,0,250,250,250,,,89.90037703514099,89.61379909515381,89.91378211975098,dot,"[0.08, 0.1]","[[-0.15001882639889116, 0.48719053997247297], [-0.1736568080125972, 0.28835755901726084]]",density,black,,,N008,visual,1,[],"['1', '2', '3', '4']",1,2023.2.3,harveyvisual,2.1,[],8,0.75,
0,pause,0.4,None,None,None,0,251,251,251,,,,,,,,,,,,,N008,visual,1,[],"['1', '2', '3', '4']",1,2023.2.3,harveyvisual,2.1,[],8,0.75,
1,dot,0.3,['dot'],['density'],black,0,252,252,252,,,90.60037016868591,90.31378102302551,90.61376094818115,dot,[0.06],"[0.31457923939875737, -0.4122609730770665]",density,black,,,N008,visual,1,[],"['1', '2', '3', '4']",1,2023.2.3,harveyvisual,2.1,[],8,0.75,
0,pause,0.4,None,None,None,0,253,253,253,,,,,,,,,,,,,N008,visual,1,[],"['1', '2', '3', '4']",1,2023.2.3,harveyvisual,2.1,[],8,0.75,
1,dot,0.3,['dot'],['density'],black,0,254,254,254,,,91.30038499832153,91.01376104354858,91.3137481212616,dot,[0.08],"[0.5363314188299194, -0.14809861569100125]",density,black,,,N008,visual,1,[],"['1', '2', '3', '4']",1,2023.2.3,harveyvisual,2.1,[],8,0.75,
0,pause,0.4,None,None,None,0,255,255,255,,,,,,,,,,,,,N008,visual,1,[],"['1', '2', '3', '4']",1,2023.2.3,harveyvisual,2.1,[],8,0.75,
1,dot,0.3,['dot'],['density'],white,0,256,256,256,,,92.0003650188446,91.71375799179077,92.01373314857483,dot,[0.1],"[0.5668064281626585, -0.020013277593342628]",density,white,,,N008,visual,1,[],"['1', '2', '3', '4']",1,2023.2.3,harveyvisual,2.1,[],8,0.75,
0,pause,0.4,None,None,None,0,257,257,257,,,,,,,,,,,1,92.12522196769714,N008,visual,1,[],"['1', '2', '3', '4']",1,2023.2.3,harveyvisual,2.1,[],8,0.75,
1,dot,0.3,['dot'],['density'],black,0,258,258,258,,,92.70038509368896,92.41373014450073,92.71371817588806,dot,[0.1],"[-0.00037526000000685745, -0.027921386894572527]",density,black,,,N008,visual,1,[],"['1', '2', '3', '4']",1,2023.2.3,harveyvisual,2.1,[],8,0.75,
0,pause,0.4,None,None,None,0,259,259,259,,,,,,,,,,,,,N008,visual,1,[],"['1', '2', '3', '4']",1,2023.2.3,harveyvisual,2.1,[],8,0.75,
1,dot,0.3,['dot'],['density'],black,0,260,260,260,,,93.40037798881531,93.11371111869812,93.4137020111084,dot,[0.06],"[0.2830289625583117, -0.03026882548871228]",density,black,,,N008,visual,1,[],"['1', '2', '3', '4']",1,2023.2.3,harveyvisual,2.1,[],8,0.75,
0,pause,0.4,None,None,None,0,261,261,261,,,,,,,,,,,,,N008,visual,1,[],"['1', '2', '3', '4']",1,2023.2.3,harveyvisual,2.1,[],8,0.75,
1,dot,0.3,['dot'],['density'],white,0,262,262,262,,,94.1003680229187,93.81370210647583,94.11368203163147,dot,[0.1],"[0.46628601751002285, 0.12197617226191985]",density,white,,,N008,visual,1,[],"['1', '2', '3', '4']",1,2023.2.3,harveyvisual,2.1,[],8,0.75,
0,pause,0.4,None,None,None,0,263,263,263,,,,,,,,,,,1,94.24443006515503,N008,visual,1,[],"['1', '2', '3', '4']",1,2023.2.3,harveyvisual,2.1,[],8,0.75,
20,dot,0.3,['dot'],['density'],black,0,264,264,264,,,94.80038499832153,94.51368117332458,94.81367707252502,dot,"[0.1, 0.08, 0.06, 0.06, 0.06, 0.08, 0.06, 0.1, 0.1, 0.1, 0.06, 0.08, 0.06, 0.06, 0.1, 0.1, 0.1, 0.08, 0.1, 0.1]","[[0.10550187873919337, -0.5344868030680165], [0.5062369993363741, 0.2223975678759622], [-0.06721482138704993, -0.02894306850863093], [0.4447359132457446, -0.07445572227940384], [0.11698974644388715, -0.19208380006743692], [-0.13433211396850392, 0.5244419766667384], [-0.3882056961770443, -0.013790343097184798], [0.5156146309504815, -0.28435513607613694], [-0.5614024920209015, 0.17305066721773382], [-0.4431937550795863, -0.2646686731823463], [-0.2385578090646363, 0.22311143151978674], [-0.10010575348520867, -0.4582030755959773], [0.10967812423236656, 0.23987188058838915], [-0.24761004461324126, -0.30981970641403556], [0.3603837267067538, -0.44794889256275566], [0.2775356039401009, 0.45916548651514644], [-0.07568573599684247, -0.22395087207120423], [0.07365890828174348, 0.553487977236271], [-0.4742810077606365, 0.36264092050345176], [-0.5989437133110326, -0.08437570247491144]]",density,black,,,N008,visual,1,[],"['1', '2', '3', '4']",1,2023.2.3,harveyvisual,2.1,[],8,0.75,
0,pause,0.4,None,None,None,0,265,265,265,,,,,,,,,,,,,N008,visual,1,[],"['1', '2', '3', '4']",1,2023.2.3,harveyvisual,2.1,[],8,0.75,
20,dot,0.3,['dot'],['density'],black,0,266,266,266,,,95.5003809928894,95.21365809440613,95.51364612579346,dot,"[0.1, 0.08, 0.1, 0.1, 0.08, 0.06, 0.06, 0.06, 0.06, 0.06, 0.1, 0.1, 0.06, 0.06, 0.08, 0.08, 0.08, 0.1, 0.1, 0.08]","[[0.05506627781714346, 0.04279795978288159], [0.5627931720126172, 0.12463160519707367], [-0.20280552457920376, 0.18620106396501757], [-0.5550380788308095, -0.2072477989573311], [0.055475830902773304, 0.47275827956576866], [-0.5615311291682762, 0.08416811892033038], [0.49480376369000856, -0.12521441891237933], [0.17497700198034016, -0.4028029010209115], [-0.20760809499094168, -0.0646824219919605], [-0.46499557758434984, 0.3744422022719656], [-0.12963879272977707, -0.4001241503098253], [0.10782770623655813, -0.5907868486261124], [0.4160200627534002, 0.2732352411279053], [-0.3902025173923559, -0.3888127168147953], [-0.13833128135347855, 0.5012613563673455], [0.19007125972705263, 0.20758145626299584], [0.3208930085056346, -0.22913677015564016], [0.10517448058981849, -0.17258353929565118], [0.28220074406510887, 0.0035218181091082323], [-0.09186861569485494, -0.591438754505277]]",density,black,,,N008,visual,1,[],"['1', '2', '3', '4']",1,2023.2.3,harveyvisual,2.1,[],8,0.75,
0,pause,0.4,None,None,None,0,267,267,267,,,,,,,,,,,,,N008,visual,1,[],"['1', '2', '3', '4']",1,2023.2.3,harveyvisual,2.1,[],8,0.75,
