num,mod,duration,shape,ll_cond,colors,.thisRepN,.thisTrialN,.thisN,.thisIndex,thisRow.t,notes,raw_global_time,t_start,t_stop,shapes,size,pos,cond,color,button,RT,participant,session,starting_run,left button (match/odd),right button (non-match/even),samples_per_block,psychopy version,expName,offset,audio,number_runs,radius,
1,dot,0.3,['dot'],['density'],black,0,0,0,0,,,2.4002230167388916,2.1004111766815186,2.416997194290161,dot,[0.1],"[-0.4913090862596544, 0.31587628757091063]",density,black,,,N012,visual,3,[],"['1', '2', '3', '4']",1,2023.2.3,harveyvisual,2.1,[],8,0.75,
0,pause,0.4,None,None,None,0,1,1,1,,,,,,,,,,,,,N012,visual,3,[],"['1', '2', '3', '4']",1,2023.2.3,harveyvisual,2.1,[],8,0.75,
1,dot,0.3,['dot'],['density'],black,0,2,2,2,,,3.100222110748291,2.8003320693969727,3.117511034011841,dot,[0.08],"[0.2830289625583117, -0.03026882548871228]",density,black,,,N012,visual,3,[],"['1', '2', '3', '4']",1,2023.2.3,harveyvisual,2.1,[],8,0.75,
0,pause,0.4,None,None,None,0,3,3,3,,,,,,,,,,,,,N012,visual,3,[],"['1', '2', '3', '4']",1,2023.2.3,harveyvisual,2.1,[],8,0.75,
1,dot,0.3,['dot'],['density'],black,0,4,4,4,,,3.8002161979675293,3.500843048095703,3.8174960613250732,dot,[0.06],"[-0.00037526000000685745, -0.027921386894572527]",density,black,,,N012,visual,3,[],"['1', '2', '3', '4']",1,2023.2.3,harveyvisual,2.1,[],8,0.75,
0,pause,0.4,None,None,None,0,5,5,5,,,,,,,,,,,,,N012,visual,3,[],"['1', '2', '3', '4']",1,2023.2.3,harveyvisual,2.1,[],8,0.75,
1,dot,0.3,['dot'],['density'],black,0,6,6,6,,,4.500225067138672,4.200870037078857,4.517481088638306,dot,[0.1],"[0.075024325262877, 0.28946834799837856]",density,black,,,N012,visual,3,[],"['1', '2', '3', '4']",1,2023.2.3,harveyvisual,2.1,[],8,0.75,
0,pause,0.4,None,None,None,0,7,7,7,,,,,,,,,,,,,N012,visual,3,[],"['1', '2', '3', '4']",1,2023.2.3,harveyvisual,2.1,[],8,0.75,
1,dot,0.3,['dot'],['density'],black,0,8,8,8,,,5.200218200683594,4.9008049964904785,5.2174601554870605,dot,[0.1],"[0.43730911014729085, 0.38068286015665653]",density,black,,,N012,visual,3,[],"['1', '2', '3', '4']",1,2023.2.3,harveyvisual,2.1,[],8,0.75,
0,pause,0.4,None,None,None,0,9,9,9,,,,,,,,,,,,,N012,visual,3,[],"['1', '2', '3', '4']",1,2023.2.3,harveyvisual,2.1,[],8,0.75,
1,dot,0.3,['dot'],['density'],black,0,10,10,10,,,5.90022611618042,5.600792169570923,5.919755220413208,dot,[0.1],"[-0.22356924330877379, 0.41145231278245986]",density,black,,,N012,visual,3,[],"['1', '2', '3', '4']",1,2023.2.3,harveyvisual,2.1,[],8,0.75,
0,pause,0.4,None,None,None,0,11,11,11,,,,,,,,,,,,,N012,visual,3,[],"['1', '2', '3', '4']",1,2023.2.3,harveyvisual,2.1,[],8,0.75,
2,dot,0.3,['dot'],['density'],black,0,12,12,12,,,6.600214004516602,6.319736003875732,6.619909048080444,dot,"[0.1, 0.1]","[[-0.22897676209827808, 0.468650264003531], [-0.0598036877009514, 0.5760211786176329]]",density,black,,,N012,visual,3,[],"['1', '2', '3', '4']",1,2023.2.3,harveyvisual,2.1,[],8,0.75,
0,pause,0.4,None,None,None,0,13,13,13,,,,,,,,,,,,,N012,visual,3,[],"['1', '2', '3', '4']",1,2023.2.3,harveyvisual,2.1,[],8,0.75,
2,dot,0.3,['dot'],['density'],white,0,14,14,14,,,7.300202131271362,7.019733190536499,7.3197290897369385,dot,"[0.08, 0.1]","[[0.19540278997321237, -0.319457995891214], [0.34462774624387493, -0.4544903302695001]]",density,white,,,N012,visual,3,[],"['1', '2', '3', '4']",1,2023.2.3,harveyvisual,2.1,[],8,0.75,
0,pause,0.4,None,None,None,0,15,15,15,,,,,,,,,,,1,7.47874903678894,N012,visual,3,[],"['1', '2', '3', '4']",1,2023.2.3,harveyvisual,2.1,[],8,0.75,
2,dot,0.3,['dot'],['density'],white,0,16,16,16,,,8.000216007232666,7.719752073287964,8.019694089889526,dot,"[0.1, 0.1]","[[-0.4149324818804315, 0.28007444048998836], [-0.5260390884397633, 0.11347960973083408]]",density,white,,,N012,visual,3,[],"['1', '2', '3', '4']",1,2023.2.3,harveyvisual,2.1,[],8,0.75,
0,pause,0.4,None,None,None,0,17,17,17,,,,,,,,,,,1,8.094780921936035,N012,visual,3,[],"['1', '2', '3', '4']",1,2023.2.3,harveyvisual,2.1,[],8,0.75,
2,dot,0.3,['dot'],['density'],black,0,18,18,18,,,8.700217008590698,8.419709205627441,8.719678163528442,dot,"[0.06, 0.08]","[[0.29932439847351855, -0.2783039550742582], [0.14276117392638485, -0.15345139110726028]]",density,black,,,N012,visual,3,[],"['1', '2', '3', '4']",1,2023.2.3,harveyvisual,2.1,[],8,0.75,
0,pause,0.4,None,None,None,0,19,19,19,,,,,,,,,,,,,N012,visual,3,[],"['1', '2', '3', '4']",1,2023.2.3,harveyvisual,2.1,[],8,0.75,
2,dot,0.3,['dot'],['density'],black,0,20,20,20,,,9.400229215621948,9.119689226150513,9.419652223587036,dot,"[0.06, 0.06]","[[-0.4149324818804315, 0.28007444048998836], [-0.5260390884397633, 0.11347960973083408]]",density,black,,,N012,visual,3,[],"['1', '2', '3', '4']",1,2023.2.3,harveyvisual,2.1,[],8,0.75,
0,pause,0.4,None,None,None,0,21,21,21,,,,,,,,,,,,,N012,visual,3,[],"['1', '2', '3', '4']",1,2023.2.3,harveyvisual,2.1,[],8,0.75,
2,dot,0.3,['dot'],['density'],white,0,22,22,22,,,10.100228071212769,9.819643020629883,10.119629144668579,dot,"[0.1, 0.08]","[[-0.19266755722762574, -0.036106715323925336], [-0.096675332858716, 0.13967695308521302]]",density,white,,,N012,visual,3,[],"['1', '2', '3', '4']",1,2023.2.3,harveyvisual,2.1,[],8,0.75,
0,pause,0.4,None,None,None,0,23,23,23,,,,,,,,,,,1,10.209082841873169,N012,visual,3,[],"['1', '2', '3', '4']",1,2023.2.3,harveyvisual,2.1,[],8,0.75,
3,dot,0.3,['dot'],['density'],black,0,24,24,24,,,10.800203084945679,10.51964020729065,10.819619178771973,dot,"[0.1, 0.06, 0.06]","[[0.1555504186016049, 0.15532406847092056], [-0.0680535881648269, 0.26220909641571793], [0.08533315121688807, 0.39122308779032533]]",density,black,,,N012,visual,3,[],"['1', '2', '3', '4']",1,2023.2.3,harveyvisual,2.1,[],8,0.75,
0,pause,0.4,None,None,None,0,25,25,25,,,,,,,,,,,,,N012,visual,3,[],"['1', '2', '3', '4']",1,2023.2.3,harveyvisual,2.1,[],8,0.75,
3,dot,0.3,['dot'],['density'],black,0,26,26,26,,,11.500205039978027,11.219614028930664,11.519604206085205,dot,"[0.1, 0.1, 0.1]","[[0.4290032298944087, 0.1407520187648592], [0.22848299553954127, 0.06362144779139585], [0.3595680574788582, -0.09433362503040832]]",density,black,,,N012,visual,3,[],"['1', '2', '3', '4']",1,2023.2.3,harveyvisual,2.1,[],8,0.75,
0,pause,0.4,None,None,None,0,27,27,27,,,,,,,,,,,,,N012,visual,3,[],"['1', '2', '3', '4']",1,2023.2.3,harveyvisual,2.1,[],8,0.75,
3,dot,0.3,['dot'],['density'],black,0,28,28,28,,,12.200216054916382,11.919589042663574,12.219573020935059,dot,"[0.1, 0.08, 0.1]","[[0.16698284004709638, 0.14340522813657522], [0.014382160343152013, -0.0120418799203457], [0.17626274868444566, -0.13037823744598942]]",density,black,,,N012,visual,3,[],"['1', '2', '3', '4']",1,2023.2.3,harveyvisual,2.1,[],8,0.75,
0,pause,0.4,None,None,None,0,29,29,29,,,,,,,,,,,,,N012,visual,3,[],"['1', '2', '3', '4']",1,2023.2.3,harveyvisual,2.1,[],8,0.75,
3,dot,0.3,['dot'],['density'],white,0,30,30,30,,,12.90020203590393,12.619588136672974,12.919558048248291,dot,"[0.06, 0.08, 0.1]","[[0.4290032298944087, 0.1407520187648592], [0.22848299553954127, 0.06362144779139585], [0.3595680574788582, -0.09433362503040832]]",density,white,,,N012,visual,3,[],"['1', '2', '3', '4']",1,2023.2.3,harveyvisual,2.1,[],8,0.75,
0,pause,0.4,None,None,None,0,31,31,31,,,,,,,,,,,1,13.053457975387573,N012,visual,3,[],"['1', '2', '3', '4']",1,2023.2.3,harveyvisual,2.1,[],8,0.75,
3,dot,0.3,['dot'],['density'],black,0,32,32,32,,,13.600212097167969,13.319563150405884,13.619546175003052,dot,"[0.06, 0.06, 0.08]","[[-0.05604225559701161, -0.5082314702914299], [0.10137377066920354, -0.3837858820064252], [-0.12802807887251882, -0.3142638921214105]]",density,black,,,N012,visual,3,[],"['1', '2', '3', '4']",1,2023.2.3,harveyvisual,2.1,[],8,0.75,
0,pause,0.4,None,None,None,0,33,33,33,,,,,,,,,,,,,N012,visual,3,[],"['1', '2', '3', '4']",1,2023.2.3,harveyvisual,2.1,[],8,0.75,
3,dot,0.3,['dot'],['density'],black,0,34,34,34,,,14.300211191177368,14.019544124603271,14.319517135620117,dot,"[0.1, 0.06, 0.08]","[[0.5383732683216915, 0.24050044654635605], [0.337973319445641, 0.36292363064724675], [0.3422154310588786, 0.14570949010333048]]",density,black,,,N012,visual,3,[],"['1', '2', '3', '4']",1,2023.2.3,harveyvisual,2.1,[],8,0.75,
0,pause,0.4,None,None,None,0,35,35,35,,,,,,,,,,,,,N012,visual,3,[],"['1', '2', '3', '4']",1,2023.2.3,harveyvisual,2.1,[],8,0.75,
4,dot,0.3,['dot'],['density'],black,0,36,36,36,,,15.000225067138672,14.719532012939453,15.019515037536621,dot,"[0.06, 0.1, 0.08, 0.1]","[[0.17852470546651972, -0.2012438881607824], [-0.031034799765910746, -0.12466087783573923], [0.008996399474264666, -0.3229379719524122], [0.15114343287780646, 0.03986859122442722]]",density,black,,,N012,visual,3,[],"['1', '2', '3', '4']",1,2023.2.3,harveyvisual,2.1,[],8,0.75,
0,pause,0.4,None,None,None,0,37,37,37,,,,,,,,,,,,,N012,visual,3,[],"['1', '2', '3', '4']",1,2023.2.3,harveyvisual,2.1,[],8,0.75,
4,dot,0.3,['dot'],['density'],black,0,38,38,38,,,15.700215101242065,15.419515132904053,15.719495058059692,dot,"[0.06, 0.1, 0.06, 0.06]","[[-0.42715721775789556, -0.3806885655784049], [-0.5104054706627589, -0.18016651458941194], [-0.409412055521987, 0.008153849732111747], [-0.2456709064377862, -0.21492281530681134]]",density,black,,,N012,visual,3,[],"['1', '2', '3', '4']",1,2023.2.3,harveyvisual,2.1,[],8,0.75,
0,pause,0.4,None,None,None,0,39,39,39,,,,,,,,,,,,,N012,visual,3,[],"['1', '2', '3', '4']",1,2023.2.3,harveyvisual,2.1,[],8,0.75,
4,dot,0.3,['dot'],['density'],black,0,40,40,40,,,16.400217056274414,16.11948013305664,16.41948413848877,dot,"[0.06, 0.06, 0.1, 0.08]","[[0.1665887267295909, 0.08389582001604734], [0.4584359263982055, 0.26405512465689546], [0.4157764543415929, 0.03513878013061779], [0.2392225064082761, 0.29777239984320175]]",density,black,,,N012,visual,3,[],"['1', '2', '3', '4']",1,2023.2.3,harveyvisual,2.1,[],8,0.75,
0,pause,0.4,None,None,None,0,41,41,41,,,,,,,,,,,,,N012,visual,3,[],"['1', '2', '3', '4']",1,2023.2.3,harveyvisual,2.1,[],8,0.75,
4,dot,0.3,['dot'],['density'],black,0,42,42,42,,,17.100220203399658,16.819469213485718,17.11949110031128,dot,"[0.1, 0.06, 0.1, 0.08]","[[-0.22711054503220823, -0.5144049053218714], [-0.016307770745122817, -0.5558659767831347], [-0.26432457165568224, -0.2824025039497699], [-0.026303944553407815, -0.34464361634901186]]",density,black,,,N012,visual,3,[],"['1', '2', '3', '4']",1,2023.2.3,harveyvisual,2.1,[],8,0.75,
0,pause,0.4,None,None,None,0,43,43,43,,,,,,,,,,,,,N012,visual,3,[],"['1', '2', '3', '4']",1,2023.2.3,harveyvisual,2.1,[],8,0.75,
4,dot,0.3,['dot'],['density'],black,0,44,44,44,,,17.80022621154785,17.51944899559021,17.819441080093384,dot,"[0.06, 0.1, 0.1, 0.08]","[[-0.264878088602857, 0.22906395790450432], [0.07239228809704809, 0.2615492699427171], [0.10034738543262733, 0.4676118263175188], [-0.09637524959065707, 0.3769302803343899]]",density,black,,,N012,visual,3,[],"['1', '2', '3', '4']",1,2023.2.3,harveyvisual,2.1,[],8,0.75,
0,pause,0.4,None,None,None,0,45,45,45,,,,,,,,,,,,,N012,visual,3,[],"['1', '2', '3', '4']",1,2023.2.3,harveyvisual,2.1,[],8,0.75,
4,dot,0.3,['dot'],['density'],black,0,46,46,46,,,18.500211000442505,18.21961522102356,18.519583225250244,dot,"[0.06, 0.1, 0.1, 0.08]","[[0.2472118047986834, -0.10298318101898082], [0.5832669122255578, -0.0503561045998346], [0.411076479450662, -0.2641061246578253], [0.42907679660555237, 0.09101913809416001]]",density,black,,,N012,visual,3,[],"['1', '2', '3', '4']",1,2023.2.3,harveyvisual,2.1,[],8,0.75,
0,pause,0.4,None,None,None,0,47,47,47,,,,,,,,,,,,,N012,visual,3,[],"['1', '2', '3', '4']",1,2023.2.3,harveyvisual,2.1,[],8,0.75,
5,dot,0.3,['dot'],['density'],black,0,48,48,48,,,19.2002170085907,18.91943120956421,19.21941304206848,dot,"[0.06, 0.1, 0.1, 0.1, 0.06]","[[-0.09836533996777486, -0.13487298234664027], [-0.39372579989196477, -0.3970332615714695], [-0.08519030630468749, -0.3439803803737387], [-0.28676510783747755, -0.22768547842943598], [-0.4191710438677135, -0.018830474544977712]]",density,black,,,N012,visual,3,[],"['1', '2', '3', '4']",1,2023.2.3,harveyvisual,2.1,[],8,0.75,
0,pause,0.4,None,None,None,0,49,49,49,,,,,,,,,,,,,N012,visual,3,[],"['1', '2', '3', '4']",1,2023.2.3,harveyvisual,2.1,[],8,0.75,
5,dot,0.3,['dot'],['density'],black,0,50,50,50,,,19.900206089019775,19.619401216506958,19.91939115524292,dot,"[0.06, 0.08, 0.1, 0.1, 0.08]","[[0.029171133319913545, -0.11913068329317353], [-0.2981845944788078, -0.46624640290839614], [-0.1844599491613969, -0.04126455345730423], [-0.2900988597239497, -0.2493716418714862], [-0.0791391532727178, -0.3057260733699829]]",density,black,,,N012,visual,3,[],"['1', '2', '3', '4']",1,2023.2.3,harveyvisual,2.1,[],8,0.75,
0,pause,0.4,None,None,None,0,51,51,51,,,,,,,,,,,,,N012,visual,3,[],"['1', '2', '3', '4']",1,2023.2.3,harveyvisual,2.1,[],8,0.75,
5,dot,0.3,['dot'],['density'],black,0,52,52,52,,,20.600215196609497,20.31943702697754,20.619368076324463,dot,"[0.06, 0.08, 0.1, 0.1, 0.1]","[[0.2447541601906441, 0.3086669061463178], [0.2085849672204031, -0.04267428248465989], [0.44393754570968663, -0.061602228714441105], [0.027125763574429876, 0.05764502161176834], [0.36879828001487897, 0.1310025380577708]]",density,black,,,N012,visual,3,[],"['1', '2', '3', '4']",1,2023.2.3,harveyvisual,2.1,[],8,0.75,
0,pause,0.4,None,None,None,0,53,53,53,,,,,,,,,,,,,N012,visual,3,[],"['1', '2', '3', '4']",1,2023.2.3,harveyvisual,2.1,[],8,0.75,
5,dot,0.3,['dot'],['density'],black,0,54,54,54,,,21.30022406578064,21.01936411857605,21.31951904296875,dot,"[0.1, 0.1, 0.08, 0.1, 0.08]","[[0.21791283729510122, -0.3451859720731072], [0.5246150578842218, -0.1749209719782184], [0.23417080448362212, 0.06149420791510773], [0.21628546435715315, -0.14179681516434317], [0.46094971099473236, 0.03541120369123469]]",density,black,,,N012,visual,3,[],"['1', '2', '3', '4']",1,2023.2.3,harveyvisual,2.1,[],8,0.75,
0,pause,0.4,None,None,None,0,55,55,55,,,,,,,,,,,,,N012,visual,3,[],"['1', '2', '3', '4']",1,2023.2.3,harveyvisual,2.1,[],8,0.75,
5,dot,0.3,['dot'],['density'],white,0,56,56,56,,,22.0002121925354,21.719343185424805,22.0193350315094,dot,"[0.06, 0.1, 0.1, 0.06, 0.1]","[[0.2075830250205083, 0.5448960418430373], [0.010600229768786232, 0.45420498888786176], [-0.10187712889758427, 0.28364076042242115], [0.1691377395635631, 0.293820614486451], [-0.2596336492265815, 0.40815120909286945]]",density,white,,,N012,visual,3,[],"['1', '2', '3', '4']",1,2023.2.3,harveyvisual,2.1,[],8,0.75,
0,pause,0.4,None,None,None,0,57,57,57,,,,,,,,,,,1,22.136523962020874,N012,visual,3,[],"['1', '2', '3', '4']",1,2023.2.3,harveyvisual,2.1,[],8,0.75,
5,dot,0.3,['dot'],['density'],black,0,58,58,58,,,22.70022201538086,22.41937518119812,22.719335079193115,dot,"[0.06, 0.08, 0.06, 0.06, 0.06]","[[0.029171133319913545, -0.11913068329317353], [-0.2981845944788078, -0.46624640290839614], [-0.1844599491613969, -0.04126455345730423], [-0.2900988597239497, -0.2493716418714862], [-0.0791391532727178, -0.3057260733699829]]",density,black,,,N012,visual,3,[],"['1', '2', '3', '4']",1,2023.2.3,harveyvisual,2.1,[],8,0.75,
0,pause,0.4,None,None,None,0,59,59,59,,,,,,,,,,,,,N012,visual,3,[],"['1', '2', '3', '4']",1,2023.2.3,harveyvisual,2.1,[],8,0.75,
6,dot,0.3,['dot'],['density'],black,0,60,60,60,,,23.40021300315857,23.119407176971436,23.41931700706482,dot,"[0.06, 0.08, 0.1, 0.1, 0.1, 0.08]","[[-0.3495133471434448, -0.27378397825191725], [-0.13100446626766318, 0.13866361521721876], [-0.5155090776439144, 0.11776884681908774], [-0.4780287848267884, -0.11588239978167382], [-0.11897161770401087, -0.0933943475842369], [-0.303431097341306, -0.010759678588622423]]",density,black,,,N012,visual,3,[],"['1', '2', '3', '4']",1,2023.2.3,harveyvisual,2.1,[],8,0.75,
0,pause,0.4,None,None,None,0,61,61,61,,,,,,,,,,,,,N012,visual,3,[],"['1', '2', '3', '4']",1,2023.2.3,harveyvisual,2.1,[],8,0.75,
6,dot,0.3,['dot'],['density'],white,0,62,62,62,,,24.10023021697998,23.81931710243225,24.11935305595398,dot,"[0.06, 0.08, 0.1, 0.1, 0.08, 0.08]","[[-0.5416753121247185, 0.020803147184574915], [-0.3232269173664433, -0.07161231053200118], [-0.3008479376061402, -0.286480119217458], [-0.22299540496279888, 0.12470258063391813], [-0.10776740766186912, -0.19554033341247495], [-0.5165544979209102, -0.21376225914528924]]",density,white,,,N012,visual,3,[],"['1', '2', '3', '4']",1,2023.2.3,harveyvisual,2.1,[],8,0.75,
0,pause,0.4,None,None,None,0,63,63,63,,,,,,,,,,,1,24.256037950515747,N012,visual,3,[],"['1', '2', '3', '4']",1,2023.2.3,harveyvisual,2.1,[],8,0.75,
6,dot,0.3,['dot'],['density'],black,0,64,64,64,,,24.80022120475769,24.519289016723633,24.819279193878174,dot,"[0.08, 0.06, 0.06, 0.1, 0.1, 0.1]","[[-0.5042184434856596, 0.24959378884587158], [-0.14877643798118484, -0.059020126001740114], [-0.46546181494132466, -0.1471818588402077], [-0.26957518187208745, -0.22263810459524838], [-0.2342448443914648, 0.21754944417529726], [-0.37109182385784195, 0.03297203532481631]]",density,black,,,N012,visual,3,[],"['1', '2', '3', '4']",1,2023.2.3,harveyvisual,2.1,[],8,0.75,
0,pause,0.4,None,None,None,0,65,65,65,,,,,,,,,,,,,N012,visual,3,[],"['1', '2', '3', '4']",1,2023.2.3,harveyvisual,2.1,[],8,0.75,
6,dot,0.3,['dot'],['density'],black,0,66,66,66,,,25.500209093093872,25.219245195388794,25.519241094589233,dot,"[0.06, 0.1, 0.1, 0.08, 0.1, 0.08]","[[0.404576257273406, 0.0700140295133255], [0.16236872381874318, -0.0021128728600973284], [0.5529541989122894, -0.15659614737169442], [0.13702497511457395, -0.2589057080071786], [0.36740063964394665, -0.3636528069500345], [0.3132750905084481, -0.159771579268986]]",density,black,,,N012,visual,3,[],"['1', '2', '3', '4']",1,2023.2.3,harveyvisual,2.1,[],8,0.75,
0,pause,0.4,None,None,None,0,67,67,67,,,,,,,,,,,,,N012,visual,3,[],"['1', '2', '3', '4']",1,2023.2.3,harveyvisual,2.1,[],8,0.75,
6,dot,0.3,['dot'],['density'],black,0,68,68,68,,,26.2002170085907,25.91927409172058,26.219269037246704,dot,"[0.08, 0.08, 0.08, 0.06, 0.06, 0.06]","[[-0.31609589870198396, -0.31007670116123803], [-0.4478311917512715, 0.10082722748193511], [-0.2864981571692688, -0.05140390439239721], [-0.09675803094031296, -0.12021517342888931], [-0.4941273593136662, -0.13098935533792763], [-0.1300426850498692, 0.1160403058404222]]",density,black,,,N012,visual,3,[],"['1', '2', '3', '4']",1,2023.2.3,harveyvisual,2.1,[],8,0.75,
0,pause,0.4,None,None,None,0,69,69,69,,,,,,,,,,,,,N012,visual,3,[],"['1', '2', '3', '4']",1,2023.2.3,harveyvisual,2.1,[],8,0.75,
6,dot,0.3,['dot'],['density'],black,0,70,70,70,,,26.90022611618042,26.619254112243652,26.91920804977417,dot,"[0.08, 0.06, 0.06, 0.06, 0.06, 0.08]","[[0.3299424372810393, 0.4114780133894161], [0.051944887288218326, -0.03233758374135307], [0.4337222981537534, -0.07578498258626121], [0.10477943773033714, 0.1703675017914044], [0.3400878522727408, 0.20016066552806494], [0.2510029109880425, 0.01747244452819591]]",density,black,,,N012,visual,3,[],"['1', '2', '3', '4']",1,2023.2.3,harveyvisual,2.1,[],8,0.75,
0,pause,0.4,None,None,None,0,71,71,71,,,,,,,,,,,,,N012,visual,3,[],"['1', '2', '3', '4']",1,2023.2.3,harveyvisual,2.1,[],8,0.75,
7,dot,0.3,['dot'],['density'],black,0,72,72,72,,,27.60021710395813,27.319266080856323,27.619450092315674,dot,"[0.1, 0.08, 0.1, 0.1, 0.1, 0.08, 0.06]","[[-0.27819289690075527, 0.2483046813246476], [-0.5592260237138849, -0.07980801324287977], [-0.026637344717372308, -0.10521889364121585], [-0.16909952645659185, 0.05101222878256789], [-0.21868546305501066, -0.16482274839932262], [-0.3689572500107929, 0.03738969849335829], [-0.49227831811218986, 0.2063327632277477]]",density,black,,,N012,visual,3,[],"['1', '2', '3', '4']",1,2023.2.3,harveyvisual,2.1,[],8,0.75,
0,pause,0.4,None,None,None,0,73,73,73,,,,,,,,,,,,,N012,visual,3,[],"['1', '2', '3', '4']",1,2023.2.3,harveyvisual,2.1,[],8,0.75,
7,dot,0.3,['dot'],['density'],black,0,74,74,74,,,28.30021619796753,28.019461154937744,28.319218158721924,dot,"[0.1, 0.1, 0.06, 0.1, 0.06, 0.1, 0.08]","[[0.4852053974746821, 0.2414638673891567], [0.4489127705046299, 0.011725618337583463], [0.18065050592779294, 0.3526250807613559], [0.03625639584007868, 0.1261309995663498], [0.1794309074695897, -0.0624577020416761], [0.2856641480650803, 0.17770493422509798], [0.3124387752689665, -0.21816880331392838]]",density,black,,,N012,visual,3,[],"['1', '2', '3', '4']",1,2023.2.3,harveyvisual,2.1,[],8,0.75,
0,pause,0.4,None,None,None,0,75,75,75,,,,,,,,,,,,,N012,visual,3,[],"['1', '2', '3', '4']",1,2023.2.3,harveyvisual,2.1,[],8,0.75,
7,dot,0.3,['dot'],['density'],black,0,76,76,76,,,29.000230073928833,28.719208002090454,29.019228219985962,dot,"[0.06, 0.06, 0.06, 0.08, 0.08, 0.1, 0.1]","[[-0.026372969700101213, 0.05085620782211805], [-0.16304282038196347, -0.3616501386780019], [-0.013762327205412121, -0.14910430285435466], [0.14729449770710015, -0.3647544547161306], [-0.22494517313234175, -0.12035103032643314], [-0.36514670174418407, -0.33057163197754225], [0.21417125919861074, -0.06627923590771367]]",density,black,,,N012,visual,3,[],"['1', '2', '3', '4']",1,2023.2.3,harveyvisual,2.1,[],8,0.75,
0,pause,0.4,None,None,None,0,77,77,77,,,,,,,,,,,,,N012,visual,3,[],"['1', '2', '3', '4']",1,2023.2.3,harveyvisual,2.1,[],8,0.75,
7,dot,0.3,['dot'],['density'],black,0,78,78,78,,,29.700213193893433,29.419186115264893,29.719133138656616,dot,"[0.1, 0.06, 0.06, 0.06, 0.08, 0.06, 0.06]","[[-0.27882252076513336, 0.33055409005240166], [-0.4957633793454142, -0.06140876275196145], [-0.0066404743852866415, -0.09326226909207957], [-0.0437417051997281, 0.24568157295930956], [-0.4653499650939929, 0.1386387143322748], [-0.23664853702636232, 0.07695828400639043], [-0.2650254833014284, -0.12289079349875774]]",density,black,,,N012,visual,3,[],"['1', '2', '3', '4']",1,2023.2.3,harveyvisual,2.1,[],8,0.75,
0,pause,0.4,None,None,None,0,79,79,79,,,,,,,,,,,,,N012,visual,3,[],"['1', '2', '3', '4']",1,2023.2.3,harveyvisual,2.1,[],8,0.75,
7,dot,0.3,['dot'],['density'],black,0,80,80,80,,,30.400209188461304,30.119132041931152,30.419182062149048,dot,"[0.06, 0.08, 0.1, 0.08, 0.06, 0.08, 0.06]","[[0.23608374802607182, -0.42864299173344095], [-0.09209027036414452, -0.12416238309953632], [0.2788105912293623, 0.0033410667889120396], [0.04539289310230788, 0.08875296613859053], [0.036272769320452085, -0.32980830156280494], [-0.23317126701056543, -0.2895908304292693], [0.15392952834370008, -0.16140965755482034]]",density,black,,,N012,visual,3,[],"['1', '2', '3', '4']",1,2023.2.3,harveyvisual,2.1,[],8,0.75,
0,pause,0.4,None,None,None,0,81,81,81,,,,,,,,,,,,,N012,visual,3,[],"['1', '2', '3', '4']",1,2023.2.3,harveyvisual,2.1,[],8,0.75,
7,dot,0.3,['dot'],['density'],black,0,82,82,82,,,31.100213050842285,30.819310188293457,31.119320154190063,dot,"[0.08, 0.1, 0.06, 0.06, 0.1, 0.08, 0.06]","[[-0.026372969700101213, 0.05085620782211805], [-0.16304282038196347, -0.3616501386780019], [-0.013762327205412121, -0.14910430285435466], [0.14729449770710015, -0.3647544547161306], [-0.22494517313234175, -0.12035103032643314], [-0.36514670174418407, -0.33057163197754225], [0.21417125919861074, -0.06627923590771367]]",density,black,,,N012,visual,3,[],"['1', '2', '3', '4']",1,2023.2.3,harveyvisual,2.1,[],8,0.75,
0,pause,0.4,None,None,None,0,83,83,83,,,,,,,,,,,,,N012,visual,3,[],"['1', '2', '3', '4']",1,2023.2.3,harveyvisual,2.1,[],8,0.75,
8,dot,0.3,['dot'],['density'],black,0,84,84,84,,,31.800218105316162,31.519329071044922,31.819079160690308,dot,"[0.1, 0.06, 0.1, 0.06, 0.08, 0.06, 0.1, 0.08]","[[-0.17001050475317317, -0.17367687575201368], [0.3600613666554234, 0.010096468830953859], [-0.08326222131596324, 0.04242117989324811], [0.04296950773068638, 0.29875887990525135], [0.04919814700692566, -0.23206276490508926], [0.2733682510361541, 0.19343137942482672], [0.15974695196996483, -0.02827404827190698], [-0.2919014881818027, 0.0006738684867251376]]",density,black,,,N012,visual,3,[],"['1', '2', '3', '4']",1,2023.2.3,harveyvisual,2.1,[],8,0.75,
0,pause,0.4,None,None,None,0,85,85,85,,,,,,,,,,,,,N012,visual,3,[],"['1', '2', '3', '4']",1,2023.2.3,harveyvisual,2.1,[],8,0.75,
8,dot,0.3,['dot'],['density'],black,0,86,86,86,,,32.500219106674194,32.219072103500366,32.5190691947937,dot,"[0.06, 0.08, 0.08, 0.06, 0.06, 0.08, 0.1, 0.06]","[[0.3364035831170529, 0.12390393923093283], [0.4336864367158133, 0.35981147627037974], [0.06743640335689947, 0.0759148581953004], [-0.079559988999742, 0.39531058321326396], [0.21309668101319243, 0.48855257098982907], [0.23478258025928536, -0.08446837776908474], [-0.12854716397353463, 0.17339976512773136], [0.14965136140762586, 0.26897313353206964]]",density,black,,,N012,visual,3,[],"['1', '2', '3', '4']",1,2023.2.3,harveyvisual,2.1,[],8,0.75,
0,pause,0.4,None,None,None,0,87,87,87,,,,,,,,,,,,,N012,visual,3,[],"['1', '2', '3', '4']",1,2023.2.3,harveyvisual,2.1,[],8,0.75,
8,dot,0.3,['dot'],['density'],black,0,88,88,88,,,33.200218200683594,32.919069051742554,33.219075202941895,dot,"[0.06, 0.06, 0.06, 0.06, 0.08, 0.06, 0.08, 0.1]","[[-0.13470540342303577, 0.06408260861786476], [-0.32633744656496655, 0.15045505181492372], [-0.2908673593763413, -0.0762007135190446], [-0.5368971138264618, 0.18470905249118252], [0.055331558945424124, 0.1732254888039505], [-0.30909967543404826, 0.3845911877556102], [-0.0777863596696305, 0.41921053595603236], [0.03181857584637903, -0.08967320215721851]]",density,black,,,N012,visual,3,[],"['1', '2', '3', '4']",1,2023.2.3,harveyvisual,2.1,[],8,0.75,
0,pause,0.4,None,None,None,0,89,89,89,,,,,,,,,,,,,N012,visual,3,[],"['1', '2', '3', '4']",1,2023.2.3,harveyvisual,2.1,[],8,0.75,
8,dot,0.3,['dot'],['density'],black,0,90,90,90,,,33.90020704269409,33.61919617652893,33.919188022613525,dot,"[0.08, 0.1, 0.1, 0.1, 0.08, 0.1, 0.1, 0.1]","[[0.29210958841889567, 0.026991922891258572], [0.03093533645276146, 0.3258936230244337], [-0.13014708308220477, 0.20110385145229231], [0.463805327987396, 0.2670013362689149], [0.17887675575806267, 0.48912385903522404], [0.2495142025194702, 0.28253247413027655], [0.03200252102949923, -0.1932501096446728], [0.04457092617056691, 0.07668709382136672]]",density,black,,,N012,visual,3,[],"['1', '2', '3', '4']",1,2023.2.3,harveyvisual,2.1,[],8,0.75,
0,pause,0.4,None,None,None,0,91,91,91,,,,,,,,,,,,,N012,visual,3,[],"['1', '2', '3', '4']",1,2023.2.3,harveyvisual,2.1,[],8,0.75,
8,dot,0.3,['dot'],['density'],black,0,92,92,92,,,34.60022711753845,34.31919813156128,34.61900806427002,dot,"[0.06, 0.06, 0.1, 0.06, 0.1, 0.1, 0.08, 0.1]","[[-0.4639556696772753, 0.10472599959088454], [-0.22970357876872852, 0.24758381400794424], [-0.060094057158436125, -0.14613975383200573], [-0.022569829209962654, 0.2677975872319761], [-0.3077859326170116, -0.10488986274105515], [-0.16040535020917, 0.031608708128470005], [-0.5175577931920246, -0.20517812764611504], [0.1194024413118107, 0.007837779916585986]]",density,black,,,N012,visual,3,[],"['1', '2', '3', '4']",1,2023.2.3,harveyvisual,2.1,[],8,0.75,
0,pause,0.4,None,None,None,0,93,93,93,,,,,,,,,,,,,N012,visual,3,[],"['1', '2', '3', '4']",1,2023.2.3,harveyvisual,2.1,[],8,0.75,
8,dot,0.3,['dot'],['density'],black,0,94,94,94,,,35.30023407936096,35.0190110206604,35.31899619102478,dot,"[0.06, 0.1, 0.08, 0.06, 0.1, 0.1, 0.1, 0.06]","[[0.3129921899656287, 0.2226642157048143], [0.41298599633021416, -0.001766323215076977], [0.013785601627645026, 0.39275307090924344], [-0.009407606244017683, 0.02333367620517349], [0.20163499737495916, -0.08731087547331118], [0.31235423233837933, 0.42762820752661124], [0.10705959187470679, 0.21318577255187057], [-0.13233007013452783, 0.20605257250075132]]",density,black,,,N012,visual,3,[],"['1', '2', '3', '4']",1,2023.2.3,harveyvisual,2.1,[],8,0.75,
0,pause,0.4,None,None,None,0,95,95,95,,,,,,,,,,,,,N012,visual,3,[],"['1', '2', '3', '4']",1,2023.2.3,harveyvisual,2.1,[],8,0.75,
9,dot,0.3,['dot'],['density'],black,0,96,96,96,,,36.00022506713867,35.71898007392883,36.01898121833801,dot,"[0.08, 0.06, 0.06, 0.06, 0.1, 0.1, 0.1, 0.08, 0.06]","[[0.019793807854907846, -0.43234396454466956], [-0.19026732246162045, -0.30921043426246514], [0.04019268118281429, 0.04496242893187172], [-0.3995051790572048, -0.35321755636659735], [-0.3855517065125252, -0.10705750392277943], [0.08372722599267078, -0.1679482296571974], [0.2622756688563642, -0.3928589043728353], [-0.14305193053609555, -0.047108980659819465], [-0.27076529918092873, 0.10825753519043561]]",density,black,,,N012,visual,3,[],"['1', '2', '3', '4']",1,2023.2.3,harveyvisual,2.1,[],8,0.75,
0,pause,0.4,None,None,None,0,97,97,97,,,,,,,,,,,,,N012,visual,3,[],"['1', '2', '3', '4']",1,2023.2.3,harveyvisual,2.1,[],8,0.75,
9,dot,0.3,['dot'],['density'],black,0,98,98,98,,,36.70022916793823,36.41898202896118,36.71896004676819,dot,"[0.08, 0.06, 0.06, 0.08, 0.1, 0.06, 0.1, 0.06, 0.1]","[[-0.08351644510687262, 0.021707353155035948], [0.11173555070370329, 0.3931220271068859], [-0.15396522232717408, 0.3423719725559184], [0.23829169989725132, 0.186218803300476], [-0.29008049122260166, 0.17395274189193027], [0.2491440638781109, -0.04662568063892593], [-0.2854023508218629, -0.06307984259985559], [0.003596708871689959, 0.21717875760955796], [-0.47489413548496523, 0.030788186259843496]]",density,black,,,N012,visual,3,[],"['1', '2', '3', '4']",1,2023.2.3,harveyvisual,2.1,[],8,0.75,
0,pause,0.4,None,None,None,0,99,99,99,,,,,,,,,,,,,N012,visual,3,[],"['1', '2', '3', '4']",1,2023.2.3,harveyvisual,2.1,[],8,0.75,
9,dot,0.3,['dot'],['density'],black,0,100,100,100,,,37.4002251625061,37.1189661026001,37.41894817352295,dot,"[0.1, 0.08, 0.1, 0.08, 0.08, 0.06, 0.1, 0.06, 0.06]","[[0.26246064217380705, -0.20881461689055444], [-0.05738061480455322, -0.2104867327221427], [-0.15279665209492657, -0.4570696492981838], [-0.25848085101471047, 0.03539482855188907], [0.05438928923437074, -0.041842351158073866], [-0.266438460152573, -0.22510974363943476], [-0.08630847597628627, 0.16925380219028288], [0.1378984379274782, 0.16880467564350782], [0.14927440204233722, -0.41110624343475755]]",density,black,,,N012,visual,3,[],"['1', '2', '3', '4']",1,2023.2.3,harveyvisual,2.1,[],8,0.75,
0,pause,0.4,None,None,None,0,101,101,101,,,,,,,,,,,,,N012,visual,3,[],"['1', '2', '3', '4']",1,2023.2.3,harveyvisual,2.1,[],8,0.75,
9,dot,0.3,['dot'],['density'],black,0,102,102,102,,,38.10023522377014,37.818932056427,38.118924140930176,dot,"[0.08, 0.08, 0.1, 0.06, 0.08, 0.1, 0.1, 0.06, 0.08]","[[-0.4219467838066047, -0.18114019941065054], [-0.2081543488995217, -0.4860059455967178], [-0.008274735502094755, -0.3457533902190916], [0.02376323820852766, -0.0891001390581758], [-0.4116277839025775, 0.058108040724694845], [-0.18144554169200455, -0.05292133149533743], [0.21944315682242976, -0.26450239569476724], [0.11466821484809545, 0.13327019789913197], [-0.2288148866166432, -0.2599929378926301]]",density,black,,,N012,visual,3,[],"['1', '2', '3', '4']",1,2023.2.3,harveyvisual,2.1,[],8,0.75,
0,pause,0.4,None,None,None,0,103,103,103,,,,,,,,,,,,,N012,visual,3,[],"['1', '2', '3', '4']",1,2023.2.3,harveyvisual,2.1,[],8,0.75,
9,dot,0.3,['dot'],['density'],black,0,104,104,104,,,38.800217151641846,38.518925189971924,38.81892108917236,dot,"[0.06, 0.06, 0.08, 0.08, 0.08, 0.08, 0.08, 0.06, 0.08]","[[-0.05049485011715354, 0.3013521193238899], [0.15354596755057998, 0.36785015051376163], [0.22995749783639982, 0.07309138415424772], [0.13460311710395165, -0.18603378415368982], [0.33097739113381164, -0.13822260855557728], [-0.16464148731134703, 0.07190493829483618], [0.521154897315396, -0.007803673430992942], [0.02684304494395013, 0.0018704401699241912], [-0.15545279255173522, -0.15329938800760382]]",density,black,,,N012,visual,3,[],"['1', '2', '3', '4']",1,2023.2.3,harveyvisual,2.1,[],8,0.75,
0,pause,0.4,None,None,None,0,105,105,105,,,,,,,,,,,,,N012,visual,3,[],"['1', '2', '3', '4']",1,2023.2.3,harveyvisual,2.1,[],8,0.75,
9,dot,0.3,['dot'],['density'],black,0,106,106,106,,,39.50022602081299,39.21889615058899,39.51889514923096,dot,"[0.08, 0.08, 0.08, 0.1, 0.06, 0.06, 0.06, 0.08, 0.1]","[[0.21556792455118703, 0.37642033042102185], [0.14366510572844648, -0.18651452926789283], [0.49642287684820396, -0.0794158383055628], [-0.04770628609247857, -0.12519201939426747], [0.20310136493979325, 0.154094551714378], [-0.004065485174475974, 0.09100382633055243], [-0.018053901421587658, 0.34918523294118026], [0.29624623666919286, -0.053344657000752645], [-0.2018857737562037, 0.01971770186205045]]",density,black,,,N012,visual,3,[],"['1', '2', '3', '4']",1,2023.2.3,harveyvisual,2.1,[],8,0.75,
0,pause,0.4,None,None,None,0,107,107,107,,,,,,,,,,,,,N012,visual,3,[],"['1', '2', '3', '4']",1,2023.2.3,harveyvisual,2.1,[],8,0.75,
20,dot,0.3,['dot'],['density'],black,0,108,108,108,,,40.200215101242065,39.919063091278076,40.219074010849,dot,"[0.08, 0.08, 0.08, 0.06, 0.08, 0.08, 0.1, 0.08, 0.08, 0.06, 0.1, 0.08, 0.08, 0.08, 0.1, 0.08, 0.08, 0.06, 0.06, 0.1]","[[0.5784707083240977, 0.04758636276606623], [0.28800632799342696, 0.016259417400239173], [-0.32167284038061816, 0.27103760230760576], [-0.38174924084389295, -0.3758306203769321], [-0.0936313475748426, 0.42040228156500026], [-0.27576504749031744, 0.002830941533350506], [0.24415650625812657, -0.44840575574216085], [-0.42531914922461606, -0.19015285061158896], [-0.546395888393799, 0.09526123389379748], [0.38280393295472714, 0.41068194607319175], [0.25866343908861245, 0.2520426056787134], [0.10712252699525537, -0.22193426313129527], [-0.16877642166396378, -0.264385300762579], [-0.11348202587947098, -0.585911222052941], [-0.1340533471576434, 0.17638983223477755], [0.05278743260451224, -0.4893971753814486], [0.4426634521254694, 0.19031753252806077], [0.4446403128605979, -0.28151571021432303], [0.15703234517204967, 0.5026642931958332], [0.029829050194544515, 0.06121584324030771]]",density,black,,,N012,visual,3,[],"['1', '2', '3', '4']",1,2023.2.3,harveyvisual,2.1,[],8,0.75,
0,pause,0.4,None,None,None,0,109,109,109,,,,,,,,,,,,,N012,visual,3,[],"['1', '2', '3', '4']",1,2023.2.3,harveyvisual,2.1,[],8,0.75,
20,dot,0.3,['dot'],['density'],black,0,110,110,110,,,40.90020704269409,40.619049072265625,40.91902422904968,dot,"[0.08, 0.08, 0.06, 0.06, 0.06, 0.06, 0.1, 0.06, 0.1, 0.1, 0.1, 0.06, 0.08, 0.08, 0.08, 0.06, 0.06, 0.08, 0.1, 0.08]","[[-0.49091868457131743, 0.20780537365377533], [-0.5589267661136517, -0.21287906248483324], [-0.31105662464641654, 0.13790261173999818], [0.07323765938188909, 0.5742740485604643], [-0.035215028019574435, 0.3702445320239772], [0.5650706216728248, 0.09449297830491621], [0.012065550906463662, -0.28403895985847605], [-0.37097292655847436, -0.3188603358474086], [-0.19931954428718157, -0.12897581898733512], [0.29284837653551354, 0.2198393552071718], [0.261080933380922, -0.4937113263126471], [0.2903118953154128, 0.016670290691935374], [0.09831469919501545, 0.13491185612698053], [0.4569982141726695, -0.1362680203964302], [-0.07537815837371686, -0.5009138164585433], [0.03251760734208475, -0.0676301301721165], [-0.3386747969741683, 0.3483966116208217], [0.3173820406815795, 0.4242422723501835], [0.2447145188237826, -0.2982268087820062], [-0.38324967940707955, -0.061032081849267505]]",density,black,,,N012,visual,3,[],"['1', '2', '3', '4']",1,2023.2.3,harveyvisual,2.1,[],8,0.75,
0,pause,0.4,None,None,None,0,111,111,111,,,,,,,,,,,,,N012,visual,3,[],"['1', '2', '3', '4']",1,2023.2.3,harveyvisual,2.1,[],8,0.75,
20,dot,0.3,['dot'],['density'],black,0,112,112,112,,,41.60021114349365,41.31902003288269,41.618879079818726,dot,"[0.1, 0.06, 0.06, 0.06, 0.08, 0.08, 0.08, 0.08, 0.08, 0.08, 0.1, 0.08, 0.08, 0.06, 0.08, 0.1, 0.06, 0.1, 0.06, 0.06]","[[-0.02276595268378434, -0.30767148291468704], [-0.08086268888560932, -0.05183465163695944], [-0.5952035830277904, -0.09629064240125683], [0.11853548514764012, 0.16580079541400716], [0.21481141993550423, 0.5619896261679326], [0.5867094926979627, -0.06222222313655974], [0.39224140106873684, -0.35962341129799164], [-0.2435783704059018, 0.29615309301434756], [-0.3602235723477012, -0.15157430553051776], [-0.11412210142479196, 0.1431514401785543], [0.567103382465712, 0.19330257046443433], [-0.26131639144738966, -0.4983634865774529], [-0.09731364936076725, 0.5923040680983966], [0.4495968387382473, 0.3830447263223888], [0.03343897309551225, 0.429505984479324], [-0.482752618326814, 0.12968194397662447], [0.3810647160786498, -0.0713518476924293], [0.2110546159662131, -0.253457684671221], [0.1174670929573367, -0.04094306882185095], [0.1397745699862023, -0.5555429283411392]]",density,black,,,N012,visual,3,[],"['1', '2', '3', '4']",1,2023.2.3,harveyvisual,2.1,[],8,0.75,
0,pause,0.4,None,None,None,0,113,113,113,,,,,,,,,,,,,N012,visual,3,[],"['1', '2', '3', '4']",1,2023.2.3,harveyvisual,2.1,[],8,0.75,
20,dot,0.3,['dot'],['density'],black,0,114,114,114,,,42.30023407936096,42.018994092941284,42.318865060806274,dot,"[0.06, 0.1, 0.1, 0.08, 0.1, 0.1, 0.1, 0.1, 0.08, 0.08, 0.1, 0.1, 0.06, 0.08, 0.08, 0.06, 0.06, 0.06, 0.1, 0.1]","[[-0.2971560520773873, -0.36613706371813237], [0.3728953146795243, 0.2233655231848959], [0.013408917193845404, 0.20642191293809253], [-0.2739497229983509, 0.4179783666732899], [-0.476799611363012, 0.18551896605712143], [0.2955910414748312, 0.5000479031577527], [0.01576535263620016, -0.2860406169047904], [-0.08422887640372012, 0.5813510656578103], [-0.45529715091271195, -0.0671341501620184], [-0.29251869463603236, 0.07305539943190509], [0.05670330441415916, -0.5758201449913714], [0.23968590065938078, -0.3134332971845799], [0.5499435676931735, -0.05333137828063117], [0.1929859991184647, 0.12421441866798211], [0.21366154262125747, -0.06537021732909587], [-0.16050520878307334, -0.5295564232781711], [-0.27082563442222984, -0.14655275864435574], [0.4921079153423088, -0.3472760517251443], [-0.10618379173309273, -0.027765888120971027], [0.09236202266573046, 0.46876841927730806]]",density,black,,,N012,visual,3,[],"['1', '2', '3', '4']",1,2023.2.3,harveyvisual,2.1,[],8,0.75,
0,pause,0.4,None,None,None,0,115,115,115,,,,,,,,,,,,,N012,visual,3,[],"['1', '2', '3', '4']",1,2023.2.3,harveyvisual,2.1,[],8,0.75,
20,dot,0.3,['dot'],['density'],black,0,116,116,116,,,43.00023317337036,42.71888303756714,43.01883506774902,dot,"[0.1, 0.06, 0.08, 0.08, 0.08, 0.08, 0.08, 0.1, 0.1, 0.08, 0.06, 0.06, 0.08, 0.08, 0.08, 0.08, 0.08, 0.1, 0.06, 0.08]","[[0.5968944544406368, -0.0029700653010603095], [-0.5141361549206751, 0.2850212647854504], [0.10744118334398012, -0.2872006594816049], [-0.5724630896041379, 0.044325881939203116], [0.1421263900706814, 0.0953718732415606], [0.4004079326839788, -0.2480593284246864], [0.33524592108993356, -0.44336999501742747], [-0.005085501184259988, 0.31226443942001336], [-0.4954345137750382, -0.3025425753593935], [0.3556783435368114, 0.2058353834107468], [0.24236886281825099, 0.3739790957285547], [0.3941173127666927, -0.01988689685681616], [-0.01754219008438551, -0.060530659872223946], [-0.18383928599848665, -0.3441214202826094], [-0.07764694609036382, 0.5454628646762946], [-0.31444129136720284, 0.4257889440952298], [-0.28775958582074723, -0.5030616653986142], [-0.2622446077539686, -0.14303526757260926], [-0.22467596661543004, 0.12519155541648852], [0.22069301979079026, -0.13307134928191416]]",density,black,,,N012,visual,3,[],"['1', '2', '3', '4']",1,2023.2.3,harveyvisual,2.1,[],8,0.75,
0,pause,0.4,None,None,None,0,117,117,117,,,,,,,,,,,,,N012,visual,3,[],"['1', '2', '3', '4']",1,2023.2.3,harveyvisual,2.1,[],8,0.75,
20,dot,0.3,['dot'],['density'],black,0,118,118,118,,,43.700218200683594,43.418965101242065,43.718847036361694,dot,"[0.08, 0.06, 0.06, 0.06, 0.08, 0.06, 0.06, 0.06, 0.08, 0.1, 0.06, 0.06, 0.08, 0.06, 0.1, 0.06, 0.06, 0.08, 0.06, 0.06]","[[-0.20372410606656466, 0.29795122672604146], [-0.3001743618453516, 0.10471978655912773], [0.5969891725136208, -0.09420369014929995], [-0.0632360340669551, -0.039998160322857856], [0.35968128998080906, -0.3302761834001214], [-0.40793156610839254, -0.3199631919791072], [0.3911342995201965, 0.21275914418587483], [0.12240310933302534, -0.31046825161237657], [-0.4260497930868715, -0.10332019679839577], [-0.06414646724582151, 0.5193903159654558], [0.09776645807672324, -0.5110107214851907], [0.28390015448694894, 0.4704566273051972], [-0.5831094932477497, 0.13154433422361064], [0.020217490573910646, 0.1629950794237094], [0.21473263809652554, -0.012532455919942564], [0.5740948100326445, 0.14063459311072093], [0.4019705254518958, -0.123655469273029], [-0.2300346331021756, -0.41156224622961524], [-0.4287899962790746, 0.2955185240324166], [-0.28227584320724414, 0.5350013589625756]]",density,black,,,N012,visual,3,[],"['1', '2', '3', '4']",1,2023.2.3,harveyvisual,2.1,[],8,0.75,
0,pause,0.4,None,None,None,0,119,119,119,,,,,,,,,,,,,N012,visual,3,[],"['1', '2', '3', '4']",1,2023.2.3,harveyvisual,2.1,[],8,0.75,
20,dot,0.3,['dot'],['density'],white,0,120,120,120,,,44.4002251625061,44.11881709098816,44.41877603530884,dot,"[0.1, 0.1, 0.1, 0.06, 0.08, 0.06, 0.06, 0.1, 0.08, 0.08, 0.08, 0.06, 0.08, 0.08, 0.1, 0.08, 0.08, 0.1, 0.06, 0.06]","[[-0.5128672794999883, -0.004559120820670837], [0.2350246941831523, -0.31194644561175644], [0.5564168211650112, 0.20889909804593937], [0.4794708980816723, -0.28904865858794315], [-0.17237433152812887, 0.12506166805338836], [-0.44902554101402636, 0.19760994305647378], [-0.047752172051721775, -0.5830660568483222], [0.25129902117697356, -0.05703268479753665], [-0.11790972168693781, 0.4654456227832806], [0.3680059163870161, 0.3433305448210714], [0.06153713524461202, 0.13755906471080903], [0.01870492854353134, -0.4042127336898122], [-0.10854442782604823, -0.20395774546047135], [0.20695686889926734, 0.5642191210883524], [0.1873367057093388, -0.5156954499060226], [-0.3497297771472723, -0.3161564498673275], [0.5273677346954001, -0.05362139415380485], [0.06323517795866596, 0.34895811664109333], [-0.3181875774212028, -0.009271694578673273], [0.3795606772861997, 0.09778886436645268]]",density,white,,,N012,visual,3,[],"['1', '2', '3', '4']",1,2023.2.3,harveyvisual,2.1,[],8,0.75,
0,pause,0.4,None,None,None,0,121,121,121,,,,,,,,,,,1,44.58729696273804,N012,visual,3,[],"['1', '2', '3', '4']",1,2023.2.3,harveyvisual,2.1,[],8,0.75,
20,dot,0.3,['dot'],['density'],black,0,122,122,122,,,45.10022211074829,44.81876015663147,45.118778228759766,dot,"[0.06, 0.06, 0.08, 0.08, 0.1, 0.06, 0.1, 0.08, 0.08, 0.08, 0.06, 0.08, 0.06, 0.06, 0.06, 0.06, 0.06, 0.06, 0.1, 0.06]","[[-0.049861189212368595, 0.09399450600741244], [0.34775339329459565, 0.3294753242486804], [0.0010906152655294488, -0.12255123662817918], [0.25231844113258517, -0.11849626316069917], [0.4825104935964283, -0.09029991796445469], [-0.24241990106002465, 0.02788961237192744], [0.2688373716776683, -0.3696200959441327], [-0.18989765523811686, -0.41669613166256414], [-0.2285029374868709, 0.3622922919706528], [-0.5021201901538086, 0.09233640797428405], [-0.4842409428444883, -0.11996680831892026], [0.2053400703449132, 0.4887089188673587], [0.039285612534080916, -0.5587993984497774], [-0.21844954973089353, -0.16111017589848686], [0.587894857090402, 0.11619239543189325], [0.04282226979061965, -0.35129436158673844], [-0.44371283338203515, 0.2738510878827594], [-0.4326334122825282, -0.3554907328805893], [-0.02882550438176501, 0.44169167703975676], [0.23804358521878, 0.09038377959545651]]",density,black,,,N012,visual,3,[],"['1', '2', '3', '4']",1,2023.2.3,harveyvisual,2.1,[],8,0.75,
0,pause,0.4,None,None,None,0,123,123,123,,,,,,,,,,,,,N012,visual,3,[],"['1', '2', '3', '4']",1,2023.2.3,harveyvisual,2.1,[],8,0.75,
20,dot,0.3,['dot'],['density'],black,0,124,124,124,,,45.80022716522217,45.518792152404785,45.81891107559204,dot,"[0.1, 0.08, 0.08, 0.08, 0.06, 0.08, 0.08, 0.06, 0.06, 0.06, 0.08, 0.06, 0.06, 0.08, 0.06, 0.08, 0.1, 0.1, 0.08, 0.1]","[[0.137714549565231, -0.08891787780168159], [0.44486628775013914, -0.21856851280899278], [0.46854978052922236, 0.3794843817972441], [-0.1508841743067723, 0.5396722364730959], [-0.5388676501842996, -0.06379901612555355], [0.2590341183136662, 0.2791380418384136], [-0.16271016069558553, 0.31349798629386605], [-0.2507273858911454, -0.042003779931106044], [-0.526147658711646, 0.2516178651186674], [0.09276528855659616, 0.3952234651039591], [0.20578336125477292, -0.348687361284557], [0.25684628690425526, 0.5087454968813478], [-0.2547237123356878, -0.40931397820030474], [0.5688474841207908, -0.0316055130696031], [-0.44184870371174906, -0.26552770928042957], [0.015624897544495142, -0.48961777270299056], [-0.38829461336508087, 0.44788090316455126], [0.35411876577610046, -0.044136017264537086], [-0.03641792843005642, 0.04220999064890574], [-0.08606176162006629, -0.26192169658537257]]",density,black,,,N012,visual,3,[],"['1', '2', '3', '4']",1,2023.2.3,harveyvisual,2.1,[],8,0.75,
0,pause,0.4,None,None,None,0,125,125,125,,,,,,,,,,,,,N012,visual,3,[],"['1', '2', '3', '4']",1,2023.2.3,harveyvisual,2.1,[],8,0.75,
20,dot,0.3,['dot'],['density'],black,0,126,126,126,,,46.5002121925354,46.21892023086548,46.51890516281128,dot,"[0.1, 0.06, 0.1, 0.08, 0.08, 0.08, 0.1, 0.1, 0.1, 0.1, 0.06, 0.08, 0.06, 0.06, 0.06, 0.06, 0.06, 0.06, 0.08, 0.08]","[[-0.027324659587917077, 0.35084756761743174], [-0.37343099229760657, 0.23255795951989205], [0.28917797285538127, -0.2830916846235988], [-0.24225989861686864, -0.040631493301121924], [0.06266316045349662, -0.12673847424617346], [-0.35711464144907806, -0.20212082067815068], [0.5116667388755335, -0.10372135109696326], [-0.5762761898135927, -0.11104836422626815], [0.5536930401589025, 0.10822815701416105], [0.03994189351123445, -0.5772258373900266], [-0.36075151025765756, -0.4448715211578334], [0.4450462642175589, 0.322389387568914], [-0.08078232968400678, 0.15720788909490746], [0.3213014202023312, -0.06270095272078846], [0.18038845675067905, 0.46295112398139815], [-0.0795659809189323, -0.4286285902805762], [-0.5841722352737629, 0.14221027671258288], [0.5170305444171576, -0.2933111021585501], [-0.22099914867816373, 0.5314172459193943], [0.23276155298886758, 0.17186385063356524]]",density,black,,,N012,visual,3,[],"['1', '2', '3', '4']",1,2023.2.3,harveyvisual,2.1,[],8,0.75,
0,pause,0.4,None,None,None,0,127,127,127,,,,,,,,,,,,,N012,visual,3,[],"['1', '2', '3', '4']",1,2023.2.3,harveyvisual,2.1,[],8,0.75,
20,dot,0.3,['dot'],['density'],black,0,128,128,128,,,47.20021915435791,46.91891002655029,47.21891403198242,dot,"[0.1, 0.1, 0.1, 0.06, 0.1, 0.08, 0.06, 0.1, 0.1, 0.06, 0.1, 0.06, 0.06, 0.1, 0.06, 0.06, 0.06, 0.06, 0.1, 0.06]","[[0.18287397267182104, -0.5724666482643015], [-0.35945564032416555, 0.0575386230611703], [-0.4846514163733222, -0.2671763307042716], [0.22255925507391083, 0.35590953876478026], [0.20022109915599284, -0.002814093753286784], [0.5441520020988638, -0.15669749051729534], [-0.08104188551544156, -0.5651666829735693], [-0.2372505585781597, 0.30822150091305267], [0.5001805862969085, 0.1267609238995076], [-0.050310088091501504, 0.028289013869628343], [-0.533064670493951, 0.1655661550145282], [0.20429780076875204, -0.2874054709041239], [-0.2936926354215566, -0.18307105626267972], [-0.07316529667142746, 0.5620072671311996], [0.007521913135811742, -0.29341991581104193], [-0.03419650198757185, 0.25299011747848155], [-0.595366910642267, -0.029905304676606764], [-0.33898955496793315, -0.4289941135098], [-0.4289987289154772, 0.42300200272023886], [0.4163921909533165, -0.342334990630191]]",density,black,,,N012,visual,3,[],"['1', '2', '3', '4']",1,2023.2.3,harveyvisual,2.1,[],8,0.75,
0,pause,0.4,None,None,None,0,129,129,129,,,,,,,,,,,,,N012,visual,3,[],"['1', '2', '3', '4']",1,2023.2.3,harveyvisual,2.1,[],8,0.75,
20,dot,0.3,['dot'],['density'],black,0,130,130,130,,,47.90021514892578,47.61888599395752,47.91887307167053,dot,"[0.1, 0.06, 0.06, 0.1, 0.08, 0.1, 0.06, 0.08, 0.1, 0.06, 0.06, 0.1, 0.1, 0.06, 0.08, 0.08, 0.1, 0.08, 0.08, 0.1]","[[-0.17814889177512394, -0.27640452412045474], [-0.26480892929914146, -0.08535072842118585], [0.11921956436158443, -0.20868571953688675], [0.4324538625315376, 0.03247586135133673], [-0.09403842903299253, 0.5683256345265196], [0.24083859224859572, -0.5339198428101146], [-0.1330751134514619, 0.09902053907156338], [0.50062965580612, -0.27249765738355175], [-0.4677447320536551, 0.044014670573915504], [0.0846978211889865, 0.35341605887073835], [-0.4349665144008814, -0.18557741709428885], [0.29171691130821165, -0.30668149881390033], [-0.20393371072114586, 0.31019191380684685], [0.4701273575760373, 0.37227751125253394], [0.568975096118976, 0.20028851119314212], [0.22227142325247673, 0.014861283346619292], [-0.005376135288198025, -0.3674425842274729], [-0.41274772330143034, 0.2895813574406616], [-0.271153559340782, 0.4897368487171784], [-0.4299956210500383, -0.42227887646182727]]",density,black,,,N012,visual,3,[],"['1', '2', '3', '4']",1,2023.2.3,harveyvisual,2.1,[],8,0.75,
0,pause,0.4,None,None,None,0,131,131,131,,,,,,,,,,,,,N012,visual,3,[],"['1', '2', '3', '4']",1,2023.2.3,harveyvisual,2.1,[],8,0.75,
20,dot,0.3,['dot'],['density'],black,0,132,132,132,,,48.60021710395813,48.31869602203369,48.618683099746704,dot,"[0.1, 0.06, 0.1, 0.08, 0.06, 0.08, 0.06, 0.08, 0.06, 0.06, 0.1, 0.1, 0.06, 0.08, 0.06, 0.1, 0.1, 0.06, 0.08, 0.06]","[[0.14447921946297448, -0.25877906377364973], [0.30013528064948525, 0.4752091225995432], [0.4747287105873955, 0.04344704156594653], [-0.500230299487857, -0.030379054768596536], [-0.16816236372028492, -0.05465805267361323], [0.0480247384470307, 0.13854526949865553], [-0.29411116191403003, -0.24695838819522958], [0.3277884021860096, 0.23085799152997555], [-0.07037956903266085, -0.5247784661446561], [-0.034941617376525236, 0.5469362559044838], [-0.18782375784919775, 0.24356885462243139], [0.2916487458314311, -0.47356823582550717], [0.36809555144495254, -0.17954265924709562], [-0.5070998298315345, 0.2203668760167708], [-0.5099870034885993, -0.27314608322676004], [0.19717892516970326, 0.013214582171767075], [-0.31204084784397396, -0.4398456726319868], [0.11247714995730729, 0.41935588943792235], [-0.03551175664241335, -0.19497726589607955], [0.5315523595314556, 0.2888376740805177]]",density,black,,,N012,visual,3,[],"['1', '2', '3', '4']",1,2023.2.3,harveyvisual,2.1,[],8,0.75,
0,pause,0.4,None,None,None,0,133,133,133,,,,,,,,,,,,,N012,visual,3,[],"['1', '2', '3', '4']",1,2023.2.3,harveyvisual,2.1,[],8,0.75,
20,dot,0.3,['dot'],['density'],black,0,134,134,134,,,49.300215005874634,49.01870512962341,49.31870222091675,dot,"[0.06, 0.08, 0.1, 0.08, 0.1, 0.06, 0.08, 0.06, 0.06, 0.1, 0.1, 0.1, 0.06, 0.1, 0.08, 0.06, 0.08, 0.06, 0.1, 0.1]","[[0.5446658479515706, -0.035982827656828226], [-0.0490573874093293, 0.12862564671245602], [0.3101976988009353, -0.48407549279918544], [-0.5695598778597429, 0.017868739994914146], [-0.014524808724755811, -0.505279653009774], [0.35364025290767187, 0.4375766669875593], [0.28683552311771965, 0.0038111389796799955], [-0.11158589430304278, 0.5794279954260896], [-0.014748803999455995, -0.2174718478448563], [-0.00861743097283496, 0.3897819200111281], [-0.31175010263844444, -0.4483624101297705], [-0.3459601694418636, 0.34192120000034915], [-0.3473429373077469, 0.03711616733652462], [0.13846390361767602, 0.5314722793702238], [0.4541813296547431, 0.21104185290683747], [0.18683004902825417, -0.28417451009216155], [0.45883859156412854, -0.28181213877775485], [-0.49123726968424336, -0.2914834654143687], [-0.27364432976951436, -0.20605922546447525], [0.2059844584931474, 0.27585907605279236]]",density,black,,,N012,visual,3,[],"['1', '2', '3', '4']",1,2023.2.3,harveyvisual,2.1,[],8,0.75,
0,pause,0.4,None,None,None,0,135,135,135,,,,,,,,,,,,,N012,visual,3,[],"['1', '2', '3', '4']",1,2023.2.3,harveyvisual,2.1,[],8,0.75,
20,dot,0.3,['dot'],['density'],black,0,136,136,136,,,50.00022506713867,49.7188241481781,50.01880407333374,dot,"[0.08, 0.1, 0.08, 0.1, 0.1, 0.1, 0.08, 0.08, 0.08, 0.08, 0.08, 0.08, 0.08, 0.1, 0.08, 0.1, 0.08, 0.1, 0.1, 0.06]","[[0.22573718222543504, -0.5521987179789539], [-0.00014390296476896047, 0.2961908534624236], [-0.47242091358620864, -0.15075307618211967], [0.4244400940805805, -0.21590108928551113], [-0.24689538195789784, -0.2921680486582894], [0.226353420005035, -0.26391472986304915], [-0.23584190419630596, 0.17693023647485573], [0.20418029752567202, 0.5206369353279644], [0.011661633243807645, -0.554240324813764], [0.4689912984923065, 0.3213522211169753], [0.003458642832327441, -0.34456478485829994], [0.26075192717417894, -0.04936886422864245], [0.01303440985104587, -0.03426383693055024], [-0.2664028473932189, -0.05445799899963544], [-0.24875064137701325, 0.4202724947995049], [0.5944267710653378, -0.027191095752204034], [0.30739907636391683, 0.17385882566805944], [-0.05194226042654404, 0.59133515738664], [-0.523874342422365, 0.23110035061069634], [-0.6025004854095165, -0.0009194843059242286]]",density,black,,,N012,visual,3,[],"['1', '2', '3', '4']",1,2023.2.3,harveyvisual,2.1,[],8,0.75,
0,pause,0.4,None,None,None,0,137,137,137,,,,,,,,,,,,,N012,visual,3,[],"['1', '2', '3', '4']",1,2023.2.3,harveyvisual,2.1,[],8,0.75,
20,dot,0.3,['dot'],['density'],black,0,138,138,138,,,50.70020914077759,50.418673038482666,50.718658208847046,dot,"[0.06, 0.06, 0.08, 0.1, 0.08, 0.08, 0.1, 0.08, 0.08, 0.06, 0.1, 0.08, 0.06, 0.1, 0.06, 0.06, 0.08, 0.06, 0.06, 0.1]","[[0.038843120696360534, -0.4100907166262003], [0.4805915636875605, -0.0750149532350533], [-0.12569478300450487, -0.0800648039542442], [0.13048617668757823, 0.08030909063256053], [0.46330891403764685, 0.3413468412726909], [-0.5096919621369558, 0.10419957145036685], [0.34262044123158986, -0.28783517755730226], [0.1591494605985737, -0.12283587084686304], [-0.06074977190433517, 0.4231605895612318], [0.22894465220608617, -0.4632422412349959], [-0.4112691644998234, -0.0836048915224345], [0.2005568205803563, 0.3148879616109146], [-0.36541835647298504, 0.31569611866580677], [0.4039536274116703, 0.10773866622834294], [-0.3053256701750714, -0.5196117738137425], [0.2725004993191956, 0.4999080837716783], [-0.27367105029427896, -0.323339709737023], [-0.08544785515958253, -0.5758711901951299], [-0.47122559820290005, -0.3422400755664256], [-0.10522649029402054, 0.18898647541536673]]",density,black,,,N012,visual,3,[],"['1', '2', '3', '4']",1,2023.2.3,harveyvisual,2.1,[],8,0.75,
0,pause,0.4,None,None,None,0,139,139,139,,,,,,,,,,,,,N012,visual,3,[],"['1', '2', '3', '4']",1,2023.2.3,harveyvisual,2.1,[],8,0.75,
20,dot,0.3,['dot'],['density'],black,0,140,140,140,,,51.40023112297058,51.11865019798279,51.41863822937012,dot,"[0.06, 0.1, 0.08, 0.06, 0.06, 0.1, 0.06, 0.08, 0.06, 0.08, 0.08, 0.1, 0.08, 0.06, 0.1, 0.08, 0.1, 0.06, 0.06, 0.06]","[[-0.33325318840315654, -0.06092709271417146], [0.16942817594409565, -0.25418829753310457], [0.5834230447558141, 0.07242502375526105], [0.3631735957701121, -0.3445334784170486], [-0.019533288130245463, 0.47411771362263155], [-0.1551580429974947, 0.08935908241818313], [-0.08783284856185936, -0.299573783502994], [0.040824938751745754, 0.13953051726782284], [0.21392399032654785, -0.02590288821434461], [-0.4453515846247672, 0.18088053806273763], [-0.23791355324106062, -0.4799130794323735], [0.1814663215969442, -0.45449762322146675], [-0.005864421554514054, -0.09303191898879293], [-0.03557490129706109, -0.5245663147457348], [0.32284865064589985, 0.34097824251028674], [-0.4953095616635941, -0.264254535902532], [-0.23564166933036734, 0.46362604283563624], [-0.6040132185396405, 0.015046939670284407], [0.2624132745921398, 0.545321507861924], [0.5765330307001696, -0.16673104095872307]]",density,black,,,N012,visual,3,[],"['1', '2', '3', '4']",1,2023.2.3,harveyvisual,2.1,[],8,0.75,
0,pause,0.4,None,None,None,0,141,141,141,,,,,,,,,,,,,N012,visual,3,[],"['1', '2', '3', '4']",1,2023.2.3,harveyvisual,2.1,[],8,0.75,
20,dot,0.3,['dot'],['density'],black,0,142,142,142,,,52.10020899772644,51.8186399936676,52.11858916282654,dot,"[0.1, 0.06, 0.06, 0.06, 0.06, 0.06, 0.1, 0.06, 0.08, 0.1, 0.1, 0.06, 0.1, 0.06, 0.1, 0.08, 0.08, 0.08, 0.1, 0.06]","[[-0.22059463142159252, 0.4875467808023003], [0.36400836414360604, -0.16574238300667843], [-0.40867897293949923, -0.0667757560213465], [-0.3475652826695423, 0.2391172712143349], [-0.021080857081115734, 0.4564093360390382], [0.09861233888197585, 0.2867693598324922], [0.46310724552687155, 0.060357835741428], [-0.020527435188050447, -0.2312261641234386], [-0.4498713821800959, -0.373170386259702], [-0.20739974606646838, 0.08986055798751647], [-0.013093528941353183, -0.5710652812733832], [0.25562358183140943, -0.3833573475820402], [0.24309551679671038, 0.045453596571863875], [0.3984972017484302, 0.3212986419516071], [0.5568391897060326, -0.21747342104042286], [-0.5239353057553283, 0.10335291468874519], [0.21310554415053384, 0.45483969300820903], [-0.5580144785827442, -0.19438313229974089], [-0.22703086096493358, -0.3503857073206841], [0.00011242126414079401, 0.11557149004937706]]",density,black,,,N012,visual,3,[],"['1', '2', '3', '4']",1,2023.2.3,harveyvisual,2.1,[],8,0.75,
0,pause,0.4,None,None,None,0,143,143,143,,,,,,,,,,,,,N012,visual,3,[],"['1', '2', '3', '4']",1,2023.2.3,harveyvisual,2.1,[],8,0.75,
20,dot,0.3,['dot'],['density'],black,0,144,144,144,,,52.800233125686646,52.51859903335571,52.81863808631897,dot,"[0.06, 0.08, 0.1, 0.06, 0.06, 0.06, 0.1, 0.1, 0.08, 0.1, 0.06, 0.08, 0.1, 0.08, 0.06, 0.08, 0.08, 0.08, 0.1, 0.1]","[[-0.3394222948187984, 0.12245245568398755], [0.2876869558798204, 0.5297271952312176], [-0.5208400048876314, -0.0271322866119324], [-0.3848568762539007, -0.17279897849294257], [0.4639281250877859, -0.03640016225340981], [0.3468819849400401, 0.2563832873153982], [0.5390658473629754, -0.26443456899546264], [0.17164310753288048, -0.20753600351832152], [-0.19858647982480704, -0.3101248072662768], [0.2641870910953764, 0.00537950993197589], [0.06017696629346747, -0.007875572480575244], [0.023628927904378205, 0.24573568337278962], [-0.1552826221239278, 0.07310460776129935], [0.17185459899256395, -0.4657566245819328], [0.0043178042980213105, -0.5677645817076449], [-0.2028853483344626, 0.3331131317410899], [0.11967878751006233, 0.43280369410445063], [-0.4972877977734661, 0.2636056821336602], [-0.22857951650656239, -0.5038142680614498], [-0.04865114859929176, 0.5921829778671781]]",density,black,,,N012,visual,3,[],"['1', '2', '3', '4']",1,2023.2.3,harveyvisual,2.1,[],8,0.75,
0,pause,0.4,None,None,None,0,145,145,145,,,,,,,,,,,,,N012,visual,3,[],"['1', '2', '3', '4']",1,2023.2.3,harveyvisual,2.1,[],8,0.75,
20,dot,0.3,['dot'],['density'],white,0,146,146,146,,,53.50022220611572,53.21858310699463,53.51857113838196,dot,"[0.06, 0.06, 0.08, 0.08, 0.08, 0.1, 0.1, 0.08, 0.08, 0.08, 0.06, 0.06, 0.1, 0.1, 0.1, 0.08, 0.1, 0.1, 0.08, 0.08]","[[-0.46042082976576626, -0.05169176481944321], [-0.522044912786039, 0.23306228680040575], [-0.07007085311070493, -0.337931413590233], [0.3730453081848537, -0.20736020845423192], [0.23581155760994055, 0.3218782579971814], [-0.25679612899052845, -0.455796071205827], [-0.4545798483620791, -0.34360531760572316], [-0.0054095453651081815, 0.5019211076347534], [0.05649007627686453, 0.10534649675903296], [-0.09388403454538197, 0.3297663604079145], [0.30546792167004777, -0.464631003775403], [0.14488367160760895, -0.12797546285253342], [0.5675984960289363, -0.1840831517364557], [-0.2879090684067509, 0.07914510431172683], [0.42155840366055897, 0.11560858875043512], [-0.23905337644059954, -0.18394463564635416], [0.602306589579349, 0.032853875926369985], [-0.3058936770953286, 0.4828542259317996], [-0.3310732772386557, 0.2736952656384306], [0.024535134546475157, -0.5555349312695231]]",density,white,,,N012,visual,3,[],"['1', '2', '3', '4']",1,2023.2.3,harveyvisual,2.1,[],8,0.75,
0,pause,0.4,None,None,None,0,147,147,147,,,,,,,,,,,,,N012,visual,3,[],"['1', '2', '3', '4']",1,2023.2.3,harveyvisual,2.1,[],8,0.75,
20,dot,0.3,['dot'],['density'],black,0,148,148,148,,,54.200226068496704,53.91856622695923,54.218538999557495,dot,"[0.1, 0.06, 0.08, 0.08, 0.06, 0.06, 0.08, 0.06, 0.1, 0.06, 0.06, 0.1, 0.06, 0.08, 0.06, 0.08, 0.08, 0.06, 0.1, 0.06]","[[0.48729336471109075, -0.2904335763923057], [0.4253582938935002, 0.09723133252177357], [-0.06092219632481255, -0.20750095764039583], [-0.024245148969335717, 0.4111661712190904], [-0.23965481616318562, 0.14957896025422512], [-0.33472138421386105, 0.3739147531669902], [-0.5391451135299896, 0.11690133738086228], [0.36944306912352587, 0.2937311215713078], [-0.16428180045352858, 0.5823817021763891], [0.05457752681754624, -0.4429362450156605], [-0.470976244644329, -0.342036536700217], [-0.027676804717124304, 0.09887694909552835], [0.6047088017904886, -0.01848342528894284], [0.30096388864886603, -0.16850659727461637], [-0.2414655719628903, -0.2870234244390158], [0.1499252980720447, 0.24176964969650594], [-0.3997329288541562, -0.11937150397360757], [0.2768981900013592, -0.4692062778431502], [0.2492264594198883, 0.018323608921979928], [-0.20769643456545922, -0.4954247225278818]]",density,black,,,N012,visual,3,[],"['1', '2', '3', '4']",1,2023.2.3,harveyvisual,2.1,[],8,0.75,
0,pause,0.4,None,None,None,0,149,149,149,,,,,,,,,,,,,N012,visual,3,[],"['1', '2', '3', '4']",1,2023.2.3,harveyvisual,2.1,[],8,0.75,
20,dot,0.3,['dot'],['density'],black,0,150,150,150,,,54.90020799636841,54.61857604980469,54.918562173843384,dot,"[0.08, 0.1, 0.08, 0.08, 0.08, 0.06, 0.1, 0.06, 0.08, 0.1, 0.1, 0.06, 0.1, 0.08, 0.1, 0.08, 0.06, 0.1, 0.08, 0.08]","[[-0.4146484377165627, 0.16817235239013117], [0.3832880284915602, -0.28529147363920876], [0.5748773415546015, -0.15909466522693672], [-0.2785968773230936, -0.12507551768667774], [-0.22459830649534662, 0.2085463485838126], [0.06060464581108704, 0.5834133073138067], [-0.560358130152412, -0.2139568248041788], [0.5137030966789297, 0.10027570786227424], [-0.13117366408692926, -0.3985698591064275], [0.27790795218723985, 0.10498206333543902], [-0.5973181117575995, 0.06800821431943212], [0.09289423943935082, -0.2162900440190073], [-0.23661712866101198, 0.5111778233863552], [-0.4393681517145803, 0.3953329271410252], [0.11595531555867022, -0.5754934924440214], [0.21467374899370384, 0.3204356258940606], [0.03342567879664371, 0.1078186754066176], [0.4766431789346216, 0.3257214857873812], [-0.10248453951640835, 0.35339222718226626], [-0.38349634018019285, -0.38245923849330166]]",density,black,,,N012,visual,3,[],"['1', '2', '3', '4']",1,2023.2.3,harveyvisual,2.1,[],8,0.75,
0,pause,0.4,None,None,None,0,151,151,151,,,,,,,,,,,,,N012,visual,3,[],"['1', '2', '3', '4']",1,2023.2.3,harveyvisual,2.1,[],8,0.75,
20,dot,0.3,['dot'],['density'],black,0,152,152,152,,,55.60022306442261,55.31855916976929,55.61854100227356,dot,"[0.1, 0.08, 0.1, 0.06, 0.1, 0.08, 0.1, 0.08, 0.08, 0.06, 0.08, 0.08, 0.08, 0.1, 0.06, 0.08, 0.1, 0.06, 0.06, 0.1]","[[-0.03782810548643789, 0.06859190682935723], [0.09555526178993501, 0.5683906496946278], [0.07650557369321931, -0.111064459505675], [-0.5072762003927387, -0.22823706556783316], [0.42748775100109626, 0.28694426503517984], [-0.4449569105726585, -0.023633284975093816], [-0.12993143860184775, -0.1909087584350369], [-0.14667070891864342, 0.3421285682288979], [0.3164861089600295, 0.06902625322350353], [-0.5208593144127392, 0.18789908904990554], [0.5412783745328175, 0.0023553710282435136], [0.2694541271608728, -0.43196810342714576], [-0.06822038411137499, -0.5030907800959791], [-0.33234035715035376, -0.4938512400844019], [0.11596025159861678, 0.36976258384414395], [0.4430504912122949, -0.2868515095186954], [-0.21257417180183374, 0.5346513676180117], [-0.22160701684254364, 0.1384236586576495], [0.284760466864977, 0.4927062356916181], [-0.3902060521188755, 0.35161338032436656]]",density,black,,,N012,visual,3,[],"['1', '2', '3', '4']",1,2023.2.3,harveyvisual,2.1,[],8,0.75,
0,pause,0.4,None,None,None,0,153,153,153,,,,,,,,,,,,,N012,visual,3,[],"['1', '2', '3', '4']",1,2023.2.3,harveyvisual,2.1,[],8,0.75,
20,dot,0.3,['dot'],['density'],black,0,154,154,154,,,56.30023217201233,56.01853799819946,56.318761110305786,dot,"[0.06, 0.08, 0.06, 0.1, 0.1, 0.06, 0.1, 0.1, 0.1, 0.1, 0.06, 0.1, 0.08, 0.1, 0.06, 0.1, 0.08, 0.08, 0.1, 0.1]","[[-0.3989984348115737, -0.4280381227536938], [-0.13514888944629655, -0.3916905650810195], [0.48428066985422114, 0.15158972002301513], [0.3151606857813083, 0.3493519997700145], [-0.36150625091435784, 0.20953999527052236], [0.1435178558695267, -0.4355128682564178], [-0.5900355173062808, -0.11397642248674221], [0.5471340298227706, -0.25177110602647834], [-0.15515345820237275, 0.3448836233830047], [0.3527441514528822, -0.4616088901024185], [0.06610917137897665, 0.20092842169583036], [-0.021391062389599202, -0.12507771734051554], [0.25276011447805835, 0.027609177562657572], [-0.37019934504805324, 0.44450144298959193], [-0.1501333152037828, 0.029368496583627723], [0.3459650043822252, -0.15151720152435966], [-0.41529946207571483, -0.2285937374944399], [-0.18303921391265654, 0.5486936693532045], [-0.5280386755256297, 0.09639324523732334], [0.22143884815793669, 0.5586464902471245]]",density,black,,,N012,visual,3,[],"['1', '2', '3', '4']",1,2023.2.3,harveyvisual,2.1,[],8,0.75,
0,pause,0.4,None,None,None,0,155,155,155,,,,,,,,,,,,,N012,visual,3,[],"['1', '2', '3', '4']",1,2023.2.3,harveyvisual,2.1,[],8,0.75,
9,dot,0.3,['dot'],['density'],black,0,156,156,156,,,57.00022101402283,56.71875214576721,57.01875615119934,dot,"[0.06, 0.06, 0.1, 0.06, 0.06, 0.06, 0.1, 0.08, 0.06]","[[0.08305850914464513, -0.5442468290176591], [0.035628337695759515, -0.10623885656661826], [-0.40455734034313895, -0.4103448572564978], [-0.27695520492017833, -0.22921059622728732], [-0.0679181879583315, -0.31282249044743377], [0.15394835823740735, -0.27999833282003045], [0.36545074601266236, -0.2024769979494575], [-0.18616414474285772, -0.004612976462616847], [-0.15152437179077458, -0.5570863580044498]]",density,black,,,N012,visual,3,[],"['1', '2', '3', '4']",1,2023.2.3,harveyvisual,2.1,[],8,0.75,
0,pause,0.4,None,None,None,0,157,157,157,,,,,,,,,,,,,N012,visual,3,[],"['1', '2', '3', '4']",1,2023.2.3,harveyvisual,2.1,[],8,0.75,
9,dot,0.3,['dot'],['density'],black,0,158,158,158,,,57.700226068496704,57.418490171432495,57.718478202819824,dot,"[0.08, 0.06, 0.1, 0.08, 0.1, 0.08, 0.08, 0.06, 0.06]","[[-0.01550530976013749, -0.4685693709261764], [-0.18673980358629047, -0.03677939788938074], [-0.492500386343057, -0.31631588298646995], [-0.31211872613566405, -0.49615226168915794], [-0.29213402726227655, -0.2779210730957987], [-0.48141959868665407, -0.11483975315711048], [0.2805727548720413, -0.20550850813502752], [-0.0662162642732561, -0.2200496541038322], [0.06776853683421198, -0.046300179137656175]]",density,black,,,N012,visual,3,[],"['1', '2', '3', '4']",1,2023.2.3,harveyvisual,2.1,[],8,0.75,
0,pause,0.4,None,None,None,0,159,159,159,,,,,,,,,,,,,N012,visual,3,[],"['1', '2', '3', '4']",1,2023.2.3,harveyvisual,2.1,[],8,0.75,
9,dot,0.3,['dot'],['density'],black,0,160,160,160,,,58.40021800994873,58.118488073349,58.41842603683472,dot,"[0.06, 0.08, 0.06, 0.08, 0.08, 0.06, 0.1, 0.06, 0.1]","[[-0.2844843713072754, 0.22325415166673976], [-0.1819235275981482, -0.2724209396165719], [-0.4663757242286994, 0.0951888680112534], [-0.002662519752874684, 0.12526046944360225], [-0.2804516333182533, -0.07461618094684651], [-0.06266188203573825, -0.10246171469469513], [0.05562179911838863, -0.3774952117829348], [-0.29777175193284133, -0.43797360937606633], [-0.44596842075831894, -0.24145786298940805]]",density,black,,,N012,visual,3,[],"['1', '2', '3', '4']",1,2023.2.3,harveyvisual,2.1,[],8,0.75,
0,pause,0.4,None,None,None,0,161,161,161,,,,,,,,,,,,,N012,visual,3,[],"['1', '2', '3', '4']",1,2023.2.3,harveyvisual,2.1,[],8,0.75,
9,dot,0.3,['dot'],['density'],black,0,162,162,162,,,59.10021901130676,58.81846499443054,59.11841416358948,dot,"[0.06, 0.06, 0.08, 0.06, 0.1, 0.06, 0.08, 0.06, 0.1]","[[-0.011980588702785358, -0.14271344386551676], [-0.15345504415890063, -0.3599837049237609], [0.2909474261289129, -0.3591516282942406], [0.16239073734315843, -0.5386624114967425], [0.2227638828830022, -0.11271380419745088], [0.06426208015886789, 0.04859175461581491], [-0.3648571389210414, -0.3413683676300365], [0.3831858227582706, 0.019718563726728144], [0.06479696894599615, -0.3534524636945761]]",density,black,,,N012,visual,3,[],"['1', '2', '3', '4']",1,2023.2.3,harveyvisual,2.1,[],8,0.75,
0,pause,0.4,None,None,None,0,163,163,163,,,,,,,,,,,,,N012,visual,3,[],"['1', '2', '3', '4']",1,2023.2.3,harveyvisual,2.1,[],8,0.75,
9,dot,0.3,['dot'],['density'],black,0,164,164,164,,,59.80023908615112,59.51842904090881,59.81848621368408,dot,"[0.06, 0.1, 0.1, 0.08, 0.1, 0.1, 0.08, 0.08, 0.1]","[[0.5610971552988853, -0.17060184332349634], [0.41375718760989944, -0.015869013459887487], [0.10524493337967332, -0.4151143617417518], [0.33762937987512565, -0.21166948995529247], [0.31978246251342735, -0.42403070142702926], [0.14918584865882126, 0.054317793641313596], [-0.13687229080136074, -0.3544767643123256], [-0.14284940328496695, -0.15361328447573858], [0.09035025664413378, -0.16809195260635462]]",density,black,,,N012,visual,3,[],"['1', '2', '3', '4']",1,2023.2.3,harveyvisual,2.1,[],8,0.75,
0,pause,0.4,None,None,None,0,165,165,165,,,,,,,,,,,,,N012,visual,3,[],"['1', '2', '3', '4']",1,2023.2.3,harveyvisual,2.1,[],8,0.75,
9,dot,0.3,['dot'],['density'],black,0,166,166,166,,,60.50023007392883,60.218414068222046,60.518402099609375,dot,"[0.06, 0.06, 0.1, 0.08, 0.06, 0.08, 0.06, 0.08, 0.06]","[[0.34043128493099817, 0.2271075800100716], [0.2702764120171402, -0.10456749967376819], [-0.1274635928921129, -0.04210317806044915], [-0.03460273614387521, 0.1795356259369138], [0.14470969472881007, 0.3391925298523705], [0.06761060508642219, 0.0060094309834155335], [0.5117869412029185, -0.12050585585317111], [0.07404675892906432, -0.22660478390602867], [0.35723900661310204, -0.3185591288757]]",density,black,,,N012,visual,3,[],"['1', '2', '3', '4']",1,2023.2.3,harveyvisual,2.1,[],8,0.75,
0,pause,0.4,None,None,None,0,167,167,167,,,,,,,,,,,,,N012,visual,3,[],"['1', '2', '3', '4']",1,2023.2.3,harveyvisual,2.1,[],8,0.75,
8,dot,0.3,['dot'],['density'],black,0,168,168,168,,,61.200228214263916,60.91841912269592,61.218372106552124,dot,"[0.1, 0.08, 0.06, 0.08, 0.1, 0.1, 0.08, 0.06]","[[0.2715518471235014, -0.4245138665073026], [0.03602391524707561, -0.40638782213015096], [0.4828297141312073, -0.09119901312376678], [0.02835794216237903, 0.028275321652194735], [-0.0895445032969687, -0.19822740391127236], [0.3178997883629752, 0.08245100984997318], [0.21920060966397442, -0.22342839817001514], [0.46807969757011175, -0.32427319705723295]]",density,black,,,N012,visual,3,[],"['1', '2', '3', '4']",1,2023.2.3,harveyvisual,2.1,[],8,0.75,
0,pause,0.4,None,None,None,0,169,169,169,,,,,,,,,,,,,N012,visual,3,[],"['1', '2', '3', '4']",1,2023.2.3,harveyvisual,2.1,[],8,0.75,
8,dot,0.3,['dot'],['density'],black,0,170,170,170,,,61.900227069854736,61.61838221549988,61.91837406158447,dot,"[0.08, 0.06, 0.1, 0.06, 0.06, 0.08, 0.08, 0.06]","[[-0.19427332908310624, 0.44975086906229733], [-0.40583056883657587, 0.41268852933836647], [-0.1064323235824443, 0.09134240931295125], [0.037438273390647224, 0.2873761216870531], [-0.27580465694358225, 0.2567900319995576], [0.047234249799456944, 0.4983172858691376], [0.15563182967593078, 0.1192504703698398], [-0.32834908909536226, -0.014402300111889832]]",density,black,,,N012,visual,3,[],"['1', '2', '3', '4']",1,2023.2.3,harveyvisual,2.1,[],8,0.75,
0,pause,0.4,None,None,None,0,171,171,171,,,,,,,,,,,,,N012,visual,3,[],"['1', '2', '3', '4']",1,2023.2.3,harveyvisual,2.1,[],8,0.75,
8,dot,0.3,['dot'],['density'],black,0,172,172,172,,,62.60023212432861,62.31835412979126,62.61835718154907,dot,"[0.06, 0.1, 0.1, 0.06, 0.06, 0.08, 0.06, 0.08]","[[-0.43120034012996816, -0.3965796075128045], [0.1478983624034229, -0.46770986256388064], [-0.23058307999139557, -0.3238539366063682], [-0.07988642296593639, -0.13993938361429092], [-0.08664795903044427, -0.5418074813242995], [0.11879255589163208, -0.1637425359681226], [-0.09873641234556067, 0.08705286872936738], [-0.025120016651009644, -0.34045580780112095]]",density,black,,,N012,visual,3,[],"['1', '2', '3', '4']",1,2023.2.3,harveyvisual,2.1,[],8,0.75,
0,pause,0.4,None,None,None,0,173,173,173,,,,,,,,,,,,,N012,visual,3,[],"['1', '2', '3', '4']",1,2023.2.3,harveyvisual,2.1,[],8,0.75,
8,dot,0.3,['dot'],['density'],black,0,174,174,174,,,63.300236225128174,63.018336057662964,63.31838607788086,dot,"[0.1, 0.08, 0.08, 0.1, 0.06, 0.1, 0.06, 0.06]","[[-0.258715538922871, 0.3828151050353194], [-0.4384035523576633, -0.18689856672911037], [-0.5586779833045601, 0.15056420889708766], [-0.1699372658897842, -0.04883432605429875], [-0.36053016753151684, 0.02858569738219561], [-0.199221799186684, 0.1876786431210615], [0.004458053620249285, 0.1240038339062716], [0.019420137312414813, -0.16023679021787893]]",density,black,,,N012,visual,3,[],"['1', '2', '3', '4']",1,2023.2.3,harveyvisual,2.1,[],8,0.75,
0,pause,0.4,None,None,None,0,175,175,175,,,,,,,,,,,,,N012,visual,3,[],"['1', '2', '3', '4']",1,2023.2.3,harveyvisual,2.1,[],8,0.75,
8,dot,0.3,['dot'],['density'],black,0,176,176,176,,,64.00021409988403,63.71833515167236,64.01832914352417,dot,"[0.08, 0.06, 0.1, 0.1, 0.1, 0.08, 0.1, 0.1]","[[-0.2875956673588428, -0.37608972473646446], [0.1738442798715151, -0.5418380206356169], [-0.005791994605287101, -0.36400925298789194], [0.15381919852689818, -0.2106776783026027], [-0.02243369038452208, -0.11017027562433494], [-0.1375601387891928, -0.5383184991665005], [0.3481619806761259, -0.4256719133417836], [-0.2437856683810358, -0.16373273019932677]]",density,black,,,N012,visual,3,[],"['1', '2', '3', '4']",1,2023.2.3,harveyvisual,2.1,[],8,0.75,
0,pause,0.4,None,None,None,0,177,177,177,,,,,,,,,,,,,N012,visual,3,[],"['1', '2', '3', '4']",1,2023.2.3,harveyvisual,2.1,[],8,0.75,
8,dot,0.3,['dot'],['density'],white,0,178,178,178,,,64.7002260684967,64.41837310791016,64.71829319000244,dot,"[0.06, 0.06, 0.1, 0.08, 0.1, 0.06, 0.08, 0.06]","[[0.11895989691250043, -0.4531686673706004], [-0.16516506104640707, -0.03240926074491446], [0.03539791161122963, 0.017706842047032937], [0.2602726326243711, -0.2021454296306109], [-0.07993394910368964, -0.42305571474287856], [-0.2833532244481061, -0.22994433794129646], [0.3633812293108319, -0.4186270945829863], [-0.04042382183071007, -0.1991401458565282]]",density,white,,,N012,visual,3,[],"['1', '2', '3', '4']",1,2023.2.3,harveyvisual,2.1,[],8,0.75,
0,pause,0.4,None,None,None,0,179,179,179,,,,,,,,,,,,,N012,visual,3,[],"['1', '2', '3', '4']",1,2023.2.3,harveyvisual,2.1,[],8,0.75,
7,dot,0.3,['dot'],['density'],black,0,180,180,180,,,65.40026211738586,65.11831212043762,65.41827011108398,dot,"[0.06, 0.1, 0.06, 0.06, 0.1, 0.1, 0.06]","[[0.373835093542847, 0.13553027784675922], [0.025265531087721685, -0.15487691700731251], [0.38086488534306906, -0.0720131222026176], [0.4315741710459581, -0.28075472739566504], [0.18097069018870113, 0.01647246612045595], [0.1962900518120967, -0.2624101628120604], [0.08955660480178401, 0.2127528718980948]]",density,black,1,65.10787105560303,N012,visual,3,[],"['1', '2', '3', '4']",1,2023.2.3,harveyvisual,2.1,[],8,0.75,
0,pause,0.4,None,None,None,0,181,181,181,,,,,,,,,,,,,N012,visual,3,[],"['1', '2', '3', '4']",1,2023.2.3,harveyvisual,2.1,[],8,0.75,
7,dot,0.3,['dot'],['density'],black,0,182,182,182,,,66.10021114349365,65.81827521324158,66.11826610565186,dot,"[0.1, 0.1, 0.08, 0.08, 0.08, 0.06, 0.08]","[[-0.23022292756182125, -0.05768485575552839], [-0.3970021412728509, -0.1722837668104814], [-0.2989980436724142, -0.5015189566068301], [-0.1887121522124618, -0.3052937986494308], [-0.001193606839323686, -0.45187687349833133], [-0.45251418858811787, -0.367940027934103], [0.11213422846620591, -0.19711986939188722]]",density,black,,,N012,visual,3,[],"['1', '2', '3', '4']",1,2023.2.3,harveyvisual,2.1,[],8,0.75,
0,pause,0.4,None,None,None,0,183,183,183,,,,,,,,,,,,,N012,visual,3,[],"['1', '2', '3', '4']",1,2023.2.3,harveyvisual,2.1,[],8,0.75,
7,dot,0.3,['dot'],['density'],black,0,184,184,184,,,66.80023121833801,66.5182580947876,66.81937623023987,dot,"[0.08, 0.06, 0.08, 0.08, 0.08, 0.1, 0.1]","[[0.3899189512010899, -0.40728696153528776], [0.20392863561369634, -0.3305625840210526], [0.31626985815109576, 0.13567824844623666], [0.5017338684339655, -0.028549680114735937], [0.11648855723187378, -0.1078833072829627], [0.07041138378868489, 0.08730219371944997], [0.32910598476010167, -0.13660711058181768]]",density,black,,,N012,visual,3,[],"['1', '2', '3', '4']",1,2023.2.3,harveyvisual,2.1,[],8,0.75,
0,pause,0.4,None,None,None,0,185,185,185,,,,,,,,,,,,,N012,visual,3,[],"['1', '2', '3', '4']",1,2023.2.3,harveyvisual,2.1,[],8,0.75,
7,dot,0.3,['dot'],['density'],black,0,186,186,186,,,67.50021505355835,67.21823501586914,67.51823616027832,dot,"[0.08, 0.08, 0.08, 0.1, 0.08, 0.08, 0.08]","[[0.3032073476866497, 0.39528308644852606], [0.12977480624643314, 0.5338553612741447], [-0.07830532742558233, 0.5277294273979773], [0.000705909343175084, 0.04538848857330666], [-0.11442247498636825, 0.3203087976624053], [0.11424952152856681, 0.31372813630522095], [0.2743618672110132, 0.19233036806743029]]",density,black,,,N012,visual,3,[],"['1', '2', '3', '4']",1,2023.2.3,harveyvisual,2.1,[],8,0.75,
0,pause,0.4,None,None,None,0,187,187,187,,,,,,,,,,,,,N012,visual,3,[],"['1', '2', '3', '4']",1,2023.2.3,harveyvisual,2.1,[],8,0.75,
7,dot,0.3,['dot'],['density'],white,0,188,188,188,,,68.20021104812622,67.91825604438782,68.21821403503418,dot,"[0.08, 0.06, 0.08, 0.1, 0.06, 0.08, 0.06]","[[-0.27819289690075527, 0.2483046813246476], [-0.5592260237138849, -0.07980801324287977], [-0.026637344717372308, -0.10521889364121585], [-0.16909952645659185, 0.05101222878256789], [-0.21868546305501066, -0.16482274839932262], [-0.3689572500107929, 0.03738969849335829], [-0.49227831811218986, 0.2063327632277477]]",density,white,,,N012,visual,3,[],"['1', '2', '3', '4']",1,2023.2.3,harveyvisual,2.1,[],8,0.75,
0,pause,0.4,None,None,None,0,189,189,189,,,,,,,,,,,1,68.462317943573,N012,visual,3,[],"['1', '2', '3', '4']",1,2023.2.3,harveyvisual,2.1,[],8,0.75,
7,dot,0.3,['dot'],['density'],white,0,190,190,190,,,68.90023922920227,68.61818718910217,68.91817903518677,dot,"[0.1, 0.06, 0.1, 0.08, 0.06, 0.06, 0.06]","[[-0.27819289690075527, 0.2483046813246476], [-0.5592260237138849, -0.07980801324287977], [-0.026637344717372308, -0.10521889364121585], [-0.16909952645659185, 0.05101222878256789], [-0.21868546305501066, -0.16482274839932262], [-0.3689572500107929, 0.03738969849335829], [-0.49227831811218986, 0.2063327632277477]]",density,white,,,N012,visual,3,[],"['1', '2', '3', '4']",1,2023.2.3,harveyvisual,2.1,[],8,0.75,
0,pause,0.4,None,None,None,0,191,191,191,,,,,,,,,,,1,69.05937385559082,N012,visual,3,[],"['1', '2', '3', '4']",1,2023.2.3,harveyvisual,2.1,[],8,0.75,
6,dot,0.3,['dot'],['density'],black,0,192,192,192,,,69.60023522377014,69.318186044693,69.61818814277649,dot,"[0.06, 0.08, 0.06, 0.1, 0.06, 0.1]","[[0.0015484977009578463, -0.37153509484940705], [-0.24631791352898516, -0.16063896847060222], [-0.21037316856202723, -0.37491302730087106], [-0.14520134419833938, 0.05228402714841561], [-0.41979900021501537, -0.27073368115662844], [-0.020720382871846178, -0.14076137757070492]]",density,black,,,N012,visual,3,[],"['1', '2', '3', '4']",1,2023.2.3,harveyvisual,2.1,[],8,0.75,
0,pause,0.4,None,None,None,0,193,193,193,,,,,,,,,,,,,N012,visual,3,[],"['1', '2', '3', '4']",1,2023.2.3,harveyvisual,2.1,[],8,0.75,
6,dot,0.3,['dot'],['density'],black,0,194,194,194,,,70.30023622512817,70.01816821098328,70.31816220283508,dot,"[0.06, 0.08, 0.1, 0.1, 0.06, 0.1]","[[-0.5416753121247185, 0.020803147184574915], [-0.3232269173664433, -0.07161231053200118], [-0.3008479376061402, -0.286480119217458], [-0.22299540496279888, 0.12470258063391813], [-0.10776740766186912, -0.19554033341247495], [-0.5165544979209102, -0.21376225914528924]]",density,black,,,N012,visual,3,[],"['1', '2', '3', '4']",1,2023.2.3,harveyvisual,2.1,[],8,0.75,
0,pause,0.4,None,None,None,0,195,195,195,,,,,,,,,,,,,N012,visual,3,[],"['1', '2', '3', '4']",1,2023.2.3,harveyvisual,2.1,[],8,0.75,
6,dot,0.3,['dot'],['density'],white,0,196,196,196,,,71.0002191066742,70.71823501586914,71.0181450843811,dot,"[0.1, 0.08, 0.1, 0.06, 0.06, 0.1]","[[0.4249538099490167, -0.025354946498656116], [0.305005901383002, 0.397829445973664], [0.04954868862097969, 0.09819418046919175], [0.452299537631068, 0.2574679639516015], [0.21081936584905453, -0.08903757916275208], [0.27954488569289765, 0.14103100078867375]]",density,white,,,N012,visual,3,[],"['1', '2', '3', '4']",1,2023.2.3,harveyvisual,2.1,[],8,0.75,
0,pause,0.4,None,None,None,0,197,197,197,,,,,,,,,,,,,N012,visual,3,[],"['1', '2', '3', '4']",1,2023.2.3,harveyvisual,2.1,[],8,0.75,
6,dot,0.3,['dot'],['density'],black,0,198,198,198,,,71.70022511482239,71.4181580543518,71.71818900108337,dot,"[0.06, 0.08, 0.06, 0.06, 0.06, 0.06]","[[0.404576257273406, 0.0700140295133255], [0.16236872381874318, -0.0021128728600973284], [0.5529541989122894, -0.15659614737169442], [0.13702497511457395, -0.2589057080071786], [0.36740063964394665, -0.3636528069500345], [0.3132750905084481, -0.159771579268986]]",density,black,,,N012,visual,3,[],"['1', '2', '3', '4']",1,2023.2.3,harveyvisual,2.1,[],8,0.75,
0,pause,0.4,None,None,None,0,199,199,199,,,,,,,,,,,,,N012,visual,3,[],"['1', '2', '3', '4']",1,2023.2.3,harveyvisual,2.1,[],8,0.75,
6,dot,0.3,['dot'],['density'],black,0,200,200,200,,,72.40023016929626,72.11811900138855,72.4180920124054,dot,"[0.1, 0.1, 0.1, 0.1, 0.1, 0.08]","[[-0.12151555870586603, -0.4812968000001843], [0.16790488833295267, -0.2471088416996458], [0.27214716196035416, -0.49820278546509117], [-0.038147587524033764, -0.29309333197091036], [0.014949188681413147, -0.08915939926713055], [0.06798063624072649, -0.5852336971646088]]",density,black,,,N012,visual,3,[],"['1', '2', '3', '4']",1,2023.2.3,harveyvisual,2.1,[],8,0.75,
0,pause,0.4,None,None,None,0,201,201,201,,,,,,,,,,,,,N012,visual,3,[],"['1', '2', '3', '4']",1,2023.2.3,harveyvisual,2.1,[],8,0.75,
6,dot,0.3,['dot'],['density'],black,0,202,202,202,,,73.10023903846741,72.818106174469,73.11810803413391,dot,"[0.08, 0.08, 0.08, 0.06, 0.08, 0.1]","[[-0.36874454135919904, -0.07559312273534534], [-0.010504004432700158, -0.20559114413973084], [-0.17044584652251332, 0.17221059634863578], [-0.26251446752681207, -0.3074850979938877], [0.06633568674208327, -0.020893677029436595], [-0.1538914639536258, -0.02772778393149798]]",density,black,,,N012,visual,3,[],"['1', '2', '3', '4']",1,2023.2.3,harveyvisual,2.1,[],8,0.75,
0,pause,0.4,None,None,None,0,203,203,203,,,,,,,,,,,,,N012,visual,3,[],"['1', '2', '3', '4']",1,2023.2.3,harveyvisual,2.1,[],8,0.75,
5,dot,0.3,['dot'],['density'],black,0,204,204,204,,,73.80022501945496,73.51809906959534,73.81806921958923,dot,"[0.06, 0.1, 0.08, 0.06, 0.1]","[[0.2075830250205083, 0.5448960418430373], [0.010600229768786232, 0.45420498888786176], [-0.10187712889758427, 0.28364076042242115], [0.1691377395635631, 0.293820614486451], [-0.2596336492265815, 0.40815120909286945]]",density,black,,,N012,visual,3,[],"['1', '2', '3', '4']",1,2023.2.3,harveyvisual,2.1,[],8,0.75,
0,pause,0.4,None,None,None,0,205,205,205,,,,,,,,,,,,,N012,visual,3,[],"['1', '2', '3', '4']",1,2023.2.3,harveyvisual,2.1,[],8,0.75,
5,dot,0.3,['dot'],['density'],black,0,206,206,206,,,74.5002191066742,74.21902513504028,74.5180971622467,dot,"[0.06, 0.06, 0.06, 0.1, 0.08]","[[0.2947939438731228, -0.23060267152592065], [-0.16069394766121817, -0.3416383267983795], [0.17571447256805817, -0.04795497140357211], [-0.06398416024856234, -0.043165972544212804], [0.046845399773749824, -0.2436216536023896]]",density,black,,,N012,visual,3,[],"['1', '2', '3', '4']",1,2023.2.3,harveyvisual,2.1,[],8,0.75,
0,pause,0.4,None,None,None,0,207,207,207,,,,,,,,,,,,,N012,visual,3,[],"['1', '2', '3', '4']",1,2023.2.3,harveyvisual,2.1,[],8,0.75,
5,dot,0.3,['dot'],['density'],black,0,208,208,208,,,75.20021915435791,74.91804718971252,75.21804809570312,dot,"[0.08, 0.06, 0.08, 0.06, 0.06]","[[-0.2338402938730933, 0.15846616122991625], [-0.3229678957369872, -0.0901175890533356], [-0.5034912146055804, 0.021834460539281654], [-0.23914892391179104, -0.28496604153387733], [-0.10132718886958789, -0.1172648190903725]]",density,black,,,N012,visual,3,[],"['1', '2', '3', '4']",1,2023.2.3,harveyvisual,2.1,[],8,0.75,
0,pause,0.4,None,None,None,0,209,209,209,,,,,,,,,,,,,N012,visual,3,[],"['1', '2', '3', '4']",1,2023.2.3,harveyvisual,2.1,[],8,0.75,
5,dot,0.3,['dot'],['density'],black,0,210,210,210,,,75.9002411365509,75.6181161403656,75.91802620887756,dot,"[0.08, 0.08, 0.06, 0.06, 0.06]","[[-0.3632963637400461, -0.33792544526642676], [-0.48189922448633543, -0.036156829306921726], [-0.2958020468624338, 0.07292024124872273], [-0.10639492237515816, -0.0008972940205680791], [-0.20818262001932955, -0.17666930306052683]]",density,black,,,N012,visual,3,[],"['1', '2', '3', '4']",1,2023.2.3,harveyvisual,2.1,[],8,0.75,
0,pause,0.4,None,None,None,0,211,211,211,,,,,,,,,,,,,N012,visual,3,[],"['1', '2', '3', '4']",1,2023.2.3,harveyvisual,2.1,[],8,0.75,
5,dot,0.3,['dot'],['density'],black,0,212,212,212,,,76.60023903846741,76.31801319122314,76.61801218986511,dot,"[0.08, 0.06, 0.08, 0.08, 0.08]","[[0.33660852042816714, -0.448935078303268], [0.16237328695183198, -0.028906365321866932], [0.003149504206933677, -0.1844463225559013], [0.4065340125681681, -0.22407981263326276], [0.20027486954239768, -0.2346061295568129]]",density,black,,,N012,visual,3,[],"['1', '2', '3', '4']",1,2023.2.3,harveyvisual,2.1,[],8,0.75,
0,pause,0.4,None,None,None,0,213,213,213,,,,,,,,,,,,,N012,visual,3,[],"['1', '2', '3', '4']",1,2023.2.3,harveyvisual,2.1,[],8,0.75,
5,dot,0.3,['dot'],['density'],black,0,214,214,214,,,77.3002290725708,77.01800203323364,77.31797814369202,dot,"[0.06, 0.06, 0.08, 0.06, 0.08]","[[-0.11834215492801986, 0.412508379109845], [0.31881799646300274, 0.30859303438359803], [-0.06368743078099719, 0.10105058071702504], [0.1133485112468387, 0.46262203184429457], [0.11957051434631445, 0.24197418837926052]]",density,black,,,N012,visual,3,[],"['1', '2', '3', '4']",1,2023.2.3,harveyvisual,2.1,[],8,0.75,
0,pause,0.4,None,None,None,0,215,215,215,,,,,,,,,,,,,N012,visual,3,[],"['1', '2', '3', '4']",1,2023.2.3,harveyvisual,2.1,[],8,0.75,
4,dot,0.3,['dot'],['density'],black,0,216,216,216,,,78.00022602081299,77.7179741859436,78.01795411109924,dot,"[0.08, 0.08, 0.06, 0.08]","[[0.0004228548582206217, 0.4437421379736539], [0.24572762857664815, 0.2260868474052859], [0.007756854070108054, 0.1846819218217072], [0.22099789303306372, 0.4278063517398125]]",density,black,,,N012,visual,3,[],"['1', '2', '3', '4']",1,2023.2.3,harveyvisual,2.1,[],8,0.75,
0,pause,0.4,None,None,None,0,217,217,217,,,,,,,,,,,,,N012,visual,3,[],"['1', '2', '3', '4']",1,2023.2.3,harveyvisual,2.1,[],8,0.75,
4,dot,0.3,['dot'],['density'],black,0,218,218,218,,,78.70023918151855,78.41796207427979,78.71794414520264,dot,"[0.06, 0.08, 0.08, 0.1]","[[0.3225849294362846, -0.13157286681700714], [0.2615083713376798, -0.38790318245483907], [0.48399895238698887, -0.2981397300552969], [0.514252162939949, -0.043630752066028525]]",density,black,,,N012,visual,3,[],"['1', '2', '3', '4']",1,2023.2.3,harveyvisual,2.1,[],8,0.75,
0,pause,0.4,None,None,None,0,219,219,219,,,,,,,,,,,,,N012,visual,3,[],"['1', '2', '3', '4']",1,2023.2.3,harveyvisual,2.1,[],8,0.75,
4,dot,0.3,['dot'],['density'],black,0,220,220,220,,,79.40021419525146,79.11795902252197,79.41792106628418,dot,"[0.1, 0.06, 0.06, 0.06]","[[-0.47693618450386616, -0.1525114564248906], [-0.12413069550496705, 0.03327587270375396], [-0.32964510574757994, -0.012304557788591533], [-0.22851041427491325, -0.22018408257550984]]",density,black,,,N012,visual,3,[],"['1', '2', '3', '4']",1,2023.2.3,harveyvisual,2.1,[],8,0.75,
0,pause,0.4,None,None,None,0,221,221,221,,,,,,,,,,,,,N012,visual,3,[],"['1', '2', '3', '4']",1,2023.2.3,harveyvisual,2.1,[],8,0.75,
4,dot,0.3,['dot'],['density'],black,0,222,222,222,,,80.10023021697998,79.81791710853577,80.11790418624878,dot,"[0.1, 0.06, 0.06, 0.1]","[[-0.1266132934267609, -0.4419116806690939], [0.09906976576587005, -0.33923851916676484], [0.1053941350115203, -0.5768907290059295], [0.29145715672269834, -0.49787884973145785]]",density,black,,,N012,visual,3,[],"['1', '2', '3', '4']",1,2023.2.3,harveyvisual,2.1,[],8,0.75,
0,pause,0.4,None,None,None,0,223,223,223,,,,,,,,,,,,,N012,visual,3,[],"['1', '2', '3', '4']",1,2023.2.3,harveyvisual,2.1,[],8,0.75,
4,dot,0.3,['dot'],['density'],black,0,224,224,224,,,80.80021715164185,80.51790118217468,80.81788420677185,dot,"[0.1, 0.06, 0.06, 0.08]","[[0.107131415583101, 0.03171316484874249], [0.3330877778846877, 0.14211400081541528], [0.23058747141838212, -0.24340322486593785], [0.3173726134345681, -0.05921806988573682]]",density,black,,,N012,visual,3,[],"['1', '2', '3', '4']",1,2023.2.3,harveyvisual,2.1,[],8,0.75,
0,pause,0.4,None,None,None,0,225,225,225,,,,,,,,,,,,,N012,visual,3,[],"['1', '2', '3', '4']",1,2023.2.3,harveyvisual,2.1,[],8,0.75,
4,dot,0.3,['dot'],['density'],black,0,226,226,226,,,81.50023818016052,81.21789002418518,81.5178701877594,dot,"[0.08, 0.08, 0.08, 0.1]","[[0.5195678262777355, 0.06634869171649047], [0.11508779247300271, 0.04459464887784077], [0.27862218446352316, 0.18290230777407274], [0.28701832247091064, -0.08209332131291468]]",density,black,,,N012,visual,3,[],"['1', '2', '3', '4']",1,2023.2.3,harveyvisual,2.1,[],8,0.75,
0,pause,0.4,None,None,None,0,227,227,227,,,,,,,,,,,,,N012,visual,3,[],"['1', '2', '3', '4']",1,2023.2.3,harveyvisual,2.1,[],8,0.75,
3,dot,0.3,['dot'],['density'],black,0,228,228,228,,,82.20023703575134,81.91786909103394,82.21785807609558,dot,"[0.1, 0.08, 0.08]","[[0.16698284004709638, 0.14340522813657522], [0.014382160343152013, -0.0120418799203457], [0.17626274868444566, -0.13037823744598942]]",density,black,,,N012,visual,3,[],"['1', '2', '3', '4']",1,2023.2.3,harveyvisual,2.1,[],8,0.75,
0,pause,0.4,None,None,None,0,229,229,229,,,,,,,,,,,,,N012,visual,3,[],"['1', '2', '3', '4']",1,2023.2.3,harveyvisual,2.1,[],8,0.75,
3,dot,0.3,['dot'],['density'],black,0,230,230,230,,,82.9002161026001,82.61786317825317,82.91783714294434,dot,"[0.08, 0.06, 0.08]","[[0.4995185571857965, 0.14229679706320136], [0.2944600495073675, 0.23335097983198633], [0.330752226915583, 0.0299241169750933]]",density,black,,,N012,visual,3,[],"['1', '2', '3', '4']",1,2023.2.3,harveyvisual,2.1,[],8,0.75,
0,pause,0.4,None,None,None,0,231,231,231,,,,,,,,,,,,,N012,visual,3,[],"['1', '2', '3', '4']",1,2023.2.3,harveyvisual,2.1,[],8,0.75,
3,dot,0.3,['dot'],['density'],black,0,232,232,232,,,83.60022306442261,83.3178391456604,83.61783599853516,dot,"[0.1, 0.1, 0.1]","[[0.16698284004709638, 0.14340522813657522], [0.014382160343152013, -0.0120418799203457], [0.17626274868444566, -0.13037823744598942]]",density,black,,,N012,visual,3,[],"['1', '2', '3', '4']",1,2023.2.3,harveyvisual,2.1,[],8,0.75,
0,pause,0.4,None,None,None,0,233,233,233,,,,,,,,,,,,,N012,visual,3,[],"['1', '2', '3', '4']",1,2023.2.3,harveyvisual,2.1,[],8,0.75,
3,dot,0.3,['dot'],['density'],black,0,234,234,234,,,84.300222158432,84.01781702041626,84.31781911849976,dot,"[0.08, 0.06, 0.06]","[[0.2656832518280197, 0.0014864193765316018], [0.3503107158811183, -0.1826455867164705], [0.5188928509039705, -0.04177453376365527]]",density,black,,,N012,visual,3,[],"['1', '2', '3', '4']",1,2023.2.3,harveyvisual,2.1,[],8,0.75,
0,pause,0.4,None,None,None,0,235,235,235,,,,,,,,,,,,,N012,visual,3,[],"['1', '2', '3', '4']",1,2023.2.3,harveyvisual,2.1,[],8,0.75,
3,dot,0.3,['dot'],['density'],black,0,236,236,236,,,85.00024318695068,84.71781706809998,85.01780700683594,dot,"[0.1, 0.06, 0.06]","[[-0.10589639487257244, 0.35295021258352427], [0.12780035046084517, 0.3479378296372768], [0.013663645537612555, 0.51889388118174]]",density,black,,,N012,visual,3,[],"['1', '2', '3', '4']",1,2023.2.3,harveyvisual,2.1,[],8,0.75,
0,pause,0.4,None,None,None,0,237,237,237,,,,,,,,,,,,,N012,visual,3,[],"['1', '2', '3', '4']",1,2023.2.3,harveyvisual,2.1,[],8,0.75,
3,dot,0.3,['dot'],['density'],black,0,238,238,238,,,85.70022416114807,85.4177930355072,85.71780920028687,dot,"[0.06, 0.08, 0.06]","[[-0.1599523582230929, -0.020289166781496174], [-0.3458010015304564, -0.14250622038001895], [-0.3538668896253721, 0.08903610231223419]]",density,black,,,N012,visual,3,[],"['1', '2', '3', '4']",1,2023.2.3,harveyvisual,2.1,[],8,0.75,
0,pause,0.4,None,None,None,0,239,239,239,,,,,,,,,,,,,N012,visual,3,[],"['1', '2', '3', '4']",1,2023.2.3,harveyvisual,2.1,[],8,0.75,
2,dot,0.3,['dot'],['density'],black,0,240,240,240,,,86.40021920204163,86.11780619621277,86.41776514053345,dot,"[0.1, 0.08]","[[0.06661886780735636, -0.3109770134588511], [-0.03502229105109153, -0.4833380692870097]]",density,black,,,N012,visual,3,[],"['1', '2', '3', '4']",1,2023.2.3,harveyvisual,2.1,[],8,0.75,
0,pause,0.4,None,None,None,0,241,241,241,,,,,,,,,,,,,N012,visual,3,[],"['1', '2', '3', '4']",1,2023.2.3,harveyvisual,2.1,[],8,0.75,
2,dot,0.3,['dot'],['density'],black,0,242,242,242,,,87.10023713111877,86.81781315803528,87.11773419380188,dot,"[0.1, 0.1]","[[0.500151128333041, 0.1656925720118866], [0.3771979967144504, 0.3235340638115745]]",density,black,,,N012,visual,3,[],"['1', '2', '3', '4']",1,2023.2.3,harveyvisual,2.1,[],8,0.75,
0,pause,0.4,None,None,None,0,243,243,243,,,,,,,,,,,,,N012,visual,3,[],"['1', '2', '3', '4']",1,2023.2.3,harveyvisual,2.1,[],8,0.75,
2,dot,0.3,['dot'],['density'],black,0,244,244,244,,,87.80022406578064,87.51773810386658,87.81774115562439,dot,"[0.08, 0.08]","[[0.3054529246123127, 0.4455278178545299], [0.3548458028228903, 0.2510588499170468]]",density,black,,,N012,visual,3,[],"['1', '2', '3', '4']",1,2023.2.3,harveyvisual,2.1,[],8,0.75,
0,pause,0.4,None,None,None,0,245,245,245,,,,,,,,,,,,,N012,visual,3,[],"['1', '2', '3', '4']",1,2023.2.3,harveyvisual,2.1,[],8,0.75,
2,dot,0.3,['dot'],['density'],black,0,246,246,246,,,88.50023317337036,88.21772813796997,88.51771020889282,dot,"[0.08, 0.06]","[[0.09481659993656301, 0.43631713998557026], [0.0662189159667295, 0.23745101446818795]]",density,black,,,N012,visual,3,[],"['1', '2', '3', '4']",1,2023.2.3,harveyvisual,2.1,[],8,0.75,
0,pause,0.4,None,None,None,0,247,247,247,,,,,,,,,,,,,N012,visual,3,[],"['1', '2', '3', '4']",1,2023.2.3,harveyvisual,2.1,[],8,0.75,
2,dot,0.3,['dot'],['density'],black,0,248,248,248,,,89.20022416114807,88.91769599914551,89.217689037323,dot,"[0.06, 0.1]","[[-0.020654750029313704, 0.3891656546739414], [-0.0007759068931318763, 0.19000611836641118]]",density,black,,,N012,visual,3,[],"['1', '2', '3', '4']",1,2023.2.3,harveyvisual,2.1,[],8,0.75,
0,pause,0.4,None,None,None,0,249,249,249,,,,,,,,,,,,,N012,visual,3,[],"['1', '2', '3', '4']",1,2023.2.3,harveyvisual,2.1,[],8,0.75,
2,dot,0.3,['dot'],['density'],black,0,250,250,250,,,89.90022921562195,89.61767506599426,89.91767716407776,dot,"[0.06, 0.1]","[[0.11437717294043931, -0.408092871188616], [0.012734947149558614, -0.23578585574018435]]",density,black,,,N012,visual,3,[],"['1', '2', '3', '4']",1,2023.2.3,harveyvisual,2.1,[],8,0.75,
0,pause,0.4,None,None,None,0,251,251,251,,,,,,,,,,,,,N012,visual,3,[],"['1', '2', '3', '4']",1,2023.2.3,harveyvisual,2.1,[],8,0.75,
1,dot,0.3,['dot'],['density'],black,0,252,252,252,,,90.6002402305603,90.31765818595886,90.61764812469482,dot,[0.08],"[-0.4913090862596544, 0.31587628757091063]",density,black,,,N012,visual,3,[],"['1', '2', '3', '4']",1,2023.2.3,harveyvisual,2.1,[],8,0.75,
0,pause,0.4,None,None,None,0,253,253,253,,,,,,,,,,,,,N012,visual,3,[],"['1', '2', '3', '4']",1,2023.2.3,harveyvisual,2.1,[],8,0.75,
1,dot,0.3,['dot'],['density'],black,0,254,254,254,,,91.30023312568665,91.01764416694641,91.31763815879822,dot,[0.1],"[0.01430498756481247, 0.36429701967127975]",density,black,,,N012,visual,3,[],"['1', '2', '3', '4']",1,2023.2.3,harveyvisual,2.1,[],8,0.75,
0,pause,0.4,None,None,None,0,255,255,255,,,,,,,,,,,,,N012,visual,3,[],"['1', '2', '3', '4']",1,2023.2.3,harveyvisual,2.1,[],8,0.75,
1,dot,0.3,['dot'],['density'],white,0,256,256,256,,,92.00024318695068,91.71762609481812,92.01761722564697,dot,[0.1],"[0.075024325262877, 0.28946834799837856]",density,white,,,N012,visual,3,[],"['1', '2', '3', '4']",1,2023.2.3,harveyvisual,2.1,[],8,0.75,
0,pause,0.4,None,None,None,0,257,257,257,,,,,,,,,,,1,92.24626898765564,N012,visual,3,[],"['1', '2', '3', '4']",1,2023.2.3,harveyvisual,2.1,[],8,0.75,
1,dot,0.3,['dot'],['density'],black,0,258,258,258,,,92.7002420425415,92.41760516166687,92.717600107193,dot,[0.06],"[0.43730911014729085, 0.38068286015665653]",density,black,,,N012,visual,3,[],"['1', '2', '3', '4']",1,2023.2.3,harveyvisual,2.1,[],8,0.75,
0,pause,0.4,None,None,None,0,259,259,259,,,,,,,,,,,,,N012,visual,3,[],"['1', '2', '3', '4']",1,2023.2.3,harveyvisual,2.1,[],8,0.75,
1,dot,0.3,['dot'],['density'],black,0,260,260,260,,,93.4002411365509,93.11921811103821,93.41775417327881,dot,[0.08],"[0.31457923939875737, -0.4122609730770665]",density,black,,,N012,visual,3,[],"['1', '2', '3', '4']",1,2023.2.3,harveyvisual,2.1,[],8,0.75,
0,pause,0.4,None,None,None,0,261,261,261,,,,,,,,,,,,,N012,visual,3,[],"['1', '2', '3', '4']",1,2023.2.3,harveyvisual,2.1,[],8,0.75,
1,dot,0.3,['dot'],['density'],black,0,262,262,262,,,94.10022115707397,93.81761622428894,94.11760020256042,dot,[0.1],"[0.4420174282329864, -0.3383815273201445]",density,black,,,N012,visual,3,[],"['1', '2', '3', '4']",1,2023.2.3,harveyvisual,2.1,[],8,0.75,
0,pause,0.4,None,None,None,0,263,263,263,,,,,,,,,,,,,N012,visual,3,[],"['1', '2', '3', '4']",1,2023.2.3,harveyvisual,2.1,[],8,0.75,
20,dot,0.3,['dot'],['density'],white,0,264,264,264,,,94.80022811889648,94.51760506629944,94.81754612922668,dot,"[0.08, 0.08, 0.08, 0.1, 0.08, 0.06, 0.1, 0.08, 0.08, 0.1, 0.06, 0.06, 0.06, 0.08, 0.06, 0.1, 0.1, 0.08, 0.08, 0.1]","[[0.3502405231127874, -0.13385065005632008], [-0.5348068819624806, -0.13638788746890448], [-0.26476501603248076, 0.3194923579986607], [0.3412742440511404, -0.3248710338441955], [0.4684525233997213, 0.02369079980114197], [0.08291751651799828, -0.5916931586016665], [0.2868747695920961, 0.10531808730571968], [0.3708193560779445, 0.4417175499548874], [-0.2662574945696509, -0.0765359644961765], [-0.40310074270422347, -0.3181188765041866], [0.04674272693456394, -0.23365459742087358], [-0.4635272044818517, 0.22344349543646208], [-0.1610903724188295, -0.4170889926756083], [-0.07218108007879742, -0.03239809213360756], [0.5170395045258319, 0.21060166768880956], [0.5573881530216062, -0.19748713678033208], [-0.1672458511851369, 0.5782762095400986], [0.10772783518411544, 0.5559020953185557], [-0.031445886369426246, 0.25849768196169587], [-0.5806404284518242, 0.05089700678669615]]",density,white,,,N012,visual,3,[],"['1', '2', '3', '4']",1,2023.2.3,harveyvisual,2.1,[],8,0.75,
0,pause,0.4,None,None,None,0,265,265,265,,,,,,,,,,,1,94.93757200241089,N012,visual,3,[],"['1', '2', '3', '4']",1,2023.2.3,harveyvisual,2.1,[],8,0.75,
20,dot,0.3,['dot'],['density'],black,0,266,266,266,,,95.50024008750916,95.21753215789795,95.51753211021423,dot,"[0.06, 0.08, 0.06, 0.08, 0.06, 0.1, 0.1, 0.1, 0.1, 0.08, 0.1, 0.08, 0.08, 0.08, 0.08, 0.1, 0.08, 0.06, 0.06, 0.06]","[[-0.3959469242017446, -0.02484533701101499], [0.5888051429971274, 0.0003468108610877041], [-0.04014804107535164, -0.3598054745109181], [0.16529317559964662, 0.4980425282256121], [-0.28092089984673574, -0.5285334259358476], [0.37378893770745114, -0.4180944324928694], [0.5065090711119423, -0.176045427529532], [0.3763519444340456, 0.3118568712673026], [0.014490241776991208, 0.26554755465389535], [0.1995859355401446, -0.2439619706526145], [-0.18617710621006772, 0.14987206484966054], [0.20056530245083093, -0.044913585132359435], [-0.5597088002323347, -0.19402645519665895], [-0.27244281639852247, -0.2899923959101617], [-0.04856006618359865, -0.10257049707152832], [-0.31777218012532527, 0.33966726294181393], [0.34532272718992063, 0.10684134884121349], [-0.5670271293606277, 0.14217162095924862], [-0.05908999350617672, -0.5638258839621885], [-0.09480311920952744, 0.4747881576122933]]",density,black,,,N012,visual,3,[],"['1', '2', '3', '4']",1,2023.2.3,harveyvisual,2.1,[],8,0.75,
0,pause,0.4,None,None,None,0,267,267,267,,,,,,,,,,,,,N012,visual,3,[],"['1', '2', '3', '4']",1,2023.2.3,harveyvisual,2.1,[],8,0.75,
