num,mod,duration,shape,ll_cond,colors,.thisRepN,.thisTrialN,.thisN,.thisIndex,thisRow.t,notes,raw_global_time,t_start,t_stop,shapes,size,pos,cond,color,button,RT,participant,session,starting_run,left button (match/odd),right button (non-match/even),samples_per_block,psychopy version,expName,offset,audio,number_runs,radius,
1,dot,0.3,['dot'],['density'],black,0,0,0,0,,,2.4002208709716797,2.106757879257202,2.4066858291625977,dot,[0.1],"[-0.045934412585722416, -0.12236734128406912]",density,black,,,N012,visual,6,[],"['1', '2', '3', '4']",1,2023.2.3,harveyvisual,2.1,[],8,0.75,
0,pause,0.4,None,None,None,0,1,1,1,,,,,,,,,,,,,N012,visual,6,[],"['1', '2', '3', '4']",1,2023.2.3,harveyvisual,2.1,[],8,0.75,
1,dot,0.3,['dot'],['density'],black,0,2,2,2,,,3.100207805633545,2.806670904159546,3.1077959537506104,dot,[0.1],"[0.19623115665255414, 0.1676894875529279]",density,black,,,N012,visual,6,[],"['1', '2', '3', '4']",1,2023.2.3,harveyvisual,2.1,[],8,0.75,
0,pause,0.4,None,None,None,0,3,3,3,,,,,,,,,,,,,N012,visual,6,[],"['1', '2', '3', '4']",1,2023.2.3,harveyvisual,2.1,[],8,0.75,
1,dot,0.3,['dot'],['density'],black,0,4,4,4,,,3.8002049922943115,3.5077779293060303,3.8072478771209717,dot,[0.06],"[0.03111034986587176, -0.1137363894063533]",density,black,,,N012,visual,6,[],"['1', '2', '3', '4']",1,2023.2.3,harveyvisual,2.1,[],8,0.75,
0,pause,0.4,None,None,None,0,5,5,5,,,,,,,,,,,,,N012,visual,6,[],"['1', '2', '3', '4']",1,2023.2.3,harveyvisual,2.1,[],8,0.75,
1,dot,0.3,['dot'],['density'],black,0,6,6,6,,,4.500204801559448,4.207239866256714,4.507227897644043,dot,[0.06],"[-0.4309303250570785, -0.37878052449928096]",density,black,,,N012,visual,6,[],"['1', '2', '3', '4']",1,2023.2.3,harveyvisual,2.1,[],8,0.75,
0,pause,0.4,None,None,None,0,7,7,7,,,,,,,,,,,,,N012,visual,6,[],"['1', '2', '3', '4']",1,2023.2.3,harveyvisual,2.1,[],8,0.75,
1,dot,0.3,['dot'],['density'],black,0,8,8,8,,,5.200196981430054,4.907152891159058,5.207137823104858,dot,[0.06],"[0.19623115665255414, 0.1676894875529279]",density,black,,,N012,visual,6,[],"['1', '2', '3', '4']",1,2023.2.3,harveyvisual,2.1,[],8,0.75,
0,pause,0.4,None,None,None,0,9,9,9,,,,,,,,,,,,,N012,visual,6,[],"['1', '2', '3', '4']",1,2023.2.3,harveyvisual,2.1,[],8,0.75,
1,dot,0.3,['dot'],['density'],black,0,10,10,10,,,5.9002039432525635,5.6094348430633545,5.9094178676605225,dot,[0.06],"[0.43730911014729085, 0.38068286015665653]",density,black,,,N012,visual,6,[],"['1', '2', '3', '4']",1,2023.2.3,harveyvisual,2.1,[],8,0.75,
0,pause,0.4,None,None,None,0,11,11,11,,,,,,,,,,,,,N012,visual,6,[],"['1', '2', '3', '4']",1,2023.2.3,harveyvisual,2.1,[],8,0.75,
2,dot,0.3,['dot'],['density'],black,0,12,12,12,,,6.600197792053223,6.30958890914917,6.609423875808716,dot,"[0.08, 0.1]","[[-0.40295961353468523, -0.33947470962363085], [-0.23663605411983973, -0.22749761394439932]]",density,black,,,N012,visual,6,[],"['1', '2', '3', '4']",1,2023.2.3,harveyvisual,2.1,[],8,0.75,
0,pause,0.4,None,None,None,0,13,13,13,,,,,,,,,,,,,N012,visual,6,[],"['1', '2', '3', '4']",1,2023.2.3,harveyvisual,2.1,[],8,0.75,
2,dot,0.3,['dot'],['density'],black,0,14,14,14,,,7.3002028465271,7.009410858154297,7.30940580368042,dot,"[0.1, 0.06]","[[0.4162662019019998, 0.09129510669171749], [0.33420900269466314, 0.27427456354974017]]",density,black,,,N012,visual,6,[],"['1', '2', '3', '4']",1,2023.2.3,harveyvisual,2.1,[],8,0.75,
0,pause,0.4,None,None,None,0,15,15,15,,,,,,,,,,,,,N012,visual,6,[],"['1', '2', '3', '4']",1,2023.2.3,harveyvisual,2.1,[],8,0.75,
2,dot,0.3,['dot'],['density'],black,0,16,16,16,,,8.000196933746338,7.709399938583374,8.009401798248291,dot,"[0.08, 0.06]","[[0.02987007740145294, 0.4330921892138179], [-0.1698845640653836, 0.4119973540264252]]",density,black,,,N012,visual,6,[],"['1', '2', '3', '4']",1,2023.2.3,harveyvisual,2.1,[],8,0.75,
0,pause,0.4,None,None,None,0,17,17,17,,,,,,,,,,,,,N012,visual,6,[],"['1', '2', '3', '4']",1,2023.2.3,harveyvisual,2.1,[],8,0.75,
2,dot,0.3,['dot'],['density'],black,0,18,18,18,,,8.70022177696228,8.409384965896606,8.710500955581665,dot,"[0.06, 0.08]","[[-0.4579128382498026, -0.013317831223324628], [-0.28624676016543393, -0.11681778735554697]]",density,black,,,N012,visual,6,[],"['1', '2', '3', '4']",1,2023.2.3,harveyvisual,2.1,[],8,0.75,
0,pause,0.4,None,None,None,0,19,19,19,,,,,,,,,,,,,N012,visual,6,[],"['1', '2', '3', '4']",1,2023.2.3,harveyvisual,2.1,[],8,0.75,
2,dot,0.3,['dot'],['density'],white,0,20,20,20,,,9.400197982788086,9.109364986419678,9.409355878829956,dot,"[0.06, 0.1]","[[0.28379985726396956, 0.19228106150028407], [0.10160376615595414, 0.2763535177041957]]",density,white,,,N012,visual,6,[],"['1', '2', '3', '4']",1,2023.2.3,harveyvisual,2.1,[],8,0.75,
0,pause,0.4,None,None,None,0,21,21,21,,,,,,,,,,,1,9.530436038970947,N012,visual,6,[],"['1', '2', '3', '4']",1,2023.2.3,harveyvisual,2.1,[],8,0.75,
2,dot,0.3,['dot'],['density'],black,0,22,22,22,,,10.100221872329712,9.809349775314331,10.109322786331177,dot,"[0.08, 0.08]","[[-0.22226122312079244, -0.00806926593831646], [-0.023245446524914906, -0.037240983575548024]]",density,black,,,N012,visual,6,[],"['1', '2', '3', '4']",1,2023.2.3,harveyvisual,2.1,[],8,0.75,
0,pause,0.4,None,None,None,0,23,23,23,,,,,,,,,,,,,N012,visual,6,[],"['1', '2', '3', '4']",1,2023.2.3,harveyvisual,2.1,[],8,0.75,
3,dot,0.3,['dot'],['density'],black,0,24,24,24,,,10.800210952758789,10.509321928024292,10.809310913085938,dot,"[0.06, 0.1, 0.1]","[[0.07700183490032705, -0.35627018624379625], [-0.11838355721398923, -0.41989981358322065], [0.04553884901650391, -0.5822363694770394]]",density,black,,,N012,visual,6,[],"['1', '2', '3', '4']",1,2023.2.3,harveyvisual,2.1,[],8,0.75,
0,pause,0.4,None,None,None,0,25,25,25,,,,,,,,,,,,,N012,visual,6,[],"['1', '2', '3', '4']",1,2023.2.3,harveyvisual,2.1,[],8,0.75,
3,dot,0.3,['dot'],['density'],black,0,26,26,26,,,11.500203847885132,11.20931100845337,11.509290933609009,dot,"[0.06, 0.1, 0.06]","[[-0.1591938184585166, 0.2573970255855866], [-0.049574382916532336, 0.44031337398050124], [0.08264166875933507, 0.262381570646859]]",density,black,,,N012,visual,6,[],"['1', '2', '3', '4']",1,2023.2.3,harveyvisual,2.1,[],8,0.75,
0,pause,0.4,None,None,None,0,27,27,27,,,,,,,,,,,,,N012,visual,6,[],"['1', '2', '3', '4']",1,2023.2.3,harveyvisual,2.1,[],8,0.75,
3,dot,0.3,['dot'],['density'],black,0,28,28,28,,,12.200202941894531,11.909282922744751,12.209306955337524,dot,"[0.06, 0.1, 0.1]","[[0.48628142840140876, 0.1515230430224543], [0.28796188866220057, 0.19625725416133796], [0.3371406364253883, -0.002661880310138811]]",density,black,,,N012,visual,6,[],"['1', '2', '3', '4']",1,2023.2.3,harveyvisual,2.1,[],8,0.75,
0,pause,0.4,None,None,None,0,29,29,29,,,,,,,,,,,,,N012,visual,6,[],"['1', '2', '3', '4']",1,2023.2.3,harveyvisual,2.1,[],8,0.75,
3,dot,0.3,['dot'],['density'],black,0,30,30,30,,,12.900216817855835,12.609304904937744,12.909274816513062,dot,"[0.08, 0.08, 0.06]","[[0.5267872668145167, -0.16137547842759675], [0.3420119191573968, -0.036920749927643534], [0.3185462880061428, -0.2399114968218526]]",density,black,,,N012,visual,6,[],"['1', '2', '3', '4']",1,2023.2.3,harveyvisual,2.1,[],8,0.75,
0,pause,0.4,None,None,None,0,31,31,31,,,,,,,,,,,,,N012,visual,6,[],"['1', '2', '3', '4']",1,2023.2.3,harveyvisual,2.1,[],8,0.75,
3,dot,0.3,['dot'],['density'],black,0,32,32,32,,,13.600209951400757,13.309266805648804,13.609237909317017,dot,"[0.1, 0.1, 0.08]","[[-0.04083818552357515, -0.522177599776496], [0.2241586230204485, -0.5188142294055383], [0.09506152973916207, -0.364648334381489]]",density,black,,,N012,visual,6,[],"['1', '2', '3', '4']",1,2023.2.3,harveyvisual,2.1,[],8,0.75,
0,pause,0.4,None,None,None,0,33,33,33,,,,,,,,,,,,,N012,visual,6,[],"['1', '2', '3', '4']",1,2023.2.3,harveyvisual,2.1,[],8,0.75,
3,dot,0.3,['dot'],['density'],black,0,34,34,34,,,14.3002188205719,14.009216785430908,14.309208869934082,dot,"[0.1, 0.1, 0.1]","[[0.06695044750400271, -0.4036822973150869], [0.2898428615912539, -0.43752325319744867], [0.2484486434572057, -0.2241911098289173]]",density,black,,,N012,visual,6,[],"['1', '2', '3', '4']",1,2023.2.3,harveyvisual,2.1,[],8,0.75,
0,pause,0.4,None,None,None,0,35,35,35,,,,,,,,,,,,,N012,visual,6,[],"['1', '2', '3', '4']",1,2023.2.3,harveyvisual,2.1,[],8,0.75,
4,dot,0.3,['dot'],['density'],black,0,36,36,36,,,15.00021481513977,14.709218978881836,15.009169816970825,dot,"[0.06, 0.08, 0.06, 0.08]","[[-0.4918595852306691, 0.19162898845839058], [-0.30188041745692074, 0.10218906117132437], [-0.3018224646415858, -0.14357118929282034], [-0.4853871342809682, -0.061736688026617866]]",density,black,,,N012,visual,6,[],"['1', '2', '3', '4']",1,2023.2.3,harveyvisual,2.1,[],8,0.75,
0,pause,0.4,None,None,None,0,37,37,37,,,,,,,,,,,,,N012,visual,6,[],"['1', '2', '3', '4']",1,2023.2.3,harveyvisual,2.1,[],8,0.75,
4,dot,0.3,['dot'],['density'],black,0,38,38,38,,,15.700209856033325,15.409350872039795,15.709199905395508,dot,"[0.1, 0.1, 0.1, 0.08]","[[0.37520814465037905, -0.4432880181017862], [0.4692830223283075, -0.19655799526205012], [0.3063896805601884, -0.036788685454167226], [0.2471196723673293, -0.2344474043623998]]",density,black,,,N012,visual,6,[],"['1', '2', '3', '4']",1,2023.2.3,harveyvisual,2.1,[],8,0.75,
0,pause,0.4,None,None,None,0,39,39,39,,,,,,,,,,,,,N012,visual,6,[],"['1', '2', '3', '4']",1,2023.2.3,harveyvisual,2.1,[],8,0.75,
4,dot,0.3,['dot'],['density'],black,0,40,40,40,,,16.400202989578247,16.109192848205566,16.409185886383057,dot,"[0.1, 0.1, 0.1, 0.1]","[[-0.03907102058372138, -0.1723346686752248], [0.13255167928633116, -0.03782047714335622], [0.2720101467217329, -0.23443565690461937], [0.07080951743106016, -0.35239766365090747]]",density,black,,,N012,visual,6,[],"['1', '2', '3', '4']",1,2023.2.3,harveyvisual,2.1,[],8,0.75,
0,pause,0.4,None,None,None,0,41,41,41,,,,,,,,,,,,,N012,visual,6,[],"['1', '2', '3', '4']",1,2023.2.3,harveyvisual,2.1,[],8,0.75,
4,dot,0.3,['dot'],['density'],black,0,42,42,42,,,17.100210905075073,16.809210777282715,17.10913896560669,dot,"[0.08, 0.1, 0.1, 0.08]","[[0.107131415583101, 0.03171316484874249], [0.3330877778846877, 0.14211400081541528], [0.23058747141838212, -0.24340322486593785], [0.3173726134345681, -0.05921806988573682]]",density,black,,,N012,visual,6,[],"['1', '2', '3', '4']",1,2023.2.3,harveyvisual,2.1,[],8,0.75,
0,pause,0.4,None,None,None,0,43,43,43,,,,,,,,,,,,,N012,visual,6,[],"['1', '2', '3', '4']",1,2023.2.3,harveyvisual,2.1,[],8,0.75,
4,dot,0.3,['dot'],['density'],black,0,44,44,44,,,17.80021595954895,17.50913691520691,17.809134006500244,dot,"[0.1, 0.06, 0.1, 0.08]","[[-0.3130108772186628, 0.4658633188731559], [0.06875292536802097, 0.3619778545149697], [-0.12928423743784842, 0.28835211797578114], [-0.08764786508193922, 0.5151731075523892]]",density,black,,,N012,visual,6,[],"['1', '2', '3', '4']",1,2023.2.3,harveyvisual,2.1,[],8,0.75,
0,pause,0.4,None,None,None,0,45,45,45,,,,,,,,,,,,,N012,visual,6,[],"['1', '2', '3', '4']",1,2023.2.3,harveyvisual,2.1,[],8,0.75,
4,dot,0.3,['dot'],['density'],black,0,46,46,46,,,18.500220775604248,18.20909881591797,18.509119987487793,dot,"[0.06, 0.08, 0.06, 0.08]","[[-0.1266132934267609, -0.4419116806690939], [0.09906976576587005, -0.33923851916676484], [0.1053941350115203, -0.5768907290059295], [0.29145715672269834, -0.49787884973145785]]",density,black,,,N012,visual,6,[],"['1', '2', '3', '4']",1,2023.2.3,harveyvisual,2.1,[],8,0.75,
0,pause,0.4,None,None,None,0,47,47,47,,,,,,,,,,,,,N012,visual,6,[],"['1', '2', '3', '4']",1,2023.2.3,harveyvisual,2.1,[],8,0.75,
5,dot,0.3,['dot'],['density'],black,0,48,48,48,,,19.200203895568848,18.90916085243225,19.20909094810486,dot,"[0.06, 0.1, 0.1, 0.06, 0.06]","[[-0.11834215492801986, 0.412508379109845], [0.31881799646300274, 0.30859303438359803], [-0.06368743078099719, 0.10105058071702504], [0.1133485112468387, 0.46262203184429457], [0.11957051434631445, 0.24197418837926052]]",density,black,,,N012,visual,6,[],"['1', '2', '3', '4']",1,2023.2.3,harveyvisual,2.1,[],8,0.75,
0,pause,0.4,None,None,None,0,49,49,49,,,,,,,,,,,,,N012,visual,6,[],"['1', '2', '3', '4']",1,2023.2.3,harveyvisual,2.1,[],8,0.75,
5,dot,0.3,['dot'],['density'],black,0,50,50,50,,,19.90021300315857,19.60905694961548,19.909113883972168,dot,"[0.06, 0.1, 0.08, 0.06, 0.1]","[[-0.3593586909609717, -0.014123405231526708], [-0.016214713675271986, 0.25764317450247104], [-0.14180258575993823, 0.0328893580167688], [-0.4739301778776912, 0.15719809156630632], [-0.2718601341595813, 0.23222304362681612]]",density,black,,,N012,visual,6,[],"['1', '2', '3', '4']",1,2023.2.3,harveyvisual,2.1,[],8,0.75,
0,pause,0.4,None,None,None,0,51,51,51,,,,,,,,,,,,,N012,visual,6,[],"['1', '2', '3', '4']",1,2023.2.3,harveyvisual,2.1,[],8,0.75,
5,dot,0.3,['dot'],['density'],black,0,52,52,52,,,20.60021686553955,20.309075832366943,20.609034776687622,dot,"[0.06, 0.08, 0.08, 0.06, 0.06]","[[-0.0036269740154891753, 0.5431219823242713], [-0.2646325594942043, 0.5073179604697073], [-0.41902475937036154, 0.37311436690984484], [-0.007163214206743488, 0.2887893175302695], [-0.2156098228659233, 0.2684642371109035]]",density,black,,,N012,visual,6,[],"['1', '2', '3', '4']",1,2023.2.3,harveyvisual,2.1,[],8,0.75,
0,pause,0.4,None,None,None,0,53,53,53,,,,,,,,,,,,,N012,visual,6,[],"['1', '2', '3', '4']",1,2023.2.3,harveyvisual,2.1,[],8,0.75,
5,dot,0.3,['dot'],['density'],black,0,54,54,54,,,21.300203800201416,21.010600805282593,21.3090558052063,dot,"[0.08, 0.1, 0.1, 0.08, 0.1]","[[0.10558973120531606, -0.20428866875977839], [-0.0893225412758366, 0.16524926947551877], [-0.05793580974794309, -0.07826743033729393], [0.11130747138107101, 0.10875249109580729], [0.28035132100960686, -0.09064984251937742]]",density,black,,,N012,visual,6,[],"['1', '2', '3', '4']",1,2023.2.3,harveyvisual,2.1,[],8,0.75,
0,pause,0.4,None,None,None,0,55,55,55,,,,,,,,,,,,,N012,visual,6,[],"['1', '2', '3', '4']",1,2023.2.3,harveyvisual,2.1,[],8,0.75,
5,dot,0.3,['dot'],['density'],black,0,56,56,56,,,22.000216007232666,21.709184885025024,22.009066820144653,dot,"[0.08, 0.08, 0.06, 0.1, 0.1]","[[-0.18510638544872327, 0.41559840932892733], [-0.057175862535637494, 0.18304904272057057], [0.24003340414173915, 0.43371676657957026], [0.006490958465160464, 0.4770521622163581], [0.13658455045585424, 0.2476502540597336]]",density,black,,,N012,visual,6,[],"['1', '2', '3', '4']",1,2023.2.3,harveyvisual,2.1,[],8,0.75,
0,pause,0.4,None,None,None,0,57,57,57,,,,,,,,,,,,,N012,visual,6,[],"['1', '2', '3', '4']",1,2023.2.3,harveyvisual,2.1,[],8,0.75,
5,dot,0.3,['dot'],['density'],white,0,58,58,58,,,22.700212001800537,22.409039974212646,22.709024906158447,dot,"[0.1, 0.06, 0.1, 0.08, 0.06]","[[-0.3632963637400461, -0.33792544526642676], [-0.48189922448633543, -0.036156829306921726], [-0.2958020468624338, 0.07292024124872273], [-0.10639492237515816, -0.0008972940205680791], [-0.20818262001932955, -0.17666930306052683]]",density,white,,,N012,visual,6,[],"['1', '2', '3', '4']",1,2023.2.3,harveyvisual,2.1,[],8,0.75,
0,pause,0.4,None,None,None,0,59,59,59,,,,,,,,,,,1,22.931035041809082,N012,visual,6,[],"['1', '2', '3', '4']",1,2023.2.3,harveyvisual,2.1,[],8,0.75,
6,dot,0.3,['dot'],['density'],black,0,60,60,60,,,23.400218963623047,23.108994007110596,23.408987998962402,dot,"[0.06, 0.1, 0.08, 0.08, 0.08, 0.08]","[[0.500827999951601, -0.23304028533624072], [0.20916386845998064, 0.08030245107060778], [0.27809793757338463, -0.1905950399710685], [0.08327260932553728, -0.13599284299194644], [0.16768982653485215, -0.38480252821003114], [0.4174962964646186, 0.01069632702004041]]",density,black,,,N012,visual,6,[],"['1', '2', '3', '4']",1,2023.2.3,harveyvisual,2.1,[],8,0.75,
0,pause,0.4,None,None,None,0,61,61,61,,,,,,,,,,,,,N012,visual,6,[],"['1', '2', '3', '4']",1,2023.2.3,harveyvisual,2.1,[],8,0.75,
6,dot,0.3,['dot'],['density'],black,0,62,62,62,,,24.100217819213867,23.80896496772766,24.108958959579468,dot,"[0.08, 0.1, 0.1, 0.08, 0.1, 0.08]","[[-0.2094991805307552, 0.08302354111181451], [0.09557258300728075, 0.3458622669714129], [0.22056408800171526, -0.017094369341425636], [0.026601936584830878, 0.1297564650757722], [-0.11681768564656844, 0.2726391152528644], [-0.03570146891163527, -0.09222923444939024]]",density,black,,,N012,visual,6,[],"['1', '2', '3', '4']",1,2023.2.3,harveyvisual,2.1,[],8,0.75,
0,pause,0.4,None,None,None,0,63,63,63,,,,,,,,,,,,,N012,visual,6,[],"['1', '2', '3', '4']",1,2023.2.3,harveyvisual,2.1,[],8,0.75,
6,dot,0.3,['dot'],['density'],black,0,64,64,64,,,24.800206899642944,24.50894784927368,24.808934926986694,dot,"[0.06, 0.1, 0.1, 0.06, 0.1, 0.08]","[[-0.36954580940820725, 0.05815165478813925], [-0.28534481837461456, -0.12375618373579561], [-0.26428406214372846, 0.28010711109252995], [-0.5657182147315603, -0.11096589427743007], [-0.1492704575467133, 0.06899119969773035], [-0.5584105255039638, 0.13196562846102936]]",density,black,,,N012,visual,6,[],"['1', '2', '3', '4']",1,2023.2.3,harveyvisual,2.1,[],8,0.75,
0,pause,0.4,None,None,None,0,65,65,65,,,,,,,,,,,,,N012,visual,6,[],"['1', '2', '3', '4']",1,2023.2.3,harveyvisual,2.1,[],8,0.75,
6,dot,0.3,['dot'],['density'],black,0,66,66,66,,,25.500218868255615,25.208943843841553,25.50892186164856,dot,"[0.08, 0.08, 0.1, 0.08, 0.06, 0.08]","[[-0.4718675517483807, -0.080313523620691], [-0.31247550484642445, -0.23218356379105512], [-0.2575593735283343, 0.24158811959194182], [-0.2948669609652105, 0.017652028830845004], [-0.0883702388727292, 0.027494606567874856], [-0.45154527444290743, 0.17691331155056722]]",density,black,,,N012,visual,6,[],"['1', '2', '3', '4']",1,2023.2.3,harveyvisual,2.1,[],8,0.75,
0,pause,0.4,None,None,None,0,67,67,67,,,,,,,,,,,,,N012,visual,6,[],"['1', '2', '3', '4']",1,2023.2.3,harveyvisual,2.1,[],8,0.75,
6,dot,0.3,['dot'],['density'],black,0,68,68,68,,,26.200219869613647,25.90891981124878,26.20888900756836,dot,"[0.08, 0.08, 0.06, 0.06, 0.06, 0.06]","[[-0.362545063880459, -0.421860962952156], [-0.24010638466002518, -0.0327569241266412], [-0.22622339336134992, -0.23590116153186103], [-0.41823503972227205, -0.14060420183103206], [-0.028992295722001654, -0.1293578273409096], [-0.1459617666416116, -0.4591052827033254]]",density,black,,,N012,visual,6,[],"['1', '2', '3', '4']",1,2023.2.3,harveyvisual,2.1,[],8,0.75,
0,pause,0.4,None,None,None,0,69,69,69,,,,,,,,,,,,,N012,visual,6,[],"['1', '2', '3', '4']",1,2023.2.3,harveyvisual,2.1,[],8,0.75,
6,dot,0.3,['dot'],['density'],black,0,70,70,70,,,26.900200843811035,26.608898878097534,26.90886878967285,dot,"[0.1, 0.06, 0.08, 0.1, 0.06, 0.06]","[[-0.3622751979984162, 0.41275935807220604], [-0.5464806003183257, 0.06358334875023645], [-0.15518785678585886, 0.34969079698534317], [-0.3231370338359737, -0.02193421190541931], [-0.3473470749510941, 0.19885557425221048], [-0.12382976466594668, 0.04156566071734393]]",density,black,,,N012,visual,6,[],"['1', '2', '3', '4']",1,2023.2.3,harveyvisual,2.1,[],8,0.75,
0,pause,0.4,None,None,None,0,71,71,71,,,,,,,,,,,,,N012,visual,6,[],"['1', '2', '3', '4']",1,2023.2.3,harveyvisual,2.1,[],8,0.75,
7,dot,0.3,['dot'],['density'],black,0,72,72,72,,,27.600217819213867,27.30886697769165,27.608864784240723,dot,"[0.06, 0.08, 0.06, 0.1, 0.1, 0.1, 0.08]","[[0.13823229125104186, -0.11287424625882309], [-0.082914425993103, 0.43156227464827385], [0.30107400633957315, 0.2583336012722512], [-0.1103107855725706, 0.20298726112520996], [0.37862923877470095, 0.05664428164281185], [0.10057609128089995, 0.3089177590539603], [0.1009283971288976, 0.1061295027106774]]",density,black,,,N012,visual,6,[],"['1', '2', '3', '4']",1,2023.2.3,harveyvisual,2.1,[],8,0.75,
0,pause,0.4,None,None,None,0,73,73,73,,,,,,,,,,,,,N012,visual,6,[],"['1', '2', '3', '4']",1,2023.2.3,harveyvisual,2.1,[],8,0.75,
7,dot,0.3,['dot'],['density'],black,0,74,74,74,,,28.300206899642944,28.008852005004883,28.30884099006653,dot,"[0.06, 0.1, 0.08, 0.08, 0.08, 0.08, 0.06]","[[-0.15204905838880944, -0.5333107186751418], [-0.1519936835116667, -0.2986813487337615], [0.3123805602017952, -0.370842296180838], [-0.04397638837772695, -0.01669328424437847], [0.11716920447009348, -0.14912816843546053], [0.1067198166566748, -0.5553575834591685], [0.04038917577175449, -0.3541606866516689]]",density,black,,,N012,visual,6,[],"['1', '2', '3', '4']",1,2023.2.3,harveyvisual,2.1,[],8,0.75,
0,pause,0.4,None,None,None,0,75,75,75,,,,,,,,,,,,,N012,visual,6,[],"['1', '2', '3', '4']",1,2023.2.3,harveyvisual,2.1,[],8,0.75,
7,dot,0.3,['dot'],['density'],black,0,76,76,76,,,29.00022578239441,28.708841800689697,29.00881600379944,dot,"[0.08, 0.1, 0.08, 0.06, 0.08, 0.1, 0.1]","[[-0.27819289690075527, 0.2483046813246476], [-0.5592260237138849, -0.07980801324287977], [-0.026637344717372308, -0.10521889364121585], [-0.16909952645659185, 0.05101222878256789], [-0.21868546305501066, -0.16482274839932262], [-0.3689572500107929, 0.03738969849335829], [-0.49227831811218986, 0.2063327632277477]]",density,black,,,N012,visual,6,[],"['1', '2', '3', '4']",1,2023.2.3,harveyvisual,2.1,[],8,0.75,
0,pause,0.4,None,None,None,0,77,77,77,,,,,,,,,,,,,N012,visual,6,[],"['1', '2', '3', '4']",1,2023.2.3,harveyvisual,2.1,[],8,0.75,
7,dot,0.3,['dot'],['density'],black,0,78,78,78,,,29.70020294189453,29.408811807632446,29.708802938461304,dot,"[0.08, 0.08, 0.1, 0.1, 0.08, 0.06, 0.06]","[[-0.4069355390488937, 0.37207368581823036], [-0.24593577727054447, 0.19917396778247878], [-0.42360727833657225, -0.08003411738888748], [-0.22269992972584096, -0.007913174381400552], [-0.5458110461780458, 0.2006057762678532], [-0.12767295506375728, 0.3689678629588407], [-0.26313434255033313, 0.5223746060296944]]",density,black,,,N012,visual,6,[],"['1', '2', '3', '4']",1,2023.2.3,harveyvisual,2.1,[],8,0.75,
0,pause,0.4,None,None,None,0,79,79,79,,,,,,,,,,,,,N012,visual,6,[],"['1', '2', '3', '4']",1,2023.2.3,harveyvisual,2.1,[],8,0.75,
7,dot,0.3,['dot'],['density'],black,0,80,80,80,,,30.40021800994873,30.108804941177368,30.40878391265869,dot,"[0.1, 0.08, 0.1, 0.1, 0.1, 0.06, 0.08]","[[0.020512593940644967, 0.06058225053891463], [-0.12457192929091994, 0.22210134043855223], [0.2267676360835929, 0.07227077176864677], [-0.19381219694833235, -0.14277017550647156], [0.096077147208419, -0.13886261858003718], [0.087393672000005, 0.26445259248386815], [-0.018663113410245565, 0.4344684582511623]]",density,black,,,N012,visual,6,[],"['1', '2', '3', '4']",1,2023.2.3,harveyvisual,2.1,[],8,0.75,
0,pause,0.4,None,None,None,0,81,81,81,,,,,,,,,,,,,N012,visual,6,[],"['1', '2', '3', '4']",1,2023.2.3,harveyvisual,2.1,[],8,0.75,
7,dot,0.3,['dot'],['density'],black,0,82,82,82,,,31.10022282600403,30.808793783187866,31.108811855316162,dot,"[0.1, 0.08, 0.1, 0.08, 0.1, 0.06, 0.1]","[[-0.39883248072855915, 0.30823732592088265], [-0.041341486549100435, 0.2390478988097413], [-0.013495537319202725, 0.5211111720540192], [-0.2415889716500472, 0.10795059447242317], [-0.023803066389735523, 0.02076064871433158], [0.14387498046506175, 0.3548008600093999], [-0.24331877599120405, 0.46521846842164205]]",density,black,,,N012,visual,6,[],"['1', '2', '3', '4']",1,2023.2.3,harveyvisual,2.1,[],8,0.75,
0,pause,0.4,None,None,None,0,83,83,83,,,,,,,,,,,,,N012,visual,6,[],"['1', '2', '3', '4']",1,2023.2.3,harveyvisual,2.1,[],8,0.75,
8,dot,0.3,['dot'],['density'],black,0,84,84,84,,,31.80022096633911,31.50877094268799,31.808775901794434,dot,"[0.06, 0.06, 0.08, 0.1, 0.06, 0.06, 0.1, 0.1]","[[-0.2875956673588428, -0.37608972473646446], [0.1738442798715151, -0.5418380206356169], [-0.005791994605287101, -0.36400925298789194], [0.15381919852689818, -0.2106776783026027], [-0.02243369038452208, -0.11017027562433494], [-0.1375601387891928, -0.5383184991665005], [0.3481619806761259, -0.4256719133417836], [-0.2437856683810358, -0.16373273019932677]]",density,black,,,N012,visual,6,[],"['1', '2', '3', '4']",1,2023.2.3,harveyvisual,2.1,[],8,0.75,
0,pause,0.4,None,None,None,0,85,85,85,,,,,,,,,,,,,N012,visual,6,[],"['1', '2', '3', '4']",1,2023.2.3,harveyvisual,2.1,[],8,0.75,
8,dot,0.3,['dot'],['density'],black,0,86,86,86,,,32.50022292137146,32.20876383781433,32.50874590873718,dot,"[0.06, 0.06, 0.08, 0.1, 0.06, 0.08, 0.1, 0.1]","[[-0.3306282708070712, -0.09459634407206743], [0.17708038186302957, -0.36794437316098305], [-0.34368294577136044, -0.39688855169369486], [-0.16397220561896333, 0.03033928826277653], [-0.08476975953586025, -0.41834960305423746], [-0.16765121495786453, -0.2265743681515788], [0.0449590487082352, -0.10546915507075137], [-0.5574709661459258, -0.15664368712912546]]",density,black,,,N012,visual,6,[],"['1', '2', '3', '4']",1,2023.2.3,harveyvisual,2.1,[],8,0.75,
0,pause,0.4,None,None,None,0,87,87,87,,,,,,,,,,,,,N012,visual,6,[],"['1', '2', '3', '4']",1,2023.2.3,harveyvisual,2.1,[],8,0.75,
8,dot,0.3,['dot'],['density'],black,0,88,88,88,,,33.200204849243164,32.90873599052429,33.20873188972473,dot,"[0.06, 0.1, 0.1, 0.06, 0.06, 0.08, 0.08, 0.06]","[[-0.503192831713878, 0.2818759502405315], [-0.1851508851951268, 0.5121570681976513], [-0.3428391331654375, 0.06336275884690255], [-0.2620893383019587, 0.2653373399092269], [-0.09201493982796581, 0.138249408295409], [-0.14188251758679749, -0.08598668861617832], [-0.5391716430792404, 0.01870596234549803], [-0.2779852747659758, -0.23950462846526258]]",density,black,,,N012,visual,6,[],"['1', '2', '3', '4']",1,2023.2.3,harveyvisual,2.1,[],8,0.75,
0,pause,0.4,None,None,None,0,89,89,89,,,,,,,,,,,,,N012,visual,6,[],"['1', '2', '3', '4']",1,2023.2.3,harveyvisual,2.1,[],8,0.75,
8,dot,0.3,['dot'],['density'],black,0,90,90,90,,,33.900205850601196,33.608717918395996,33.908681869506836,dot,"[0.1, 0.08, 0.1, 0.08, 0.06, 0.06, 0.1, 0.06]","[[-0.17001050475317317, -0.17367687575201368], [0.3600613666554234, 0.010096468830953859], [-0.08326222131596324, 0.04242117989324811], [0.04296950773068638, 0.29875887990525135], [0.04919814700692566, -0.23206276490508926], [0.2733682510361541, 0.19343137942482672], [0.15974695196996483, -0.02827404827190698], [-0.2919014881818027, 0.0006738684867251376]]",density,black,,,N012,visual,6,[],"['1', '2', '3', '4']",1,2023.2.3,harveyvisual,2.1,[],8,0.75,
0,pause,0.4,None,None,None,0,91,91,91,,,,,,,,,,,,,N012,visual,6,[],"['1', '2', '3', '4']",1,2023.2.3,harveyvisual,2.1,[],8,0.75,
8,dot,0.3,['dot'],['density'],black,0,92,92,92,,,34.60021090507507,34.308743953704834,34.60861587524414,dot,"[0.1, 0.1, 0.1, 0.06, 0.08, 0.1, 0.08, 0.08]","[[-0.4462313073918426, 0.10595449025715867], [0.022923871415176152, 0.06290918987699953], [-0.12461589820496316, 0.4830175517012745], [-0.29730306390741434, 0.2752084497958106], [-0.2195410516364439, 0.056871795648565045], [0.008916049516666445, 0.2907399105306955], [-0.08256048209355603, -0.11638226771844133], [-0.4106304257826301, -0.09222594144079917]]",density,black,,,N012,visual,6,[],"['1', '2', '3', '4']",1,2023.2.3,harveyvisual,2.1,[],8,0.75,
0,pause,0.4,None,None,None,0,93,93,93,,,,,,,,,,,,,N012,visual,6,[],"['1', '2', '3', '4']",1,2023.2.3,harveyvisual,2.1,[],8,0.75,
8,dot,0.3,['dot'],['density'],black,0,94,94,94,,,35.30020785331726,35.00889992713928,35.30869698524475,dot,"[0.08, 0.06, 0.06, 0.08, 0.08, 0.06, 0.08, 0.1]","[[-0.503192831713878, 0.2818759502405315], [-0.1851508851951268, 0.5121570681976513], [-0.3428391331654375, 0.06336275884690255], [-0.2620893383019587, 0.2653373399092269], [-0.09201493982796581, 0.138249408295409], [-0.14188251758679749, -0.08598668861617832], [-0.5391716430792404, 0.01870596234549803], [-0.2779852747659758, -0.23950462846526258]]",density,black,,,N012,visual,6,[],"['1', '2', '3', '4']",1,2023.2.3,harveyvisual,2.1,[],8,0.75,
0,pause,0.4,None,None,None,0,95,95,95,,,,,,,,,,,,,N012,visual,6,[],"['1', '2', '3', '4']",1,2023.2.3,harveyvisual,2.1,[],8,0.75,
9,dot,0.3,['dot'],['density'],black,0,96,96,96,,,36.00020694732666,35.70868897438049,36.00868082046509,dot,"[0.1, 0.06, 0.08, 0.06, 0.06, 0.1, 0.06, 0.1, 0.08]","[[0.26246064217380705, -0.20881461689055444], [-0.05738061480455322, -0.2104867327221427], [-0.15279665209492657, -0.4570696492981838], [-0.25848085101471047, 0.03539482855188907], [0.05438928923437074, -0.041842351158073866], [-0.266438460152573, -0.22510974363943476], [-0.08630847597628627, 0.16925380219028288], [0.1378984379274782, 0.16880467564350782], [0.14927440204233722, -0.41110624343475755]]",density,black,,,N012,visual,6,[],"['1', '2', '3', '4']",1,2023.2.3,harveyvisual,2.1,[],8,0.75,
0,pause,0.4,None,None,None,0,97,97,97,,,,,,,,,,,,,N012,visual,6,[],"['1', '2', '3', '4']",1,2023.2.3,harveyvisual,2.1,[],8,0.75,
9,dot,0.3,['dot'],['density'],black,0,98,98,98,,,36.700220823287964,36.40866994857788,36.708876848220825,dot,"[0.06, 0.08, 0.1, 0.08, 0.1, 0.1, 0.06, 0.1, 0.06]","[[-0.01550530976013749, -0.4685693709261764], [-0.18673980358629047, -0.03677939788938074], [-0.492500386343057, -0.31631588298646995], [-0.31211872613566405, -0.49615226168915794], [-0.29213402726227655, -0.2779210730957987], [-0.48141959868665407, -0.11483975315711048], [0.2805727548720413, -0.20550850813502752], [-0.0662162642732561, -0.2200496541038322], [0.06776853683421198, -0.046300179137656175]]",density,black,,,N012,visual,6,[],"['1', '2', '3', '4']",1,2023.2.3,harveyvisual,2.1,[],8,0.75,
0,pause,0.4,None,None,None,0,99,99,99,,,,,,,,,,,,,N012,visual,6,[],"['1', '2', '3', '4']",1,2023.2.3,harveyvisual,2.1,[],8,0.75,
9,dot,0.3,['dot'],['density'],black,0,100,100,100,,,37.40020394325256,37.10862684249878,37.4086389541626,dot,"[0.08, 0.1, 0.1, 0.08, 0.1, 0.08, 0.08, 0.06, 0.1]","[[0.11766436913102363, -0.04327704920019282], [0.17973489876850246, -0.2957558932143311], [0.4322853556796634, 0.1292829237047714], [-0.0348924626991882, -0.2091692004054023], [0.511593351462966, -0.2715393032181878], [0.39631341359825684, -0.10388811790353111], [0.1759041025424718, 0.35783279634564974], [-0.11077337801993212, 0.08002505665429639], [0.1915495233696259, 0.15329463501335125]]",density,black,,,N012,visual,6,[],"['1', '2', '3', '4']",1,2023.2.3,harveyvisual,2.1,[],8,0.75,
0,pause,0.4,None,None,None,0,101,101,101,,,,,,,,,,,,,N012,visual,6,[],"['1', '2', '3', '4']",1,2023.2.3,harveyvisual,2.1,[],8,0.75,
9,dot,0.3,['dot'],['density'],black,0,102,102,102,,,38.10021495819092,37.80885100364685,38.108866930007935,dot,"[0.08, 0.06, 0.08, 0.1, 0.06, 0.1, 0.06, 0.06, 0.08]","[[0.27429149071172837, 0.34251676390746333], [0.46797507249945486, 0.005491811463162166], [0.21235580877939833, 0.08757146436558581], [0.046223583492975936, 0.2932249054251131], [0.07051592556679111, -0.0704922843318231], [0.30438918969270623, -0.13028831600800136], [0.11534598117609637, 0.5236829685630697], [-0.06673610159464062, 0.12515255452502297], [-0.14439101605953233, -0.1332028051536465]]",density,black,,,N012,visual,6,[],"['1', '2', '3', '4']",1,2023.2.3,harveyvisual,2.1,[],8,0.75,
0,pause,0.4,None,None,None,0,103,103,103,,,,,,,,,,,,,N012,visual,6,[],"['1', '2', '3', '4']",1,2023.2.3,harveyvisual,2.1,[],8,0.75,
9,dot,0.3,['dot'],['density'],black,0,104,104,104,,,38.800211906433105,38.50861597061157,38.80860900878906,dot,"[0.08, 0.1, 0.06, 0.1, 0.1, 0.08, 0.08, 0.06, 0.06]","[[0.43694394638140777, -0.3313910020207278], [-0.12671083892604185, -0.2904925475365486], [0.20104083284362928, 0.10806727359081147], [0.1376754545064979, -0.09924520624161907], [0.19021248837847174, -0.31516489548878085], [0.3653456942078643, -0.09076399745187974], [0.1403131072824284, -0.5562242851951704], [-0.005445667935095978, 0.0898710966384087], [-0.11923067905189093, -0.07827803450029165]]",density,black,,,N012,visual,6,[],"['1', '2', '3', '4']",1,2023.2.3,harveyvisual,2.1,[],8,0.75,
0,pause,0.4,None,None,None,0,105,105,105,,,,,,,,,,,,,N012,visual,6,[],"['1', '2', '3', '4']",1,2023.2.3,harveyvisual,2.1,[],8,0.75,
9,dot,0.3,['dot'],['density'],black,0,106,106,106,,,39.500211000442505,39.20860195159912,39.5085768699646,dot,"[0.08, 0.06, 0.1, 0.08, 0.08, 0.1, 0.06, 0.1, 0.06]","[[-0.1410632352740557, -0.317905811010377], [-0.01624442214728049, 0.1794094022286925], [0.09468404279643694, -0.24727132108451297], [-0.2758455249254349, -0.14491344886434532], [-0.07397021974914944, -0.09933967896750957], [-0.3580751224104431, 0.12641846535160695], [0.3672464474339042, -0.09947208873420914], [0.14679994141956812, -0.049441009882571184], [0.20049431506903384, 0.1443691092520585]]",density,black,,,N012,visual,6,[],"['1', '2', '3', '4']",1,2023.2.3,harveyvisual,2.1,[],8,0.75,
0,pause,0.4,None,None,None,0,107,107,107,,,,,,,,,,,,,N012,visual,6,[],"['1', '2', '3', '4']",1,2023.2.3,harveyvisual,2.1,[],8,0.75,
20,dot,0.3,['dot'],['density'],black,0,108,108,108,,,40.200225830078125,39.925251960754395,40.20856189727783,dot,"[0.06, 0.06, 0.06, 0.08, 0.06, 0.06, 0.06, 0.08, 0.1, 0.06, 0.06, 0.06, 0.08, 0.06, 0.1, 0.06, 0.1, 0.1, 0.06, 0.08]","[[-0.4232316086691946, 0.2576896991695566], [0.2324889956028835, 0.5468469284984228], [0.2856260285318303, 0.23814982485752667], [-0.27492435532522513, -0.19702391622796128], [0.1724632906822361, -0.0703277812777483], [-0.4426230119928661, 0.010427199958771949], [-0.2257512040001261, 0.064945783300553], [-0.29419207009855713, 0.4994460998398045], [0.06592029439212532, -0.30493057767602555], [-0.026069191463543917, 0.5817104018008649], [0.355330479560096, -0.4202389341998461], [0.40620456715650854, 0.441573447824729], [0.10685901979419254, 0.34498143454945374], [0.5862240072678132, -0.13447179625443356], [-0.45968235732066287, -0.27402737865384214], [0.3877603653741707, -0.18124402017488783], [-0.026090514228688355, -0.598936334519867], [0.18767857875936256, -0.5219035932551778], [0.5504922153900814, 0.1719078556515865], [-0.21830480193770607, -0.4331538570637905]]",density,black,,,N012,visual,6,[],"['1', '2', '3', '4']",1,2023.2.3,harveyvisual,2.1,[],8,0.75,
0,pause,0.4,None,None,None,0,109,109,109,,,,,,,,,,,,,N012,visual,6,[],"['1', '2', '3', '4']",1,2023.2.3,harveyvisual,2.1,[],8,0.75,
20,dot,0.3,['dot'],['density'],black,0,110,110,110,,,40.900211811065674,40.62523889541626,40.908543825149536,dot,"[0.08, 0.06, 0.08, 0.08, 0.08, 0.06, 0.08, 0.08, 0.1, 0.08, 0.08, 0.08, 0.1, 0.06, 0.06, 0.1, 0.08, 0.06, 0.06, 0.08]","[[-0.2654337453556757, -0.11408318160938802], [0.026300065862604693, 0.4718119189232428], [-0.6020438548758263, -0.04914314942857126], [0.4283171555234143, -0.2932924802629083], [-0.280461306053399, 0.4520775994977062], [0.5991536201118987, 0.022376147858390788], [-0.08975949046721399, 0.21728844970820405], [-0.5339638287541502, 0.28145623925886804], [0.4983880424160997, 0.3306013028127892], [0.18300050681072577, -0.15137398196524537], [-0.18309658701616838, -0.31111714868498913], [-0.033091130440349725, 0.007083566293673571], [0.20919229980746357, 0.39797882208855384], [-0.35451889757667226, 0.08626140025217915], [0.4113120925916983, 0.12668917525067463], [0.17402291801701952, -0.45788202500892405], [-0.4041723359234286, -0.27962905758355705], [0.21501651482712403, 0.10582596703711056], [-0.2578020469256259, -0.5354186652646346], [-0.03648715149386361, -0.5609405339463975]]",density,black,,,N012,visual,6,[],"['1', '2', '3', '4']",1,2023.2.3,harveyvisual,2.1,[],8,0.75,
0,pause,0.4,None,None,None,0,111,111,111,,,,,,,,,,,,,N012,visual,6,[],"['1', '2', '3', '4']",1,2023.2.3,harveyvisual,2.1,[],8,0.75,
20,dot,0.3,['dot'],['density'],black,0,112,112,112,,,41.60021901130676,41.32521390914917,41.608529806137085,dot,"[0.1, 0.08, 0.1, 0.08, 0.08, 0.1, 0.08, 0.08, 0.1, 0.08, 0.1, 0.08, 0.1, 0.06, 0.1, 0.08, 0.1, 0.1, 0.06, 0.06]","[[0.34373406096402137, 0.42928643657074544], [0.29903655447610455, -0.4015441985707445], [0.31293368366981766, 0.1553375675901444], [-0.49371305061482795, 0.17661276469496634], [-0.501731996959272, -0.2617663924118185], [-0.5721823750560492, -0.021932054889475805], [0.4601441451852758, -0.06838700797101138], [-0.18119124747387427, 0.2832099591159414], [0.1105553583120723, -0.07910199908715254], [-0.299115704334332, -0.16398153131529059], [0.13084851568131262, 0.35934597690202286], [0.03620882122427416, -0.47533675083803095], [-0.2872037003474699, -0.5287819304687749], [-0.3588396415500983, 0.4636838197559927], [-0.06781554162423853, 0.5096127027953912], [-0.04162346491774804, 0.08297561214599869], [0.5114138573230388, -0.2883570389318653], [-0.1744033321630763, -0.3249806770077213], [0.588663422686439, 0.10926523267422947], [-0.3003766093606632, 0.04881923154888246]]",density,black,,,N012,visual,6,[],"['1', '2', '3', '4']",1,2023.2.3,harveyvisual,2.1,[],8,0.75,
0,pause,0.4,None,None,None,0,113,113,113,,,,,,,,,,,,,N012,visual,6,[],"['1', '2', '3', '4']",1,2023.2.3,harveyvisual,2.1,[],8,0.75,
20,dot,0.3,['dot'],['density'],black,0,114,114,114,,,42.300215005874634,42.02532696723938,42.30847978591919,dot,"[0.06, 0.1, 0.1, 0.1, 0.08, 0.08, 0.06, 0.08, 0.08, 0.06, 0.06, 0.08, 0.08, 0.06, 0.06, 0.06, 0.1, 0.06, 0.06, 0.08]","[[0.43349430838890923, 0.05990823509714449], [-0.4385438033089624, -0.382408455620198], [-0.38996877077789444, 0.3834061355977438], [0.3176985524669812, 0.22781358804214957], [0.038217922653525305, 0.01994112667940151], [0.1324374125312291, -0.5396341568704728], [-0.3748317932696159, 0.058291842586727316], [-0.20994223656247046, 0.5103598756471496], [-0.02187276965629259, 0.31534397276191517], [-0.046876844070770085, -0.3229184270592733], [0.5132386289631851, -0.13144420215188732], [-0.5708816950802198, -0.1765156419931815], [-0.24953871966718494, -0.530024005164324], [0.3594177918962045, -0.2982253444659004], [0.0929828321644991, 0.5164833136995223], [-0.21325143987707262, 0.3044998796797982], [0.24510441292068552, -0.12141836764635516], [-0.247785899540377, -0.2368179190289939], [-0.12802756207509436, 0.12259549131100367], [-0.0562057170978183, -0.5200603901562783]]",density,black,,,N012,visual,6,[],"['1', '2', '3', '4']",1,2023.2.3,harveyvisual,2.1,[],8,0.75,
0,pause,0.4,None,None,None,0,115,115,115,,,,,,,,,,,,,N012,visual,6,[],"['1', '2', '3', '4']",1,2023.2.3,harveyvisual,2.1,[],8,0.75,
20,dot,0.3,['dot'],['density'],black,0,116,116,116,,,43.00021290779114,42.72515392303467,43.008508920669556,dot,"[0.08, 0.06, 0.08, 0.1, 0.06, 0.1, 0.1, 0.06, 0.1, 0.1, 0.1, 0.1, 0.06, 0.06, 0.1, 0.06, 0.06, 0.08, 0.06, 0.06]","[[0.5360182030764039, -0.23483051602260233], [0.00104391236167789, 0.06762201057049144], [-0.06986629338541772, -0.32133792967362734], [-0.4929901942098744, -0.3240600899203303], [-0.13322457905523366, -0.1376531970603151], [0.4679646392509932, 0.018568985270495053], [0.0611022670686967, -0.5186164140932705], [-0.31818124011737414, 0.045175647059785606], [-0.24561327462470178, 0.2516662894608622], [-0.5432265568945099, 0.23391069398716857], [0.13446563383113697, -0.12793035891261545], [-0.5971771374483016, 0.016099814193486328], [0.3281698736862927, -0.2166789424875935], [0.2344387288336398, 0.15807708129943276], [0.5363773875663483, 0.23211481288599634], [-0.031445534482122506, 0.35506258403756563], [0.3967340824973492, 0.43711647352471517], [-0.22185629296150738, -0.525304154779695], [0.40940584567139193, -0.4404873090255486], [0.07452796110243443, 0.5510181090025121]]",density,black,,,N012,visual,6,[],"['1', '2', '3', '4']",1,2023.2.3,harveyvisual,2.1,[],8,0.75,
0,pause,0.4,None,None,None,0,117,117,117,,,,,,,,,,,,,N012,visual,6,[],"['1', '2', '3', '4']",1,2023.2.3,harveyvisual,2.1,[],8,0.75,
20,dot,0.3,['dot'],['density'],black,0,118,118,118,,,43.700217962265015,43.42512488365173,43.70844793319702,dot,"[0.1, 0.08, 0.06, 0.1, 0.08, 0.08, 0.08, 0.1, 0.1, 0.06, 0.1, 0.1, 0.06, 0.06, 0.1, 0.08, 0.08, 0.1, 0.1, 0.1]","[[0.17664836586040122, 0.5184048086588737], [-0.43046310278369904, -0.10880641499221327], [-0.3831935772486195, -0.3729338202430612], [0.4805246842542171, 0.20029168931112012], [-0.42253970212338976, 0.36161020576509695], [-0.11072801825500778, 0.23570977560005735], [-0.21436947786175503, 0.4834311900730174], [-0.0062381242667426395, -0.3389959366480712], [-0.1674467045083699, -0.23539591143504313], [0.09220409282311515, 0.07878341357601504], [0.46519695647387727, -0.23738732455421738], [0.27847670342087105, -0.4127664284804319], [0.35055029607543764, 0.4363557847288982], [0.3893677057182997, -0.04089364513304855], [-0.21356712676839634, -0.47456015443277333], [0.17792517202584546, 0.29053205415086747], [-0.545050733658506, 0.09856002438026873], [0.5879076117371692, 0.005461225030496092], [-0.3176170054277013, 0.04808100406403781], [0.18843117721420755, -0.1940649259926428]]",density,black,,,N012,visual,6,[],"['1', '2', '3', '4']",1,2023.2.3,harveyvisual,2.1,[],8,0.75,
0,pause,0.4,None,None,None,0,119,119,119,,,,,,,,,,,,,N012,visual,6,[],"['1', '2', '3', '4']",1,2023.2.3,harveyvisual,2.1,[],8,0.75,
20,dot,0.3,['dot'],['density'],black,0,120,120,120,,,44.40021300315857,44.12509894371033,44.408442974090576,dot,"[0.1, 0.06, 0.06, 0.08, 0.08, 0.08, 0.08, 0.06, 0.06, 0.08, 0.08, 0.06, 0.1, 0.1, 0.06, 0.1, 0.1, 0.1, 0.1, 0.06]","[[0.417972894572341, 0.04475396736908038], [0.03980977901486815, -0.29996018980494343], [0.4528759685213114, -0.2746194216132742], [0.28975513760086136, 0.410804067794204], [-0.08011667780061871, -0.13755282784435036], [-0.28232116463053036, -0.36482569555517486], [-0.5102980908454255, -0.28062014857133777], [0.16271845606879376, 0.565382203043095], [-0.11111800700841756, -0.4664450592325755], [0.1138429490279469, 0.25187017596742767], [-0.5764469810944627, -0.05115348775446188], [-0.39746442066884063, 0.24220009041310792], [0.19217261291366783, 0.022344084200862202], [-0.20394016351414607, 0.4889464020720764], [-0.22416580896591726, 0.067852627802381], [-0.1765691313629008, 0.2688317990604553], [0.509124694079596, 0.2530771642358323], [0.6035103008854451, -0.03620727889643709], [0.26422252696545134, -0.3581575991439093], [-0.31021700060696505, -0.15083704476308385]]",density,black,,,N012,visual,6,[],"['1', '2', '3', '4']",1,2023.2.3,harveyvisual,2.1,[],8,0.75,
0,pause,0.4,None,None,None,0,121,121,121,,,,,,,,,,,,,N012,visual,6,[],"['1', '2', '3', '4']",1,2023.2.3,harveyvisual,2.1,[],8,0.75,
20,dot,0.3,['dot'],['density'],black,0,122,122,122,,,45.10020399093628,44.82508897781372,45.1084098815918,dot,"[0.1, 0.06, 0.08, 0.06, 0.06, 0.1, 0.1, 0.06, 0.06, 0.1, 0.06, 0.1, 0.08, 0.1, 0.1, 0.1, 0.08, 0.08, 0.1, 0.06]","[[0.1692044881857402, -0.08146379495351286], [0.35580320312312963, 0.05174991122360284], [-0.24950830732137003, 0.27339775368131447], [-0.10896900525795272, -0.1276850977219014], [0.2242430014933735, -0.5227090466751372], [0.4772193169389837, -0.20766402448535307], [0.5931419914939994, 0.0019926475574738867], [0.19013733133974564, 0.36928070928459567], [-0.29243002039812993, 0.039218482002124744], [-0.4770033068392877, 0.1637187360061867], [-0.1634169243105676, -0.4003647311799232], [-0.04983588281858664, 0.32269523445942283], [0.34082743683759475, 0.2522070943103223], [-0.31658226248814575, -0.15694350420819447], [0.16674797753618908, 0.5709628708759137], [-0.024805406174088773, 0.1022248315367833], [-0.2130470047933869, 0.4851007236267294], [0.20884196469864547, -0.3027406252282188], [0.3972023293214878, 0.44841915704250573], [-0.5515902165775936, -0.2119967068670828]]",density,black,,,N012,visual,6,[],"['1', '2', '3', '4']",1,2023.2.3,harveyvisual,2.1,[],8,0.75,
0,pause,0.4,None,None,None,0,123,123,123,,,,,,,,,,,,,N012,visual,6,[],"['1', '2', '3', '4']",1,2023.2.3,harveyvisual,2.1,[],8,0.75,
20,dot,0.3,['dot'],['density'],black,0,124,124,124,,,45.800211906433105,45.52507185935974,45.808379888534546,dot,"[0.06, 0.1, 0.1, 0.06, 0.1, 0.06, 0.06, 0.1, 0.08, 0.1, 0.1, 0.1, 0.06, 0.1, 0.08, 0.1, 0.06, 0.08, 0.1, 0.1]","[[-0.4030900198883125, -0.35643120488257923], [0.5371693136732681, -0.2702945026525835], [0.5316212308847253, 0.12573090562672656], [0.22489020463897502, 0.05936833095658722], [-0.23521135867866905, 0.551717747477984], [0.19958817803354545, -0.3087616156460558], [-0.6049555240950828, 0.012099872991635167], [-0.08495421737900288, 0.26021912093974797], [0.229209136297709, 0.4804142089015404], [-0.16394710932915985, -0.4513672859063318], [0.3312716605210262, -0.49876302592091415], [0.14229426046823324, -0.5564767365823197], [0.020082315143718388, 0.561468045737015], [-0.3388926596782875, 0.11368777466509605], [-0.5431630350906, 0.20135106913752138], [0.34271598286633054, -0.10564247746189787], [-0.1258684315997065, -0.2446455348894947], [-0.5189858328054581, -0.16391012451244205], [-0.16316304122036174, -0.045505216596209985], [-0.31020003590626377, -0.17019290461053505]]",density,black,,,N012,visual,6,[],"['1', '2', '3', '4']",1,2023.2.3,harveyvisual,2.1,[],8,0.75,
0,pause,0.4,None,None,None,0,125,125,125,,,,,,,,,,,,,N012,visual,6,[],"['1', '2', '3', '4']",1,2023.2.3,harveyvisual,2.1,[],8,0.75,
20,dot,0.3,['dot'],['density'],black,0,126,126,126,,,46.50020384788513,46.22505593299866,46.5083749294281,dot,"[0.06, 0.1, 0.08, 0.06, 0.08, 0.08, 0.1, 0.08, 0.06, 0.1, 0.1, 0.08, 0.08, 0.06, 0.1, 0.1, 0.06, 0.08, 0.1, 0.08]","[[-0.3837033386733859, 0.14081789952135154], [0.4267281276145892, -0.2131110252145062], [0.009333736717576313, -0.47911728459214414], [0.24086641341901582, -0.0632022333706132], [-0.363123487221643, -0.1800392998111971], [0.1772229995193113, 0.5034063837957012], [0.5930986275655964, -0.08601723587868998], [-0.03429225813683978, 0.2551628737061833], [-0.35781714238519335, -0.47470007549804644], [0.5087324376120711, 0.19823955109624758], [-0.06545762042989112, 0.5750122843358624], [-0.007532720301487217, -0.26105220802136364], [-0.06718860321382336, -0.03815338003059676], [0.2650977490331775, -0.5324706018302151], [-0.42413118462548755, 0.40398519472945293], [-0.5976268262862239, -0.08740319537086129], [0.31626266468475706, 0.22016049558406525], [0.3976377924065083, 0.4435719342274303], [-0.1818891749660157, -0.5703868719025084], [-0.2358543802456834, 0.4902634689565418]]",density,black,,,N012,visual,6,[],"['1', '2', '3', '4']",1,2023.2.3,harveyvisual,2.1,[],8,0.75,
0,pause,0.4,None,None,None,0,127,127,127,,,,,,,,,,,,,N012,visual,6,[],"['1', '2', '3', '4']",1,2023.2.3,harveyvisual,2.1,[],8,0.75,
20,dot,0.3,['dot'],['density'],black,0,128,128,128,,,47.20021986961365,46.925036907196045,47.20835089683533,dot,"[0.08, 0.08, 0.06, 0.06, 0.08, 0.08, 0.1, 0.06, 0.1, 0.06, 0.1, 0.1, 0.08, 0.06, 0.06, 0.06, 0.08, 0.06, 0.06, 0.06]","[[0.4861627499818756, -0.3497205949760887], [0.49210535195231764, 0.16112279816488545], [-0.19664114442129316, -0.28119905485672064], [-0.46029999557010115, 0.2680828410161663], [-0.34009705826422976, 0.49795514237670724], [0.027590264127474784, -0.3098882632643643], [0.2344928274125493, 0.39467805333462636], [0.0911239670121663, -0.5889209043038316], [-0.1840971216289058, 0.20988081881328868], [0.22920519685206497, -0.13861930409956957], [-0.46626557027145354, -0.2844902537281797], [-0.520686045122042, -0.000764218471204392], [0.5785134100489163, -0.14264785405933275], [0.2634138434684786, -0.38686369560696365], [-0.19790241000196968, 0.008471362040728847], [-0.09731695308368216, 0.46152194456307083], [-0.031080901867596822, -0.08154003442645308], [-0.2992127270650734, -0.48197545841900935], [-0.09769721335893589, -0.4650003454028985], [0.21976498512185394, 0.1680280211750257]]",density,black,,,N012,visual,6,[],"['1', '2', '3', '4']",1,2023.2.3,harveyvisual,2.1,[],8,0.75,
0,pause,0.4,None,None,None,0,129,129,129,,,,,,,,,,,,,N012,visual,6,[],"['1', '2', '3', '4']",1,2023.2.3,harveyvisual,2.1,[],8,0.75,
20,dot,0.3,['dot'],['density'],black,0,130,130,130,,,47.900216817855835,47.625011920928955,47.90833592414856,dot,"[0.1, 0.08, 0.08, 0.1, 0.06, 0.06, 0.08, 0.08, 0.06, 0.1, 0.06, 0.1, 0.08, 0.1, 0.08, 0.1, 0.1, 0.08, 0.1, 0.06]","[[0.0532491212102949, 0.4358549589763835], [-0.18745085930401995, 0.16060828269536953], [-0.2296799604726984, -0.35716945935193833], [0.22510327004694985, -0.5281959932857393], [0.05607745205450443, 0.03667181390205221], [0.5062765108081863, 0.07524581909881606], [0.49319502630320267, -0.30111837969749006], [-0.5989616069993171, -0.003705949241587167], [-0.4735184334270105, -0.21720250024847396], [0.023519707237910525, -0.2929199489814078], [-0.48493301291603097, 0.239876961026305], [0.32982199082333985, -0.04080243771606601], [-0.022290366489245317, -0.4796911353554136], [0.24127998890672553, -0.3276295363007308], [0.44457137145870174, 0.2582488775356728], [-0.2974305511168759, 0.4594848604585354], [-0.2556724651982572, -0.1503359148877375], [0.18544200884896456, 0.27265666080778717], [-0.43713847433002295, -0.41493178577949374], [0.25737198977347564, 0.4687339125617841]]",density,black,,,N012,visual,6,[],"['1', '2', '3', '4']",1,2023.2.3,harveyvisual,2.1,[],8,0.75,
0,pause,0.4,None,None,None,0,131,131,131,,,,,,,,,,,,,N012,visual,6,[],"['1', '2', '3', '4']",1,2023.2.3,harveyvisual,2.1,[],8,0.75,
20,dot,0.3,['dot'],['density'],black,0,132,132,132,,,48.60020899772644,48.32502889633179,48.608351945877075,dot,"[0.08, 0.06, 0.1, 0.1, 0.1, 0.1, 0.08, 0.08, 0.08, 0.1, 0.1, 0.06, 0.06, 0.08, 0.08, 0.1, 0.1, 0.06, 0.08, 0.06]","[[-0.41528086531479436, -0.24710493428802713], [0.20681210862843347, -0.25542609904747254], [-0.20381963160763272, -0.49349395931156564], [0.17604331702470788, 0.08336622828431672], [0.26950161061240685, 0.30411871414078506], [-0.23371523049101883, 0.13415429198977136], [-0.5734882536543626, -0.13361620934026203], [0.43127054358031913, -0.26246223154721005], [0.4364488165817958, -0.012909233050916846], [-0.3984029853349631, -0.018883952511510926], [0.0503317851069599, -0.5795917313870883], [-0.07391046816710423, -0.06782133316474293], [0.5089044148572911, 0.20093526889858865], [-0.06756031878684288, 0.4770256694091579], [-0.07582866918719167, -0.3299199567383617], [-0.19194921630240575, 0.3253383079665323], [-0.43838929959694406, 0.3148421163703843], [-0.30974360622406477, 0.4882177324690977], [-0.5828711206110494, 0.06394149657179679], [-0.023582566299122143, 0.19232675444192182]]",density,black,,,N012,visual,6,[],"['1', '2', '3', '4']",1,2023.2.3,harveyvisual,2.1,[],8,0.75,
0,pause,0.4,None,None,None,0,133,133,133,,,,,,,,,,,,,N012,visual,6,[],"['1', '2', '3', '4']",1,2023.2.3,harveyvisual,2.1,[],8,0.75,
20,dot,0.3,['dot'],['density'],black,0,134,134,134,,,49.30020189285278,49.024985790252686,49.3082959651947,dot,"[0.1, 0.06, 0.06, 0.1, 0.1, 0.08, 0.06, 0.06, 0.06, 0.06, 0.06, 0.1, 0.1, 0.1, 0.08, 0.08, 0.06, 0.08, 0.1, 0.06]","[[-0.03833659548483903, 0.06866982890599138], [-0.25522836257631454, 0.505777189821925], [0.48184469717246026, 0.022833419715152292], [-0.447892889941404, 0.008496224203947245], [-0.5878143704866073, -0.14061811669630278], [0.24794773757082833, 0.39678448476829564], [-0.03794800287793476, -0.47875392968688735], [-0.43320442058585085, 0.38952993556955856], [-0.25526987719076155, 0.13421461152957392], [0.18389814488322143, -0.45388695608850854], [-0.4137732143952336, -0.32095293373132333], [0.3514572831922257, -0.16018697267257265], [-0.23675980657744788, -0.49248941786908795], [-0.10708373369411556, -0.1205404138230397], [0.4719296569373791, 0.3243714370398895], [0.5461853556727513, -0.15979499798803448], [0.1797552984708839, -0.040083586453112274], [-0.04905581471387932, 0.3471865101150443], [0.10769803159838054, 0.5540543767904764], [0.19075543213288093, 0.1907719648415912]]",density,black,,,N012,visual,6,[],"['1', '2', '3', '4']",1,2023.2.3,harveyvisual,2.1,[],8,0.75,
0,pause,0.4,None,None,None,0,135,135,135,,,,,,,,,,,,,N012,visual,6,[],"['1', '2', '3', '4']",1,2023.2.3,harveyvisual,2.1,[],8,0.75,
20,dot,0.3,['dot'],['density'],white,0,136,136,136,,,50.00022482872009,49.72499489784241,50.00829577445984,dot,"[0.08, 0.08, 0.1, 0.06, 0.06, 0.1, 0.1, 0.1, 0.08, 0.06, 0.06, 0.1, 0.1, 0.1, 0.1, 0.06, 0.1, 0.06, 0.06, 0.08]","[[0.5093037923268419, 0.14874836683295706], [-0.343970881980724, 0.382637586400547], [-0.6037508135719727, -0.005053838013444695], [0.41296572417237754, 0.4051935016687538], [-0.21059761861253945, -0.3033997983696486], [-0.04118474936482175, -0.5900993109506298], [0.09160157778130129, -0.10383100144114477], [0.4146075771832215, -0.07863473083922828], [0.1467120233412904, -0.4430799700351568], [-0.4712988539559725, 0.2266471765958547], [-0.4350907850530231, -0.3609213411711975], [-0.5653540448213232, -0.20498246421731212], [0.3468276524584538, -0.48792768263911135], [0.1307488634848214, 0.5627670657982055], [-0.15791081959160175, 0.17072961208896453], [-0.37293260589250277, 0.05753932669813766], [0.04355612274717857, 0.392959571686055], [0.4810078281613467, -0.3151347444578452], [0.010315944811328692, 0.0694142761144475], [0.26723997673161404, 0.2683499949199313]]",density,white,,,N012,visual,6,[],"['1', '2', '3', '4']",1,2023.2.3,harveyvisual,2.1,[],8,0.75,
0,pause,0.4,None,None,None,0,137,137,137,,,,,,,,,,,1,50.15438508987427,N012,visual,6,[],"['1', '2', '3', '4']",1,2023.2.3,harveyvisual,2.1,[],8,0.75,
20,dot,0.3,['dot'],['density'],black,0,138,138,138,,,50.70021891593933,50.424970865249634,50.70829892158508,dot,"[0.06, 0.1, 0.06, 0.08, 0.08, 0.08, 0.06, 0.08, 0.1, 0.06, 0.1, 0.1, 0.06, 0.08, 0.08, 0.08, 0.06, 0.08, 0.06, 0.08]","[[0.4918164449185659, 0.34516328380572336], [-0.01543207957644288, 0.0728095236254599], [-0.46827547515935863, 0.2898307110424063], [-0.3127265647804452, 0.4429158528418595], [-0.4647461523541736, -0.2339664239563726], [0.35607838774378275, -0.09934399822248757], [0.03139213559162235, 0.3403788601511408], [-0.19188790136919015, -0.15414011494355756], [-0.5555217575595587, 0.028567178883258104], [-0.1182601237413678, -0.3833700504685917], [0.30424096085341945, -0.49599796434010573], [-0.30969487970835285, 0.1331374473657725], [0.03448396922676311, -0.16008081120092227], [0.5615621923916302, 0.028061629178604747], [0.24682436737115065, 0.2105197937757155], [0.07757762137461022, 0.5421507609283256], [-0.21587553631086032, -0.5525886916334987], [0.07755301775515222, -0.3932425281465078], [0.2663967887000439, 0.4439915676758873], [0.5238897498804153, -0.21086653447228212]]",density,black,,,N012,visual,6,[],"['1', '2', '3', '4']",1,2023.2.3,harveyvisual,2.1,[],8,0.75,
0,pause,0.4,None,None,None,0,139,139,139,,,,,,,,,,,,,N012,visual,6,[],"['1', '2', '3', '4']",1,2023.2.3,harveyvisual,2.1,[],8,0.75,
20,dot,0.3,['dot'],['density'],black,0,140,140,140,,,51.400224924087524,51.12496280670166,51.40829086303711,dot,"[0.06, 0.1, 0.06, 0.06, 0.08, 0.06, 0.1, 0.08, 0.1, 0.1, 0.1, 0.08, 0.1, 0.08, 0.06, 0.08, 0.06, 0.08, 0.08, 0.06]","[[0.021546505840900232, -0.04798062330003949], [0.47178010313651153, 0.08112844518018675], [0.21490518029165584, 0.4277338160906108], [-0.10813028739946767, -0.4748240276400017], [-0.20686159339367888, -0.24045372918556507], [0.20667760553419123, 0.15930344330448554], [0.1987078550785334, -0.18565682153395102], [-0.012476533169492487, 0.5129294150902554], [0.4655011851635066, -0.2607225783550826], [-0.26974717826932065, 0.3819556755316067], [-0.4436129113181826, -0.12951372641072634], [-0.5541772065902846, 0.17203563467028116], [-0.2525221803009995, -0.0390018593053999], [-0.23480349719918914, 0.17694649416669628], [0.0036655778279180984, 0.28610569483439896], [0.3821213919075034, 0.26558049741449435], [-0.3758094238405857, -0.41136973406778843], [0.5892207528362393, -0.06859966054420302], [0.15563025766782523, -0.4501879291821373], [-0.01640207360681023, -0.28595567840054603]]",density,black,,,N012,visual,6,[],"['1', '2', '3', '4']",1,2023.2.3,harveyvisual,2.1,[],8,0.75,
0,pause,0.4,None,None,None,0,141,141,141,,,,,,,,,,,,,N012,visual,6,[],"['1', '2', '3', '4']",1,2023.2.3,harveyvisual,2.1,[],8,0.75,
20,dot,0.3,['dot'],['density'],white,0,142,142,142,,,52.10022783279419,51.82509088516235,52.10827279090881,dot,"[0.1, 0.08, 0.1, 0.1, 0.06, 0.06, 0.1, 0.06, 0.1, 0.08, 0.06, 0.08, 0.1, 0.1, 0.08, 0.08, 0.06, 0.06, 0.08, 0.08]","[[-0.32053585249249444, -0.2541306596558395], [0.432126920449568, 0.30405892773212684], [0.4726498932681399, -0.2114769828627954], [-0.02788084860346285, 0.5086551233323349], [0.19014999707847724, 0.49205831114961873], [0.2526870533938278, -0.5302203309534189], [-0.1519001949481683, 0.014075432011602107], [-0.3891908298458142, 0.37095421937853174], [0.07910383123852227, -0.0836927498786354], [-0.22450317960894162, 0.5398516496232506], [-0.49553531238269943, 0.037502604529123185], [0.16867254571323365, -0.2688247430198474], [0.011042076592151728, 0.2123969709797432], [-0.018135853392410306, -0.3322885823631355], [-0.2683804775964388, -0.4398426141609817], [0.44572863778773086, -0.008966957840350898], [0.2516298061284399, 0.05895285548454132], [-0.5562255707502683, -0.19455262675071522], [-0.18560337777394476, 0.30945157804408086], [-0.13206888850888843, -0.5859320084382668]]",density,white,,,N012,visual,6,[],"['1', '2', '3', '4']",1,2023.2.3,harveyvisual,2.1,[],8,0.75,
0,pause,0.4,None,None,None,0,143,143,143,,,,,,,,,,,1,52.45071291923523,N012,visual,6,[],"['1', '2', '3', '4']",1,2023.2.3,harveyvisual,2.1,[],8,0.75,
20,dot,0.3,['dot'],['density'],black,0,144,144,144,,,52.80022597312927,52.52490782737732,52.808215856552124,dot,"[0.1, 0.1, 0.08, 0.1, 0.08, 0.08, 0.06, 0.08, 0.06, 0.1, 0.1, 0.06, 0.06, 0.1, 0.1, 0.06, 0.1, 0.06, 0.06, 0.06]","[[-0.1695550561080918, 0.23822260593042388], [0.6037325094648961, 0.02810533484790933], [-0.18047299614882362, -0.5436317038030343], [-0.35780689847972075, -0.3918652800909286], [0.05770668876008167, 0.3612162208608112], [0.2523502694414125, -0.20803563273995368], [0.05197728008251257, -0.21864695074117235], [0.4407503584728366, -0.10025189927983769], [0.267736434178778, 0.5113252777155236], [-0.43004784462301204, 0.20915181948116773], [0.2765474520588499, -0.5339404266835759], [0.5053671824265643, -0.28584432274599597], [-0.5719284853808569, -0.1793345268942159], [0.29493381377915673, 0.17972290155623027], [-0.3864794440112175, 0.01623597952819883], [0.06502602233016808, -0.521574578171941], [0.05769111494120416, 0.006397942933890177], [-0.13770823717281344, -0.24199301233025866], [0.5316338825718522, 0.26535764117932736], [-0.43654208735131667, 0.41702179051876886]]",density,black,,,N012,visual,6,[],"['1', '2', '3', '4']",1,2023.2.3,harveyvisual,2.1,[],8,0.75,
0,pause,0.4,None,None,None,0,145,145,145,,,,,,,,,,,,,N012,visual,6,[],"['1', '2', '3', '4']",1,2023.2.3,harveyvisual,2.1,[],8,0.75,
20,dot,0.3,['dot'],['density'],black,0,146,146,146,,,53.500202894210815,53.22488498687744,53.50819182395935,dot,"[0.08, 0.1, 0.08, 0.06, 0.06, 0.08, 0.1, 0.08, 0.1, 0.06, 0.1, 0.1, 0.08, 0.08, 0.08, 0.06, 0.06, 0.08, 0.06, 0.1]","[[-0.20980901298805044, 0.32366295430905123], [-0.22554978217574667, 0.08953809204836838], [-0.3070782908014363, -0.1266006321429139], [-0.040406418366522256, -0.4857323776045269], [0.4915209291873718, -0.24026272559034167], [0.26830150323931745, -0.3807255406055955], [-0.09494522184428966, 0.5538180810427302], [0.4290924028966657, 0.17665074937687675], [-0.29081644976736015, -0.4610003659098771], [0.36245478043080936, 0.41365135985379364], [-0.5207813613447071, -0.14921087846279318], [0.07279207608316152, 0.12357103908649136], [0.5910754480441535, 0.02753401561128513], [-0.5579301550713184, 0.19400484275424731], [0.1564827183575319, 0.3329615772510168], [-0.39367850518204983, 0.38733505709596927], [0.006630625733085704, -0.21416779015267268], [0.2645503403009912, -0.1124809003010428], [-0.1848717538811691, -0.29956201320422005], [0.16263107941009225, 0.5389294403418056]]",density,black,,,N012,visual,6,[],"['1', '2', '3', '4']",1,2023.2.3,harveyvisual,2.1,[],8,0.75,
0,pause,0.4,None,None,None,0,147,147,147,,,,,,,,,,,,,N012,visual,6,[],"['1', '2', '3', '4']",1,2023.2.3,harveyvisual,2.1,[],8,0.75,
20,dot,0.3,['dot'],['density'],black,0,148,148,148,,,54.200222969055176,53.92488694190979,54.20932698249817,dot,"[0.08, 0.06, 0.1, 0.1, 0.1, 0.1, 0.1, 0.06, 0.06, 0.1, 0.1, 0.06, 0.06, 0.1, 0.06, 0.1, 0.1, 0.08, 0.1, 0.1]","[[0.0744341736304982, -0.35666875531274556], [0.24835485585606998, -0.1586914697450738], [-0.27334582388101153, -0.2529569269746728], [-0.40804181768738457, 0.2769826906786699], [-0.5372964367873361, -0.19105090161843863], [0.5554449314874627, -0.04057597044652042], [-0.3171937893221315, -0.49819385030280555], [0.21045721036940912, 0.0727006872739776], [-0.3583349068840236, 0.07447310378026883], [0.4598087985053082, 0.3383894539432397], [-0.09187176525178142, 0.5699701659369578], [0.21955327765271004, -0.5014154194042038], [-0.00945667547330964, 0.3032121996451673], [-0.09597771021235757, -0.029946463184885475], [0.25583039107494987, 0.40064613526897075], [-0.12194636594312436, -0.5425197043527192], [-0.3576578229088089, 0.47452482373471166], [0.3944604634855585, -0.4243615941012236], [0.1566623157940874, 0.580059506146367], [0.47554372688108215, -0.2188161947984981]]",density,black,,,N012,visual,6,[],"['1', '2', '3', '4']",1,2023.2.3,harveyvisual,2.1,[],8,0.75,
0,pause,0.4,None,None,None,0,149,149,149,,,,,,,,,,,,,N012,visual,6,[],"['1', '2', '3', '4']",1,2023.2.3,harveyvisual,2.1,[],8,0.75,
20,dot,0.3,['dot'],['density'],black,0,150,150,150,,,54.900208950042725,54.62486481666565,54.9083149433136,dot,"[0.1, 0.08, 0.08, 0.1, 0.1, 0.1, 0.1, 0.06, 0.08, 0.1, 0.06, 0.06, 0.06, 0.1, 0.08, 0.08, 0.1, 0.06, 0.06, 0.1]","[[0.3746262165829374, -0.3085363462082289], [-0.4214817226937896, -0.2835104488382726], [0.027441976171954874, 0.18923340192600846], [0.2576157231874808, 0.44238344941483243], [0.14610029252684786, -0.04488695377983387], [-0.33488910243327574, -0.00928780779076921], [0.11356708429344065, -0.35484546161553665], [0.2673038264499694, 0.19629761970788662], [0.5218330138465875, -0.17025666900400935], [0.4900340234752095, 0.3104696599690216], [-0.556814288835192, 0.014099154986853546], [-0.14465922629267364, -0.16533874362919398], [-0.3473887639775001, 0.37406268687850536], [0.5827466967935869, 0.09668007883750779], [-0.09399450505640339, -0.45954481181097195], [-0.10094763304635423, 0.40011773723262256], [0.036903428806700056, 0.5657657910871762], [-0.40594157398216124, 0.18779368937809887], [0.2841149130282262, -0.4893962610383819], [-0.1194736978359967, 0.053597292436827426]]",density,black,,,N012,visual,6,[],"['1', '2', '3', '4']",1,2023.2.3,harveyvisual,2.1,[],8,0.75,
0,pause,0.4,None,None,None,0,151,151,151,,,,,,,,,,,,,N012,visual,6,[],"['1', '2', '3', '4']",1,2023.2.3,harveyvisual,2.1,[],8,0.75,
20,dot,0.3,['dot'],['density'],black,0,152,152,152,,,55.60023498535156,55.32487893104553,55.60814595222473,dot,"[0.06, 0.08, 0.08, 0.1, 0.08, 0.08, 0.06, 0.06, 0.08, 0.1, 0.08, 0.08, 0.08, 0.1, 0.06, 0.08, 0.1, 0.1, 0.08, 0.1]","[[0.4111889715462681, -0.1419004851069649], [0.3295170179474891, 0.33424031038941115], [-0.38356332122531117, -0.3727695149114263], [-0.24352482334203257, 0.3058491801238771], [-0.5966597271041166, 0.053873169624041636], [0.36782198307298675, 0.11610748659788983], [-0.11737522416146656, 0.09423315256659459], [-0.19242116354123306, -0.4724406833454059], [0.5858182492514629, 0.07033791348908622], [0.1745917578923083, -0.2214009755620393], [-0.5327414180605513, 0.28423987762499925], [0.16259756950234772, -0.5266877026156171], [-0.4504195762485496, -0.14589711165810598], [0.11708460493440842, 0.43001683833103144], [0.30198522307215114, -0.3848640655497241], [-0.08718232241990886, 0.4566266146191754], [-0.03712754836273169, -0.33046855786798296], [-0.3000158398523822, 0.039731142019662324], [-0.17096082008362595, -0.19189902968499384], [0.14572710514186393, 0.20433352619234102]]",density,black,,,N012,visual,6,[],"['1', '2', '3', '4']",1,2023.2.3,harveyvisual,2.1,[],8,0.75,
0,pause,0.4,None,None,None,0,153,153,153,,,,,,,,,,,,,N012,visual,6,[],"['1', '2', '3', '4']",1,2023.2.3,harveyvisual,2.1,[],8,0.75,
20,dot,0.3,['dot'],['density'],black,0,154,154,154,,,56.30021286010742,56.0248007774353,56.308111906051636,dot,"[0.08, 0.06, 0.08, 0.08, 0.08, 0.08, 0.1, 0.1, 0.1, 0.08, 0.08, 0.06, 0.06, 0.06, 0.08, 0.1, 0.08, 0.1, 0.08, 0.1]","[[-0.4788649041422377, 0.1831722652222168], [-0.6015957847792691, -0.05240840677183482], [0.1549192542098865, -0.12906083825178655], [0.20110083876284146, -0.38806240020544613], [-0.038878970895712794, 0.017231385807087163], [0.11045796472503644, 0.478925943316309], [0.11782765190508182, 0.26146154238079444], [0.3901283916133039, -0.006146727201342295], [-0.21486364222106302, -0.5359960132724606], [-0.16348069118123004, 0.22793681107975694], [-0.17779567519247108, -0.19456126815921548], [-0.49559813074696196, -0.230134559820446], [0.6043926551894366, 0.0031726757236351863], [-0.3115065749929838, 0.3684961907004538], [-0.08657281986963661, 0.5934236105095209], [-0.3020554118455414, 0.03182370991505834], [0.42122548845577323, -0.41521792039627065], [0.4327101765241571, -0.21648909005503472], [0.33572977083639355, 0.2484168966980872], [0.5495697930848268, 0.2270976868539062]]",density,black,,,N012,visual,6,[],"['1', '2', '3', '4']",1,2023.2.3,harveyvisual,2.1,[],8,0.75,
0,pause,0.4,None,None,None,0,155,155,155,,,,,,,,,,,,,N012,visual,6,[],"['1', '2', '3', '4']",1,2023.2.3,harveyvisual,2.1,[],8,0.75,
9,dot,0.3,['dot'],['density'],black,0,156,156,156,,,57.00022578239441,56.70809888839722,57.00808882713318,dot,"[0.06, 0.06, 0.06, 0.1, 0.08, 0.06, 0.1, 0.08, 0.08]","[[0.27429149071172837, 0.34251676390746333], [0.46797507249945486, 0.005491811463162166], [0.21235580877939833, 0.08757146436558581], [0.046223583492975936, 0.2932249054251131], [0.07051592556679111, -0.0704922843318231], [0.30438918969270623, -0.13028831600800136], [0.11534598117609637, 0.5236829685630697], [-0.06673610159464062, 0.12515255452502297], [-0.14439101605953233, -0.1332028051536465]]",density,black,,,N012,visual,6,[],"['1', '2', '3', '4']",1,2023.2.3,harveyvisual,2.1,[],8,0.75,
0,pause,0.4,None,None,None,0,157,157,157,,,,,,,,,,,,,N012,visual,6,[],"['1', '2', '3', '4']",1,2023.2.3,harveyvisual,2.1,[],8,0.75,
9,dot,0.3,['dot'],['density'],black,0,158,158,158,,,57.70020389556885,57.408124923706055,57.70811986923218,dot,"[0.1, 0.06, 0.06, 0.08, 0.06, 0.08, 0.06, 0.06, 0.08]","[[-0.011980588702785358, -0.14271344386551676], [-0.15345504415890063, -0.3599837049237609], [0.2909474261289129, -0.3591516282942406], [0.16239073734315843, -0.5386624114967425], [0.2227638828830022, -0.11271380419745088], [0.06426208015886789, 0.04859175461581491], [-0.3648571389210414, -0.3413683676300365], [0.3831858227582706, 0.019718563726728144], [0.06479696894599615, -0.3534524636945761]]",density,black,,,N012,visual,6,[],"['1', '2', '3', '4']",1,2023.2.3,harveyvisual,2.1,[],8,0.75,
0,pause,0.4,None,None,None,0,159,159,159,,,,,,,,,,,,,N012,visual,6,[],"['1', '2', '3', '4']",1,2023.2.3,harveyvisual,2.1,[],8,0.75,
9,dot,0.3,['dot'],['density'],black,0,160,160,160,,,58.40022397041321,58.108250856399536,58.408230781555176,dot,"[0.06, 0.08, 0.08, 0.1, 0.06, 0.08, 0.08, 0.08, 0.08]","[[-0.13146557112902973, 0.14116723461389186], [0.2951467361821443, -0.02824752732805288], [0.19428532799116477, -0.23589609671221848], [-0.28731157875063357, -0.1506919145754202], [-0.013954936164563217, -0.2914313940092583], [0.05437169614590384, 0.05057158482376688], [-0.11710547218270359, -0.5628603002908775], [-0.3181416531292253, -0.36750682532956547], [-0.10064922490671671, -0.07835054634105423]]",density,black,,,N012,visual,6,[],"['1', '2', '3', '4']",1,2023.2.3,harveyvisual,2.1,[],8,0.75,
0,pause,0.4,None,None,None,0,161,161,161,,,,,,,,,,,,,N012,visual,6,[],"['1', '2', '3', '4']",1,2023.2.3,harveyvisual,2.1,[],8,0.75,
9,dot,0.3,['dot'],['density'],black,0,162,162,162,,,59.10020685195923,58.80811285972595,59.10807394981384,dot,"[0.08, 0.1, 0.08, 0.08, 0.1, 0.08, 0.06, 0.08, 0.08]","[[-0.15654783233563613, 0.5456880468186037], [-0.24757731968740795, 0.34117179271889175], [0.237608115185398, 0.5379153628426676], [0.0469559873873498, 0.0609843963705915], [0.17872629641391088, 0.30721368784738284], [-0.014663874177430473, 0.385293302856951], [-0.1034840675008618, 0.1993866575147459], [0.37552485507684036, 0.26074226948317425], [-0.1631567374159006, -0.0021534685146951615]]",density,black,,,N012,visual,6,[],"['1', '2', '3', '4']",1,2023.2.3,harveyvisual,2.1,[],8,0.75,
0,pause,0.4,None,None,None,0,163,163,163,,,,,,,,,,,,,N012,visual,6,[],"['1', '2', '3', '4']",1,2023.2.3,harveyvisual,2.1,[],8,0.75,
9,dot,0.3,['dot'],['density'],black,0,164,164,164,,,59.80022192001343,59.50808095932007,59.80808687210083,dot,"[0.1, 0.06, 0.1, 0.1, 0.08, 0.08, 0.1, 0.06, 0.08]","[[0.16751238249231654, 0.5577961240465925], [-0.27296145406993233, 0.4862198967380745], [-0.029185467938656964, 0.15062746822878756], [-0.0646201772689005, 0.5687739076077192], [0.1739328392933146, 0.3418730943321047], [-0.141244529573345, 0.32572795328380527], [-0.5161698704605421, 0.1834233825743511], [0.21727962056556488, 0.12903401361548372], [-0.23724269532595021, 0.10991409904419316]]",density,black,,,N012,visual,6,[],"['1', '2', '3', '4']",1,2023.2.3,harveyvisual,2.1,[],8,0.75,
0,pause,0.4,None,None,None,0,165,165,165,,,,,,,,,,,,,N012,visual,6,[],"['1', '2', '3', '4']",1,2023.2.3,harveyvisual,2.1,[],8,0.75,
9,dot,0.3,['dot'],['density'],black,0,166,166,166,,,60.500205993652344,60.20805382728577,60.508033990859985,dot,"[0.1, 0.1, 0.1, 0.1, 0.1, 0.06, 0.1, 0.08, 0.08]","[[0.34043128493099817, 0.2271075800100716], [0.2702764120171402, -0.10456749967376819], [-0.1274635928921129, -0.04210317806044915], [-0.03460273614387521, 0.1795356259369138], [0.14470969472881007, 0.3391925298523705], [0.06761060508642219, 0.0060094309834155335], [0.5117869412029185, -0.12050585585317111], [0.07404675892906432, -0.22660478390602867], [0.35723900661310204, -0.3185591288757]]",density,black,,,N012,visual,6,[],"['1', '2', '3', '4']",1,2023.2.3,harveyvisual,2.1,[],8,0.75,
0,pause,0.4,None,None,None,0,167,167,167,,,,,,,,,,,,,N012,visual,6,[],"['1', '2', '3', '4']",1,2023.2.3,harveyvisual,2.1,[],8,0.75,
8,dot,0.3,['dot'],['density'],black,0,168,168,168,,,61.2002158164978,60.90801382064819,61.209139823913574,dot,"[0.06, 0.06, 0.1, 0.1, 0.08, 0.06, 0.08, 0.06]","[[-0.13214754069031825, -0.5402677255150703], [0.1288984478000013, -0.5519726475135984], [0.27401725229332, -0.34994268047279037], [-0.052680844420756816, 0.006786609240531098], [0.03557367748195712, -0.3699094958310016], [-0.23170140006741713, -0.18198058676873416], [-0.33504621301322857, -0.3611685350886627], [0.0760940577115827, -0.14857148175569432]]",density,black,,,N012,visual,6,[],"['1', '2', '3', '4']",1,2023.2.3,harveyvisual,2.1,[],8,0.75,
0,pause,0.4,None,None,None,0,169,169,169,,,,,,,,,,,,,N012,visual,6,[],"['1', '2', '3', '4']",1,2023.2.3,harveyvisual,2.1,[],8,0.75,
8,dot,0.3,['dot'],['density'],white,0,170,170,170,,,61.90021586418152,61.60814189910889,61.90801787376404,dot,"[0.06, 0.1, 0.1, 0.08, 0.08, 0.08, 0.08, 0.1]","[[0.5011924336457421, -0.024432440978935197], [0.2806328112604475, -0.04317330297599672], [0.4832514634589159, 0.31109822070486504], [0.16408111659662816, 0.42847901077729456], [0.23688927214560462, 0.23559820796421724], [0.07772697954394367, 0.06196890701796274], [0.10192126774068293, -0.18867749580812243], [-0.012619648351882298, 0.24997239668137242]]",density,white,,,N012,visual,6,[],"['1', '2', '3', '4']",1,2023.2.3,harveyvisual,2.1,[],8,0.75,
0,pause,0.4,None,None,None,0,171,171,171,,,,,,,,,,,1,62.022907972335815,N012,visual,6,[],"['1', '2', '3', '4']",1,2023.2.3,harveyvisual,2.1,[],8,0.75,
8,dot,0.3,['dot'],['density'],white,0,172,172,172,,,62.600212812423706,62.30800199508667,62.60800385475159,dot,"[0.08, 0.06, 0.08, 0.1, 0.08, 0.06, 0.1, 0.08]","[[0.1740819983727909, -0.16863019829442621], [0.14644114519141543, -0.4524198896657212], [0.0024885361438939093, 0.023531574910491997], [-0.23717340943857948, -0.31112918658627675], [-0.11311749148073028, -0.46867866316561874], [-0.17928248077090506, -0.060241557052319365], [-0.03957999532622772, -0.24759906754331504], [-0.4644327601918011, -0.3627803331480915]]",density,white,,,N012,visual,6,[],"['1', '2', '3', '4']",1,2023.2.3,harveyvisual,2.1,[],8,0.75,
0,pause,0.4,None,None,None,0,173,173,173,,,,,,,,,,,1,62.688966035842896,N012,visual,6,[],"['1', '2', '3', '4']",1,2023.2.3,harveyvisual,2.1,[],8,0.75,
8,dot,0.3,['dot'],['density'],black,0,174,174,174,,,63.30022192001343,63.00799798965454,63.307976961135864,dot,"[0.08, 0.06, 0.06, 0.1, 0.08, 0.06, 0.08, 0.06]","[[-0.19469543066458847, -0.326291241472255], [0.30343637985980976, -0.10925869102227477], [-0.1969922581528186, -0.11664339975312436], [0.2570255161168456, -0.3247060146943647], [0.10684135558856425, -0.18174565546534566], [0.03482742583321104, -0.4893606045609451], [-0.015658395544436696, -0.0001692298399926468], [0.11980560642279467, 0.15585563517441894]]",density,black,,,N012,visual,6,[],"['1', '2', '3', '4']",1,2023.2.3,harveyvisual,2.1,[],8,0.75,
0,pause,0.4,None,None,None,0,175,175,175,,,,,,,,,,,,,N012,visual,6,[],"['1', '2', '3', '4']",1,2023.2.3,harveyvisual,2.1,[],8,0.75,
8,dot,0.3,['dot'],['density'],black,0,176,176,176,,,64.00020980834961,63.70796489715576,64.00795197486877,dot,"[0.1, 0.1, 0.06, 0.06, 0.06, 0.06, 0.08, 0.06]","[[-0.08486713456805763, -0.4233549652310786], [-0.34121661687321897, 0.009931669871959016], [0.06179899905610707, -0.01287726204627424], [-0.01080387642187049, -0.20774715314808884], [-0.2259787915635077, -0.2257096572683263], [-0.31087639520469923, -0.4457762681120083], [-0.07938707884489006, 0.17996906985975966], [-0.13919465900414296, -0.03133413505419433]]",density,black,,,N012,visual,6,[],"['1', '2', '3', '4']",1,2023.2.3,harveyvisual,2.1,[],8,0.75,
0,pause,0.4,None,None,None,0,177,177,177,,,,,,,,,,,,,N012,visual,6,[],"['1', '2', '3', '4']",1,2023.2.3,harveyvisual,2.1,[],8,0.75,
8,dot,0.3,['dot'],['density'],black,0,178,178,178,,,64.70022487640381,64.40793800354004,64.70793890953064,dot,"[0.08, 0.1, 0.1, 0.1, 0.08, 0.08, 0.06, 0.08]","[[0.48529715144174124, -0.2697678579736521], [0.37309741842769656, 0.0699077870123373], [0.051182379473491794, 0.02141531407813483], [0.5234917469593858, 0.26578075419350655], [0.558201411832675, -0.037120345964853765], [0.22738215197141995, 0.24608732841731215], [0.3038957292845804, -0.12934366054116395], [0.024689158081869923, 0.25216756052328354]]",density,black,,,N012,visual,6,[],"['1', '2', '3', '4']",1,2023.2.3,harveyvisual,2.1,[],8,0.75,
0,pause,0.4,None,None,None,0,179,179,179,,,,,,,,,,,,,N012,visual,6,[],"['1', '2', '3', '4']",1,2023.2.3,harveyvisual,2.1,[],8,0.75,
7,dot,0.3,['dot'],['density'],black,0,180,180,180,,,65.40020895004272,65.1079318523407,65.40808892250061,dot,"[0.06, 0.08, 0.1, 0.06, 0.06, 0.06, 0.08]","[[-0.03978284138183809, -0.43963729991580147], [0.2770736023028816, -0.4460091285183096], [0.4264240077257641, -0.26124456405115876], [0.04351789842027954, -0.004572294527936195], [0.08491707485555088, -0.26540219852266356], [0.2274622265833728, -0.10044916879814345], [0.4232844185721205, -0.050742783717769746]]",density,black,,,N012,visual,6,[],"['1', '2', '3', '4']",1,2023.2.3,harveyvisual,2.1,[],8,0.75,
0,pause,0.4,None,None,None,0,181,181,181,,,,,,,,,,,,,N012,visual,6,[],"['1', '2', '3', '4']",1,2023.2.3,harveyvisual,2.1,[],8,0.75,
7,dot,0.3,['dot'],['density'],black,0,182,182,182,,,66.10021185874939,65.8081259727478,66.1079318523407,dot,"[0.08, 0.1, 0.1, 0.1, 0.06, 0.1, 0.1]","[[0.2966712274604575, -0.2131825579980761], [-0.1186836204372937, -0.4965034514665913], [-0.01440301872015537, -0.0403072600505146], [0.1950017499803942, -0.04023412759326238], [0.279011892689379, -0.46996203863525404], [-0.05628257964606558, -0.24364929332980273], [0.11956786588335709, -0.3438640467385331]]",density,black,,,N012,visual,6,[],"['1', '2', '3', '4']",1,2023.2.3,harveyvisual,2.1,[],8,0.75,
0,pause,0.4,None,None,None,0,183,183,183,,,,,,,,,,,,,N012,visual,6,[],"['1', '2', '3', '4']",1,2023.2.3,harveyvisual,2.1,[],8,0.75,
7,dot,0.3,['dot'],['density'],black,0,184,184,184,,,66.8002347946167,66.50796794891357,66.80787897109985,dot,"[0.08, 0.1, 0.08, 0.1, 0.06, 0.08, 0.08]","[[0.3899189512010899, -0.40728696153528776], [0.20392863561369634, -0.3305625840210526], [0.31626985815109576, 0.13567824844623666], [0.5017338684339655, -0.028549680114735937], [0.11648855723187378, -0.1078833072829627], [0.07041138378868489, 0.08730219371944997], [0.32910598476010167, -0.13660711058181768]]",density,black,,,N012,visual,6,[],"['1', '2', '3', '4']",1,2023.2.3,harveyvisual,2.1,[],8,0.75,
0,pause,0.4,None,None,None,0,185,185,185,,,,,,,,,,,,,N012,visual,6,[],"['1', '2', '3', '4']",1,2023.2.3,harveyvisual,2.1,[],8,0.75,
7,dot,0.3,['dot'],['density'],black,0,186,186,186,,,67.5002088546753,67.20785689353943,67.50785684585571,dot,"[0.08, 0.06, 0.06, 0.06, 0.06, 0.08, 0.06]","[[0.36124702795982905, 0.02861074637729004], [0.035495459613383976, -0.03736980990239832], [0.4545067059830119, -0.22475560039862832], [0.21831658066582188, 0.20471036725638603], [0.23621436127430617, -0.13960795011418334], [0.5606656921354746, -0.047865395727918474], [0.5468561378002438, 0.2161657569851178]]",density,black,,,N012,visual,6,[],"['1', '2', '3', '4']",1,2023.2.3,harveyvisual,2.1,[],8,0.75,
0,pause,0.4,None,None,None,0,187,187,187,,,,,,,,,,,,,N012,visual,6,[],"['1', '2', '3', '4']",1,2023.2.3,harveyvisual,2.1,[],8,0.75,
7,dot,0.3,['dot'],['density'],black,0,188,188,188,,,68.20022892951965,67.90781497955322,68.20788979530334,dot,"[0.06, 0.08, 0.06, 0.08, 0.06, 0.08, 0.1]","[[-0.39883248072855915, 0.30823732592088265], [-0.041341486549100435, 0.2390478988097413], [-0.013495537319202725, 0.5211111720540192], [-0.2415889716500472, 0.10795059447242317], [-0.023803066389735523, 0.02076064871433158], [0.14387498046506175, 0.3548008600093999], [-0.24331877599120405, 0.46521846842164205]]",density,black,,,N012,visual,6,[],"['1', '2', '3', '4']",1,2023.2.3,harveyvisual,2.1,[],8,0.75,
0,pause,0.4,None,None,None,0,189,189,189,,,,,,,,,,,,,N012,visual,6,[],"['1', '2', '3', '4']",1,2023.2.3,harveyvisual,2.1,[],8,0.75,
7,dot,0.3,['dot'],['density'],black,0,190,190,190,,,68.90023398399353,68.60780000686646,68.92539596557617,dot,"[0.08, 0.06, 0.08, 0.1, 0.08, 0.08, 0.08]","[[-0.03978284138183809, -0.43963729991580147], [0.2770736023028816, -0.4460091285183096], [0.4264240077257641, -0.26124456405115876], [0.04351789842027954, -0.004572294527936195], [0.08491707485555088, -0.26540219852266356], [0.2274622265833728, -0.10044916879814345], [0.4232844185721205, -0.050742783717769746]]",density,black,,,N012,visual,6,[],"['1', '2', '3', '4']",1,2023.2.3,harveyvisual,2.1,[],8,0.75,
0,pause,0.4,None,None,None,0,191,191,191,,,,,,,,,,,,,N012,visual,6,[],"['1', '2', '3', '4']",1,2023.2.3,harveyvisual,2.1,[],8,0.75,
6,dot,0.3,['dot'],['density'],black,0,192,192,192,,,69.6002287864685,69.30797481536865,69.60798382759094,dot,"[0.08, 0.1, 0.06, 0.06, 0.06, 0.08]","[[-0.3622751979984162, 0.41275935807220604], [-0.5464806003183257, 0.06358334875023645], [-0.15518785678585886, 0.34969079698534317], [-0.3231370338359737, -0.02193421190541931], [-0.3473470749510941, 0.19885557425221048], [-0.12382976466594668, 0.04156566071734393]]",density,black,,,N012,visual,6,[],"['1', '2', '3', '4']",1,2023.2.3,harveyvisual,2.1,[],8,0.75,
0,pause,0.4,None,None,None,0,193,193,193,,,,,,,,,,,,,N012,visual,6,[],"['1', '2', '3', '4']",1,2023.2.3,harveyvisual,2.1,[],8,0.75,
6,dot,0.3,['dot'],['density'],black,0,194,194,194,,,70.3002188205719,70.00783395767212,70.3077118396759,dot,"[0.08, 0.08, 0.06, 0.06, 0.08, 0.1]","[[0.23625405956766557, 0.3892633732772463], [0.11760889656980711, -0.0038201085241890706], [0.42882153754783053, 0.07157264481568941], [0.22360409458703237, 0.16865996735680294], [-0.08582952339030024, 0.051003002567710905], [-0.0010028139275050567, 0.23222523166366787]]",density,black,,,N012,visual,6,[],"['1', '2', '3', '4']",1,2023.2.3,harveyvisual,2.1,[],8,0.75,
0,pause,0.4,None,None,None,0,195,195,195,,,,,,,,,,,,,N012,visual,6,[],"['1', '2', '3', '4']",1,2023.2.3,harveyvisual,2.1,[],8,0.75,
6,dot,0.3,['dot'],['density'],black,0,196,196,196,,,71.00023484230042,70.70775699615479,71.00766086578369,dot,"[0.1, 0.1, 0.08, 0.1, 0.1, 0.1]","[[0.1382403832049451, 0.0462086450304607], [-0.07534018949214154, -0.3274433807795599], [0.3332171610134826, -0.14895102818546319], [0.22614943412716124, -0.3322834867125916], [-0.0756450994425101, -0.005640117700353421], [0.0938048843888254, -0.16909843217532775]]",density,black,,,N012,visual,6,[],"['1', '2', '3', '4']",1,2023.2.3,harveyvisual,2.1,[],8,0.75,
0,pause,0.4,None,None,None,0,197,197,197,,,,,,,,,,,,,N012,visual,6,[],"['1', '2', '3', '4']",1,2023.2.3,harveyvisual,2.1,[],8,0.75,
6,dot,0.3,['dot'],['density'],white,0,198,198,198,,,71.70022583007812,71.40775990486145,71.70763778686523,dot,"[0.06, 0.06, 0.1, 0.06, 0.08, 0.08]","[[0.26568550625605564, -0.48823100126060537], [0.030589778490880962, -0.34307155488476027], [0.2920158589989485, -0.005481777194348812], [0.4969139129819881, -0.3034402107212153], [0.2924968692334099, -0.2393606426967254], [0.09404279540557291, -0.1505005030192783]]",density,white,,,N012,visual,6,[],"['1', '2', '3', '4']",1,2023.2.3,harveyvisual,2.1,[],8,0.75,
0,pause,0.4,None,None,None,0,199,199,199,,,,,,,,,,,,,N012,visual,6,[],"['1', '2', '3', '4']",1,2023.2.3,harveyvisual,2.1,[],8,0.75,
6,dot,0.3,['dot'],['density'],black,0,200,200,200,,,72.40023183822632,72.10770297050476,72.40763998031616,dot,"[0.08, 0.1, 0.1, 0.08, 0.08, 0.08]","[[-0.08086177951302478, 0.2470577028799217], [0.17809040740055945, 0.25721690350386706], [0.248993691455746, -0.144418230259854], [0.04260816027356476, -0.17251108440570345], [0.26201279645255604, 0.07253913185781388], [-0.0017619790798508912, 0.027830886297901026]]",density,black,,,N012,visual,6,[],"['1', '2', '3', '4']",1,2023.2.3,harveyvisual,2.1,[],8,0.75,
0,pause,0.4,None,None,None,0,201,201,201,,,,,,,,,,,,,N012,visual,6,[],"['1', '2', '3', '4']",1,2023.2.3,harveyvisual,2.1,[],8,0.75,
6,dot,0.3,['dot'],['density'],black,0,202,202,202,,,73.10022783279419,72.80768299102783,73.1078929901123,dot,"[0.08, 0.08, 0.08, 0.1, 0.08, 0.08]","[[-0.3622751979984162, 0.41275935807220604], [-0.5464806003183257, 0.06358334875023645], [-0.15518785678585886, 0.34969079698534317], [-0.3231370338359737, -0.02193421190541931], [-0.3473470749510941, 0.19885557425221048], [-0.12382976466594668, 0.04156566071734393]]",density,black,,,N012,visual,6,[],"['1', '2', '3', '4']",1,2023.2.3,harveyvisual,2.1,[],8,0.75,
0,pause,0.4,None,None,None,0,203,203,203,,,,,,,,,,,,,N012,visual,6,[],"['1', '2', '3', '4']",1,2023.2.3,harveyvisual,2.1,[],8,0.75,
5,dot,0.3,['dot'],['density'],white,0,204,204,204,,,73.80020689964294,73.50771498680115,73.80765700340271,dot,"[0.06, 0.1, 0.06, 0.06, 0.1]","[[0.2075830250205083, 0.5448960418430373], [0.010600229768786232, 0.45420498888786176], [-0.10187712889758427, 0.28364076042242115], [0.1691377395635631, 0.293820614486451], [-0.2596336492265815, 0.40815120909286945]]",density,white,,,N012,visual,6,[],"['1', '2', '3', '4']",1,2023.2.3,harveyvisual,2.1,[],8,0.75,
0,pause,0.4,None,None,None,0,205,205,205,,,,,,,,,,,,,N012,visual,6,[],"['1', '2', '3', '4']",1,2023.2.3,harveyvisual,2.1,[],8,0.75,
5,dot,0.3,['dot'],['density'],white,0,206,206,206,,,74.50022482872009,74.20769691467285,74.52434492111206,dot,"[0.06, 0.1, 0.08, 0.06, 0.08]","[[0.10558973120531606, -0.20428866875977839], [-0.0893225412758366, 0.16524926947551877], [-0.05793580974794309, -0.07826743033729393], [0.11130747138107101, 0.10875249109580729], [0.28035132100960686, -0.09064984251937742]]",density,white,,,N012,visual,6,[],"['1', '2', '3', '4']",1,2023.2.3,harveyvisual,2.1,[],8,0.75,
0,pause,0.4,None,None,None,0,207,207,207,,,,,,,,,,,,,N012,visual,6,[],"['1', '2', '3', '4']",1,2023.2.3,harveyvisual,2.1,[],8,0.75,
5,dot,0.3,['dot'],['density'],black,0,208,208,208,,,75.20021080970764,74.90767788887024,75.22433686256409,dot,"[0.1, 0.1, 0.06, 0.06, 0.08]","[[-0.082153098152829, -0.06894165798345762], [0.016766770742065788, -0.42680196676869325], [0.2961099764235258, -0.14925166127785872], [-0.1456021726000032, -0.26669195071034546], [0.10213220283607832, -0.23321095001989858]]",density,black,,,N012,visual,6,[],"['1', '2', '3', '4']",1,2023.2.3,harveyvisual,2.1,[],8,0.75,
0,pause,0.4,None,None,None,0,209,209,209,,,,,,,,,,,,,N012,visual,6,[],"['1', '2', '3', '4']",1,2023.2.3,harveyvisual,2.1,[],8,0.75,
5,dot,0.3,['dot'],['density'],black,0,210,210,210,,,75.90021586418152,75.60767078399658,75.92430591583252,dot,"[0.06, 0.08, 0.08, 0.06, 0.06]","[[-0.17224806752104949, 0.21128771658676965], [-0.35983128753182364, -0.1328600505582573], [-0.33716814897054914, 0.09708697582185674], [-0.044562237693599294, -0.03778919281981133], [-0.17109626387405982, -0.21732524013947077]]",density,black,,,N012,visual,6,[],"['1', '2', '3', '4']",1,2023.2.3,harveyvisual,2.1,[],8,0.75,
0,pause,0.4,None,None,None,0,211,211,211,,,,,,,,,,,,,N012,visual,6,[],"['1', '2', '3', '4']",1,2023.2.3,harveyvisual,2.1,[],8,0.75,
5,dot,0.3,['dot'],['density'],black,0,212,212,212,,,76.60023379325867,76.30763983726501,76.62430095672607,dot,"[0.06, 0.06, 0.1, 0.06, 0.06]","[[-0.4004020094395207, -0.04445243948850948], [-0.17181756668418613, -0.18180129995893848], [-0.46264198425852476, 0.17889071841303528], [-0.23640824159873003, 0.08340028676903545], [-0.2824747884808712, 0.2826805534387526]]",density,black,,,N012,visual,6,[],"['1', '2', '3', '4']",1,2023.2.3,harveyvisual,2.1,[],8,0.75,
0,pause,0.4,None,None,None,0,213,213,213,,,,,,,,,,,,,N012,visual,6,[],"['1', '2', '3', '4']",1,2023.2.3,harveyvisual,2.1,[],8,0.75,
5,dot,0.3,['dot'],['density'],black,0,214,214,214,,,77.30023288726807,77.00763177871704,77.32426381111145,dot,"[0.08, 0.08, 0.1, 0.06, 0.06]","[[0.21791283729510122, -0.3451859720731072], [0.5246150578842218, -0.1749209719782184], [0.23417080448362212, 0.06149420791510773], [0.21628546435715315, -0.14179681516434317], [0.46094971099473236, 0.03541120369123469]]",density,black,,,N012,visual,6,[],"['1', '2', '3', '4']",1,2023.2.3,harveyvisual,2.1,[],8,0.75,
0,pause,0.4,None,None,None,0,215,215,215,,,,,,,,,,,,,N012,visual,6,[],"['1', '2', '3', '4']",1,2023.2.3,harveyvisual,2.1,[],8,0.75,
4,dot,0.3,['dot'],['density'],black,0,216,216,216,,,78.0002179145813,77.70760178565979,78.02426600456238,dot,"[0.1, 0.1, 0.06, 0.1]","[[-0.041173875632770134, -0.46498671258652186], [-0.2993670243960792, -0.1306311282158324], [-0.23343206187288035, -0.39905635110522214], [-0.1242366033797093, -0.2299834244258363]]",density,black,,,N012,visual,6,[],"['1', '2', '3', '4']",1,2023.2.3,harveyvisual,2.1,[],8,0.75,
0,pause,0.4,None,None,None,0,217,217,217,,,,,,,,,,,,,N012,visual,6,[],"['1', '2', '3', '4']",1,2023.2.3,harveyvisual,2.1,[],8,0.75,
4,dot,0.3,['dot'],['density'],black,0,218,218,218,,,78.70022678375244,78.40758299827576,78.72423601150513,dot,"[0.08, 0.08, 0.08, 0.1]","[[-0.3884818304242726, 0.11421243679268873], [-0.11472928134965246, -0.13141119473891247], [-0.1657593024508462, 0.13368900033666462], [-0.36655717599886073, -0.10387254737714131]]",density,black,,,N012,visual,6,[],"['1', '2', '3', '4']",1,2023.2.3,harveyvisual,2.1,[],8,0.75,
0,pause,0.4,None,None,None,0,219,219,219,,,,,,,,,,,,,N012,visual,6,[],"['1', '2', '3', '4']",1,2023.2.3,harveyvisual,2.1,[],8,0.75,
4,dot,0.3,['dot'],['density'],black,0,220,220,220,,,79.40020799636841,79.10754179954529,79.42419385910034,dot,"[0.08, 0.06, 0.06, 0.08]","[[0.2593869086993074, -0.26887741013308497], [0.09674879007849839, -0.39609983087723066], [-0.011093693993988496, -0.14004324908426333], [0.28630805459639813, -0.4681830009867555]]",density,black,,,N012,visual,6,[],"['1', '2', '3', '4']",1,2023.2.3,harveyvisual,2.1,[],8,0.75,
0,pause,0.4,None,None,None,0,221,221,221,,,,,,,,,,,,,N012,visual,6,[],"['1', '2', '3', '4']",1,2023.2.3,harveyvisual,2.1,[],8,0.75,
4,dot,0.3,['dot'],['density'],black,0,222,222,222,,,80.10023379325867,79.80755996704102,80.10793900489807,dot,"[0.06, 0.06, 0.08, 0.06]","[[-0.42715721775789556, -0.3806885655784049], [-0.5104054706627589, -0.18016651458941194], [-0.409412055521987, 0.008153849732111747], [-0.2456709064377862, -0.21492281530681134]]",density,black,,,N012,visual,6,[],"['1', '2', '3', '4']",1,2023.2.3,harveyvisual,2.1,[],8,0.75,
0,pause,0.4,None,None,None,0,223,223,223,,,,,,,,,,,,,N012,visual,6,[],"['1', '2', '3', '4']",1,2023.2.3,harveyvisual,2.1,[],8,0.75,
4,dot,0.3,['dot'],['density'],black,0,224,224,224,,,80.80021691322327,80.50751495361328,80.80791687965393,dot,"[0.08, 0.1, 0.1, 0.08]","[[-0.041173875632770134, -0.46498671258652186], [-0.2993670243960792, -0.1306311282158324], [-0.23343206187288035, -0.39905635110522214], [-0.1242366033797093, -0.2299834244258363]]",density,black,,,N012,visual,6,[],"['1', '2', '3', '4']",1,2023.2.3,harveyvisual,2.1,[],8,0.75,
0,pause,0.4,None,None,None,0,225,225,225,,,,,,,,,,,,,N012,visual,6,[],"['1', '2', '3', '4']",1,2023.2.3,harveyvisual,2.1,[],8,0.75,
4,dot,0.3,['dot'],['density'],black,0,226,226,226,,,81.50022792816162,81.2074887752533,81.52417087554932,dot,"[0.1, 0.08, 0.06, 0.08]","[[-0.22711054503220823, -0.5144049053218714], [-0.016307770745122817, -0.5558659767831347], [-0.26432457165568224, -0.2824025039497699], [-0.026303944553407815, -0.34464361634901186]]",density,black,,,N012,visual,6,[],"['1', '2', '3', '4']",1,2023.2.3,harveyvisual,2.1,[],8,0.75,
0,pause,0.4,None,None,None,0,227,227,227,,,,,,,,,,,,,N012,visual,6,[],"['1', '2', '3', '4']",1,2023.2.3,harveyvisual,2.1,[],8,0.75,
3,dot,0.3,['dot'],['density'],black,0,228,228,228,,,82.2002170085907,81.90749788284302,82.22415590286255,dot,"[0.08, 0.08, 0.1]","[[-0.15674404860239688, -0.25078459247658497], [0.006578924124220241, -0.41324131210186005], [0.06959682433872849, -0.20549031443856539]]",density,black,,,N012,visual,6,[],"['1', '2', '3', '4']",1,2023.2.3,harveyvisual,2.1,[],8,0.75,
0,pause,0.4,None,None,None,0,229,229,229,,,,,,,,,,,,,N012,visual,6,[],"['1', '2', '3', '4']",1,2023.2.3,harveyvisual,2.1,[],8,0.75,
3,dot,0.3,['dot'],['density'],black,0,230,230,230,,,82.90023684501648,82.60748195648193,82.92412495613098,dot,"[0.06, 0.08, 0.1]","[[0.29938275938101017, 0.44415474715472736], [0.13070782598704628, 0.5557174004537693], [0.11832456902218637, 0.3273615767427578]]",density,black,,,N012,visual,6,[],"['1', '2', '3', '4']",1,2023.2.3,harveyvisual,2.1,[],8,0.75,
0,pause,0.4,None,None,None,0,231,231,231,,,,,,,,,,,,,N012,visual,6,[],"['1', '2', '3', '4']",1,2023.2.3,harveyvisual,2.1,[],8,0.75,
3,dot,0.3,['dot'],['density'],black,0,232,232,232,,,83.60022282600403,83.30744886398315,83.62500286102295,dot,"[0.06, 0.1, 0.08]","[[-0.17720328293608806, -0.4514300161601115], [0.022754438065530718, -0.42143894503716073], [-0.10940085810899225, -0.24791511077847575]]",density,black,,,N012,visual,6,[],"['1', '2', '3', '4']",1,2023.2.3,harveyvisual,2.1,[],8,0.75,
0,pause,0.4,None,None,None,0,233,233,233,,,,,,,,,,,,,N012,visual,6,[],"['1', '2', '3', '4']",1,2023.2.3,harveyvisual,2.1,[],8,0.75,
3,dot,0.3,['dot'],['density'],black,0,234,234,234,,,84.30021095275879,84.0074667930603,84.32426595687866,dot,"[0.06, 0.08, 0.08]","[[0.13507679288784277, 0.012189921546254917], [0.31506600046810584, 0.10578898906948993], [0.12756957777796288, 0.2513869495778075]]",density,black,,,N012,visual,6,[],"['1', '2', '3', '4']",1,2023.2.3,harveyvisual,2.1,[],8,0.75,
0,pause,0.4,None,None,None,0,235,235,235,,,,,,,,,,,,,N012,visual,6,[],"['1', '2', '3', '4']",1,2023.2.3,harveyvisual,2.1,[],8,0.75,
3,dot,0.3,['dot'],['density'],black,0,236,236,236,,,85.00023293495178,84.70755386352539,85.02427291870117,dot,"[0.1, 0.08, 0.08]","[[0.026071599024748527, -0.32860913997604846], [-0.11834724389398482, -0.18584523127985947], [0.10068982493997472, -0.12518245043845455]]",density,black,,,N012,visual,6,[],"['1', '2', '3', '4']",1,2023.2.3,harveyvisual,2.1,[],8,0.75,
0,pause,0.4,None,None,None,0,237,237,237,,,,,,,,,,,,,N012,visual,6,[],"['1', '2', '3', '4']",1,2023.2.3,harveyvisual,2.1,[],8,0.75,
3,dot,0.3,['dot'],['density'],black,0,238,238,238,,,85.70023393630981,85.40739893913269,85.72406482696533,dot,"[0.1, 0.08, 0.06]","[[-0.3391924794566746, 0.43027756448319565], [-0.33080415183405026, 0.2112686575961512], [-0.14277619127331137, 0.29962579604826906]]",density,black,,,N012,visual,6,[],"['1', '2', '3', '4']",1,2023.2.3,harveyvisual,2.1,[],8,0.75,
0,pause,0.4,None,None,None,0,239,239,239,,,,,,,,,,,,,N012,visual,6,[],"['1', '2', '3', '4']",1,2023.2.3,harveyvisual,2.1,[],8,0.75,
2,dot,0.3,['dot'],['density'],black,0,240,240,240,,,86.40022277832031,86.10742378234863,86.42402482032776,dot,"[0.06, 0.1]","[[0.1851205616289071, -0.3624876981064337], [0.3405923022038234, -0.23608025195482504]]",density,black,,,N012,visual,6,[],"['1', '2', '3', '4']",1,2023.2.3,harveyvisual,2.1,[],8,0.75,
0,pause,0.4,None,None,None,0,241,241,241,,,,,,,,,,,,,N012,visual,6,[],"['1', '2', '3', '4']",1,2023.2.3,harveyvisual,2.1,[],8,0.75,
2,dot,0.3,['dot'],['density'],black,0,242,242,242,,,87.10020995140076,86.80734992027283,87.12400984764099,dot,"[0.06, 0.06]","[[0.29932439847351855, -0.2783039550742582], [0.14276117392638485, -0.15345139110726028]]",density,black,,,N012,visual,6,[],"['1', '2', '3', '4']",1,2023.2.3,harveyvisual,2.1,[],8,0.75,
0,pause,0.4,None,None,None,0,243,243,243,,,,,,,,,,,,,N012,visual,6,[],"['1', '2', '3', '4']",1,2023.2.3,harveyvisual,2.1,[],8,0.75,
2,dot,0.3,['dot'],['density'],black,0,244,244,244,,,87.80021977424622,87.50736284255981,87.8239917755127,dot,"[0.06, 0.06]","[[0.3859848860398513, -0.03650274153894256], [0.5613034441480618, 0.06134992989862206]]",density,black,,,N012,visual,6,[],"['1', '2', '3', '4']",1,2023.2.3,harveyvisual,2.1,[],8,0.75,
0,pause,0.4,None,None,None,0,245,245,245,,,,,,,,,,,,,N012,visual,6,[],"['1', '2', '3', '4']",1,2023.2.3,harveyvisual,2.1,[],8,0.75,
2,dot,0.3,['dot'],['density'],black,0,246,246,246,,,88.50021696090698,88.20731496810913,88.52399897575378,dot,"[0.08, 0.06]","[[0.06661886780735636, -0.3109770134588511], [-0.03502229105109153, -0.4833380692870097]]",density,black,,,N012,visual,6,[],"['1', '2', '3', '4']",1,2023.2.3,harveyvisual,2.1,[],8,0.75,
0,pause,0.4,None,None,None,0,247,247,247,,,,,,,,,,,,,N012,visual,6,[],"['1', '2', '3', '4']",1,2023.2.3,harveyvisual,2.1,[],8,0.75,
2,dot,0.3,['dot'],['density'],black,0,248,248,248,,,89.20022296905518,88.90731596946716,89.22395181655884,dot,"[0.1, 0.1]","[[0.06661886780735636, -0.3109770134588511], [-0.03502229105109153, -0.4833380692870097]]",density,black,,,N012,visual,6,[],"['1', '2', '3', '4']",1,2023.2.3,harveyvisual,2.1,[],8,0.75,
0,pause,0.4,None,None,None,0,249,249,249,,,,,,,,,,,,,N012,visual,6,[],"['1', '2', '3', '4']",1,2023.2.3,harveyvisual,2.1,[],8,0.75,
2,dot,0.3,['dot'],['density'],black,0,250,250,250,,,89.90022897720337,89.60727286338806,89.92391300201416,dot,"[0.08, 0.08]","[[0.17083311991776792, -0.05558111512160733], [0.1461049568064877, -0.25438559320493304]]",density,black,,,N012,visual,6,[],"['1', '2', '3', '4']",1,2023.2.3,harveyvisual,2.1,[],8,0.75,
0,pause,0.4,None,None,None,0,251,251,251,,,,,,,,,,,,,N012,visual,6,[],"['1', '2', '3', '4']",1,2023.2.3,harveyvisual,2.1,[],8,0.75,
1,dot,0.3,['dot'],['density'],black,0,252,252,252,,,90.6002299785614,90.30727481842041,90.62389779090881,dot,[0.08],"[-0.06064478149429028, 0.10204082006191012]",density,black,,,N012,visual,6,[],"['1', '2', '3', '4']",1,2023.2.3,harveyvisual,2.1,[],8,0.75,
0,pause,0.4,None,None,None,0,253,253,253,,,,,,,,,,,,,N012,visual,6,[],"['1', '2', '3', '4']",1,2023.2.3,harveyvisual,2.1,[],8,0.75,
1,dot,0.3,['dot'],['density'],black,0,254,254,254,,,91.30022287368774,91.00727200508118,91.32394790649414,dot,[0.06],"[-0.22356924330877379, 0.41145231278245986]",density,black,,,N012,visual,6,[],"['1', '2', '3', '4']",1,2023.2.3,harveyvisual,2.1,[],8,0.75,
0,pause,0.4,None,None,None,0,255,255,255,,,,,,,,,,,,,N012,visual,6,[],"['1', '2', '3', '4']",1,2023.2.3,harveyvisual,2.1,[],8,0.75,
1,dot,0.3,['dot'],['density'],white,0,256,256,256,,,92.0002269744873,91.70737195014954,92.02403092384338,dot,[0.1],"[-0.045934412585722416, -0.12236734128406912]",density,white,,,N012,visual,6,[],"['1', '2', '3', '4']",1,2023.2.3,harveyvisual,2.1,[],8,0.75,
0,pause,0.4,None,None,None,0,257,257,257,,,,,,,,,,,,,N012,visual,6,[],"['1', '2', '3', '4']",1,2023.2.3,harveyvisual,2.1,[],8,0.75,
1,dot,0.3,['dot'],['density'],black,0,258,258,258,,,92.70022296905518,92.40736389160156,92.72388696670532,dot,[0.1],"[0.30758596680771827, -0.21275106234766314]",density,black,,,N012,visual,6,[],"['1', '2', '3', '4']",1,2023.2.3,harveyvisual,2.1,[],8,0.75,
0,pause,0.4,None,None,None,0,259,259,259,,,,,,,,,,,,,N012,visual,6,[],"['1', '2', '3', '4']",1,2023.2.3,harveyvisual,2.1,[],8,0.75,
1,dot,0.3,['dot'],['density'],black,0,260,260,260,,,93.40022683143616,93.10721778869629,93.42388582229614,dot,[0.1],"[0.14557363600905707, -0.03994760510263185]",density,black,,,N012,visual,6,[],"['1', '2', '3', '4']",1,2023.2.3,harveyvisual,2.1,[],8,0.75,
0,pause,0.4,None,None,None,0,261,261,261,,,,,,,,,,,,,N012,visual,6,[],"['1', '2', '3', '4']",1,2023.2.3,harveyvisual,2.1,[],8,0.75,
1,dot,0.3,['dot'],['density'],black,0,262,262,262,,,94.1002140045166,93.80719089508057,94.12384486198425,dot,[0.06],"[0.5668064281626585, -0.020013277593342628]",density,black,,,N012,visual,6,[],"['1', '2', '3', '4']",1,2023.2.3,harveyvisual,2.1,[],8,0.75,
0,pause,0.4,None,None,None,0,263,263,263,,,,,,,,,,,,,N012,visual,6,[],"['1', '2', '3', '4']",1,2023.2.3,harveyvisual,2.1,[],8,0.75,
20,dot,0.3,['dot'],['density'],black,0,264,264,264,,,94.80022192001343,94.52383089065552,94.82382678985596,dot,"[0.08, 0.08, 0.1, 0.08, 0.08, 0.06, 0.1, 0.08, 0.06, 0.08, 0.1, 0.06, 0.06, 0.08, 0.1, 0.06, 0.1, 0.08, 0.08, 0.08]","[[0.3764413187151373, -0.418509186555245], [-0.575184382268363, -0.18789616825316696], [-0.3803219129768928, 0.13223685983379047], [-0.13201317163055787, 0.2537148561258521], [-0.3726771705015354, -0.14650496948480213], [0.2543772209100865, -0.12304291483547114], [-0.3341045811808732, 0.41971218906966634], [0.5084763227616157, -0.16071010390383852], [0.3347121028778016, 0.27044321961161255], [0.007810371591856713, -0.47065811650202827], [0.23383145922080928, 0.5189607932567792], [-0.06261657441987345, -0.01769571919053714], [-0.1422996278500021, -0.2913529461376988], [0.48463860329809794, 0.04312233904816387], [-0.27113917129103177, -0.48181715956211274], [0.15034750760222637, 0.34301247065020835], [0.16192626215634343, 0.06213347545003678], [0.014409955554477771, 0.5611842463635667], [0.14991484956399415, -0.3162823929236482], [-0.5778778891613588, 0.13982338482799095]]",density,black,,,N012,visual,6,[],"['1', '2', '3', '4']",1,2023.2.3,harveyvisual,2.1,[],8,0.75,
0,pause,0.4,None,None,None,0,265,265,265,,,,,,,,,,,,,N012,visual,6,[],"['1', '2', '3', '4']",1,2023.2.3,harveyvisual,2.1,[],8,0.75,
20,dot,0.3,['dot'],['density'],black,0,266,266,266,,,95.50021600723267,95.22382593154907,95.5237979888916,dot,"[0.1, 0.08, 0.08, 0.06, 0.06, 0.1, 0.08, 0.1, 0.08, 0.08, 0.06, 0.06, 0.08, 0.08, 0.06, 0.1, 0.06, 0.08, 0.1, 0.1]","[[-0.5506007087430572, 0.026266816479405486], [-0.3974556126544011, 0.1458875738918738], [0.22346607715724598, 0.2220634117686794], [-0.15776622556067726, 0.21920973032431346], [-0.04361788813836498, -0.11180629614951337], [0.1598554959119245, 0.4230930557953786], [0.5328095456785648, 0.06584099620250827], [-0.37023279042336177, 0.4680444061494296], [0.09003545648883227, -0.49538209595096017], [0.47174434158299017, -0.2724483975656585], [0.022788677339888652, -0.3110543068194193], [-0.52999955855061, -0.27784353905815123], [0.43501334805688063, 0.2320331469256231], [-0.22943851533322718, 0.04132021207643366], [0.3148734620357768, -0.5089534610486102], [-0.3050769167480934, -0.4279026572134121], [-0.10089139997270935, -0.5827246825008763], [0.2850377177323803, -0.0717839430287111], [0.25014796407577, -0.31174040146976356], [-0.3398062587759325, -0.22543418944606047]]",density,black,,,N012,visual,6,[],"['1', '2', '3', '4']",1,2023.2.3,harveyvisual,2.1,[],8,0.75,
0,pause,0.4,None,None,None,0,267,267,267,,,,,,,,,,,,,N012,visual,6,[],"['1', '2', '3', '4']",1,2023.2.3,harveyvisual,2.1,[],8,0.75,
