num,mod,duration,shape,ll_cond,colors,.thisRepN,.thisTrialN,.thisN,.thisIndex,thisRow.t,notes,raw_global_time,t_start,t_stop,shapes,size,pos,cond,color,button,RT,participant,session,starting_run,left button (match/odd),right button (non-match/even),samples_per_block,psychopy version,expName,offset,audio,number_runs,radius,
1,dot,0.3,['dot'],['density'],black,0,0,0,0,,,2.400221824645996,2.104045867919922,2.4205379486083984,dot,[0.08],"[0.4420174282329864, -0.3383815273201445]",density,black,,,N012,visual,1,[],"['1', '2', '3', '4']",1,2023.2.3,harveyvisual,2.1,[],8,0.75,
0,pause,0.4,None,None,None,0,1,1,1,,,,,,,,,,,,,N012,visual,1,[],"['1', '2', '3', '4']",1,2023.2.3,harveyvisual,2.1,[],8,0.75,
1,dot,0.3,['dot'],['density'],black,0,2,2,2,,,3.1002089977264404,2.803989887237549,3.1039769649505615,dot,[0.08],"[-0.40242150741388927, 0.27329756427278695]",density,black,,,N012,visual,1,[],"['1', '2', '3', '4']",1,2023.2.3,harveyvisual,2.1,[],8,0.75,
0,pause,0.4,None,None,None,0,3,3,3,,,,,,,,,,,,,N012,visual,1,[],"['1', '2', '3', '4']",1,2023.2.3,harveyvisual,2.1,[],8,0.75,
1,dot,0.3,['dot'],['density'],black,0,4,4,4,,,3.8002190589904785,3.5038490295410156,3.8205208778381348,dot,[0.08],"[-0.06064478149429028, 0.10204082006191012]",density,black,,,N012,visual,1,[],"['1', '2', '3', '4']",1,2023.2.3,harveyvisual,2.1,[],8,0.75,
0,pause,0.4,None,None,None,0,5,5,5,,,,,,,,,,,,,N012,visual,1,[],"['1', '2', '3', '4']",1,2023.2.3,harveyvisual,2.1,[],8,0.75,
1,dot,0.3,['dot'],['density'],black,0,6,6,6,,,4.500218868255615,4.203851938247681,4.52049994468689,dot,[0.1],"[0.0038807231877187303, -0.2777732366953785]",density,black,,,N012,visual,1,[],"['1', '2', '3', '4']",1,2023.2.3,harveyvisual,2.1,[],8,0.75,
0,pause,0.4,None,None,None,0,7,7,7,,,,,,,,,,,,,N012,visual,1,[],"['1', '2', '3', '4']",1,2023.2.3,harveyvisual,2.1,[],8,0.75,
1,dot,0.3,['dot'],['density'],black,0,8,8,8,,,5.200228929519653,4.903807878494263,5.220547914505005,dot,[0.1],"[-0.3631366314731191, 0.1590646049745197]",density,black,,,N012,visual,1,[],"['1', '2', '3', '4']",1,2023.2.3,harveyvisual,2.1,[],8,0.75,
0,pause,0.4,None,None,None,0,9,9,9,,,,,,,,,,,,,N012,visual,1,[],"['1', '2', '3', '4']",1,2023.2.3,harveyvisual,2.1,[],8,0.75,
1,dot,0.3,['dot'],['density'],white,0,10,10,10,,,5.900209903717041,5.60378098487854,5.920459985733032,dot,[0.08],"[0.0038807231877187303, -0.2777732366953785]",density,white,,,N012,visual,1,[],"['1', '2', '3', '4']",1,2023.2.3,harveyvisual,2.1,[],8,0.75,
0,pause,0.4,None,None,None,0,11,11,11,,,,,,,,,,,1,5.514589071273804,N012,visual,1,[],"['1', '2', '3', '4']",1,2023.2.3,harveyvisual,2.1,[],8,0.75,
2,dot,0.3,['dot'],['density'],black,0,12,12,12,,,6.60020899772644,6.303802967071533,6.620447874069214,dot,"[0.1, 0.06]","[[0.1851205616289071, -0.3624876981064337], [0.3405923022038234, -0.23608025195482504]]",density,black,,,N012,visual,1,[],"['1', '2', '3', '4']",1,2023.2.3,harveyvisual,2.1,[],8,0.75,
0,pause,0.4,None,None,None,0,13,13,13,,,,,,,,,,,,,N012,visual,1,[],"['1', '2', '3', '4']",1,2023.2.3,harveyvisual,2.1,[],8,0.75,
2,dot,0.3,['dot'],['density'],black,0,14,14,14,,,7.300216913223267,7.003783941268921,7.3204309940338135,dot,"[0.08, 0.06]","[[-0.20887660672828282, 0.3399455197969581], [-0.34272369919491674, 0.19089688818271272]]",density,black,,,N012,visual,1,[],"['1', '2', '3', '4']",1,2023.2.3,harveyvisual,2.1,[],8,0.75,
0,pause,0.4,None,None,None,0,15,15,15,,,,,,,,,,,,,N012,visual,1,[],"['1', '2', '3', '4']",1,2023.2.3,harveyvisual,2.1,[],8,0.75,
2,dot,0.3,['dot'],['density'],black,0,16,16,16,,,8.000232934951782,7.703742980957031,8.020524024963379,dot,"[0.1, 0.08]","[[-0.1809096912417549, 0.4542701565657042], [0.018526046348631375, 0.4698330185089162]]",density,black,,,N012,visual,1,[],"['1', '2', '3', '4']",1,2023.2.3,harveyvisual,2.1,[],8,0.75,
0,pause,0.4,None,None,None,0,17,17,17,,,,,,,,,,,,,N012,visual,1,[],"['1', '2', '3', '4']",1,2023.2.3,harveyvisual,2.1,[],8,0.75,
2,dot,0.3,['dot'],['density'],black,0,18,18,18,,,8.700224876403809,8.403713941574097,8.720391035079956,dot,"[0.1, 0.1]","[[0.1652621768884792, -0.40183218801656556], [-0.03337249546828684, -0.4281924369736378]]",density,black,,,N012,visual,1,[],"['1', '2', '3', '4']",1,2023.2.3,harveyvisual,2.1,[],8,0.75,
0,pause,0.4,None,None,None,0,19,19,19,,,,,,,,,,,,,N012,visual,1,[],"['1', '2', '3', '4']",1,2023.2.3,harveyvisual,2.1,[],8,0.75,
2,dot,0.3,['dot'],['density'],white,0,20,20,20,,,9.40020489692688,9.103688955307007,9.420356035232544,dot,"[0.08, 0.1]","[[-0.40295961353468523, -0.33947470962363085], [-0.23663605411983973, -0.22749761394439932]]",density,white,,,N012,visual,1,[],"['1', '2', '3', '4']",1,2023.2.3,harveyvisual,2.1,[],8,0.75,
0,pause,0.4,None,None,None,0,21,21,21,,,,,,,,,,,1,9.030179023742676,N012,visual,1,[],"['1', '2', '3', '4']",1,2023.2.3,harveyvisual,2.1,[],8,0.75,
2,dot,0.3,['dot'],['density'],black,0,22,22,22,,,10.100208044052124,9.803684949874878,10.12059497833252,dot,"[0.06, 0.08]","[[-0.4149324818804315, 0.28007444048998836], [-0.5260390884397633, 0.11347960973083408]]",density,black,,,N012,visual,1,[],"['1', '2', '3', '4']",1,2023.2.3,harveyvisual,2.1,[],8,0.75,
0,pause,0.4,None,None,None,0,23,23,23,,,,,,,,,,,,,N012,visual,1,[],"['1', '2', '3', '4']",1,2023.2.3,harveyvisual,2.1,[],8,0.75,
3,dot,0.3,['dot'],['density'],black,0,24,24,24,,,10.800214052200317,10.503664016723633,10.820333003997803,dot,"[0.1, 0.1, 0.08]","[[-0.10589639487257244, 0.35295021258352427], [0.12780035046084517, 0.3479378296372768], [0.013663645537612555, 0.51889388118174]]",density,black,,,N012,visual,1,[],"['1', '2', '3', '4']",1,2023.2.3,harveyvisual,2.1,[],8,0.75,
0,pause,0.4,None,None,None,0,25,25,25,,,,,,,,,,,,,N012,visual,1,[],"['1', '2', '3', '4']",1,2023.2.3,harveyvisual,2.1,[],8,0.75,
3,dot,0.3,['dot'],['density'],black,0,26,26,26,,,11.500224828720093,11.203632831573486,11.520320892333984,dot,"[0.06, 0.08, 0.08]","[[-0.476501853024302, 0.3110516410681161], [-0.26865065753742645, 0.4732574608261889], [-0.2772428868380306, 0.2516539537451065]]",density,black,,,N012,visual,1,[],"['1', '2', '3', '4']",1,2023.2.3,harveyvisual,2.1,[],8,0.75,
0,pause,0.4,None,None,None,0,27,27,27,,,,,,,,,,,,,N012,visual,1,[],"['1', '2', '3', '4']",1,2023.2.3,harveyvisual,2.1,[],8,0.75,
3,dot,0.3,['dot'],['density'],black,0,28,28,28,,,12.200212955474854,11.903641939163208,12.220303058624268,dot,"[0.1, 0.1, 0.08]","[[0.026071599024748527, -0.32860913997604846], [-0.11834724389398482, -0.18584523127985947], [0.10068982493997472, -0.12518245043845455]]",density,black,,,N012,visual,1,[],"['1', '2', '3', '4']",1,2023.2.3,harveyvisual,2.1,[],8,0.75,
0,pause,0.4,None,None,None,0,29,29,29,,,,,,,,,,,,,N012,visual,1,[],"['1', '2', '3', '4']",1,2023.2.3,harveyvisual,2.1,[],8,0.75,
3,dot,0.3,['dot'],['density'],black,0,30,30,30,,,12.900205850601196,12.60360598564148,12.920281887054443,dot,"[0.1, 0.06, 0.08]","[[-0.15188894406744968, -0.195193050272512], [6.772800145782267e-05, -0.040844811103836635], [-0.2045693439875358, 0.0038115475482788236]]",density,black,,,N012,visual,1,[],"['1', '2', '3', '4']",1,2023.2.3,harveyvisual,2.1,[],8,0.75,
0,pause,0.4,None,None,None,0,31,31,31,,,,,,,,,,,,,N012,visual,1,[],"['1', '2', '3', '4']",1,2023.2.3,harveyvisual,2.1,[],8,0.75,
3,dot,0.3,['dot'],['density'],black,0,32,32,32,,,13.600204944610596,13.303577899932861,13.620275974273682,dot,"[0.08, 0.08, 0.1]","[[0.11213305146232053, -0.07893917948794166], [0.05639720131197772, -0.2966044022377523], [-0.1031859716129837, -0.13437008874356654]]",density,black,,,N012,visual,1,[],"['1', '2', '3', '4']",1,2023.2.3,harveyvisual,2.1,[],8,0.75,
0,pause,0.4,None,None,None,0,33,33,33,,,,,,,,,,,,,N012,visual,1,[],"['1', '2', '3', '4']",1,2023.2.3,harveyvisual,2.1,[],8,0.75,
3,dot,0.3,['dot'],['density'],black,0,34,34,34,,,14.300205945968628,14.003566026687622,14.320214986801147,dot,"[0.08, 0.1, 0.08]","[[0.2768253388883432, 0.03346297355107007], [0.11287187477499526, -0.09417797505773098], [0.09003622344097514, 0.12370024427926096]]",density,black,,,N012,visual,1,[],"['1', '2', '3', '4']",1,2023.2.3,harveyvisual,2.1,[],8,0.75,
0,pause,0.4,None,None,None,0,35,35,35,,,,,,,,,,,,,N012,visual,1,[],"['1', '2', '3', '4']",1,2023.2.3,harveyvisual,2.1,[],8,0.75,
4,dot,0.3,['dot'],['density'],black,0,36,36,36,,,15.000223875045776,14.703559875488281,15.02051305770874,dot,"[0.1, 0.06, 0.1, 0.08]","[[-0.22711054503220823, -0.5144049053218714], [-0.016307770745122817, -0.5558659767831347], [-0.26432457165568224, -0.2824025039497699], [-0.026303944553407815, -0.34464361634901186]]",density,black,,,N012,visual,1,[],"['1', '2', '3', '4']",1,2023.2.3,harveyvisual,2.1,[],8,0.75,
0,pause,0.4,None,None,None,0,37,37,37,,,,,,,,,,,,,N012,visual,1,[],"['1', '2', '3', '4']",1,2023.2.3,harveyvisual,2.1,[],8,0.75,
4,dot,0.3,['dot'],['density'],black,0,38,38,38,,,15.70020604133606,15.403539896011353,15.720202922821045,dot,"[0.08, 0.06, 0.06, 0.1]","[[0.0015408600658227804, 0.35051751062746694], [-0.20674122870780898, 0.3211588031025307], [-0.08430622538187964, 0.13383917563087117], [0.1780252705082131, 0.19175915241248492]]",density,black,,,N012,visual,1,[],"['1', '2', '3', '4']",1,2023.2.3,harveyvisual,2.1,[],8,0.75,
0,pause,0.4,None,None,None,0,39,39,39,,,,,,,,,,,,,N012,visual,1,[],"['1', '2', '3', '4']",1,2023.2.3,harveyvisual,2.1,[],8,0.75,
4,dot,0.3,['dot'],['density'],white,0,40,40,40,,,16.400208950042725,16.103710889816284,16.42020583152771,dot,"[0.08, 0.1, 0.1, 0.08]","[[0.17852470546651972, -0.2012438881607824], [-0.031034799765910746, -0.12466087783573923], [0.008996399474264666, -0.3229379719524122], [0.15114343287780646, 0.03986859122442722]]",density,white,,,N012,visual,1,[],"['1', '2', '3', '4']",1,2023.2.3,harveyvisual,2.1,[],8,0.75,
0,pause,0.4,None,None,None,0,41,41,41,,,,,,,,,,,1,15.97917890548706,N012,visual,1,[],"['1', '2', '3', '4']",1,2023.2.3,harveyvisual,2.1,[],8,0.75,
4,dot,0.3,['dot'],['density'],black,0,42,42,42,,,17.100220918655396,16.803491830825806,17.12013292312622,dot,"[0.08, 0.1, 0.06, 0.08]","[[0.012521055699324385, 0.11356654047594222], [0.23234191260135498, 0.08597184236642744], [-0.1711309036876675, 0.020891973622313913], [0.11376048882462075, -0.09104804463782627]]",density,black,,,N012,visual,1,[],"['1', '2', '3', '4']",1,2023.2.3,harveyvisual,2.1,[],8,0.75,
0,pause,0.4,None,None,None,0,43,43,43,,,,,,,,,,,,,N012,visual,1,[],"['1', '2', '3', '4']",1,2023.2.3,harveyvisual,2.1,[],8,0.75,
4,dot,0.3,['dot'],['density'],black,0,44,44,44,,,17.800217866897583,17.50349497795105,17.820137977600098,dot,"[0.08, 0.1, 0.08, 0.06]","[[-0.34940937311115045, -0.11648702989399858], [-0.2695829051223266, -0.4589438614516443], [-0.4698604504367728, -0.3018413850444449], [-0.18849712946501163, -0.26902343222239633]]",density,black,,,N012,visual,1,[],"['1', '2', '3', '4']",1,2023.2.3,harveyvisual,2.1,[],8,0.75,
0,pause,0.4,None,None,None,0,45,45,45,,,,,,,,,,,,,N012,visual,1,[],"['1', '2', '3', '4']",1,2023.2.3,harveyvisual,2.1,[],8,0.75,
4,dot,0.3,['dot'],['density'],black,0,46,46,46,,,18.5002019405365,18.205665826797485,18.522384881973267,dot,"[0.1, 0.08, 0.08, 0.1]","[[0.5195678262777355, 0.06634869171649047], [0.11508779247300271, 0.04459464887784077], [0.27862218446352316, 0.18290230777407274], [0.28701832247091064, -0.08209332131291468]]",density,black,,,N012,visual,1,[],"['1', '2', '3', '4']",1,2023.2.3,harveyvisual,2.1,[],8,0.75,
0,pause,0.4,None,None,None,0,47,47,47,,,,,,,,,,,,,N012,visual,1,[],"['1', '2', '3', '4']",1,2023.2.3,harveyvisual,2.1,[],8,0.75,
5,dot,0.3,['dot'],['density'],black,0,48,48,48,,,19.200227975845337,18.905741930007935,19.222365856170654,dot,"[0.1, 0.1, 0.1, 0.1, 0.06]","[[-0.20882687658313398, 0.05979685123170853], [0.07709165915785691, 0.33819008637117026], [0.02323578322535992, 0.12175330968231063], [0.02522363087913582, -0.08718927316059993], [-0.12152044988768049, 0.28453648995279207]]",density,black,,,N012,visual,1,[],"['1', '2', '3', '4']",1,2023.2.3,harveyvisual,2.1,[],8,0.75,
0,pause,0.4,None,None,None,0,49,49,49,,,,,,,,,,,,,N012,visual,1,[],"['1', '2', '3', '4']",1,2023.2.3,harveyvisual,2.1,[],8,0.75,
5,dot,0.3,['dot'],['density'],black,0,50,50,50,,,19.900210857391357,19.6056809425354,19.922351837158203,dot,"[0.08, 0.1, 0.1, 0.08, 0.1]","[[0.34746533592570195, 0.16118282603596082], [0.14457128296481445, 0.28865621170929245], [0.4549189851861922, 0.34228556952890804], [0.008483415068308318, 0.44103246018778014], [0.27150044131742485, 0.4621652121832405]]",density,black,,,N012,visual,1,[],"['1', '2', '3', '4']",1,2023.2.3,harveyvisual,2.1,[],8,0.75,
0,pause,0.4,None,None,None,0,51,51,51,,,,,,,,,,,,,N012,visual,1,[],"['1', '2', '3', '4']",1,2023.2.3,harveyvisual,2.1,[],8,0.75,
5,dot,0.3,['dot'],['density'],black,0,52,52,52,,,20.600215911865234,20.305636882781982,20.622309923171997,dot,"[0.08, 0.08, 0.06, 0.08, 0.1]","[[-0.416197921377668, -0.28619329865683824], [-0.20866628843358032, -0.3460647126262422], [-0.5570429559765239, -0.05989317214741584], [-0.28028983240144106, -0.12146425093182346], [-0.3531870384577651, 0.07845006904085886]]",density,black,,,N012,visual,1,[],"['1', '2', '3', '4']",1,2023.2.3,harveyvisual,2.1,[],8,0.75,
0,pause,0.4,None,None,None,0,53,53,53,,,,,,,,,,,,,N012,visual,1,[],"['1', '2', '3', '4']",1,2023.2.3,harveyvisual,2.1,[],8,0.75,
5,dot,0.3,['dot'],['density'],black,0,54,54,54,,,21.300221920013428,21.005738973617554,21.322892904281616,dot,"[0.08, 0.06, 0.1, 0.08, 0.06]","[[0.34746533592570195, 0.16118282603596082], [0.14457128296481445, 0.28865621170929245], [0.4549189851861922, 0.34228556952890804], [0.008483415068308318, 0.44103246018778014], [0.27150044131742485, 0.4621652121832405]]",density,black,,,N012,visual,1,[],"['1', '2', '3', '4']",1,2023.2.3,harveyvisual,2.1,[],8,0.75,
0,pause,0.4,None,None,None,0,55,55,55,,,,,,,,,,,,,N012,visual,1,[],"['1', '2', '3', '4']",1,2023.2.3,harveyvisual,2.1,[],8,0.75,
5,dot,0.3,['dot'],['density'],white,0,56,56,56,,,22.00020694732666,21.705785036087036,22.022364854812622,dot,"[0.1, 0.1, 0.08, 0.06, 0.08]","[[0.34746533592570195, 0.16118282603596082], [0.14457128296481445, 0.28865621170929245], [0.4549189851861922, 0.34228556952890804], [0.008483415068308318, 0.44103246018778014], [0.27150044131742485, 0.4621652121832405]]",density,white,,,N012,visual,1,[],"['1', '2', '3', '4']",1,2023.2.3,harveyvisual,2.1,[],8,0.75,
0,pause,0.4,None,None,None,0,57,57,57,,,,,,,,,,,1,21.63758897781372,N012,visual,1,[],"['1', '2', '3', '4']",1,2023.2.3,harveyvisual,2.1,[],8,0.75,
5,dot,0.3,['dot'],['density'],black,0,58,58,58,,,22.70020294189453,22.406766891479492,22.722487926483154,dot,"[0.06, 0.08, 0.06, 0.1, 0.1]","[[-0.053215572458232586, 0.27221330895143253], [0.10089702531331296, 0.1334794413224796], [0.12897289155288158, 0.4002796015157326], [0.3022660506716914, 0.02685289149411272], [0.2804295634962893, 0.24950018434757285]]",density,black,,,N012,visual,1,[],"['1', '2', '3', '4']",1,2023.2.3,harveyvisual,2.1,[],8,0.75,
0,pause,0.4,None,None,None,0,59,59,59,,,,,,,,,,,,,N012,visual,1,[],"['1', '2', '3', '4']",1,2023.2.3,harveyvisual,2.1,[],8,0.75,
6,dot,0.3,['dot'],['density'],black,0,60,60,60,,,23.40020203590393,23.105742931365967,23.422318935394287,dot,"[0.08, 0.08, 0.1, 0.06, 0.1, 0.06]","[[-0.2094991805307552, 0.08302354111181451], [0.09557258300728075, 0.3458622669714129], [0.22056408800171526, -0.017094369341425636], [0.026601936584830878, 0.1297564650757722], [-0.11681768564656844, 0.2726391152528644], [-0.03570146891163527, -0.09222923444939024]]",density,black,,,N012,visual,1,[],"['1', '2', '3', '4']",1,2023.2.3,harveyvisual,2.1,[],8,0.75,
0,pause,0.4,None,None,None,0,61,61,61,,,,,,,,,,,,,N012,visual,1,[],"['1', '2', '3', '4']",1,2023.2.3,harveyvisual,2.1,[],8,0.75,
6,dot,0.3,['dot'],['density'],black,0,62,62,62,,,24.100205898284912,23.805668830871582,24.123381853103638,dot,"[0.1, 0.06, 0.1, 0.06, 0.1, 0.1]","[[-0.11553075830627273, 0.47698778124428043], [-0.1112787518129194, 0.10456141670764223], [-0.48855705683845824, 0.21494657582805063], [-0.2538299919008863, 0.2532006538804931], [-0.3271837865365474, 0.4662148945367939], [0.006792750312598743, 0.27345996435494924]]",density,black,,,N012,visual,1,[],"['1', '2', '3', '4']",1,2023.2.3,harveyvisual,2.1,[],8,0.75,
0,pause,0.4,None,None,None,0,63,63,63,,,,,,,,,,,,,N012,visual,1,[],"['1', '2', '3', '4']",1,2023.2.3,harveyvisual,2.1,[],8,0.75,
6,dot,0.3,['dot'],['density'],black,0,64,64,64,,,24.800211906433105,24.505687952041626,24.822311878204346,dot,"[0.06, 0.08, 0.1, 0.1, 0.1, 0.1]","[[0.26568550625605564, -0.48823100126060537], [0.030589778490880962, -0.34307155488476027], [0.2920158589989485, -0.005481777194348812], [0.4969139129819881, -0.3034402107212153], [0.2924968692334099, -0.2393606426967254], [0.09404279540557291, -0.1505005030192783]]",density,black,,,N012,visual,1,[],"['1', '2', '3', '4']",1,2023.2.3,harveyvisual,2.1,[],8,0.75,
0,pause,0.4,None,None,None,0,65,65,65,,,,,,,,,,,,,N012,visual,1,[],"['1', '2', '3', '4']",1,2023.2.3,harveyvisual,2.1,[],8,0.75,
6,dot,0.3,['dot'],['density'],black,0,66,66,66,,,25.500228881835938,25.205618858337402,25.5223069190979,dot,"[0.08, 0.08, 0.1, 0.1, 0.06, 0.06]","[[0.26568550625605564, -0.48823100126060537], [0.030589778490880962, -0.34307155488476027], [0.2920158589989485, -0.005481777194348812], [0.4969139129819881, -0.3034402107212153], [0.2924968692334099, -0.2393606426967254], [0.09404279540557291, -0.1505005030192783]]",density,black,,,N012,visual,1,[],"['1', '2', '3', '4']",1,2023.2.3,harveyvisual,2.1,[],8,0.75,
0,pause,0.4,None,None,None,0,67,67,67,,,,,,,,,,,,,N012,visual,1,[],"['1', '2', '3', '4']",1,2023.2.3,harveyvisual,2.1,[],8,0.75,
6,dot,0.3,['dot'],['density'],black,0,68,68,68,,,26.2002170085907,25.905760049819946,26.22228693962097,dot,"[0.06, 0.08, 0.08, 0.08, 0.1, 0.06]","[[0.5108460974500976, 0.10904555526594768], [0.5033362887342737, -0.29902707163897635], [0.3062164979741722, 0.05793810054487639], [0.22849736264613016, -0.28041776899433873], [0.12909977445373055, -0.06500178518750158], [0.41889526300287094, -0.11616960582105396]]",density,black,,,N012,visual,1,[],"['1', '2', '3', '4']",1,2023.2.3,harveyvisual,2.1,[],8,0.75,
0,pause,0.4,None,None,None,0,69,69,69,,,,,,,,,,,,,N012,visual,1,[],"['1', '2', '3', '4']",1,2023.2.3,harveyvisual,2.1,[],8,0.75,
6,dot,0.3,['dot'],['density'],white,0,70,70,70,,,26.900207042694092,26.605594873428345,26.922268867492676,dot,"[0.08, 0.1, 0.1, 0.1, 0.1, 0.08]","[[-0.36874454135919904, -0.07559312273534534], [-0.010504004432700158, -0.20559114413973084], [-0.17044584652251332, 0.17221059634863578], [-0.26251446752681207, -0.3074850979938877], [0.06633568674208327, -0.020893677029436595], [-0.1538914639536258, -0.02772778393149798]]",density,white,,,N012,visual,1,[],"['1', '2', '3', '4']",1,2023.2.3,harveyvisual,2.1,[],8,0.75,
0,pause,0.4,None,None,None,0,71,71,71,,,,,,,,,,,1,26.452247858047485,N012,visual,1,[],"['1', '2', '3', '4']",1,2023.2.3,harveyvisual,2.1,[],8,0.75,
7,dot,0.3,['dot'],['density'],black,0,72,72,72,,,27.600221872329712,27.32228994369507,27.622241020202637,dot,"[0.08, 0.06, 0.06, 0.06, 0.06, 0.06, 0.06]","[[0.3032073476866497, 0.39528308644852606], [0.12977480624643314, 0.5338553612741447], [-0.07830532742558233, 0.5277294273979773], [0.000705909343175084, 0.04538848857330666], [-0.11442247498636825, 0.3203087976624053], [0.11424952152856681, 0.31372813630522095], [0.2743618672110132, 0.19233036806743029]]",density,black,,,N012,visual,1,[],"['1', '2', '3', '4']",1,2023.2.3,harveyvisual,2.1,[],8,0.75,
0,pause,0.4,None,None,None,0,73,73,73,,,,,,,,,,,,,N012,visual,1,[],"['1', '2', '3', '4']",1,2023.2.3,harveyvisual,2.1,[],8,0.75,
7,dot,0.3,['dot'],['density'],black,0,74,74,74,,,28.300230026245117,28.02224898338318,28.323111057281494,dot,"[0.08, 0.1, 0.1, 0.06, 0.1, 0.06, 0.06]","[[0.3032073476866497, 0.39528308644852606], [0.12977480624643314, 0.5338553612741447], [-0.07830532742558233, 0.5277294273979773], [0.000705909343175084, 0.04538848857330666], [-0.11442247498636825, 0.3203087976624053], [0.11424952152856681, 0.31372813630522095], [0.2743618672110132, 0.19233036806743029]]",density,black,,,N012,visual,1,[],"['1', '2', '3', '4']",1,2023.2.3,harveyvisual,2.1,[],8,0.75,
0,pause,0.4,None,None,None,0,75,75,75,,,,,,,,,,,,,N012,visual,1,[],"['1', '2', '3', '4']",1,2023.2.3,harveyvisual,2.1,[],8,0.75,
7,dot,0.3,['dot'],['density'],black,0,76,76,76,,,29.00022602081299,28.722347021102905,29.02233600616455,dot,"[0.08, 0.08, 0.1, 0.08, 0.1, 0.1, 0.06]","[[0.2037857981676222, -0.1815971672986122], [0.4890839798603071, 0.25295445478885614], [0.1294833597440532, 0.050421522491765555], [0.5249724357971474, 0.014331621614536631], [0.4084294087299191, -0.1546943519977724], [0.31356179590401956, 0.13415696527685209], [-0.016262925640377804, -0.1588315022511765]]",density,black,,,N012,visual,1,[],"['1', '2', '3', '4']",1,2023.2.3,harveyvisual,2.1,[],8,0.75,
0,pause,0.4,None,None,None,0,77,77,77,,,,,,,,,,,,,N012,visual,1,[],"['1', '2', '3', '4']",1,2023.2.3,harveyvisual,2.1,[],8,0.75,
7,dot,0.3,['dot'],['density'],black,0,78,78,78,,,29.70022487640381,29.42220902442932,29.722213983535767,dot,"[0.06, 0.06, 0.06, 0.06, 0.06, 0.1, 0.06]","[[0.43636558899465056, -0.019888822856555858], [0.3422654810486562, -0.28596623187093184], [0.19265053263460555, -0.4439876245838232], [0.13726272111749335, -0.2453614523272762], [0.002381890354708078, -0.04768315945896726], [0.5336827108411983, -0.21507725682246784], [0.22437755209563529, -0.002563521851875305]]",density,black,,,N012,visual,1,[],"['1', '2', '3', '4']",1,2023.2.3,harveyvisual,2.1,[],8,0.75,
0,pause,0.4,None,None,None,0,79,79,79,,,,,,,,,,,,,N012,visual,1,[],"['1', '2', '3', '4']",1,2023.2.3,harveyvisual,2.1,[],8,0.75,
7,dot,0.3,['dot'],['density'],black,0,80,80,80,,,30.400213956832886,30.122185945510864,30.423053979873657,dot,"[0.08, 0.1, 0.1, 0.06, 0.1, 0.06, 0.1]","[[-0.4260259763687212, 0.0015611622021723967], [-0.003169876971998007, 0.13415651360788267], [-0.2586764037849864, 0.4417783913692737], [-0.4397986643511286, 0.306274470342183], [-0.0069778791964768315, 0.3653924841843964], [-0.25662591460159173, 0.21046748777052526], [-0.17930648864359452, 0.007725268650954965]]",density,black,,,N012,visual,1,[],"['1', '2', '3', '4']",1,2023.2.3,harveyvisual,2.1,[],8,0.75,
0,pause,0.4,None,None,None,0,81,81,81,,,,,,,,,,,,,N012,visual,1,[],"['1', '2', '3', '4']",1,2023.2.3,harveyvisual,2.1,[],8,0.75,
7,dot,0.3,['dot'],['density'],black,0,82,82,82,,,31.100208044052124,30.822166919708252,31.122150897979736,dot,"[0.06, 0.08, 0.1, 0.1, 0.1, 0.06, 0.08]","[[-0.15204905838880944, -0.5333107186751418], [-0.1519936835116667, -0.2986813487337615], [0.3123805602017952, -0.370842296180838], [-0.04397638837772695, -0.01669328424437847], [0.11716920447009348, -0.14912816843546053], [0.1067198166566748, -0.5553575834591685], [0.04038917577175449, -0.3541606866516689]]",density,black,,,N012,visual,1,[],"['1', '2', '3', '4']",1,2023.2.3,harveyvisual,2.1,[],8,0.75,
0,pause,0.4,None,None,None,0,83,83,83,,,,,,,,,,,,,N012,visual,1,[],"['1', '2', '3', '4']",1,2023.2.3,harveyvisual,2.1,[],8,0.75,
8,dot,0.3,['dot'],['density'],black,0,84,84,84,,,31.80022692680359,31.52215003967285,31.823047876358032,dot,"[0.08, 0.08, 0.1, 0.08, 0.06, 0.08, 0.06, 0.06]","[[0.016639406518403475, -0.10031965053970064], [-0.49734137941811546, 0.023312718056099104], [0.03171158295547566, 0.2028207856397581], [-0.3777108616291506, 0.18827317115199685], [-0.2734124440264558, -0.20525012861841768], [-0.1742574757978524, 0.04093824739900491], [-0.17815403785603903, 0.26205888083036905], [-0.2502819750276768, 0.4804358206127844]]",density,black,,,N012,visual,1,[],"['1', '2', '3', '4']",1,2023.2.3,harveyvisual,2.1,[],8,0.75,
0,pause,0.4,None,None,None,0,85,85,85,,,,,,,,,,,,,N012,visual,1,[],"['1', '2', '3', '4']",1,2023.2.3,harveyvisual,2.1,[],8,0.75,
8,dot,0.3,['dot'],['density'],black,0,86,86,86,,,32.50021505355835,32.22501587867737,32.522079944610596,dot,"[0.06, 0.1, 0.08, 0.06, 0.08, 0.1, 0.06, 0.08]","[[0.016639406518403475, -0.10031965053970064], [-0.49734137941811546, 0.023312718056099104], [0.03171158295547566, 0.2028207856397581], [-0.3777108616291506, 0.18827317115199685], [-0.2734124440264558, -0.20525012861841768], [-0.1742574757978524, 0.04093824739900491], [-0.17815403785603903, 0.26205888083036905], [-0.2502819750276768, 0.4804358206127844]]",density,black,,,N012,visual,1,[],"['1', '2', '3', '4']",1,2023.2.3,harveyvisual,2.1,[],8,0.75,
0,pause,0.4,None,None,None,0,87,87,87,,,,,,,,,,,,,N012,visual,1,[],"['1', '2', '3', '4']",1,2023.2.3,harveyvisual,2.1,[],8,0.75,
8,dot,0.3,['dot'],['density'],black,0,88,88,88,,,33.200206995010376,32.922117948532104,33.22206902503967,dot,"[0.08, 0.08, 0.1, 0.1, 0.08, 0.08, 0.08, 0.1]","[[0.4578461037593053, -0.0425280984807614], [0.3105081462658962, -0.253400778181943], [0.5107466611240274, 0.18303335057259504], [0.05013881804369301, 0.21472050036076742], [0.11913774150617627, -0.046477809882714556], [0.3069987493408211, 0.11186211070896974], [0.10261508471656716, -0.25482825738733483], [-0.08881417545548334, 0.035709595317019026]]",density,black,,,N012,visual,1,[],"['1', '2', '3', '4']",1,2023.2.3,harveyvisual,2.1,[],8,0.75,
0,pause,0.4,None,None,None,0,89,89,89,,,,,,,,,,,,,N012,visual,1,[],"['1', '2', '3', '4']",1,2023.2.3,harveyvisual,2.1,[],8,0.75,
8,dot,0.3,['dot'],['density'],black,0,90,90,90,,,33.90022897720337,33.622100830078125,33.92207193374634,dot,"[0.08, 0.06, 0.06, 0.06, 0.08, 0.1, 0.1, 0.06]","[[-0.21605400050023119, -0.36806604112140096], [-0.4331556331222778, 0.1336594927324191], [-0.3157474098875971, -0.1371073420352747], [-0.10064365538588134, -0.10053754910436148], [0.10862445751928086, -0.04115753002163663], [-0.19663983546434133, 0.09424647547905109], [-0.5379272585723496, -0.06117038891009633], [0.023355790718173546, -0.2955553217846553]]",density,black,,,N012,visual,1,[],"['1', '2', '3', '4']",1,2023.2.3,harveyvisual,2.1,[],8,0.75,
0,pause,0.4,None,None,None,0,91,91,91,,,,,,,,,,,,,N012,visual,1,[],"['1', '2', '3', '4']",1,2023.2.3,harveyvisual,2.1,[],8,0.75,
8,dot,0.3,['dot'],['density'],black,0,92,92,92,,,34.60020899772644,34.322041034698486,34.62211298942566,dot,"[0.1, 0.06, 0.08, 0.1, 0.1, 0.1, 0.1, 0.1]","[[-0.16499387414028463, -0.418455346753131], [0.031011941373623824, -0.006148034068666969], [-0.4150712424924157, -0.28668557629476243], [-0.199054958380199, -0.21375968732837633], [-0.4870789535587041, 0.00515905815181239], [-0.198479811208303, 0.006815000109153054], [-0.3273741662815474, 0.19008037141614484], [0.04340096687518584, -0.25044408321713213]]",density,black,,,N012,visual,1,[],"['1', '2', '3', '4']",1,2023.2.3,harveyvisual,2.1,[],8,0.75,
0,pause,0.4,None,None,None,0,93,93,93,,,,,,,,,,,,,N012,visual,1,[],"['1', '2', '3', '4']",1,2023.2.3,harveyvisual,2.1,[],8,0.75,
8,dot,0.3,['dot'],['density'],black,0,94,94,94,,,35.30020499229431,35.02209782600403,35.322072982788086,dot,"[0.1, 0.1, 0.06, 0.1, 0.08, 0.06, 0.1, 0.1]","[[-0.3306282708070712, -0.09459634407206743], [0.17708038186302957, -0.36794437316098305], [-0.34368294577136044, -0.39688855169369486], [-0.16397220561896333, 0.03033928826277653], [-0.08476975953586025, -0.41834960305423746], [-0.16765121495786453, -0.2265743681515788], [0.0449590487082352, -0.10546915507075137], [-0.5574709661459258, -0.15664368712912546]]",density,black,,,N012,visual,1,[],"['1', '2', '3', '4']",1,2023.2.3,harveyvisual,2.1,[],8,0.75,
0,pause,0.4,None,None,None,0,95,95,95,,,,,,,,,,,,,N012,visual,1,[],"['1', '2', '3', '4']",1,2023.2.3,harveyvisual,2.1,[],8,0.75,
9,dot,0.3,['dot'],['density'],black,0,96,96,96,,,36.00021290779114,35.72206783294678,36.02499198913574,dot,"[0.08, 0.06, 0.1, 0.06, 0.06, 0.1, 0.08, 0.1, 0.08]","[[0.23250081832313607, -0.03448075506690146], [0.3034476098774822, 0.1830296703973891], [-0.18904104685434053, 0.18833284185042862], [0.2553794676357457, 0.5314352583170906], [0.16363099535363254, 0.3461022642192175], [-0.0841935017478271, 0.3664174397160571], [-0.26748786402911323, -0.05736109653727262], [0.043842773669028334, 0.577246673499167], [0.02102957219118283, 0.0979254794926055]]",density,black,,,N012,visual,1,[],"['1', '2', '3', '4']",1,2023.2.3,harveyvisual,2.1,[],8,0.75,
0,pause,0.4,None,None,None,0,97,97,97,,,,,,,,,,,,,N012,visual,1,[],"['1', '2', '3', '4']",1,2023.2.3,harveyvisual,2.1,[],8,0.75,
9,dot,0.3,['dot'],['density'],black,0,98,98,98,,,36.70021986961365,36.42200684547424,36.72223091125488,dot,"[0.06, 0.08, 0.1, 0.1, 0.08, 0.1, 0.08, 0.06, 0.08]","[[-0.23139737267821464, 0.4582894628988488], [-0.22563640623437264, 0.09161215191469056], [0.08653997658409265, 0.18408404769425912], [-0.34134765149242685, 0.2795210921938051], [-0.45752590330905135, 0.08752711185150099], [-0.035040587470716034, -0.07657027701648178], [-0.27120713465948276, -0.1309343981320133], [-0.3537313425617488, -0.374673418779248], [-0.09309732942360581, 0.2754840453600595]]",density,black,,,N012,visual,1,[],"['1', '2', '3', '4']",1,2023.2.3,harveyvisual,2.1,[],8,0.75,
0,pause,0.4,None,None,None,0,99,99,99,,,,,,,,,,,,,N012,visual,1,[],"['1', '2', '3', '4']",1,2023.2.3,harveyvisual,2.1,[],8,0.75,
9,dot,0.3,['dot'],['density'],white,0,100,100,100,,,37.40021204948425,37.122002840042114,37.42196202278137,dot,"[0.1, 0.1, 0.1, 0.06, 0.08, 0.08, 0.1, 0.06, 0.06]","[[-0.011980588702785358, -0.14271344386551676], [-0.15345504415890063, -0.3599837049237609], [0.2909474261289129, -0.3591516282942406], [0.16239073734315843, -0.5386624114967425], [0.2227638828830022, -0.11271380419745088], [0.06426208015886789, 0.04859175461581491], [-0.3648571389210414, -0.3413683676300365], [0.3831858227582706, 0.019718563726728144], [0.06479696894599615, -0.3534524636945761]]",density,white,,,N012,visual,1,[],"['1', '2', '3', '4']",1,2023.2.3,harveyvisual,2.1,[],8,0.75,
0,pause,0.4,None,None,None,0,101,101,101,,,,,,,,,,,1,37.06046986579895,N012,visual,1,[],"['1', '2', '3', '4']",1,2023.2.3,harveyvisual,2.1,[],8,0.75,
9,dot,0.3,['dot'],['density'],black,0,102,102,102,,,38.100220918655396,37.821990966796875,38.122007846832275,dot,"[0.08, 0.06, 0.06, 0.06, 0.1, 0.06, 0.06, 0.08, 0.1]","[[0.15603996265512696, -0.0872053538661942], [-0.29211765964195757, -0.04110002513656992], [-0.071087909845803, -0.33174387981618686], [-0.13011395490928096, 0.2584597801106329], [-0.08364541374476576, -0.0980664528631432], [-0.26669569773039664, -0.25481833902542456], [-0.35582819085755485, -0.4494505046102014], [-0.1269674344078877, -0.5566175884613933], [0.011820482989003244, 0.07934247632600783]]",density,black,,,N012,visual,1,[],"['1', '2', '3', '4']",1,2023.2.3,harveyvisual,2.1,[],8,0.75,
0,pause,0.4,None,None,None,0,103,103,103,,,,,,,,,,,,,N012,visual,1,[],"['1', '2', '3', '4']",1,2023.2.3,harveyvisual,2.1,[],8,0.75,
9,dot,0.3,['dot'],['density'],black,0,104,104,104,,,38.80022692680359,38.52202105522156,38.82198095321655,dot,"[0.1, 0.1, 0.08, 0.08, 0.1, 0.08, 0.08, 0.06, 0.1]","[[0.050129075631511706, -0.29659829200500587], [0.1522424042566208, -0.02012498145544232], [-0.31773020450764894, 0.09756431981266957], [-0.25388767024787284, -0.20865833148222632], [-0.06549152868915667, -0.10253084504872755], [-0.047012852932693645, 0.11741599898337682], [0.26526013051082903, -0.18996189821299347], [0.2442588296558726, 0.17404051307925203], [0.053323608967773835, 0.34462047536600726]]",density,black,,,N012,visual,1,[],"['1', '2', '3', '4']",1,2023.2.3,harveyvisual,2.1,[],8,0.75,
0,pause,0.4,None,None,None,0,105,105,105,,,,,,,,,,,,,N012,visual,1,[],"['1', '2', '3', '4']",1,2023.2.3,harveyvisual,2.1,[],8,0.75,
9,dot,0.3,['dot'],['density'],black,0,106,106,106,,,39.5002179145813,39.22193789482117,39.52194690704346,dot,"[0.06, 0.08, 0.06, 0.1, 0.1, 0.06, 0.08, 0.08, 0.06]","[[-0.05049485011715354, 0.3013521193238899], [0.15354596755057998, 0.36785015051376163], [0.22995749783639982, 0.07309138415424772], [0.13460311710395165, -0.18603378415368982], [0.33097739113381164, -0.13822260855557728], [-0.16464148731134703, 0.07190493829483618], [0.521154897315396, -0.007803673430992942], [0.02684304494395013, 0.0018704401699241912], [-0.15545279255173522, -0.15329938800760382]]",density,black,,,N012,visual,1,[],"['1', '2', '3', '4']",1,2023.2.3,harveyvisual,2.1,[],8,0.75,
0,pause,0.4,None,None,None,0,107,107,107,,,,,,,,,,,,,N012,visual,1,[],"['1', '2', '3', '4']",1,2023.2.3,harveyvisual,2.1,[],8,0.75,
20,dot,0.3,['dot'],['density'],black,0,108,108,108,,,40.20022392272949,39.92193794250488,40.222074031829834,dot,"[0.06, 0.08, 0.08, 0.08, 0.08, 0.06, 0.08, 0.1, 0.1, 0.08, 0.1, 0.06, 0.06, 0.06, 0.08, 0.1, 0.1, 0.06, 0.06, 0.1]","[[0.08793088356393075, 0.14740198237018043], [-0.502206267273555, 0.23912075840543112], [-0.04282542812673917, -0.49359779513138724], [-0.35611432968925516, 0.45893673313139394], [0.6011252313216019, 0.06049808604544815], [0.2936792506139736, 0.4016263557211066], [-0.5242616694544004, -0.01333910867188981], [0.4223534800191232, -0.3244227885805904], [-0.0940134333792747, 0.039048467752311744], [0.5263909556397813, -0.15473392022502894], [-0.21810277571767056, -0.21362436843731009], [0.5148417554269143, 0.26310915974093046], [-0.43009491425631236, -0.203612422668793], [0.16816744846146092, -0.4954269121465385], [0.2658628391945994, 0.04940854558511343], [-0.2808657376277536, -0.03405949384571483], [-0.08899243469337115, 0.36070664902123706], [-0.4000476767035022, -0.45218725728290876], [-0.2015251455611759, 0.20292138697580964], [0.003955669268077111, -0.13825805256423057]]",density,black,,,N012,visual,1,[],"['1', '2', '3', '4']",1,2023.2.3,harveyvisual,2.1,[],8,0.75,
0,pause,0.4,None,None,None,0,109,109,109,,,,,,,,,,,,,N012,visual,1,[],"['1', '2', '3', '4']",1,2023.2.3,harveyvisual,2.1,[],8,0.75,
20,dot,0.3,['dot'],['density'],black,0,110,110,110,,,40.90021991729736,40.62197804450989,40.92191290855408,dot,"[0.06, 0.08, 0.08, 0.06, 0.1, 0.08, 0.08, 0.06, 0.1, 0.1, 0.06, 0.1, 0.08, 0.06, 0.08, 0.08, 0.08, 0.1, 0.08, 0.06]","[[-0.20489761646759447, -0.5262811574583552], [0.42174892185474555, 0.1847164444523146], [0.3450298353263166, -0.3237358519667688], [0.16534307783934066, -0.5635639199890111], [0.3029647827005786, 0.384914334319835], [0.11260892674205891, 0.027566286992222078], [0.48929515653452615, -0.0857977648173528], [-0.5629524565637316, -0.05104454512916404], [-0.21520175546807202, -0.09627444406148311], [-0.4207793742655697, 0.4035867439916434], [-0.11501028152475418, 0.4159314759299203], [0.1620395788393575, -0.1781174058317359], [-0.38275220908437624, -0.3530278435076042], [-0.2668890397315208, 0.27180320226181753], [-0.04203251424498977, -0.3193785051825624], [-0.39035293526510384, 0.03831038964139044], [0.09757642264651578, 0.5374928460330447], [-0.560312200492758, 0.1783248080411676], [0.5913140533411564, 0.08803409841164123], [0.13146451217703747, 0.30162460630922305]]",density,black,,,N012,visual,1,[],"['1', '2', '3', '4']",1,2023.2.3,harveyvisual,2.1,[],8,0.75,
0,pause,0.4,None,None,None,0,111,111,111,,,,,,,,,,,,,N012,visual,1,[],"['1', '2', '3', '4']",1,2023.2.3,harveyvisual,2.1,[],8,0.75,
20,dot,0.3,['dot'],['density'],black,0,112,112,112,,,41.60022783279419,41.3219039440155,41.621898889541626,dot,"[0.08, 0.08, 0.1, 0.08, 0.06, 0.08, 0.06, 0.08, 0.1, 0.1, 0.08, 0.08, 0.1, 0.08, 0.1, 0.06, 0.06, 0.06, 0.06, 0.08]","[[0.1299026590145037, -0.13095862864488], [-0.27678911431703573, -0.3242718587203396], [0.22923293899228447, 0.13674560983369677], [-0.577566622741482, -0.09220744642549225], [-0.1274953748679281, 0.0633327141469352], [-0.11696673471291569, -0.5612482880003618], [0.24748591212881443, 0.5080181064779115], [-0.39095833258927637, 0.2505846050606679], [0.5373597343179334, 0.014151885408365539], [-0.3733459601291048, -0.03652364382531337], [0.39459372137495374, -0.2939931193357091], [-0.09671054453035755, -0.17168891166479294], [0.287580378384519, -0.4968097277115951], [0.07963887021314142, 0.36238832521598174], [-0.026786405898691856, 0.6038874127269814], [-0.08907122145156288, 0.26616319430136803], [0.5433675083630768, 0.25015151389322426], [-0.215648024910722, 0.44913488303321103], [-0.5578723973171593, 0.09958448979052784], [-0.4567499251038035, -0.24973905453946627]]",density,black,,,N012,visual,1,[],"['1', '2', '3', '4']",1,2023.2.3,harveyvisual,2.1,[],8,0.75,
0,pause,0.4,None,None,None,0,113,113,113,,,,,,,,,,,,,N012,visual,1,[],"['1', '2', '3', '4']",1,2023.2.3,harveyvisual,2.1,[],8,0.75,
20,dot,0.3,['dot'],['density'],black,0,114,114,114,,,42.300225019454956,42.02187204360962,42.32274389266968,dot,"[0.06, 0.1, 0.06, 0.1, 0.06, 0.1, 0.08, 0.08, 0.08, 0.1, 0.1, 0.08, 0.1, 0.08, 0.1, 0.06, 0.1, 0.08, 0.08, 0.1]","[[0.2285237725128787, 0.3143813110297041], [0.11294214481461251, -0.5521985556733399], [-0.01362376339442628, 0.5512610639942426], [-0.46286227000074864, -0.23876621479981616], [-0.17469492362204797, -0.38731506477396016], [0.5070194464093042, 0.293006032893349], [0.2211797184103107, -0.2606235564217459], [0.5688406798747055, -0.06457859427542428], [-0.04109517062876644, 0.09452837057441033], [0.21513707008067473, -0.007017928317521238], [0.5052105250523836, -0.2798718456587562], [0.3061932719882826, 0.4953231282429247], [-0.017827464484159727, 0.2874872362340267], [-0.23965216949300616, 0.1551928231869174], [0.03000683523668879, -0.11468622276145207], [-0.2306279472102019, -0.058850311712836834], [-0.5931298528608723, -0.08283671344826685], [-0.4777941442918681, 0.33113038509228443], [-0.5180932193621649, 0.09392915164109278], [0.33339005507552977, -0.4276006311519965]]",density,black,,,N012,visual,1,[],"['1', '2', '3', '4']",1,2023.2.3,harveyvisual,2.1,[],8,0.75,
0,pause,0.4,None,None,None,0,115,115,115,,,,,,,,,,,,,N012,visual,1,[],"['1', '2', '3', '4']",1,2023.2.3,harveyvisual,2.1,[],8,0.75,
20,dot,0.3,['dot'],['density'],black,0,116,116,116,,,43.00022888183594,42.72186493873596,43.02185797691345,dot,"[0.08, 0.08, 0.1, 0.08, 0.1, 0.08, 0.06, 0.1, 0.06, 0.06, 0.06, 0.1, 0.06, 0.08, 0.1, 0.08, 0.08, 0.1, 0.06, 0.08]","[[0.18966621866703393, -0.37805594450094054], [0.5025034272862182, -0.18384900047041505], [0.22563764402907194, 0.31083795879170995], [0.037963227316769044, 0.14073097788531375], [-0.005061280011550817, -0.4614576591921958], [-0.2813193303883953, 0.45421951833158336], [-0.22678212068125997, 0.014332260508083006], [-0.5646961601149139, -0.11939773743095965], [-0.5715965108421056, 0.08997033341102553], [-0.3872298543364117, -0.4406434991080799], [0.42519717174537275, 0.07816514247955858], [-0.0835346031080445, -0.15937871519105018], [-0.2820890422304214, -0.19058848532926037], [-0.1307026412825225, 0.5714730887863182], [0.19608433778192114, 0.5048771351926074], [-0.026692282797669775, 0.3204688577374203], [-0.49178763037325723, 0.270856119371737], [0.205876201664547, -0.14548243084496887], [0.41438617734733507, 0.40595272292543955], [-0.3015886535629725, 0.2204432559928564]]",density,black,,,N012,visual,1,[],"['1', '2', '3', '4']",1,2023.2.3,harveyvisual,2.1,[],8,0.75,
0,pause,0.4,None,None,None,0,117,117,117,,,,,,,,,,,,,N012,visual,1,[],"['1', '2', '3', '4']",1,2023.2.3,harveyvisual,2.1,[],8,0.75,
20,dot,0.3,['dot'],['density'],black,0,118,118,118,,,43.700217962265015,43.42275595664978,43.72179388999939,dot,"[0.06, 0.1, 0.1, 0.1, 0.08, 0.06, 0.1, 0.08, 0.08, 0.1, 0.1, 0.08, 0.08, 0.06, 0.1, 0.06, 0.08, 0.08, 0.1, 0.08]","[[0.21993993228687025, 0.46823332674607576], [-0.4946545044803246, 0.003987176848915364], [-0.08715438964905697, -0.43012133575418576], [-0.23193840220206896, -0.2836499853987071], [-0.37106392868716576, 0.2990453277929366], [0.3673200151683885, -0.419282299585273], [0.21941467313995622, -0.21247610701418496], [0.5225736145807846, 0.09767344159086094], [-0.07847163000295376, 0.1776299245266496], [0.32551319009096435, 0.26957835470343516], [-0.1833608983385589, 0.4726177427561491], [0.5218756387898539, -0.21760409357809388], [0.1975548058817127, -0.5531615473886339], [-0.20059931589497615, -0.021842621981255195], [0.09279835162536709, -0.04192236286305351], [0.016381867558499463, 0.4397804213753975], [-0.5576250127169066, 0.21135788911417228], [0.4144601350675493, -0.060621294039133244], [-0.4298827490604848, -0.3037995618279375], [0.0038569319223606957, -0.23451956245207]]",density,black,,,N012,visual,1,[],"['1', '2', '3', '4']",1,2023.2.3,harveyvisual,2.1,[],8,0.75,
0,pause,0.4,None,None,None,0,119,119,119,,,,,,,,,,,,,N012,visual,1,[],"['1', '2', '3', '4']",1,2023.2.3,harveyvisual,2.1,[],8,0.75,
20,dot,0.3,['dot'],['density'],black,0,120,120,120,,,44.40022897720337,44.12182688713074,44.4218168258667,dot,"[0.08, 0.08, 0.08, 0.08, 0.1, 0.08, 0.1, 0.06, 0.06, 0.08, 0.1, 0.1, 0.08, 0.06, 0.06, 0.1, 0.1, 0.1, 0.08, 0.1]","[[0.038843120696360534, -0.4100907166262003], [0.4805915636875605, -0.0750149532350533], [-0.12569478300450487, -0.0800648039542442], [0.13048617668757823, 0.08030909063256053], [0.46330891403764685, 0.3413468412726909], [-0.5096919621369558, 0.10419957145036685], [0.34262044123158986, -0.28783517755730226], [0.1591494605985737, -0.12283587084686304], [-0.06074977190433517, 0.4231605895612318], [0.22894465220608617, -0.4632422412349959], [-0.4112691644998234, -0.0836048915224345], [0.2005568205803563, 0.3148879616109146], [-0.36541835647298504, 0.31569611866580677], [0.4039536274116703, 0.10773866622834294], [-0.3053256701750714, -0.5196117738137425], [0.2725004993191956, 0.4999080837716783], [-0.27367105029427896, -0.323339709737023], [-0.08544785515958253, -0.5758711901951299], [-0.47122559820290005, -0.3422400755664256], [-0.10522649029402054, 0.18898647541536673]]",density,black,,,N012,visual,1,[],"['1', '2', '3', '4']",1,2023.2.3,harveyvisual,2.1,[],8,0.75,
0,pause,0.4,None,None,None,0,121,121,121,,,,,,,,,,,,,N012,visual,1,[],"['1', '2', '3', '4']",1,2023.2.3,harveyvisual,2.1,[],8,0.75,
20,dot,0.3,['dot'],['density'],black,0,122,122,122,,,45.10022687911987,44.82184982299805,45.12178182601929,dot,"[0.06, 0.08, 0.1, 0.06, 0.1, 0.06, 0.06, 0.08, 0.1, 0.06, 0.1, 0.1, 0.08, 0.06, 0.06, 0.08, 0.08, 0.08, 0.1, 0.08]","[[0.23267172413834603, 0.0255578969109993], [0.4534162160428884, -0.24341898456723599], [-0.10623049530902723, -0.33866616135646377], [-0.09511613790630957, -0.5735944390593548], [-0.2137687022249849, 0.48822511838824423], [-0.28713829628983256, -0.2062093991127678], [0.2572319437384004, 0.3773345984787584], [-0.27416003635091835, 0.16988491804197403], [0.1180568544921008, -0.488805278309107], [0.4204493443565974, 0.10881628106403507], [-0.5952918899385305, 0.003498630807745415], [0.11282602441867562, 0.18449262093970964], [-0.3001178858115747, -0.4524340473245398], [0.03545531571539362, 0.00339404493589901], [0.15363488008379622, -0.2807410009973025], [-0.4918929278753068, 0.24427006803801604], [-0.5316626044609589, -0.17570019343934867], [0.057971148459047495, 0.5432915470750357], [-0.3868385398100809, -0.02225839216220854], [-0.12137188319397785, -0.11036168316876227]]",density,black,,,N012,visual,1,[],"['1', '2', '3', '4']",1,2023.2.3,harveyvisual,2.1,[],8,0.75,
0,pause,0.4,None,None,None,0,123,123,123,,,,,,,,,,,,,N012,visual,1,[],"['1', '2', '3', '4']",1,2023.2.3,harveyvisual,2.1,[],8,0.75,
20,dot,0.3,['dot'],['density'],black,0,124,124,124,,,45.80021786689758,45.521764039993286,45.82175588607788,dot,"[0.08, 0.1, 0.06, 0.06, 0.08, 0.06, 0.06, 0.06, 0.08, 0.08, 0.06, 0.06, 0.08, 0.08, 0.08, 0.1, 0.08, 0.1, 0.06, 0.08]","[[0.14502898124913444, -0.5562786672783149], [-0.5965146185086377, -0.08786824948836133], [0.47793002380934213, -0.05980723067270233], [-0.15354857174566078, -0.17390464158422048], [0.12195913201102992, -0.003087897347033408], [0.35682629012655565, 0.4286798647669689], [-0.4171391096886968, 0.4249426289939693], [-0.42156626062932095, -0.299463525022231], [0.40227704293548305, 0.20811435846661025], [0.1039814025772503, -0.31928759513420424], [-0.09028163765915231, 0.5331164727698533], [-0.2682863526659854, 0.041107407689664255], [-0.22839511358518128, -0.4484917330920424], [-0.49752519756622626, 0.13666754923013152], [0.21210251090328236, 0.2119002072439814], [-0.21769464797975857, 0.31168233452904015], [0.4320533288318177, -0.2833470539225671], [-0.022414751854147874, 0.13748018379481197], [0.37131613644329764, -0.4714703537280703], [0.2651534555844012, -0.1810380943461437]]",density,black,,,N012,visual,1,[],"['1', '2', '3', '4']",1,2023.2.3,harveyvisual,2.1,[],8,0.75,
0,pause,0.4,None,None,None,0,125,125,125,,,,,,,,,,,,,N012,visual,1,[],"['1', '2', '3', '4']",1,2023.2.3,harveyvisual,2.1,[],8,0.75,
20,dot,0.3,['dot'],['density'],white,0,126,126,126,,,46.5002338886261,46.22174692153931,46.52178883552551,dot,"[0.1, 0.06, 0.08, 0.1, 0.06, 0.06, 0.08, 0.06, 0.08, 0.06, 0.06, 0.06, 0.1, 0.1, 0.1, 0.06, 0.1, 0.08, 0.06, 0.08]","[[-0.2532399243916699, 0.31311279659424895], [0.5382731666162061, 0.0433672989699343], [-0.5881259400845105, -0.09452544869604312], [0.3020950701086561, 0.4192082063637491], [-0.17274420664357776, -0.07901800828454253], [-0.5873581079219529, 0.11019195642114837], [-0.41350472235173436, -0.30578392728356085], [0.30858007418448075, 0.10079923560400905], [-0.14213226761751774, -0.572681013356056], [0.14012414818327334, -0.356534212310934], [-0.19998899283531468, 0.5598389973566452], [-0.20726359709599435, -0.34817668978834443], [-0.4500367516272439, 0.40234418040836767], [0.08741322360748982, 0.09469747268130646], [-0.06418962936651085, 0.28647631432909393], [0.5013702961542205, -0.15831524194474586], [0.3740673075993677, -0.4065040093094459], [-0.34929059972263826, 0.1036587365128005], [0.03947003118026604, -0.17770774813664048], [0.46631409269599733, 0.25235026673483973]]",density,white,,,N012,visual,1,[],"['1', '2', '3', '4']",1,2023.2.3,harveyvisual,2.1,[],8,0.75,
0,pause,0.4,None,None,None,0,127,127,127,,,,,,,,,,,1,46.18062686920166,N012,visual,1,[],"['1', '2', '3', '4']",1,2023.2.3,harveyvisual,2.1,[],8,0.75,
20,dot,0.3,['dot'],['density'],black,0,128,128,128,,,47.2002329826355,46.92265295982361,47.2217538356781,dot,"[0.06, 0.1, 0.06, 0.1, 0.1, 0.06, 0.08, 0.06, 0.06, 0.1, 0.08, 0.06, 0.08, 0.08, 0.1, 0.08, 0.06, 0.08, 0.08, 0.06]","[[0.5419533808976039, -0.03779683064395262], [0.19054177928395266, -0.40175347863694577], [0.14082221163428787, -0.20074386594365207], [-0.33771061000481056, -0.17300765493050457], [-0.2118641040944662, 0.45207231987002305], [0.42495382126269676, -0.35871586225990615], [0.40469730949996896, 0.43431323974965863], [-0.1971611613310284, 0.24771694120631915], [-0.01761211177637434, 0.08683545442195395], [-0.2725442704270576, 0.021434209696443718], [0.06679933028899276, 0.28770203836811836], [0.5026449831542311, 0.2285567980826383], [-0.047059492808117276, 0.582486753080995], [0.3209949971569104, -0.0349953325102364], [-0.24541882305331547, -0.4481295872519559], [-0.555770187357704, -0.049605086035984514], [-0.12813026403564265, -0.2717188438892011], [-0.5705222887373133, 0.17616039186140386], [-0.015533463374044154, -0.45609637648543544], [0.15314682428585824, 0.5128889383220414]]",density,black,,,N012,visual,1,[],"['1', '2', '3', '4']",1,2023.2.3,harveyvisual,2.1,[],8,0.75,
0,pause,0.4,None,None,None,0,129,129,129,,,,,,,,,,,,,N012,visual,1,[],"['1', '2', '3', '4']",1,2023.2.3,harveyvisual,2.1,[],8,0.75,
20,dot,0.3,['dot'],['density'],black,0,130,130,130,,,47.90020799636841,47.621731996536255,47.92173194885254,dot,"[0.1, 0.08, 0.06, 0.08, 0.08, 0.08, 0.06, 0.08, 0.1, 0.08, 0.1, 0.1, 0.1, 0.06, 0.1, 0.1, 0.06, 0.06, 0.1, 0.06]","[[0.061726231002624754, 0.3366607006796205], [-0.16561701562474446, -0.5081106923130917], [-0.55411327492374, -0.12559528166625206], [0.05141000487135461, -0.001549711268031162], [-0.45030900443320043, 0.16697388088767728], [-0.1936797958963773, -0.024269784899308422], [-0.10698637140495165, 0.2118984594564417], [0.48762926993814004, -0.31136218259418363], [-0.3784925482561559, 0.4360976275377153], [-0.29612733344902015, -0.2246824133993024], [0.5715797150753174, 0.0714267230022558], [0.08772043022058784, -0.3340810999947883], [0.263564020513959, -0.5159782710624469], [0.46166076462214545, 0.23175783408913037], [-0.06554851045677046, -0.16801448575972744], [0.3233389477497204, 0.39903088388627617], [0.07245705269706748, 0.5634125101547159], [0.3856472202796385, -0.07461389153984738], [0.16619238649704793, 0.16728211257487335], [0.06459215341046842, -0.5437898532785851]]",density,black,,,N012,visual,1,[],"['1', '2', '3', '4']",1,2023.2.3,harveyvisual,2.1,[],8,0.75,
0,pause,0.4,None,None,None,0,131,131,131,,,,,,,,,,,,,N012,visual,1,[],"['1', '2', '3', '4']",1,2023.2.3,harveyvisual,2.1,[],8,0.75,
20,dot,0.3,['dot'],['density'],black,0,132,132,132,,,48.600224018096924,48.32170295715332,48.62172794342041,dot,"[0.08, 0.1, 0.06, 0.1, 0.1, 0.08, 0.06, 0.08, 0.06, 0.1, 0.1, 0.06, 0.1, 0.1, 0.06, 0.08, 0.08, 0.06, 0.06, 0.08]","[[0.11634429381443145, 0.3993919335797781], [-0.5138324313076175, -0.19146337953575196], [-0.22198446235272684, -0.4654322647620541], [-0.3325630977375571, 0.27486501148014864], [0.43532549281342237, 0.4082625946150945], [-0.4754647303550617, 0.08496016158450415], [0.3836614833850861, 0.07313492974408642], [0.5967298098529251, 0.09274198743592746], [0.0673625334624457, 0.060477099986759764], [0.11169194129039306, -0.3871087444251641], [0.31487782190784686, -0.46525648345622944], [-0.21298464758015462, 0.0462629344568557], [-0.05261027027094023, -0.2578309915760811], [-0.34872113609390937, 0.4642029368988276], [0.5263093289149566, -0.13887531270716974], [0.17097376103640938, -0.1767488672591242], [-0.4069048353139062, -0.38071272186354815], [-0.14078160336912338, 0.4191714040337733], [-0.08581392709592728, 0.19833773540935007], [0.27519439859159545, 0.2603290051061291]]",density,black,,,N012,visual,1,[],"['1', '2', '3', '4']",1,2023.2.3,harveyvisual,2.1,[],8,0.75,
0,pause,0.4,None,None,None,0,133,133,133,,,,,,,,,,,,,N012,visual,1,[],"['1', '2', '3', '4']",1,2023.2.3,harveyvisual,2.1,[],8,0.75,
20,dot,0.3,['dot'],['density'],black,0,134,134,134,,,49.30022192001343,49.0216748714447,49.32166886329651,dot,"[0.08, 0.06, 0.08, 0.1, 0.08, 0.06, 0.06, 0.1, 0.1, 0.1, 0.06, 0.06, 0.08, 0.1, 0.1, 0.1, 0.06, 0.08, 0.06, 0.06]","[[0.20145856223074776, 0.5234217192613845], [0.25467593298070434, -0.5349376741712323], [-0.1874568859911347, -0.5308255574437929], [-0.3521677875069952, -0.4076972257459792], [-0.5954239168409751, 0.016067430507331004], [-0.47982132648316167, 0.2813794564106179], [0.07076184455928147, -0.4290309282147906], [0.24502767144193083, -0.10854140193804379], [-0.33279403278103314, 0.09072703736617871], [0.5378610741205129, -0.24135477953177512], [-0.08198065455421721, 0.3678887563176224], [-0.043082292181260695, 0.1327069187048482], [0.05655863625802626, -0.03310298849731952], [-0.5220889574639191, -0.18492971254834648], [0.4478219357479304, 0.05718283708334704], [-0.30339662443164134, -0.21815968696050697], [0.4599135355008187, 0.36657817275723864], [0.39915346449438516, -0.3835048582341057], [0.14827812978048371, 0.2558423692953631], [-0.30021046004665236, 0.3541586847829271]]",density,black,,,N012,visual,1,[],"['1', '2', '3', '4']",1,2023.2.3,harveyvisual,2.1,[],8,0.75,
0,pause,0.4,None,None,None,0,135,135,135,,,,,,,,,,,,,N012,visual,1,[],"['1', '2', '3', '4']",1,2023.2.3,harveyvisual,2.1,[],8,0.75,
20,dot,0.3,['dot'],['density'],black,0,136,136,136,,,50.00023102760315,49.72167491912842,50.021657943725586,dot,"[0.1, 0.1, 0.06, 0.08, 0.1, 0.08, 0.06, 0.1, 0.06, 0.08, 0.08, 0.08, 0.06, 0.06, 0.08, 0.08, 0.08, 0.1, 0.1, 0.06]","[[0.5980178036020091, 0.04739702299120334], [-0.13417208468668884, 0.10697348259373896], [0.34122338354782866, -0.3782419910683442], [0.14543530516840963, -0.18847866187583895], [-0.043727470652040745, 0.40908262615119784], [-0.490787259116137, 0.239473792124548], [-0.3770329759993629, 0.4183918421265789], [-0.4762548840089697, -0.09297627681871928], [-0.33643190692800684, -0.41707540797077924], [0.4614499780586615, -0.13160978085158326], [0.12304650404160511, 0.5082373561476559], [-0.32825067418587733, 0.14200516514371575], [0.40774387139279356, 0.07038981469156252], [-0.1149166553242601, -0.42766097046816226], [0.06824400259587016, -0.4790239455859967], [0.13625406892455239, 0.22553476774172776], [-0.2971533621965054, -0.18833836370997192], [0.28525649687127297, 0.3793223417259456], [-0.011169455206389345, -0.060193213402036316], [0.21798434884544005, 0.02690940776646622]]",density,black,,,N012,visual,1,[],"['1', '2', '3', '4']",1,2023.2.3,harveyvisual,2.1,[],8,0.75,
0,pause,0.4,None,None,None,0,137,137,137,,,,,,,,,,,,,N012,visual,1,[],"['1', '2', '3', '4']",1,2023.2.3,harveyvisual,2.1,[],8,0.75,
20,dot,0.3,['dot'],['density'],black,0,138,138,138,,,50.70022797584534,50.421655893325806,50.72163987159729,dot,"[0.06, 0.08, 0.1, 0.08, 0.1, 0.06, 0.1, 0.08, 0.06, 0.08, 0.06, 0.1, 0.08, 0.1, 0.06, 0.08, 0.1, 0.06, 0.1, 0.08]","[[-0.2727423193631833, -0.05678426386057378], [-0.12892384535861695, 0.557630864725636], [-0.39858691600693674, 0.3578148103788158], [0.2784201386162217, 0.2383340100682999], [0.2106308362179593, -0.25094199511162596], [0.17193792325340518, 0.00890583896963315], [0.4604011726525169, 0.3831791194936213], [-0.13839241192081142, 0.27486407624391485], [-0.47516421842590967, -0.15082240520798781], [0.4252835209475144, 0.006154277240664807], [0.47641280603788283, -0.2332254493107672], [0.079700927338335, 0.22703178519957667], [0.22483542874592688, 0.538198757446761], [0.17385723955494248, -0.47808326699481796], [-0.4753807487307008, 0.04488951265918889], [-0.23283094987824415, -0.273802191517257], [0.041492224675317324, -0.14687491347652964], [-0.0774201665868014, -0.5368297248259551], [-0.2926848877301491, -0.49656816940664894], [-0.4791760793065924, -0.3611667878915236]]",density,black,,,N012,visual,1,[],"['1', '2', '3', '4']",1,2023.2.3,harveyvisual,2.1,[],8,0.75,
0,pause,0.4,None,None,None,0,139,139,139,,,,,,,,,,,,,N012,visual,1,[],"['1', '2', '3', '4']",1,2023.2.3,harveyvisual,2.1,[],8,0.75,
20,dot,0.3,['dot'],['density'],black,0,140,140,140,,,51.400217056274414,51.12164092063904,51.421764850616455,dot,"[0.06, 0.1, 0.08, 0.06, 0.08, 0.08, 0.08, 0.08, 0.1, 0.06, 0.1, 0.08, 0.06, 0.06, 0.08, 0.1, 0.06, 0.1, 0.06, 0.08]","[[0.5268712777284096, 0.000358237688117935], [0.4061965464649363, 0.27465228247815326], [-0.5269933884594846, -0.23116403731111712], [0.12711618047142537, -0.4372282304743636], [-0.006636549166884054, 0.4845614527216239], [0.2271295987229297, 0.5311217459853059], [-0.3372444933895571, 0.4394839388396914], [-0.352041415916686, 0.06037320503550475], [-0.052378501567570956, -0.35720327283573516], [-0.16987472309559087, 0.30330602804670637], [0.35852121117567226, -0.17211059733417872], [-0.3230934653769769, -0.44830539846709927], [-0.5936365656205294, 0.08420804895194842], [0.1836855145370112, 0.1179794517321453], [0.3943763116717216, -0.45654259406386627], [-0.2094801577322834, -0.1673854597154794], [-0.13112685976648075, -0.550890531516875], [0.026660155310548883, 0.0011777040807272598], [0.08813158563588919, -0.21512332656687316], [0.5687890440679254, -0.1900699779921136]]",density,black,,,N012,visual,1,[],"['1', '2', '3', '4']",1,2023.2.3,harveyvisual,2.1,[],8,0.75,
0,pause,0.4,None,None,None,0,141,141,141,,,,,,,,,,,,,N012,visual,1,[],"['1', '2', '3', '4']",1,2023.2.3,harveyvisual,2.1,[],8,0.75,
20,dot,0.3,['dot'],['density'],black,0,142,142,142,,,52.10022497177124,51.821614027023315,52.122511863708496,dot,"[0.06, 0.06, 0.06, 0.1, 0.08, 0.06, 0.06, 0.06, 0.08, 0.08, 0.1, 0.06, 0.08, 0.08, 0.06, 0.1, 0.1, 0.1, 0.08, 0.06]","[[0.48479523437376815, 0.28800245413300063], [-0.1788053904575257, 0.3254026251274236], [-0.47125119981099617, -0.18686131133228778], [0.486785945038405, -0.11857130212987729], [0.0966211125386528, -0.44722332671662446], [-0.06796675618043824, 0.5364463086932271], [-0.40533272774104795, 0.20405519677715395], [-0.03724227249911316, -0.5950087345005257], [0.46265209387135087, -0.31049420819879375], [-0.24804936734655425, -0.29665284721305873], [-0.15609568439296045, -0.038938209140904845], [0.20142822099306745, 0.03033891879558559], [0.20619262513623227, 0.40712586384320626], [-0.6034307511282488, -0.03436101384623025], [0.0478018006641483, -0.19472339969643937], [0.2824866157690251, -0.49452419829619065], [0.4936419908839035, 0.07292234255159397], [-0.3366713504583941, 0.49071248523697775], [0.02641128548045546, 0.30712354262886943], [0.003451401146568056, 0.08700552900738956]]",density,black,,,N012,visual,1,[],"['1', '2', '3', '4']",1,2023.2.3,harveyvisual,2.1,[],8,0.75,
0,pause,0.4,None,None,None,0,143,143,143,,,,,,,,,,,,,N012,visual,1,[],"['1', '2', '3', '4']",1,2023.2.3,harveyvisual,2.1,[],8,0.75,
20,dot,0.3,['dot'],['density'],white,0,144,144,144,,,52.80022692680359,52.521586894989014,52.82159686088562,dot,"[0.1, 0.06, 0.1, 0.06, 0.08, 0.08, 0.1, 0.08, 0.06, 0.1, 0.06, 0.1, 0.08, 0.06, 0.1, 0.06, 0.08, 0.06, 0.08, 0.08]","[[-0.08917302075191424, -0.1159828388418579], [-0.1175955551947962, 0.3903411756241739], [-0.5387963858173928, -0.10080108159081813], [0.5233401416478581, -0.19516251386084926], [-0.3475109573787981, 0.20672839226872036], [-0.3116529061874718, -0.27718125149229594], [0.5194266329267742, 0.05507750216662821], [0.2586624036854296, -0.03452215542483428], [0.08894598579247015, -0.38605251812846975], [0.19503321108346305, 0.5060865964701438], [0.4311364423763845, 0.33398314224863407], [-0.5537300031908707, 0.2289777571081697], [0.2503500504814131, -0.5208849894753299], [-0.30558747812606246, -0.05482161145087899], [0.28813060352873054, -0.3037736124461054], [0.18736883054021447, 0.26290661328182574], [-0.16959412684853925, -0.5380240275267963], [-0.3102335273244116, 0.5054928657213639], [-0.050086654924194174, 0.5868097594837687], [-0.03897657620936723, 0.06739586572610379]]",density,white,,,N012,visual,1,[],"['1', '2', '3', '4']",1,2023.2.3,harveyvisual,2.1,[],8,0.75,
0,pause,0.4,None,None,None,0,145,145,145,,,,,,,,,,,1,52.51740097999573,N012,visual,1,[],"['1', '2', '3', '4']",1,2023.2.3,harveyvisual,2.1,[],8,0.75,
20,dot,0.3,['dot'],['density'],black,0,146,146,146,,,53.500213861465454,53.22159004211426,53.52158498764038,dot,"[0.1, 0.06, 0.1, 0.06, 0.08, 0.06, 0.1, 0.06, 0.1, 0.08, 0.08, 0.1, 0.1, 0.08, 0.06, 0.08, 0.06, 0.06, 0.1, 0.06]","[[0.4064859221699543, -0.3395202239569831], [-0.4944372997484221, 0.0421839797424266], [0.07861034059025085, 0.15538215847286174], [0.2046293045945341, -0.499743872781774], [0.007346502041774672, -0.40009633768170927], [-0.08912559772318451, 0.061732184788843014], [-0.20179730182738814, 0.22290609559138697], [-0.205933131486987, 0.46563831931411936], [-0.4183856271832681, -0.4303115810223671], [-0.22035223139961213, -0.16168635425457212], [0.587313713406674, -0.05598374823831655], [0.08930251094367825, 0.5359010365552463], [0.24734430309120115, -0.001954416474190812], [-0.4813937275295606, 0.3664057502558945], [0.3259298723909311, 0.27044678980273296], [0.016108249056628998, -0.1915218993880451], [-0.010577824519030776, -0.5972930677977238], [0.5671858838832714, 0.1845247395650193], [0.3712818992884047, 0.46206291172340447], [-0.5439073258116172, -0.22337554790267966]]",density,black,,,N012,visual,1,[],"['1', '2', '3', '4']",1,2023.2.3,harveyvisual,2.1,[],8,0.75,
0,pause,0.4,None,None,None,0,147,147,147,,,,,,,,,,,,,N012,visual,1,[],"['1', '2', '3', '4']",1,2023.2.3,harveyvisual,2.1,[],8,0.75,
20,dot,0.3,['dot'],['density'],black,0,148,148,148,,,54.20023488998413,53.92156386375427,54.222615003585815,dot,"[0.06, 0.08, 0.06, 0.1, 0.06, 0.1, 0.1, 0.08, 0.08, 0.06, 0.1, 0.1, 0.08, 0.08, 0.08, 0.08, 0.08, 0.08, 0.08, 0.08]","[[0.5338149611654331, 0.1979691527393297], [-0.1126485133582667, -0.04633373683696462], [0.23840011362747082, 0.09240055319246854], [-0.16348866944739454, 0.4826141720084992], [0.42442516638341077, -0.229314654383101], [0.04643231152090299, -0.5216092965756126], [-0.5052235846270017, -0.09270320586264877], [0.35503753023491624, -0.45824408263935323], [0.43083008069895967, 0.3974568962851683], [0.08912269261067385, -0.263097775764146], [-0.31098806780207033, -0.13802907985238855], [-0.35297904883481585, 0.3278679348911917], [-0.27325904618624075, -0.5349078605223122], [0.1078361108731708, 0.5710533428632832], [-0.05074758808971169, 0.31247100983445697], [0.15116474469939933, 0.26671406560438704], [0.5760480993683103, -0.01114642196628493], [-0.11808583859282473, -0.3333933965097747], [-0.45962332969655917, -0.3306278781200936], [-0.2496169846812623, 0.09712293734398003]]",density,black,,,N012,visual,1,[],"['1', '2', '3', '4']",1,2023.2.3,harveyvisual,2.1,[],8,0.75,
0,pause,0.4,None,None,None,0,149,149,149,,,,,,,,,,,,,N012,visual,1,[],"['1', '2', '3', '4']",1,2023.2.3,harveyvisual,2.1,[],8,0.75,
20,dot,0.3,['dot'],['density'],black,0,150,150,150,,,54.90023493766785,54.62156105041504,54.922459840774536,dot,"[0.08, 0.08, 0.1, 0.1, 0.1, 0.1, 0.06, 0.1, 0.1, 0.06, 0.1, 0.06, 0.06, 0.06, 0.1, 0.1, 0.08, 0.08, 0.1, 0.06]","[[0.5949493344911952, 0.012052075124601436], [-0.1121863375165329, 0.5823320922644977], [0.23694287832989724, 0.41058775060500063], [-0.37686743046130955, -0.13565007221257097], [0.30077176951598394, -0.43130067313220755], [-0.27777593229488284, 0.25198327571103585], [0.4523492614266157, 0.14162591051429602], [-0.5032983160312541, 0.07592556691297159], [-0.03875346727749607, -0.30171422561780314], [-0.05280987197609932, 0.31050628662335256], [0.0722148212889121, -0.5335966327421419], [0.26326942844293066, 0.020231922757739884], [-0.37159866952625786, 0.46760772850287596], [-0.2303374953784761, -0.33057907350757243], [-0.1442186352247838, -0.041658951548115164], [0.1435552679615687, 0.5848646723633434], [0.31333316007664835, -0.1996570153115071], [-0.4214890414684138, -0.3976605283387794], [-0.46661146444262, 0.27179191520254287], [0.17899865528876824, 0.20857986182435262]]",density,black,,,N012,visual,1,[],"['1', '2', '3', '4']",1,2023.2.3,harveyvisual,2.1,[],8,0.75,
0,pause,0.4,None,None,None,0,151,151,151,,,,,,,,,,,,,N012,visual,1,[],"['1', '2', '3', '4']",1,2023.2.3,harveyvisual,2.1,[],8,0.75,
20,dot,0.3,['dot'],['density'],white,0,152,152,152,,,55.60022282600403,55.321523904800415,55.6239800453186,dot,"[0.06, 0.1, 0.06, 0.1, 0.06, 0.06, 0.08, 0.08, 0.1, 0.08, 0.08, 0.08, 0.08, 0.08, 0.1, 0.08, 0.1, 0.1, 0.06, 0.06]","[[0.582178650300431, 0.11263955107216417], [0.1678711457875487, 0.06267952131430699], [-0.5452653107336781, 0.19805761909432756], [0.339476526561473, -0.3805692394203888], [-0.3401389456674807, 0.2594550434488728], [-0.15829356019181717, 0.5247461293450684], [0.34510775050467535, 0.15319123254203043], [-0.42774756713600115, -0.10360201558413096], [-0.15274448530110196, -0.14601552653736666], [0.1107866937723776, -0.5498606745232094], [0.4873727668438522, -0.12995251422049023], [0.26279779948634885, 0.4491440116927875], [-0.3337344935578225, -0.4851439061126875], [-0.056392181725791635, 0.14349586301607364], [0.07208709395487767, -0.1426612678936115], [-0.23712490609402603, 0.05236331034579178], [-0.11397704817065424, 0.32438020777740895], [0.03231608560538335, 0.4532252684007866], [0.26600744939657006, -0.11478505646273757], [-0.3638335807192478, -0.28626606176749797]]",density,white,,,N012,visual,1,[],"['1', '2', '3', '4']",1,2023.2.3,harveyvisual,2.1,[],8,0.75,
0,pause,0.4,None,None,None,0,153,153,153,,,,,,,,,,,1,55.3737518787384,N012,visual,1,[],"['1', '2', '3', '4']",1,2023.2.3,harveyvisual,2.1,[],8,0.75,
20,dot,0.3,['dot'],['density'],black,0,154,154,154,,,56.30021286010742,56.021491050720215,56.321478843688965,dot,"[0.06, 0.1, 0.06, 0.1, 0.06, 0.08, 0.1, 0.08, 0.06, 0.1, 0.06, 0.06, 0.1, 0.06, 0.08, 0.08, 0.1, 0.06, 0.08, 0.06]","[[-0.24463768474333564, 0.41809646976874515], [0.4209834221049592, -0.07806725826783589], [-0.38824654032066397, -0.41736275607882023], [-0.1818170984897996, -0.19813602748186332], [0.23718013005650196, 0.020155887132828343], [-0.4912611144038163, -0.1893682826686482], [0.039848451836949184, 0.29338034533814317], [-0.41596735261644024, 0.31689599375662014], [0.37130521041043185, 0.3992543795151644], [-0.40692699011743033, 0.04432607462662452], [-0.00599959864782007, -0.5071347746501854], [0.32281353846853, -0.3112711234516764], [0.06620647203513463, 0.4850551035241203], [0.36104660553379164, 0.1795615414486354], [-0.05846162992344839, -0.034570939238448894], [-0.6005866615609221, 0.02737295772991405], [0.07537642567645886, -0.3335165717630272], [0.5659504438120863, 0.10308966641389014], [0.5333448778554432, -0.2672027663921011], [-0.1660706204064648, 0.1615454895759536]]",density,black,,,N012,visual,1,[],"['1', '2', '3', '4']",1,2023.2.3,harveyvisual,2.1,[],8,0.75,
0,pause,0.4,None,None,None,0,155,155,155,,,,,,,,,,,,,N012,visual,1,[],"['1', '2', '3', '4']",1,2023.2.3,harveyvisual,2.1,[],8,0.75,
9,dot,0.3,['dot'],['density'],black,0,156,156,156,,,57.0002338886261,56.7233829498291,57.02146100997925,dot,"[0.06, 0.08, 0.1, 0.1, 0.06, 0.06, 0.1, 0.1, 0.1]","[[0.34043128493099817, 0.2271075800100716], [0.2702764120171402, -0.10456749967376819], [-0.1274635928921129, -0.04210317806044915], [-0.03460273614387521, 0.1795356259369138], [0.14470969472881007, 0.3391925298523705], [0.06761060508642219, 0.0060094309834155335], [0.5117869412029185, -0.12050585585317111], [0.07404675892906432, -0.22660478390602867], [0.35723900661310204, -0.3185591288757]]",density,black,,,N012,visual,1,[],"['1', '2', '3', '4']",1,2023.2.3,harveyvisual,2.1,[],8,0.75,
0,pause,0.4,None,None,None,0,157,157,157,,,,,,,,,,,,,N012,visual,1,[],"['1', '2', '3', '4']",1,2023.2.3,harveyvisual,2.1,[],8,0.75,
9,dot,0.3,['dot'],['density'],black,0,158,158,158,,,57.700209856033325,57.421457052230835,57.721444845199585,dot,"[0.1, 0.06, 0.06, 0.06, 0.06, 0.08, 0.1, 0.06, 0.08]","[[0.16751238249231654, 0.5577961240465925], [-0.27296145406993233, 0.4862198967380745], [-0.029185467938656964, 0.15062746822878756], [-0.0646201772689005, 0.5687739076077192], [0.1739328392933146, 0.3418730943321047], [-0.141244529573345, 0.32572795328380527], [-0.5161698704605421, 0.1834233825743511], [0.21727962056556488, 0.12903401361548372], [-0.23724269532595021, 0.10991409904419316]]",density,black,,,N012,visual,1,[],"['1', '2', '3', '4']",1,2023.2.3,harveyvisual,2.1,[],8,0.75,
0,pause,0.4,None,None,None,0,159,159,159,,,,,,,,,,,,,N012,visual,1,[],"['1', '2', '3', '4']",1,2023.2.3,harveyvisual,2.1,[],8,0.75,
9,dot,0.3,['dot'],['density'],black,0,160,160,160,,,58.40023398399353,58.12234091758728,58.42142605781555,dot,"[0.1, 0.06, 0.08, 0.06, 0.08, 0.06, 0.06, 0.08, 0.06]","[[-0.23139737267821464, 0.4582894628988488], [-0.22563640623437264, 0.09161215191469056], [0.08653997658409265, 0.18408404769425912], [-0.34134765149242685, 0.2795210921938051], [-0.45752590330905135, 0.08752711185150099], [-0.035040587470716034, -0.07657027701648178], [-0.27120713465948276, -0.1309343981320133], [-0.3537313425617488, -0.374673418779248], [-0.09309732942360581, 0.2754840453600595]]",density,black,,,N012,visual,1,[],"['1', '2', '3', '4']",1,2023.2.3,harveyvisual,2.1,[],8,0.75,
0,pause,0.4,None,None,None,0,161,161,161,,,,,,,,,,,,,N012,visual,1,[],"['1', '2', '3', '4']",1,2023.2.3,harveyvisual,2.1,[],8,0.75,
9,dot,0.3,['dot'],['density'],black,0,162,162,162,,,59.10023093223572,58.82148003578186,59.12142086029053,dot,"[0.1, 0.1, 0.06, 0.06, 0.06, 0.06, 0.06, 0.08, 0.1]","[[-0.06218673389315922, -0.4689115343027075], [0.3660477402554353, -0.15396192139437054], [0.1401329754895462, -0.14262156541192547], [0.12293598154832706, -0.38779640022673934], [0.42645158233284447, -0.3607859009111275], [-0.06238477126329685, -0.2564764349502154], [-0.2584688277182379, -0.29964401945706215], [-0.11312192996032899, -0.05439345917292958], [0.19096873654163896, 0.1321853744035435]]",density,black,,,N012,visual,1,[],"['1', '2', '3', '4']",1,2023.2.3,harveyvisual,2.1,[],8,0.75,
0,pause,0.4,None,None,None,0,163,163,163,,,,,,,,,,,,,N012,visual,1,[],"['1', '2', '3', '4']",1,2023.2.3,harveyvisual,2.1,[],8,0.75,
9,dot,0.3,['dot'],['density'],black,0,164,164,164,,,59.800220012664795,59.521421909332275,59.821446895599365,dot,"[0.06, 0.1, 0.08, 0.08, 0.08, 0.1, 0.06, 0.1, 0.06]","[[-0.39546702852536103, 0.05887767166707298], [0.0019437857506851024, 0.07006750722115952], [0.08809400946991845, -0.15083790972035777], [-0.35358057288562594, -0.14123029179452673], [-0.18893042820243505, -0.004761820558363635], [-0.16054322822148615, -0.2701644482013472], [-0.3593088451216199, 0.2649120528395154], [-0.09346394646241396, -0.4621051997984888], [-0.5526246027455071, -0.11781718335669726]]",density,black,,,N012,visual,1,[],"['1', '2', '3', '4']",1,2023.2.3,harveyvisual,2.1,[],8,0.75,
0,pause,0.4,None,None,None,0,165,165,165,,,,,,,,,,,,,N012,visual,1,[],"['1', '2', '3', '4']",1,2023.2.3,harveyvisual,2.1,[],8,0.75,
9,dot,0.3,['dot'],['density'],black,0,166,166,166,,,60.50022602081299,60.22139096260071,60.52139091491699,dot,"[0.06, 0.06, 0.06, 0.06, 0.06, 0.08, 0.06, 0.06, 0.1]","[[0.22829877875946783, -0.39640994854570016], [0.3366371496270161, 0.05839125036393789], [-0.11436045239834208, -0.12024221759915668], [-0.02100147820737577, -0.3824026009196371], [0.08479146627654295, 0.024089629435920912], [0.16206374850784472, -0.16075841177209507], [0.38495438842944835, -0.24810596019115372], [-0.23418047716532614, 0.09565997955556291], [0.2111996426858246, 0.23215637940447356]]",density,black,,,N012,visual,1,[],"['1', '2', '3', '4']",1,2023.2.3,harveyvisual,2.1,[],8,0.75,
0,pause,0.4,None,None,None,0,167,167,167,,,,,,,,,,,,,N012,visual,1,[],"['1', '2', '3', '4']",1,2023.2.3,harveyvisual,2.1,[],8,0.75,
8,dot,0.3,['dot'],['density'],black,0,168,168,168,,,61.2002170085907,60.92139387130737,61.221428871154785,dot,"[0.08, 0.1, 0.08, 0.08, 0.08, 0.08, 0.1, 0.06]","[[-0.13214754069031825, -0.5402677255150703], [0.1288984478000013, -0.5519726475135984], [0.27401725229332, -0.34994268047279037], [-0.052680844420756816, 0.006786609240531098], [0.03557367748195712, -0.3699094958310016], [-0.23170140006741713, -0.18198058676873416], [-0.33504621301322857, -0.3611685350886627], [0.0760940577115827, -0.14857148175569432]]",density,black,,,N012,visual,1,[],"['1', '2', '3', '4']",1,2023.2.3,harveyvisual,2.1,[],8,0.75,
0,pause,0.4,None,None,None,0,169,169,169,,,,,,,,,,,,,N012,visual,1,[],"['1', '2', '3', '4']",1,2023.2.3,harveyvisual,2.1,[],8,0.75,
8,dot,0.3,['dot'],['density'],black,0,170,170,170,,,61.9002149105072,61.62171483039856,61.92138195037842,dot,"[0.08, 0.08, 0.06, 0.08, 0.08, 0.06, 0.08, 0.06]","[[0.17295790489511154, -0.46037743866749825], [0.1416591427765588, 0.05421051799673566], [0.21994266958916148, -0.13656690113679631], [0.3639906379971415, 0.0627265571221228], [0.015481321741344221, -0.13916897583717935], [0.440802488837635, -0.2883976186876931], [0.5157567705321767, -0.08800602901884749], [0.24768837887357187, 0.24424825162618136]]",density,black,,,N012,visual,1,[],"['1', '2', '3', '4']",1,2023.2.3,harveyvisual,2.1,[],8,0.75,
0,pause,0.4,None,None,None,0,171,171,171,,,,,,,,,,,,,N012,visual,1,[],"['1', '2', '3', '4']",1,2023.2.3,harveyvisual,2.1,[],8,0.75,
8,dot,0.3,['dot'],['density'],black,0,172,172,172,,,62.60023498535156,62.32137489318848,62.6213219165802,dot,"[0.08, 0.08, 0.06, 0.1, 0.06, 0.08, 0.08, 0.08]","[[0.3129921899656287, 0.2226642157048143], [0.41298599633021416, -0.001766323215076977], [0.013785601627645026, 0.39275307090924344], [-0.009407606244017683, 0.02333367620517349], [0.20163499737495916, -0.08731087547331118], [0.31235423233837933, 0.42762820752661124], [0.10705959187470679, 0.21318577255187057], [-0.13233007013452783, 0.20605257250075132]]",density,black,,,N012,visual,1,[],"['1', '2', '3', '4']",1,2023.2.3,harveyvisual,2.1,[],8,0.75,
0,pause,0.4,None,None,None,0,173,173,173,,,,,,,,,,,,,N012,visual,1,[],"['1', '2', '3', '4']",1,2023.2.3,harveyvisual,2.1,[],8,0.75,
8,dot,0.3,['dot'],['density'],black,0,174,174,174,,,63.300215005874634,63.02129793167114,63.32131004333496,dot,"[0.08, 0.06, 0.1, 0.08, 0.1, 0.1, 0.1, 0.08]","[[0.5011924336457421, -0.024432440978935197], [0.2806328112604475, -0.04317330297599672], [0.4832514634589159, 0.31109822070486504], [0.16408111659662816, 0.42847901077729456], [0.23688927214560462, 0.23559820796421724], [0.07772697954394367, 0.06196890701796274], [0.10192126774068293, -0.18867749580812243], [-0.012619648351882298, 0.24997239668137242]]",density,black,,,N012,visual,1,[],"['1', '2', '3', '4']",1,2023.2.3,harveyvisual,2.1,[],8,0.75,
0,pause,0.4,None,None,None,0,175,175,175,,,,,,,,,,,,,N012,visual,1,[],"['1', '2', '3', '4']",1,2023.2.3,harveyvisual,2.1,[],8,0.75,
8,dot,0.3,['dot'],['density'],black,0,176,176,176,,,64.00022482872009,63.721298933029175,64.0212779045105,dot,"[0.06, 0.1, 0.06, 0.08, 0.06, 0.1, 0.1, 0.1]","[[0.4578461037593053, -0.0425280984807614], [0.3105081462658962, -0.253400778181943], [0.5107466611240274, 0.18303335057259504], [0.05013881804369301, 0.21472050036076742], [0.11913774150617627, -0.046477809882714556], [0.3069987493408211, 0.11186211070896974], [0.10261508471656716, -0.25482825738733483], [-0.08881417545548334, 0.035709595317019026]]",density,black,,,N012,visual,1,[],"['1', '2', '3', '4']",1,2023.2.3,harveyvisual,2.1,[],8,0.75,
0,pause,0.4,None,None,None,0,177,177,177,,,,,,,,,,,,,N012,visual,1,[],"['1', '2', '3', '4']",1,2023.2.3,harveyvisual,2.1,[],8,0.75,
8,dot,0.3,['dot'],['density'],white,0,178,178,178,,,64.70021200180054,64.42130398750305,64.72132682800293,dot,"[0.08, 0.08, 0.1, 0.06, 0.08, 0.06, 0.1, 0.08]","[[-0.2395708272612018, -0.3613018167456044], [-0.39529086986423073, -0.13116056396528103], [0.016143118738118, -0.3000453801144436], [-0.10247857353615338, 0.12176090555598315], [0.11784264820349834, -0.12422453235794288], [-0.1468533202112338, -0.18280007972172757], [-0.31504288856899026, 0.06147683711297207], [0.2614313121475242, -0.33215718180641224]]",density,white,,,N012,visual,1,[],"['1', '2', '3', '4']",1,2023.2.3,harveyvisual,2.1,[],8,0.75,
0,pause,0.4,None,None,None,0,179,179,179,,,,,,,,,,,1,64.25384593009949,N012,visual,1,[],"['1', '2', '3', '4']",1,2023.2.3,harveyvisual,2.1,[],8,0.75,
7,dot,0.3,['dot'],['density'],white,0,180,180,180,,,65.40023589134216,65.1212830543518,65.42125105857849,dot,"[0.06, 0.06, 0.06, 0.06, 0.06, 0.08, 0.1]","[[0.3474653327129969, -0.31878285251617694], [0.04167069501601444, -0.04495125607964222], [-0.05005146056072613, -0.501422524998621], [-0.11295401278341419, -0.30095052262615135], [0.08710344590613708, -0.2932726077696002], [0.25592372840254046, -0.13825923460737455], [-0.15770825932276006, -0.07757053521742455]]",density,white,,,N012,visual,1,[],"['1', '2', '3', '4']",1,2023.2.3,harveyvisual,2.1,[],8,0.75,
0,pause,0.4,None,None,None,0,181,181,181,,,,,,,,,,,1,65.10393595695496,N012,visual,1,[],"['1', '2', '3', '4']",1,2023.2.3,harveyvisual,2.1,[],8,0.75,
7,dot,0.3,['dot'],['density'],black,0,182,182,182,,,66.10022687911987,65.8212399482727,66.12123203277588,dot,"[0.06, 0.1, 0.06, 0.08, 0.1, 0.08, 0.08]","[[-0.39883248072855915, 0.30823732592088265], [-0.041341486549100435, 0.2390478988097413], [-0.013495537319202725, 0.5211111720540192], [-0.2415889716500472, 0.10795059447242317], [-0.023803066389735523, 0.02076064871433158], [0.14387498046506175, 0.3548008600093999], [-0.24331877599120405, 0.46521846842164205]]",density,black,,,N012,visual,1,[],"['1', '2', '3', '4']",1,2023.2.3,harveyvisual,2.1,[],8,0.75,
0,pause,0.4,None,None,None,0,183,183,183,,,,,,,,,,,,,N012,visual,1,[],"['1', '2', '3', '4']",1,2023.2.3,harveyvisual,2.1,[],8,0.75,
7,dot,0.3,['dot'],['density'],black,0,184,184,184,,,66.80021595954895,66.52122402191162,66.82123804092407,dot,"[0.1, 0.06, 0.08, 0.06, 0.08, 0.06, 0.08]","[[-0.3025445156539714, -0.42280529123536587], [0.12162933753582021, -0.2851722644810181], [-0.2753205641105948, -0.038672864930592576], [-0.4202189534315163, -0.18742991959605093], [-0.15636117447925973, -0.27217203193286355], [-0.09967880665522989, -0.47242523529006747], [-0.06261398545311019, -0.08879309989794046]]",density,black,,,N012,visual,1,[],"['1', '2', '3', '4']",1,2023.2.3,harveyvisual,2.1,[],8,0.75,
0,pause,0.4,None,None,None,0,185,185,185,,,,,,,,,,,,,N012,visual,1,[],"['1', '2', '3', '4']",1,2023.2.3,harveyvisual,2.1,[],8,0.75,
7,dot,0.3,['dot'],['density'],black,0,186,186,186,,,67.50021696090698,67.22119402885437,67.52123999595642,dot,"[0.08, 0.06, 0.08, 0.06, 0.1, 0.1, 0.1]","[[-0.03978284138183809, -0.43963729991580147], [0.2770736023028816, -0.4460091285183096], [0.4264240077257641, -0.26124456405115876], [0.04351789842027954, -0.004572294527936195], [0.08491707485555088, -0.26540219852266356], [0.2274622265833728, -0.10044916879814345], [0.4232844185721205, -0.050742783717769746]]",density,black,,,N012,visual,1,[],"['1', '2', '3', '4']",1,2023.2.3,harveyvisual,2.1,[],8,0.75,
0,pause,0.4,None,None,None,0,187,187,187,,,,,,,,,,,,,N012,visual,1,[],"['1', '2', '3', '4']",1,2023.2.3,harveyvisual,2.1,[],8,0.75,
7,dot,0.3,['dot'],['density'],black,0,188,188,188,,,68.20022892951965,67.92118883132935,68.22118282318115,dot,"[0.08, 0.08, 0.1, 0.1, 0.1, 0.06, 0.1]","[[-0.2822174821233986, 0.002117056236134186], [-0.10673242512413421, 0.4781556216085482], [-0.18432519539246728, 0.19072201575640843], [-0.4524596318479574, 0.13966285650530724], [0.06907010423411483, 0.2912708813513049], [-0.07412436007020941, -0.021022205933558278], [-0.3208835015251209, 0.3986768431743725]]",density,black,,,N012,visual,1,[],"['1', '2', '3', '4']",1,2023.2.3,harveyvisual,2.1,[],8,0.75,
0,pause,0.4,None,None,None,0,189,189,189,,,,,,,,,,,,,N012,visual,1,[],"['1', '2', '3', '4']",1,2023.2.3,harveyvisual,2.1,[],8,0.75,
7,dot,0.3,['dot'],['density'],black,0,190,190,190,,,68.90023803710938,68.62119483947754,68.92115187644958,dot,"[0.1, 0.1, 0.1, 0.06, 0.1, 0.08, 0.06]","[[-0.2822174821233986, 0.002117056236134186], [-0.10673242512413421, 0.4781556216085482], [-0.18432519539246728, 0.19072201575640843], [-0.4524596318479574, 0.13966285650530724], [0.06907010423411483, 0.2912708813513049], [-0.07412436007020941, -0.021022205933558278], [-0.3208835015251209, 0.3986768431743725]]",density,black,,,N012,visual,1,[],"['1', '2', '3', '4']",1,2023.2.3,harveyvisual,2.1,[],8,0.75,
0,pause,0.4,None,None,None,0,191,191,191,,,,,,,,,,,,,N012,visual,1,[],"['1', '2', '3', '4']",1,2023.2.3,harveyvisual,2.1,[],8,0.75,
6,dot,0.3,['dot'],['density'],black,0,192,192,192,,,69.60021686553955,69.32115387916565,69.62113904953003,dot,"[0.1, 0.1, 0.1, 0.1, 0.06, 0.06]","[[0.404576257273406, 0.0700140295133255], [0.16236872381874318, -0.0021128728600973284], [0.5529541989122894, -0.15659614737169442], [0.13702497511457395, -0.2589057080071786], [0.36740063964394665, -0.3636528069500345], [0.3132750905084481, -0.159771579268986]]",density,black,,,N012,visual,1,[],"['1', '2', '3', '4']",1,2023.2.3,harveyvisual,2.1,[],8,0.75,
0,pause,0.4,None,None,None,0,193,193,193,,,,,,,,,,,,,N012,visual,1,[],"['1', '2', '3', '4']",1,2023.2.3,harveyvisual,2.1,[],8,0.75,
6,dot,0.3,['dot'],['density'],black,0,194,194,194,,,70.30022501945496,70.02113485336304,70.32204484939575,dot,"[0.06, 0.06, 0.1, 0.1, 0.1, 0.08]","[[0.01776890784276672, 0.3448500499300058], [-0.18238616215991446, 0.4840889924469993], [-0.2129582374372363, 0.07157874559070018], [-0.41549008775918617, 0.14353268657608398], [0.019487844458329944, 0.1389587799501653], [-0.21004805074000235, 0.2837936954907191]]",density,black,,,N012,visual,1,[],"['1', '2', '3', '4']",1,2023.2.3,harveyvisual,2.1,[],8,0.75,
0,pause,0.4,None,None,None,0,195,195,195,,,,,,,,,,,,,N012,visual,1,[],"['1', '2', '3', '4']",1,2023.2.3,harveyvisual,2.1,[],8,0.75,
6,dot,0.3,['dot'],['density'],black,0,196,196,196,,,71.0002338886261,70.72113990783691,71.0211169719696,dot,"[0.06, 0.08, 0.06, 0.06, 0.08, 0.08]","[[-0.4130096743352808, -0.09152271377164663], [-0.19778223104980006, -0.03862987845790588], [-0.5782793278508197, 0.04067119283421001], [-0.2942915267906656, -0.3673297053134895], [-0.33560074172492643, 0.119885218799542], [-0.5263932498355091, -0.25924495598585295]]",density,black,,,N012,visual,1,[],"['1', '2', '3', '4']",1,2023.2.3,harveyvisual,2.1,[],8,0.75,
0,pause,0.4,None,None,None,0,197,197,197,,,,,,,,,,,,,N012,visual,1,[],"['1', '2', '3', '4']",1,2023.2.3,harveyvisual,2.1,[],8,0.75,
6,dot,0.3,['dot'],['density'],black,0,198,198,198,,,71.70023894309998,71.42108702659607,71.72200393676758,dot,"[0.06, 0.1, 0.1, 0.08, 0.08, 0.1]","[[0.21259181929123794, -0.28356491423097735], [0.48303195854319764, 0.06048455888335473], [0.22913681079270962, 0.07473613686017411], [0.4939377514137012, -0.2837040300549214], [0.055643620130747785, -0.14290468481535015], [0.3711413815128542, -0.10952979375652658]]",density,black,,,N012,visual,1,[],"['1', '2', '3', '4']",1,2023.2.3,harveyvisual,2.1,[],8,0.75,
0,pause,0.4,None,None,None,0,199,199,199,,,,,,,,,,,,,N012,visual,1,[],"['1', '2', '3', '4']",1,2023.2.3,harveyvisual,2.1,[],8,0.75,
6,dot,0.3,['dot'],['density'],black,0,200,200,200,,,72.40022802352905,72.12109994888306,72.42108201980591,dot,"[0.08, 0.08, 0.1, 0.06, 0.06, 0.06]","[[0.20407874700173578, -0.003607462636592132], [0.19900023894327637, 0.3924983297162132], [0.3038969651674081, 0.19297037853131338], [-0.03476334221878716, -0.0007504963676470482], [-0.04769005191199877, 0.33834827157296915], [0.0832402191747092, 0.1716866405281877]]",density,black,,,N012,visual,1,[],"['1', '2', '3', '4']",1,2023.2.3,harveyvisual,2.1,[],8,0.75,
0,pause,0.4,None,None,None,0,201,201,201,,,,,,,,,,,,,N012,visual,1,[],"['1', '2', '3', '4']",1,2023.2.3,harveyvisual,2.1,[],8,0.75,
6,dot,0.3,['dot'],['density'],black,0,202,202,202,,,73.10023403167725,72.82108283042908,73.12106585502625,dot,"[0.06, 0.06, 0.06, 0.08, 0.06, 0.1]","[[-0.5416753121247185, 0.020803147184574915], [-0.3232269173664433, -0.07161231053200118], [-0.3008479376061402, -0.286480119217458], [-0.22299540496279888, 0.12470258063391813], [-0.10776740766186912, -0.19554033341247495], [-0.5165544979209102, -0.21376225914528924]]",density,black,,,N012,visual,1,[],"['1', '2', '3', '4']",1,2023.2.3,harveyvisual,2.1,[],8,0.75,
0,pause,0.4,None,None,None,0,203,203,203,,,,,,,,,,,,,N012,visual,1,[],"['1', '2', '3', '4']",1,2023.2.3,harveyvisual,2.1,[],8,0.75,
5,dot,0.3,['dot'],['density'],black,0,204,204,204,,,73.80023384094238,73.5210428237915,73.82103991508484,dot,"[0.1, 0.06, 0.1, 0.06, 0.08]","[[-0.24811222937808852, -0.0926462173418487], [-0.0684102839715827, 0.053707960252323945], [-0.4199359189551936, 0.028595247832400618], [-0.4311232183625476, -0.17348815390478414], [-0.08153496032007611, -0.23043043025001772]]",density,black,,,N012,visual,1,[],"['1', '2', '3', '4']",1,2023.2.3,harveyvisual,2.1,[],8,0.75,
0,pause,0.4,None,None,None,0,205,205,205,,,,,,,,,,,,,N012,visual,1,[],"['1', '2', '3', '4']",1,2023.2.3,harveyvisual,2.1,[],8,0.75,
5,dot,0.3,['dot'],['density'],black,0,206,206,206,,,74.50023794174194,74.22103595733643,74.52192783355713,dot,"[0.06, 0.06, 0.06, 0.1, 0.08]","[[0.21791283729510122, -0.3451859720731072], [0.5246150578842218, -0.1749209719782184], [0.23417080448362212, 0.06149420791510773], [0.21628546435715315, -0.14179681516434317], [0.46094971099473236, 0.03541120369123469]]",density,black,,,N012,visual,1,[],"['1', '2', '3', '4']",1,2023.2.3,harveyvisual,2.1,[],8,0.75,
0,pause,0.4,None,None,None,0,207,207,207,,,,,,,,,,,,,N012,visual,1,[],"['1', '2', '3', '4']",1,2023.2.3,harveyvisual,2.1,[],8,0.75,
5,dot,0.3,['dot'],['density'],black,0,208,208,208,,,75.20022392272949,74.92103099822998,75.22098302841187,dot,"[0.1, 0.08, 0.06, 0.1, 0.06]","[[-0.17224806752104949, 0.21128771658676965], [-0.35983128753182364, -0.1328600505582573], [-0.33716814897054914, 0.09708697582185674], [-0.044562237693599294, -0.03778919281981133], [-0.17109626387405982, -0.21732524013947077]]",density,black,,,N012,visual,1,[],"['1', '2', '3', '4']",1,2023.2.3,harveyvisual,2.1,[],8,0.75,
0,pause,0.4,None,None,None,0,209,209,209,,,,,,,,,,,,,N012,visual,1,[],"['1', '2', '3', '4']",1,2023.2.3,harveyvisual,2.1,[],8,0.75,
5,dot,0.3,['dot'],['density'],black,0,210,210,210,,,75.90023899078369,75.62105703353882,75.92499589920044,dot,"[0.06, 0.06, 0.06, 0.06, 0.1]","[[-0.416197921377668, -0.28619329865683824], [-0.20866628843358032, -0.3460647126262422], [-0.5570429559765239, -0.05989317214741584], [-0.28028983240144106, -0.12146425093182346], [-0.3531870384577651, 0.07845006904085886]]",density,black,,,N012,visual,1,[],"['1', '2', '3', '4']",1,2023.2.3,harveyvisual,2.1,[],8,0.75,
0,pause,0.4,None,None,None,0,211,211,211,,,,,,,,,,,,,N012,visual,1,[],"['1', '2', '3', '4']",1,2023.2.3,harveyvisual,2.1,[],8,0.75,
5,dot,0.3,['dot'],['density'],black,0,212,212,212,,,76.60023593902588,76.32104992866516,76.62103700637817,dot,"[0.1, 0.08, 0.06, 0.08, 0.06]","[[0.33660852042816714, -0.448935078303268], [0.16237328695183198, -0.028906365321866932], [0.003149504206933677, -0.1844463225559013], [0.4065340125681681, -0.22407981263326276], [0.20027486954239768, -0.2346061295568129]]",density,black,,,N012,visual,1,[],"['1', '2', '3', '4']",1,2023.2.3,harveyvisual,2.1,[],8,0.75,
0,pause,0.4,None,None,None,0,213,213,213,,,,,,,,,,,,,N012,visual,1,[],"['1', '2', '3', '4']",1,2023.2.3,harveyvisual,2.1,[],8,0.75,
5,dot,0.3,['dot'],['density'],black,0,214,214,214,,,77.30023503303528,77.02103996276855,77.32100486755371,dot,"[0.1, 0.1, 0.1, 0.1, 0.1]","[[-0.4702494158317004, 0.19352793081356498], [-0.36864189631283095, -0.2113573127283173], [-0.3573601989406874, -0.007363185939446715], [-0.15559938224235453, -0.02548680069503583], [-0.25069196230576396, 0.1747846118010945]]",density,black,,,N012,visual,1,[],"['1', '2', '3', '4']",1,2023.2.3,harveyvisual,2.1,[],8,0.75,
0,pause,0.4,None,None,None,0,215,215,215,,,,,,,,,,,,,N012,visual,1,[],"['1', '2', '3', '4']",1,2023.2.3,harveyvisual,2.1,[],8,0.75,
4,dot,0.3,['dot'],['density'],white,0,216,216,216,,,78.00023484230042,77.72100305557251,78.02102088928223,dot,"[0.06, 0.06, 0.06, 0.08]","[[0.17852470546651972, -0.2012438881607824], [-0.031034799765910746, -0.12466087783573923], [0.008996399474264666, -0.3229379719524122], [0.15114343287780646, 0.03986859122442722]]",density,white,,,N012,visual,1,[],"['1', '2', '3', '4']",1,2023.2.3,harveyvisual,2.1,[],8,0.75,
0,pause,0.4,None,None,None,0,217,217,217,,,,,,,,,,,1,77.76049900054932,N012,visual,1,[],"['1', '2', '3', '4']",1,2023.2.3,harveyvisual,2.1,[],8,0.75,
4,dot,0.3,['dot'],['density'],white,0,218,218,218,,,78.70023393630981,78.42093801498413,78.72090792655945,dot,"[0.06, 0.06, 0.1, 0.1]","[[0.107131415583101, 0.03171316484874249], [0.3330877778846877, 0.14211400081541528], [0.23058747141838212, -0.24340322486593785], [0.3173726134345681, -0.05921806988573682]]",density,white,,,N012,visual,1,[],"['1', '2', '3', '4']",1,2023.2.3,harveyvisual,2.1,[],8,0.75,
0,pause,0.4,None,None,None,0,219,219,219,,,,,,,,,,,1,78.33955192565918,N012,visual,1,[],"['1', '2', '3', '4']",1,2023.2.3,harveyvisual,2.1,[],8,0.75,
4,dot,0.3,['dot'],['density'],black,0,220,220,220,,,79.40022087097168,79.12106585502625,79.42105603218079,dot,"[0.1, 0.06, 0.08, 0.08]","[[-0.4116264312708952, 0.16775371224632304], [-0.5618780911112883, -0.04134114392370045], [-0.3363713887364365, -0.04915619770205748], [-0.48212301157369764, -0.2249233832905235]]",density,black,,,N012,visual,1,[],"['1', '2', '3', '4']",1,2023.2.3,harveyvisual,2.1,[],8,0.75,
0,pause,0.4,None,None,None,0,221,221,221,,,,,,,,,,,,,N012,visual,1,[],"['1', '2', '3', '4']",1,2023.2.3,harveyvisual,2.1,[],8,0.75,
4,dot,0.3,['dot'],['density'],white,0,222,222,222,,,80.10021901130676,79.82090497016907,80.1208930015564,dot,"[0.08, 0.08, 0.06, 0.1]","[[0.37520814465037905, -0.4432880181017862], [0.4692830223283075, -0.19655799526205012], [0.3063896805601884, -0.036788685454167226], [0.2471196723673293, -0.2344474043623998]]",density,white,,,N012,visual,1,[],"['1', '2', '3', '4']",1,2023.2.3,harveyvisual,2.1,[],8,0.75,
0,pause,0.4,None,None,None,0,223,223,223,,,,,,,,,,,1,79.70974707603455,N012,visual,1,[],"['1', '2', '3', '4']",1,2023.2.3,harveyvisual,2.1,[],8,0.75,
4,dot,0.3,['dot'],['density'],black,0,224,224,224,,,80.80022096633911,80.52093601226807,80.82087302207947,dot,"[0.08, 0.06, 0.06, 0.1]","[[0.0004228548582206217, 0.4437421379736539], [0.24572762857664815, 0.2260868474052859], [0.007756854070108054, 0.1846819218217072], [0.22099789303306372, 0.4278063517398125]]",density,black,,,N012,visual,1,[],"['1', '2', '3', '4']",1,2023.2.3,harveyvisual,2.1,[],8,0.75,
0,pause,0.4,None,None,None,0,225,225,225,,,,,,,,,,,,,N012,visual,1,[],"['1', '2', '3', '4']",1,2023.2.3,harveyvisual,2.1,[],8,0.75,
4,dot,0.3,['dot'],['density'],black,0,226,226,226,,,81.50022292137146,81.22085189819336,81.5208580493927,dot,"[0.06, 0.1, 0.06, 0.06]","[[-0.34940937311115045, -0.11648702989399858], [-0.2695829051223266, -0.4589438614516443], [-0.4698604504367728, -0.3018413850444449], [-0.18849712946501163, -0.26902343222239633]]",density,black,,,N012,visual,1,[],"['1', '2', '3', '4']",1,2023.2.3,harveyvisual,2.1,[],8,0.75,
0,pause,0.4,None,None,None,0,227,227,227,,,,,,,,,,,,,N012,visual,1,[],"['1', '2', '3', '4']",1,2023.2.3,harveyvisual,2.1,[],8,0.75,
3,dot,0.3,['dot'],['density'],black,0,228,228,228,,,82.20023894309998,81.92084789276123,82.22081184387207,dot,"[0.08, 0.06, 0.1]","[[0.35100391059830643, -0.4491085892346253], [0.13011513135189492, -0.5590284990295896], [0.16905753934955023, -0.35714526366544236]]",density,black,,,N012,visual,1,[],"['1', '2', '3', '4']",1,2023.2.3,harveyvisual,2.1,[],8,0.75,
0,pause,0.4,None,None,None,0,229,229,229,,,,,,,,,,,,,N012,visual,1,[],"['1', '2', '3', '4']",1,2023.2.3,harveyvisual,2.1,[],8,0.75,
3,dot,0.3,['dot'],['density'],black,0,230,230,230,,,82.900221824646,82.6208119392395,82.92080497741699,dot,"[0.08, 0.1, 0.06]","[[-0.09236249555143743, 0.14437879021360575], [0.06053771141254397, 0.008702735453236923], [-0.17336599953316903, -0.04113967592870183]]",density,black,,,N012,visual,1,[],"['1', '2', '3', '4']",1,2023.2.3,harveyvisual,2.1,[],8,0.75,
0,pause,0.4,None,None,None,0,231,231,231,,,,,,,,,,,,,N012,visual,1,[],"['1', '2', '3', '4']",1,2023.2.3,harveyvisual,2.1,[],8,0.75,
3,dot,0.3,['dot'],['density'],black,0,232,232,232,,,83.60021090507507,83.32079195976257,83.62079191207886,dot,"[0.1, 0.1, 0.06]","[[-0.1591938184585166, 0.2573970255855866], [-0.049574382916532336, 0.44031337398050124], [0.08264166875933507, 0.262381570646859]]",density,black,,,N012,visual,1,[],"['1', '2', '3', '4']",1,2023.2.3,harveyvisual,2.1,[],8,0.75,
0,pause,0.4,None,None,None,0,233,233,233,,,,,,,,,,,,,N012,visual,1,[],"['1', '2', '3', '4']",1,2023.2.3,harveyvisual,2.1,[],8,0.75,
3,dot,0.3,['dot'],['density'],black,0,234,234,234,,,84.30022692680359,84.02076387405396,84.32078289985657,dot,"[0.06, 0.08, 0.06]","[[-0.36641147837046456, 0.28339849123565264], [-0.19108570342652328, 0.4628134959899303], [-0.16564092668537764, 0.24926372681875647]]",density,black,,,N012,visual,1,[],"['1', '2', '3', '4']",1,2023.2.3,harveyvisual,2.1,[],8,0.75,
0,pause,0.4,None,None,None,0,235,235,235,,,,,,,,,,,,,N012,visual,1,[],"['1', '2', '3', '4']",1,2023.2.3,harveyvisual,2.1,[],8,0.75,
3,dot,0.3,['dot'],['density'],black,0,236,236,236,,,85.00022387504578,84.72075390815735,85.02231693267822,dot,"[0.1, 0.1, 0.1]","[[0.041215869578383385, -0.00689674906403758], [0.17500875751152645, 0.21459232562634095], [-0.03632281132631849, 0.2012994076415249]]",density,black,,,N012,visual,1,[],"['1', '2', '3', '4']",1,2023.2.3,harveyvisual,2.1,[],8,0.75,
0,pause,0.4,None,None,None,0,237,237,237,,,,,,,,,,,,,N012,visual,1,[],"['1', '2', '3', '4']",1,2023.2.3,harveyvisual,2.1,[],8,0.75,
3,dot,0.3,['dot'],['density'],black,0,238,238,238,,,85.70021486282349,85.42080283164978,85.72072196006775,dot,"[0.1, 0.06, 0.1]","[[0.348550694073714, -0.26372109460002424], [0.5073713069625243, -0.14206826334288786], [0.3419709386041379, 0.005891602819957491]]",density,black,,,N012,visual,1,[],"['1', '2', '3', '4']",1,2023.2.3,harveyvisual,2.1,[],8,0.75,
0,pause,0.4,None,None,None,0,239,239,239,,,,,,,,,,,,,N012,visual,1,[],"['1', '2', '3', '4']",1,2023.2.3,harveyvisual,2.1,[],8,0.75,
2,dot,0.3,['dot'],['density'],black,0,240,240,240,,,86.40023899078369,86.10398483276367,86.42070388793945,dot,"[0.06, 0.08]","[[0.21918454152848227, -0.10588244801595839], [0.1860161616926718, 0.09155890801726524]]",density,black,,,N012,visual,1,[],"['1', '2', '3', '4']",1,2023.2.3,harveyvisual,2.1,[],8,0.75,
0,pause,0.4,None,None,None,0,241,241,241,,,,,,,,,,,,,N012,visual,1,[],"['1', '2', '3', '4']",1,2023.2.3,harveyvisual,2.1,[],8,0.75,
2,dot,0.3,['dot'],['density'],black,0,242,242,242,,,87.10022783279419,86.80395293235779,87.12070894241333,dot,"[0.1, 0.1]","[[0.3859848860398513, -0.03650274153894256], [0.5613034441480618, 0.06134992989862206]]",density,black,,,N012,visual,1,[],"['1', '2', '3', '4']",1,2023.2.3,harveyvisual,2.1,[],8,0.75,
0,pause,0.4,None,None,None,0,243,243,243,,,,,,,,,,,,,N012,visual,1,[],"['1', '2', '3', '4']",1,2023.2.3,harveyvisual,2.1,[],8,0.75,
2,dot,0.3,['dot'],['density'],black,0,244,244,244,,,87.80023884773254,87.50395488739014,87.82068085670471,dot,"[0.08, 0.08]","[[-0.4579128382498026, -0.013317831223324628], [-0.28624676016543393, -0.11681778735554697]]",density,black,,,N012,visual,1,[],"['1', '2', '3', '4']",1,2023.2.3,harveyvisual,2.1,[],8,0.75,
0,pause,0.4,None,None,None,0,245,245,245,,,,,,,,,,,,,N012,visual,1,[],"['1', '2', '3', '4']",1,2023.2.3,harveyvisual,2.1,[],8,0.75,
2,dot,0.3,['dot'],['density'],white,0,246,246,246,,,88.5002269744873,88.2206678390503,88.52066087722778,dot,"[0.08, 0.06]","[[0.510744558366804, -0.07965895932329134], [0.5183014925016622, -0.2796299572401246]]",density,white,,,N012,visual,1,[],"['1', '2', '3', '4']",1,2023.2.3,harveyvisual,2.1,[],8,0.75,
0,pause,0.4,None,None,None,0,247,247,247,,,,,,,,,,,1,88.10176706314087,N012,visual,1,[],"['1', '2', '3', '4']",1,2023.2.3,harveyvisual,2.1,[],8,0.75,
2,dot,0.3,['dot'],['density'],black,0,248,248,248,,,89.20022201538086,88.9206759929657,89.22072386741638,dot,"[0.08, 0.06]","[[0.11825467712572878, -0.39617910972508336], [0.05459236086910312, -0.5860717982025758]]",density,black,,,N012,visual,1,[],"['1', '2', '3', '4']",1,2023.2.3,harveyvisual,2.1,[],8,0.75,
0,pause,0.4,None,None,None,0,249,249,249,,,,,,,,,,,,,N012,visual,1,[],"['1', '2', '3', '4']",1,2023.2.3,harveyvisual,2.1,[],8,0.75,
2,dot,0.3,['dot'],['density'],black,0,250,250,250,,,89.90024185180664,89.60391187667847,89.92065286636353,dot,"[0.06, 0.08]","[[0.1734117655345296, 0.46860731914486053], [-0.01847566562869785, 0.52581935004857]]",density,black,,,N012,visual,1,[],"['1', '2', '3', '4']",1,2023.2.3,harveyvisual,2.1,[],8,0.75,
0,pause,0.4,None,None,None,0,251,251,251,,,,,,,,,,,,,N012,visual,1,[],"['1', '2', '3', '4']",1,2023.2.3,harveyvisual,2.1,[],8,0.75,
1,dot,0.3,['dot'],['density'],black,0,252,252,252,,,90.60023999214172,90.3039448261261,90.6206169128418,dot,[0.06],"[-0.31757534052014, 0.30709612076893067]",density,black,,,N012,visual,1,[],"['1', '2', '3', '4']",1,2023.2.3,harveyvisual,2.1,[],8,0.75,
0,pause,0.4,None,None,None,0,253,253,253,,,,,,,,,,,,,N012,visual,1,[],"['1', '2', '3', '4']",1,2023.2.3,harveyvisual,2.1,[],8,0.75,
1,dot,0.3,['dot'],['density'],black,0,254,254,254,,,91.3002278804779,91.02172803878784,91.3205828666687,dot,[0.06],"[0.03111034986587176, -0.1137363894063533]",density,black,,,N012,visual,1,[],"['1', '2', '3', '4']",1,2023.2.3,harveyvisual,2.1,[],8,0.75,
0,pause,0.4,None,None,None,0,255,255,255,,,,,,,,,,,,,N012,visual,1,[],"['1', '2', '3', '4']",1,2023.2.3,harveyvisual,2.1,[],8,0.75,
1,dot,0.3,['dot'],['density'],black,0,256,256,256,,,92.00023198127747,91.70391201972961,92.02056384086609,dot,[0.08],"[0.39967490259390637, -0.2576437183111264]",density,black,,,N012,visual,1,[],"['1', '2', '3', '4']",1,2023.2.3,harveyvisual,2.1,[],8,0.75,
0,pause,0.4,None,None,None,0,257,257,257,,,,,,,,,,,,,N012,visual,1,[],"['1', '2', '3', '4']",1,2023.2.3,harveyvisual,2.1,[],8,0.75,
1,dot,0.3,['dot'],['density'],black,0,258,258,258,,,92.70021986961365,92.40392398834229,92.72058200836182,dot,[0.1],"[0.5163804524385218, 0.172353611070521]",density,black,,,N012,visual,1,[],"['1', '2', '3', '4']",1,2023.2.3,harveyvisual,2.1,[],8,0.75,
0,pause,0.4,None,None,None,0,259,259,259,,,,,,,,,,,,,N012,visual,1,[],"['1', '2', '3', '4']",1,2023.2.3,harveyvisual,2.1,[],8,0.75,
1,dot,0.3,['dot'],['density'],black,0,260,260,260,,,93.40022087097168,93.10390090942383,93.42057204246521,dot,[0.1],"[-0.0300711363278092, -0.16168860719337894]",density,black,,,N012,visual,1,[],"['1', '2', '3', '4']",1,2023.2.3,harveyvisual,2.1,[],8,0.75,
0,pause,0.4,None,None,None,0,261,261,261,,,,,,,,,,,,,N012,visual,1,[],"['1', '2', '3', '4']",1,2023.2.3,harveyvisual,2.1,[],8,0.75,
1,dot,0.3,['dot'],['density'],black,0,262,262,262,,,94.10023403167725,93.8038580417633,94.12050986289978,dot,[0.06],"[0.03111034986587176, -0.1137363894063533]",density,black,,,N012,visual,1,[],"['1', '2', '3', '4']",1,2023.2.3,harveyvisual,2.1,[],8,0.75,
0,pause,0.4,None,None,None,0,263,263,263,,,,,,,,,,,,,N012,visual,1,[],"['1', '2', '3', '4']",1,2023.2.3,harveyvisual,2.1,[],8,0.75,
20,dot,0.3,['dot'],['density'],black,0,264,264,264,,,94.80024194717407,94.52053689956665,94.8204939365387,dot,"[0.1, 0.08, 0.06, 0.08, 0.1, 0.1, 0.1, 0.08, 0.08, 0.06, 0.08, 0.08, 0.06, 0.1, 0.1, 0.1, 0.1, 0.08, 0.06, 0.06]","[[-0.5025802116144942, 0.19820501165375676], [-0.21211134213835797, -0.5421763079018517], [0.5349229171314217, -0.20830097600679984], [0.5148355589312074, 0.1777934306152391], [-0.5362139806227444, 0.006500660454425045], [-0.5285219468265013, -0.27311151571194114], [-0.24893814718541735, -0.31352260140244403], [-0.0817807227222429, 0.31366179380940296], [-0.31232067687480636, 0.4754196799233551], [0.011894453309902242, -0.4247914867077053], [-0.07665795892846838, -0.17787582277192193], [0.15385790378239328, 0.34678963049554334], [0.09242820118121298, -0.03597195295891076], [0.20700945548613225, 0.16014758787958172], [-0.3115393090156648, 0.03720733548558852], [0.3382858049789993, 0.011167149874594107], [0.05559709913582889, 0.5570329177163322], [0.18769915794952485, -0.4973776748854529], [0.13472260543056125, -0.23601228852572814], [0.3225974560905621, -0.34931445714871867]]",density,black,,,N012,visual,1,[],"['1', '2', '3', '4']",1,2023.2.3,harveyvisual,2.1,[],8,0.75,
0,pause,0.4,None,None,None,0,265,265,265,,,,,,,,,,,,,N012,visual,1,[],"['1', '2', '3', '4']",1,2023.2.3,harveyvisual,2.1,[],8,0.75,
20,dot,0.3,['dot'],['density'],black,0,266,266,266,,,95.50023484230042,95.22049498558044,95.5204758644104,dot,"[0.08, 0.1, 0.08, 0.08, 0.08, 0.06, 0.1, 0.08, 0.06, 0.06, 0.06, 0.1, 0.1, 0.1, 0.1, 0.06, 0.08, 0.06, 0.08, 0.1]","[[-0.1622901308236297, 0.3690601407527786], [-0.5126640666390154, 0.2752973913676708], [0.024380299615107015, 0.12528483416158154], [0.2848880728991069, -0.3397750770143121], [0.5053329345976073, -0.3148207186854056], [-0.15950057161475933, -0.5315316723524791], [0.35062806494343335, -0.1308882661211303], [0.5933141106436185, 0.02165957959802975], [-0.17629850660064478, 0.1341183766330022], [-0.008328841558320588, -0.3977965495086241], [0.41941260498975497, 0.33086416091358517], [-0.20646205136247753, -0.3149446343014251], [0.37057504254144247, 0.14365203101947394], [-0.011932330600938235, 0.5773059808260573], [-0.43816672312895777, -0.3270352510450858], [-0.45389177539309034, 0.07941431146356986], [0.2186603553776305, 0.5273579474714984], [0.10553000211239072, -0.14291765493737718], [-0.41842205086724454, -0.1352270603968722], [0.23352580862332928, -0.5327196757065523]]",density,black,,,N012,visual,1,[],"['1', '2', '3', '4']",1,2023.2.3,harveyvisual,2.1,[],8,0.75,
0,pause,0.4,None,None,None,0,267,267,267,,,,,,,,,,,,,N012,visual,1,[],"['1', '2', '3', '4']",1,2023.2.3,harveyvisual,2.1,[],8,0.75,
