num,mod,duration,shape,ll_cond,colors,.thisRepN,.thisTrialN,.thisN,.thisIndex,thisRow.t,notes,raw_global_time,t_start,t_stop,shapes,size,pos,cond,color,button,RT,participant,session,starting_run,left button (match/odd),right button (non-match/even),samples_per_block,psychopy version,expName,offset,audio,number_runs,radius,
1,dot,0.3,['dot'],['density'],white,0,0,0,0,,,2.400233030319214,2.1106820106506348,2.4107489585876465,dot,[0.06],"[0.0038807231877187303, -0.2777732366953785]",density,white,,,N012,visual,3,[],"['1', '2', '3', '4']",1,2023.2.3,harveyvisual,2.1,[],8,0.75,
0,pause,0.4,None,None,None,0,1,1,1,,,,,,,,,,,,,N012,visual,3,[],"['1', '2', '3', '4']",1,2023.2.3,harveyvisual,2.1,[],8,0.75,
1,dot,0.3,['dot'],['density'],black,0,2,2,2,,,3.100216865539551,2.8106138706207275,3.110599994659424,dot,[0.08],"[-0.0300711363278092, -0.16168860719337894]",density,black,,,N012,visual,3,[],"['1', '2', '3', '4']",1,2023.2.3,harveyvisual,2.1,[],8,0.75,
0,pause,0.4,None,None,None,0,3,3,3,,,,,,,,,,,,,N012,visual,3,[],"['1', '2', '3', '4']",1,2023.2.3,harveyvisual,2.1,[],8,0.75,
1,dot,0.3,['dot'],['density'],black,0,4,4,4,,,3.8002078533172607,3.5105929374694824,3.8105859756469727,dot,[0.06],"[0.39967490259390637, -0.2576437183111264]",density,black,,,N012,visual,3,[],"['1', '2', '3', '4']",1,2023.2.3,harveyvisual,2.1,[],8,0.75,
0,pause,0.4,None,None,None,0,5,5,5,,,,,,,,,,,,,N012,visual,3,[],"['1', '2', '3', '4']",1,2023.2.3,harveyvisual,2.1,[],8,0.75,
1,dot,0.3,['dot'],['density'],black,0,6,6,6,,,4.500211000442505,4.210599899291992,4.510568857192993,dot,[0.1],"[0.39967490259390637, -0.2576437183111264]",density,black,,,N012,visual,3,[],"['1', '2', '3', '4']",1,2023.2.3,harveyvisual,2.1,[],8,0.75,
0,pause,0.4,None,None,None,0,7,7,7,,,,,,,,,,,,,N012,visual,3,[],"['1', '2', '3', '4']",1,2023.2.3,harveyvisual,2.1,[],8,0.75,
1,dot,0.3,['dot'],['density'],black,0,8,8,8,,,5.200217008590698,4.910560846328735,5.210594892501831,dot,[0.1],"[0.4123293050259286, 0.03564095151647579]",density,black,,,N012,visual,3,[],"['1', '2', '3', '4']",1,2023.2.3,harveyvisual,2.1,[],8,0.75,
0,pause,0.4,None,None,None,0,9,9,9,,,,,,,,,,,,,N012,visual,3,[],"['1', '2', '3', '4']",1,2023.2.3,harveyvisual,2.1,[],8,0.75,
1,dot,0.3,['dot'],['density'],white,0,10,10,10,,,5.900211811065674,5.610541820526123,5.91053581237793,dot,[0.06],"[-0.4913090862596544, 0.31587628757091063]",density,white,,,N012,visual,3,[],"['1', '2', '3', '4']",1,2023.2.3,harveyvisual,2.1,[],8,0.75,
0,pause,0.4,None,None,None,0,11,11,11,,,,,,,,,,,1,5.839700937271118,N012,visual,3,[],"['1', '2', '3', '4']",1,2023.2.3,harveyvisual,2.1,[],8,0.75,
2,dot,0.3,['dot'],['density'],white,0,12,12,12,,,6.600226879119873,6.310527801513672,6.610514879226685,dot,"[0.06, 0.06]","[[0.1851205616289071, -0.3624876981064337], [0.3405923022038234, -0.23608025195482504]]",density,white,,,N012,visual,3,[],"['1', '2', '3', '4']",1,2023.2.3,harveyvisual,2.1,[],8,0.75,
0,pause,0.4,None,None,None,0,13,13,13,,,,,,,,,,,1,6.694573879241943,N012,visual,3,[],"['1', '2', '3', '4']",1,2023.2.3,harveyvisual,2.1,[],8,0.75,
2,dot,0.3,['dot'],['density'],black,0,14,14,14,,,7.3002049922943115,7.0105140209198,7.310611963272095,dot,"[0.08, 0.08]","[[0.1652621768884792, -0.40183218801656556], [-0.03337249546828684, -0.4281924369736378]]",density,black,,,N012,visual,3,[],"['1', '2', '3', '4']",1,2023.2.3,harveyvisual,2.1,[],8,0.75,
0,pause,0.4,None,None,None,0,15,15,15,,,,,,,,,,,,,N012,visual,3,[],"['1', '2', '3', '4']",1,2023.2.3,harveyvisual,2.1,[],8,0.75,
2,dot,0.3,['dot'],['density'],black,0,16,16,16,,,8.000224828720093,7.7104949951171875,8.010486841201782,dot,"[0.06, 0.06]","[[-0.4579128382498026, -0.013317831223324628], [-0.28624676016543393, -0.11681778735554697]]",density,black,,,N012,visual,3,[],"['1', '2', '3', '4']",1,2023.2.3,harveyvisual,2.1,[],8,0.75,
0,pause,0.4,None,None,None,0,17,17,17,,,,,,,,,,,,,N012,visual,3,[],"['1', '2', '3', '4']",1,2023.2.3,harveyvisual,2.1,[],8,0.75,
2,dot,0.3,['dot'],['density'],black,0,18,18,18,,,8.700217962265015,8.410475015640259,8.710469007492065,dot,"[0.1, 0.08]","[[-0.5356907773971091, -0.01454049690556478], [-0.3936553319468624, 0.1263392020735458]]",density,black,,,N012,visual,3,[],"['1', '2', '3', '4']",1,2023.2.3,harveyvisual,2.1,[],8,0.75,
0,pause,0.4,None,None,None,0,19,19,19,,,,,,,,,,,,,N012,visual,3,[],"['1', '2', '3', '4']",1,2023.2.3,harveyvisual,2.1,[],8,0.75,
2,dot,0.3,['dot'],['density'],black,0,20,20,20,,,9.400216817855835,9.110466003417969,9.41045594215393,dot,"[0.1, 0.1]","[[0.4162662019019998, 0.09129510669171749], [0.33420900269466314, 0.27427456354974017]]",density,black,,,N012,visual,3,[],"['1', '2', '3', '4']",1,2023.2.3,harveyvisual,2.1,[],8,0.75,
0,pause,0.4,None,None,None,0,21,21,21,,,,,,,,,,,,,N012,visual,3,[],"['1', '2', '3', '4']",1,2023.2.3,harveyvisual,2.1,[],8,0.75,
2,dot,0.3,['dot'],['density'],black,0,22,22,22,,,10.100219011306763,9.810995817184448,10.110994815826416,dot,"[0.1, 0.06]","[[-0.3970652553054307, 0.36151140161898554], [-0.22306532646831484, 0.26288994227005946]]",density,black,,,N012,visual,3,[],"['1', '2', '3', '4']",1,2023.2.3,harveyvisual,2.1,[],8,0.75,
0,pause,0.4,None,None,None,0,23,23,23,,,,,,,,,,,,,N012,visual,3,[],"['1', '2', '3', '4']",1,2023.2.3,harveyvisual,2.1,[],8,0.75,
3,dot,0.3,['dot'],['density'],black,0,24,24,24,,,10.800216913223267,10.510977029800415,10.81103801727295,dot,"[0.08, 0.1, 0.1]","[[-0.015545778166788895, 0.3668732894324268], [-0.08169376046335623, 0.5804400028356697], [-0.24536523618143577, 0.46292967544173164]]",density,black,,,N012,visual,3,[],"['1', '2', '3', '4']",1,2023.2.3,harveyvisual,2.1,[],8,0.75,
0,pause,0.4,None,None,None,0,25,25,25,,,,,,,,,,,,,N012,visual,3,[],"['1', '2', '3', '4']",1,2023.2.3,harveyvisual,2.1,[],8,0.75,
3,dot,0.3,['dot'],['density'],black,0,26,26,26,,,11.500212907791138,11.21097183227539,11.510984897613525,dot,"[0.1, 0.06, 0.06]","[[0.4995185571857965, 0.14229679706320136], [0.2944600495073675, 0.23335097983198633], [0.330752226915583, 0.0299241169750933]]",density,black,,,N012,visual,3,[],"['1', '2', '3', '4']",1,2023.2.3,harveyvisual,2.1,[],8,0.75,
0,pause,0.4,None,None,None,0,27,27,27,,,,,,,,,,,,,N012,visual,3,[],"['1', '2', '3', '4']",1,2023.2.3,harveyvisual,2.1,[],8,0.75,
3,dot,0.3,['dot'],['density'],white,0,28,28,28,,,12.20021390914917,11.911123991012573,12.21095085144043,dot,"[0.1, 0.06, 0.1]","[[0.2768253388883432, 0.03346297355107007], [0.11287187477499526, -0.09417797505773098], [0.09003622344097514, 0.12370024427926096]]",density,white,,,N012,visual,3,[],"['1', '2', '3', '4']",1,2023.2.3,harveyvisual,2.1,[],8,0.75,
0,pause,0.4,None,None,None,0,29,29,29,,,,,,,,,,,1,12.101261854171753,N012,visual,3,[],"['1', '2', '3', '4']",1,2023.2.3,harveyvisual,2.1,[],8,0.75,
3,dot,0.3,['dot'],['density'],black,0,30,30,30,,,12.900215864181519,12.613225936889648,12.913203954696655,dot,"[0.1, 0.08, 0.06]","[[0.06695044750400271, -0.4036822973150869], [0.2898428615912539, -0.43752325319744867], [0.2484486434572057, -0.2241911098289173]]",density,black,,,N012,visual,3,[],"['1', '2', '3', '4']",1,2023.2.3,harveyvisual,2.1,[],8,0.75,
0,pause,0.4,None,None,None,0,31,31,31,,,,,,,,,,,,,N012,visual,3,[],"['1', '2', '3', '4']",1,2023.2.3,harveyvisual,2.1,[],8,0.75,
3,dot,0.3,['dot'],['density'],black,0,32,32,32,,,13.600230932235718,13.313196897506714,13.613191843032837,dot,"[0.1, 0.06, 0.06]","[[0.29938275938101017, 0.44415474715472736], [0.13070782598704628, 0.5557174004537693], [0.11832456902218637, 0.3273615767427578]]",density,black,,,N012,visual,3,[],"['1', '2', '3', '4']",1,2023.2.3,harveyvisual,2.1,[],8,0.75,
0,pause,0.4,None,None,None,0,33,33,33,,,,,,,,,,,,,N012,visual,3,[],"['1', '2', '3', '4']",1,2023.2.3,harveyvisual,2.1,[],8,0.75,
3,dot,0.3,['dot'],['density'],white,0,34,34,34,,,14.300211906433105,14.013183832168579,14.313154935836792,dot,"[0.1, 0.1, 0.1]","[[0.5267872668145167, -0.16137547842759675], [0.3420119191573968, -0.036920749927643534], [0.3185462880061428, -0.2399114968218526]]",density,white,,,N012,visual,3,[],"['1', '2', '3', '4']",1,2023.2.3,harveyvisual,2.1,[],8,0.75,
0,pause,0.4,None,None,None,0,35,35,35,,,,,,,,,,,1,14.2065110206604,N012,visual,3,[],"['1', '2', '3', '4']",1,2023.2.3,harveyvisual,2.1,[],8,0.75,
4,dot,0.3,['dot'],['density'],black,0,36,36,36,,,15.000231981277466,14.713171005249023,15.013162851333618,dot,"[0.08, 0.1, 0.06, 0.06]","[[-0.43942495523079517, -0.22401056498097033], [-0.009260832099230759, -0.1633376679159051], [-0.21598309108097546, -0.10172603009605206], [-0.2278206133413005, -0.33154874685782076]]",density,black,,,N012,visual,3,[],"['1', '2', '3', '4']",1,2023.2.3,harveyvisual,2.1,[],8,0.75,
0,pause,0.4,None,None,None,0,37,37,37,,,,,,,,,,,,,N012,visual,3,[],"['1', '2', '3', '4']",1,2023.2.3,harveyvisual,2.1,[],8,0.75,
4,dot,0.3,['dot'],['density'],black,0,38,38,38,,,15.70022702217102,15.413164854049683,15.713132858276367,dot,"[0.1, 0.1, 0.06, 0.1]","[[0.08172100217045614, 0.5402562525463245], [-0.024891988969352973, 0.31595276793208527], [-0.14685316472848742, 0.5184788481920529], [-0.2646655063210597, 0.3159281349431851]]",density,black,,,N012,visual,3,[],"['1', '2', '3', '4']",1,2023.2.3,harveyvisual,2.1,[],8,0.75,
0,pause,0.4,None,None,None,0,39,39,39,,,,,,,,,,,,,N012,visual,3,[],"['1', '2', '3', '4']",1,2023.2.3,harveyvisual,2.1,[],8,0.75,
4,dot,0.3,['dot'],['density'],black,0,40,40,40,,,16.400233030319214,16.113128900527954,16.413116931915283,dot,"[0.1, 0.08, 0.08, 0.08]","[[-0.47693618450386616, -0.1525114564248906], [-0.12413069550496705, 0.03327587270375396], [-0.32964510574757994, -0.012304557788591533], [-0.22851041427491325, -0.22018408257550984]]",density,black,,,N012,visual,3,[],"['1', '2', '3', '4']",1,2023.2.3,harveyvisual,2.1,[],8,0.75,
0,pause,0.4,None,None,None,0,41,41,41,,,,,,,,,,,,,N012,visual,3,[],"['1', '2', '3', '4']",1,2023.2.3,harveyvisual,2.1,[],8,0.75,
4,dot,0.3,['dot'],['density'],black,0,42,42,42,,,17.100210905075073,16.81316900253296,17.113109827041626,dot,"[0.1, 0.06, 0.06, 0.08]","[[-0.34940937311115045, -0.11648702989399858], [-0.2695829051223266, -0.4589438614516443], [-0.4698604504367728, -0.3018413850444449], [-0.18849712946501163, -0.26902343222239633]]",density,black,,,N012,visual,3,[],"['1', '2', '3', '4']",1,2023.2.3,harveyvisual,2.1,[],8,0.75,
0,pause,0.4,None,None,None,0,43,43,43,,,,,,,,,,,,,N012,visual,3,[],"['1', '2', '3', '4']",1,2023.2.3,harveyvisual,2.1,[],8,0.75,
4,dot,0.3,['dot'],['density'],black,0,44,44,44,,,17.80021595954895,17.513093948364258,17.813086986541748,dot,"[0.08, 0.1, 0.08, 0.1]","[[-0.1266132934267609, -0.4419116806690939], [0.09906976576587005, -0.33923851916676484], [0.1053941350115203, -0.5768907290059295], [0.29145715672269834, -0.49787884973145785]]",density,black,,,N012,visual,3,[],"['1', '2', '3', '4']",1,2023.2.3,harveyvisual,2.1,[],8,0.75,
0,pause,0.4,None,None,None,0,45,45,45,,,,,,,,,,,,,N012,visual,3,[],"['1', '2', '3', '4']",1,2023.2.3,harveyvisual,2.1,[],8,0.75,
4,dot,0.3,['dot'],['density'],black,0,46,46,46,,,18.500207901000977,18.21321201324463,18.51517081260681,dot,"[0.1, 0.06, 0.1, 0.1]","[[-0.0389916918612136, -0.388752419995929], [-0.2709884701808293, -0.36873671266769453], [0.09349318837137091, -0.23801008290575854], [-0.09100040788429245, -0.11490803606521542]]",density,black,,,N012,visual,3,[],"['1', '2', '3', '4']",1,2023.2.3,harveyvisual,2.1,[],8,0.75,
0,pause,0.4,None,None,None,0,47,47,47,,,,,,,,,,,,,N012,visual,3,[],"['1', '2', '3', '4']",1,2023.2.3,harveyvisual,2.1,[],8,0.75,
5,dot,0.3,['dot'],['density'],black,0,48,48,48,,,19.200214862823486,18.913064002990723,19.21307396888733,dot,"[0.1, 0.06, 0.08, 0.06, 0.06]","[[-0.053215572458232586, 0.27221330895143253], [0.10089702531331296, 0.1334794413224796], [0.12897289155288158, 0.4002796015157326], [0.3022660506716914, 0.02685289149411272], [0.2804295634962893, 0.24950018434757285]]",density,black,,,N012,visual,3,[],"['1', '2', '3', '4']",1,2023.2.3,harveyvisual,2.1,[],8,0.75,
0,pause,0.4,None,None,None,0,49,49,49,,,,,,,,,,,,,N012,visual,3,[],"['1', '2', '3', '4']",1,2023.2.3,harveyvisual,2.1,[],8,0.75,
5,dot,0.3,['dot'],['density'],black,0,50,50,50,,,19.90022087097168,19.613057851791382,19.91307783126831,dot,"[0.1, 0.06, 0.1, 0.06, 0.08]","[[0.07471778162596296, -0.10525453490666745], [0.30258431325283514, -0.18125951612401361], [-0.10797831538154114, 0.025200229490558432], [0.07898181201564736, 0.11749757771993925], [0.31731369449760916, 0.032388289652815004]]",density,black,,,N012,visual,3,[],"['1', '2', '3', '4']",1,2023.2.3,harveyvisual,2.1,[],8,0.75,
0,pause,0.4,None,None,None,0,51,51,51,,,,,,,,,,,,,N012,visual,3,[],"['1', '2', '3', '4']",1,2023.2.3,harveyvisual,2.1,[],8,0.75,
5,dot,0.3,['dot'],['density'],black,0,52,52,52,,,20.600214958190918,20.313040018081665,20.613027811050415,dot,"[0.06, 0.1, 0.08, 0.1, 0.06]","[[0.4409169755572007, 0.017856988789309493], [0.10933872532765951, -0.20637645515835812], [0.27728831588229885, 0.198954967346464], [0.3100556643305453, -0.16532657838491105], [0.11148968869271939, 0.006469487304542018]]",density,black,,,N012,visual,3,[],"['1', '2', '3', '4']",1,2023.2.3,harveyvisual,2.1,[],8,0.75,
0,pause,0.4,None,None,None,0,53,53,53,,,,,,,,,,,,,N012,visual,3,[],"['1', '2', '3', '4']",1,2023.2.3,harveyvisual,2.1,[],8,0.75,
5,dot,0.3,['dot'],['density'],black,0,54,54,54,,,21.300216913223267,21.01302981376648,21.313007831573486,dot,"[0.08, 0.1, 0.1, 0.08, 0.1]","[[-0.11834215492801986, 0.412508379109845], [0.31881799646300274, 0.30859303438359803], [-0.06368743078099719, 0.10105058071702504], [0.1133485112468387, 0.46262203184429457], [0.11957051434631445, 0.24197418837926052]]",density,black,,,N012,visual,3,[],"['1', '2', '3', '4']",1,2023.2.3,harveyvisual,2.1,[],8,0.75,
0,pause,0.4,None,None,None,0,55,55,55,,,,,,,,,,,,,N012,visual,3,[],"['1', '2', '3', '4']",1,2023.2.3,harveyvisual,2.1,[],8,0.75,
5,dot,0.3,['dot'],['density'],black,0,56,56,56,,,22.000226974487305,21.713019847869873,22.013000011444092,dot,"[0.08, 0.1, 0.06, 0.06, 0.06]","[[-0.0036269740154891753, 0.5431219823242713], [-0.2646325594942043, 0.5073179604697073], [-0.41902475937036154, 0.37311436690984484], [-0.007163214206743488, 0.2887893175302695], [-0.2156098228659233, 0.2684642371109035]]",density,black,,,N012,visual,3,[],"['1', '2', '3', '4']",1,2023.2.3,harveyvisual,2.1,[],8,0.75,
0,pause,0.4,None,None,None,0,57,57,57,,,,,,,,,,,,,N012,visual,3,[],"['1', '2', '3', '4']",1,2023.2.3,harveyvisual,2.1,[],8,0.75,
5,dot,0.3,['dot'],['density'],black,0,58,58,58,,,22.70022201538086,22.412993907928467,22.71297788619995,dot,"[0.1, 0.1, 0.1, 0.1, 0.06]","[[0.33660852042816714, -0.448935078303268], [0.16237328695183198, -0.028906365321866932], [0.003149504206933677, -0.1844463225559013], [0.4065340125681681, -0.22407981263326276], [0.20027486954239768, -0.2346061295568129]]",density,black,,,N012,visual,3,[],"['1', '2', '3', '4']",1,2023.2.3,harveyvisual,2.1,[],8,0.75,
0,pause,0.4,None,None,None,0,59,59,59,,,,,,,,,,,,,N012,visual,3,[],"['1', '2', '3', '4']",1,2023.2.3,harveyvisual,2.1,[],8,0.75,
6,dot,0.3,['dot'],['density'],white,0,60,60,60,,,23.40022587776184,23.11297297477722,23.412954807281494,dot,"[0.1, 0.06, 0.1, 0.06, 0.1, 0.1]","[[-0.3078382271761739, 0.4361778186671046], [-0.059169983783578364, 0.44796520308269433], [-0.3209935464877752, 0.22545519901795916], [-0.10826469778565927, 0.24929594343002343], [-0.016554185736113114, 0.06783813438016018], [-0.29360476626160575, 0.00756342739423081]]",density,white,,,N012,visual,3,[],"['1', '2', '3', '4']",1,2023.2.3,harveyvisual,2.1,[],8,0.75,
0,pause,0.4,None,None,None,0,61,61,61,,,,,,,,,,,1,23.305643796920776,N012,visual,3,[],"['1', '2', '3', '4']",1,2023.2.3,harveyvisual,2.1,[],8,0.75,
6,dot,0.3,['dot'],['density'],black,0,62,62,62,,,24.100214958190918,23.812949895858765,24.112936973571777,dot,"[0.08, 0.1, 0.08, 0.06, 0.08, 0.1]","[[-0.36904347190091025, 0.2789229011504548], [-0.01038079434194998, 0.053649704929766846], [-0.08735338951653393, 0.578282782753283], [5.153534382930422e-05, 0.38446941554394387], [-0.22753401468201206, 0.43210907521897474], [-0.14647282530567177, 0.24517240432070728]]",density,black,,,N012,visual,3,[],"['1', '2', '3', '4']",1,2023.2.3,harveyvisual,2.1,[],8,0.75,
0,pause,0.4,None,None,None,0,63,63,63,,,,,,,,,,,,,N012,visual,3,[],"['1', '2', '3', '4']",1,2023.2.3,harveyvisual,2.1,[],8,0.75,
6,dot,0.3,['dot'],['density'],black,0,64,64,64,,,24.80022883415222,24.51706290245056,24.812925815582275,dot,"[0.08, 0.1, 0.08, 0.1, 0.1, 0.06]","[[-0.060066269329224556, -0.3459973645598818], [-0.2267112282887438, -0.46433083725857055], [-0.03368736353914721, -0.0592740518520544], [0.1129416353875032, -0.20466059509733167], [0.13908697530976044, -0.42386339769443276], [-0.2931789080149146, -0.2669036372638095]]",density,black,,,N012,visual,3,[],"['1', '2', '3', '4']",1,2023.2.3,harveyvisual,2.1,[],8,0.75,
0,pause,0.4,None,None,None,0,65,65,65,,,,,,,,,,,,,N012,visual,3,[],"['1', '2', '3', '4']",1,2023.2.3,harveyvisual,2.1,[],8,0.75,
6,dot,0.3,['dot'],['density'],black,0,66,66,66,,,25.500221014022827,25.212925910949707,25.512902975082397,dot,"[0.08, 0.08, 0.1, 0.1, 0.1, 0.06]","[[0.1643264729387965, -0.2471077239796436], [-0.22534804549937193, -0.4918728234310363], [-0.026166131246113146, -0.09278119687647148], [-0.24451989516519138, -0.21339523607155425], [0.11868454116144263, -0.4574197693624388], [-0.058907778787058426, -0.30919141315076737]]",density,black,,,N012,visual,3,[],"['1', '2', '3', '4']",1,2023.2.3,harveyvisual,2.1,[],8,0.75,
0,pause,0.4,None,None,None,0,67,67,67,,,,,,,,,,,,,N012,visual,3,[],"['1', '2', '3', '4']",1,2023.2.3,harveyvisual,2.1,[],8,0.75,
6,dot,0.3,['dot'],['density'],white,0,68,68,68,,,26.2002170085907,25.912900924682617,26.21301794052124,dot,"[0.1, 0.06, 0.06, 0.08, 0.06, 0.06]","[[-0.12151555870586603, -0.4812968000001843], [0.16790488833295267, -0.2471088416996458], [0.27214716196035416, -0.49820278546509117], [-0.038147587524033764, -0.29309333197091036], [0.014949188681413147, -0.08915939926713055], [0.06798063624072649, -0.5852336971646088]]",density,white,,,N012,visual,3,[],"['1', '2', '3', '4']",1,2023.2.3,harveyvisual,2.1,[],8,0.75,
0,pause,0.4,None,None,None,0,69,69,69,,,,,,,,,,,1,26.126961946487427,N012,visual,3,[],"['1', '2', '3', '4']",1,2023.2.3,harveyvisual,2.1,[],8,0.75,
6,dot,0.3,['dot'],['density'],black,0,70,70,70,,,26.900210857391357,26.61289381980896,26.9129319190979,dot,"[0.06, 0.08, 0.08, 0.1, 0.08, 0.1]","[[-0.5042184434856596, 0.24959378884587158], [-0.14877643798118484, -0.059020126001740114], [-0.46546181494132466, -0.1471818588402077], [-0.26957518187208745, -0.22263810459524838], [-0.2342448443914648, 0.21754944417529726], [-0.37109182385784195, 0.03297203532481631]]",density,black,,,N012,visual,3,[],"['1', '2', '3', '4']",1,2023.2.3,harveyvisual,2.1,[],8,0.75,
0,pause,0.4,None,None,None,0,71,71,71,,,,,,,,,,,,,N012,visual,3,[],"['1', '2', '3', '4']",1,2023.2.3,harveyvisual,2.1,[],8,0.75,
7,dot,0.3,['dot'],['density'],black,0,72,72,72,,,27.60020899772644,27.312912940979004,27.612864017486572,dot,"[0.06, 0.1, 0.06, 0.08, 0.1, 0.06, 0.06]","[[0.27964692832129656, -0.15500474148311624], [0.48019533028943556, 0.09933774746227163], [0.08203545767143021, 0.28019381302663365], [0.05572057582720619, -0.1426303369841539], [0.31711281236335803, 0.2944831276535668], [-0.041479771322150735, 0.11885700406191958], [0.21045310206912196, 0.07075003364957701]]",density,black,,,N012,visual,3,[],"['1', '2', '3', '4']",1,2023.2.3,harveyvisual,2.1,[],8,0.75,
0,pause,0.4,None,None,None,0,73,73,73,,,,,,,,,,,,,N012,visual,3,[],"['1', '2', '3', '4']",1,2023.2.3,harveyvisual,2.1,[],8,0.75,
7,dot,0.3,['dot'],['density'],black,0,74,74,74,,,28.30023694038391,28.01285481452942,28.3128399848938,dot,"[0.06, 0.1, 0.1, 0.06, 0.08, 0.08, 0.08]","[[-0.1639205104410485, 0.5375336320852997], [0.13665370749938832, 0.21910895384688228], [-0.33778978147358674, 0.04597826141406851], [-0.2268593015261854, 0.22000868921510455], [-0.39586497221419475, 0.3389169711393182], [-0.023188047053822363, 0.08417042442854547], [-0.025005414605345992, 0.38521147685537843]]",density,black,,,N012,visual,3,[],"['1', '2', '3', '4']",1,2023.2.3,harveyvisual,2.1,[],8,0.75,
0,pause,0.4,None,None,None,0,75,75,75,,,,,,,,,,,,,N012,visual,3,[],"['1', '2', '3', '4']",1,2023.2.3,harveyvisual,2.1,[],8,0.75,
7,dot,0.3,['dot'],['density'],black,0,76,76,76,,,29.00022602081299,28.712843894958496,29.012831926345825,dot,"[0.1, 0.06, 0.1, 0.06, 0.06, 0.1, 0.1]","[[0.3032073476866497, 0.39528308644852606], [0.12977480624643314, 0.5338553612741447], [-0.07830532742558233, 0.5277294273979773], [0.000705909343175084, 0.04538848857330666], [-0.11442247498636825, 0.3203087976624053], [0.11424952152856681, 0.31372813630522095], [0.2743618672110132, 0.19233036806743029]]",density,black,,,N012,visual,3,[],"['1', '2', '3', '4']",1,2023.2.3,harveyvisual,2.1,[],8,0.75,
0,pause,0.4,None,None,None,0,77,77,77,,,,,,,,,,,,,N012,visual,3,[],"['1', '2', '3', '4']",1,2023.2.3,harveyvisual,2.1,[],8,0.75,
7,dot,0.3,['dot'],['density'],black,0,78,78,78,,,29.70023202896118,29.413338899612427,29.712824821472168,dot,"[0.08, 0.1, 0.1, 0.1, 0.1, 0.1, 0.08]","[[0.27964692832129656, -0.15500474148311624], [0.48019533028943556, 0.09933774746227163], [0.08203545767143021, 0.28019381302663365], [0.05572057582720619, -0.1426303369841539], [0.31711281236335803, 0.2944831276535668], [-0.041479771322150735, 0.11885700406191958], [0.21045310206912196, 0.07075003364957701]]",density,black,,,N012,visual,3,[],"['1', '2', '3', '4']",1,2023.2.3,harveyvisual,2.1,[],8,0.75,
0,pause,0.4,None,None,None,0,79,79,79,,,,,,,,,,,,,N012,visual,3,[],"['1', '2', '3', '4']",1,2023.2.3,harveyvisual,2.1,[],8,0.75,
7,dot,0.3,['dot'],['density'],black,0,80,80,80,,,30.400235891342163,30.1128089427948,30.413859844207764,dot,"[0.06, 0.08, 0.06, 0.06, 0.06, 0.1, 0.06]","[[-0.1639205104410485, 0.5375336320852997], [0.13665370749938832, 0.21910895384688228], [-0.33778978147358674, 0.04597826141406851], [-0.2268593015261854, 0.22000868921510455], [-0.39586497221419475, 0.3389169711393182], [-0.023188047053822363, 0.08417042442854547], [-0.025005414605345992, 0.38521147685537843]]",density,black,,,N012,visual,3,[],"['1', '2', '3', '4']",1,2023.2.3,harveyvisual,2.1,[],8,0.75,
0,pause,0.4,None,None,None,0,81,81,81,,,,,,,,,,,,,N012,visual,3,[],"['1', '2', '3', '4']",1,2023.2.3,harveyvisual,2.1,[],8,0.75,
7,dot,0.3,['dot'],['density'],white,0,82,82,82,,,31.100210905075073,30.812814950942993,31.112771034240723,dot,"[0.08, 0.1, 0.1, 0.08, 0.06, 0.1, 0.08]","[[-0.3423230189937584, -0.41219609722212536], [-0.1182323968952694, -0.35552357509158045], [-0.4111032443031386, -0.006313161275750597], [-0.5095560862941229, -0.2529410328503813], [-0.2588176969072235, -0.18091026219072012], [-0.0026253510642934245, -0.12197054074907589], [-0.16586784627322051, 0.0941069694468023]]",density,white,,,N012,visual,3,[],"['1', '2', '3', '4']",1,2023.2.3,harveyvisual,2.1,[],8,0.75,
0,pause,0.4,None,None,None,0,83,83,83,,,,,,,,,,,1,30.98479390144348,N012,visual,3,[],"['1', '2', '3', '4']",1,2023.2.3,harveyvisual,2.1,[],8,0.75,
8,dot,0.3,['dot'],['density'],black,0,84,84,84,,,31.800217866897583,31.512781858444214,31.812773942947388,dot,"[0.1, 0.1, 0.06, 0.08, 0.06, 0.1, 0.1, 0.06]","[[0.08034727882022866, 0.21485544138691295], [0.4485208087802622, -0.24912681836757106], [0.26129939989417056, 0.09257513963058502], [0.557413308755299, 0.1511846349250138], [0.2634990941728302, -0.1333032593777782], [0.3632073825345479, 0.269269938976799], [-0.13869722159995554, 0.017464377414806956], [0.4339652718412117, -0.009910074233595774]]",density,black,,,N012,visual,3,[],"['1', '2', '3', '4']",1,2023.2.3,harveyvisual,2.1,[],8,0.75,
0,pause,0.4,None,None,None,0,85,85,85,,,,,,,,,,,,,N012,visual,3,[],"['1', '2', '3', '4']",1,2023.2.3,harveyvisual,2.1,[],8,0.75,
8,dot,0.3,['dot'],['density'],black,0,86,86,86,,,32.500213861465454,32.21287679672241,32.51275300979614,dot,"[0.08, 0.08, 0.1, 0.06, 0.06, 0.08, 0.06, 0.1]","[[0.3129921899656287, 0.2226642157048143], [0.41298599633021416, -0.001766323215076977], [0.013785601627645026, 0.39275307090924344], [-0.009407606244017683, 0.02333367620517349], [0.20163499737495916, -0.08731087547331118], [0.31235423233837933, 0.42762820752661124], [0.10705959187470679, 0.21318577255187057], [-0.13233007013452783, 0.20605257250075132]]",density,black,,,N012,visual,3,[],"['1', '2', '3', '4']",1,2023.2.3,harveyvisual,2.1,[],8,0.75,
0,pause,0.4,None,None,None,0,87,87,87,,,,,,,,,,,,,N012,visual,3,[],"['1', '2', '3', '4']",1,2023.2.3,harveyvisual,2.1,[],8,0.75,
8,dot,0.3,['dot'],['density'],black,0,88,88,88,,,33.20022201538086,32.912781953811646,33.212733030319214,dot,"[0.08, 0.08, 0.08, 0.06, 0.08, 0.08, 0.08, 0.08]","[[-0.08486713456805763, -0.4233549652310786], [-0.34121661687321897, 0.009931669871959016], [0.06179899905610707, -0.01287726204627424], [-0.01080387642187049, -0.20774715314808884], [-0.2259787915635077, -0.2257096572683263], [-0.31087639520469923, -0.4457762681120083], [-0.07938707884489006, 0.17996906985975966], [-0.13919465900414296, -0.03133413505419433]]",density,black,,,N012,visual,3,[],"['1', '2', '3', '4']",1,2023.2.3,harveyvisual,2.1,[],8,0.75,
0,pause,0.4,None,None,None,0,89,89,89,,,,,,,,,,,,,N012,visual,3,[],"['1', '2', '3', '4']",1,2023.2.3,harveyvisual,2.1,[],8,0.75,
8,dot,0.3,['dot'],['density'],white,0,90,90,90,,,33.90022301673889,33.61272883415222,33.912720918655396,dot,"[0.06, 0.1, 0.08, 0.1, 0.08, 0.08, 0.08, 0.06]","[[-0.3290570048964025, 0.45712517183014534], [-0.12351728740192595, 0.19722326774196852], [-0.44617383739254307, -0.0315435053038489], [0.05824565693526591, 0.08769012542188236], [-0.4904255353169048, 0.31423420558286136], [-0.32491150822629034, 0.16696319418744587], [-0.12614658653380179, 0.4043789036591275], [0.10044097339982726, 0.3130264767685494]]",density,white,,,N012,visual,3,[],"['1', '2', '3', '4']",1,2023.2.3,harveyvisual,2.1,[],8,0.75,
0,pause,0.4,None,None,None,0,91,91,91,,,,,,,,,,,1,33.79692983627319,N012,visual,3,[],"['1', '2', '3', '4']",1,2023.2.3,harveyvisual,2.1,[],8,0.75,
8,dot,0.3,['dot'],['density'],black,0,92,92,92,,,34.60022783279419,34.31269192695618,34.612699031829834,dot,"[0.1, 0.06, 0.1, 0.08, 0.06, 0.1, 0.06, 0.08]","[[-0.19427332908310624, 0.44975086906229733], [-0.40583056883657587, 0.41268852933836647], [-0.1064323235824443, 0.09134240931295125], [0.037438273390647224, 0.2873761216870531], [-0.27580465694358225, 0.2567900319995576], [0.047234249799456944, 0.4983172858691376], [0.15563182967593078, 0.1192504703698398], [-0.32834908909536226, -0.014402300111889832]]",density,black,,,N012,visual,3,[],"['1', '2', '3', '4']",1,2023.2.3,harveyvisual,2.1,[],8,0.75,
0,pause,0.4,None,None,None,0,93,93,93,,,,,,,,,,,,,N012,visual,3,[],"['1', '2', '3', '4']",1,2023.2.3,harveyvisual,2.1,[],8,0.75,
8,dot,0.3,['dot'],['density'],black,0,94,94,94,,,35.300220012664795,35.01269793510437,35.315279960632324,dot,"[0.08, 0.06, 0.08, 0.06, 0.06, 0.1, 0.06, 0.08]","[[0.2715518471235014, -0.4245138665073026], [0.03602391524707561, -0.40638782213015096], [0.4828297141312073, -0.09119901312376678], [0.02835794216237903, 0.028275321652194735], [-0.0895445032969687, -0.19822740391127236], [0.3178997883629752, 0.08245100984997318], [0.21920060966397442, -0.22342839817001514], [0.46807969757011175, -0.32427319705723295]]",density,black,,,N012,visual,3,[],"['1', '2', '3', '4']",1,2023.2.3,harveyvisual,2.1,[],8,0.75,
0,pause,0.4,None,None,None,0,95,95,95,,,,,,,,,,,,,N012,visual,3,[],"['1', '2', '3', '4']",1,2023.2.3,harveyvisual,2.1,[],8,0.75,
9,dot,0.3,['dot'],['density'],black,0,96,96,96,,,36.00022888183594,35.71267580986023,36.01267194747925,dot,"[0.08, 0.08, 0.08, 0.08, 0.08, 0.06, 0.1, 0.08, 0.1]","[[0.17250841666444466, -0.5173949811024123], [-0.03744062107829021, -0.3895067986023326], [0.30010350549611725, -0.35742528465303014], [0.33064876224298684, -0.08057424749072183], [-0.16743636965090838, -0.09291053242622109], [0.1226827020066543, -0.24711763375004436], [0.047527772487498496, -0.037432207059122605], [0.20928928941955194, 0.09999474740890861], [-0.30040876562534896, -0.42726910911839744]]",density,black,,,N012,visual,3,[],"['1', '2', '3', '4']",1,2023.2.3,harveyvisual,2.1,[],8,0.75,
0,pause,0.4,None,None,None,0,97,97,97,,,,,,,,,,,,,N012,visual,3,[],"['1', '2', '3', '4']",1,2023.2.3,harveyvisual,2.1,[],8,0.75,
9,dot,0.3,['dot'],['density'],black,0,98,98,98,,,36.70022892951965,36.41265892982483,36.7126669883728,dot,"[0.06, 0.06, 0.08, 0.06, 0.06, 0.08, 0.08, 0.06, 0.06]","[[0.43694394638140777, -0.3313910020207278], [-0.12671083892604185, -0.2904925475365486], [0.20104083284362928, 0.10806727359081147], [0.1376754545064979, -0.09924520624161907], [0.19021248837847174, -0.31516489548878085], [0.3653456942078643, -0.09076399745187974], [0.1403131072824284, -0.5562242851951704], [-0.005445667935095978, 0.0898710966384087], [-0.11923067905189093, -0.07827803450029165]]",density,black,,,N012,visual,3,[],"['1', '2', '3', '4']",1,2023.2.3,harveyvisual,2.1,[],8,0.75,
0,pause,0.4,None,None,None,0,99,99,99,,,,,,,,,,,,,N012,visual,3,[],"['1', '2', '3', '4']",1,2023.2.3,harveyvisual,2.1,[],8,0.75,
9,dot,0.3,['dot'],['density'],black,0,100,100,100,,,37.40022397041321,37.11264395713806,37.41263294219971,dot,"[0.1, 0.08, 0.1, 0.08, 0.06, 0.08, 0.1, 0.06, 0.06]","[[0.1897356465634014, 0.5279682873488559], [0.32378874068874214, 0.21764355715549547], [-0.02258392144612686, 0.1538672511300514], [0.18768343673053406, 0.06258281167321837], [0.4001161654736714, 0.031858124591620046], [0.03700916369328307, 0.37047593331345124], [0.18810723797826276, -0.14148750743097815], [-0.1502435433980558, -0.03059561201510329], [-0.21808568641731116, 0.28352793851031305]]",density,black,,,N012,visual,3,[],"['1', '2', '3', '4']",1,2023.2.3,harveyvisual,2.1,[],8,0.75,
0,pause,0.4,None,None,None,0,101,101,101,,,,,,,,,,,,,N012,visual,3,[],"['1', '2', '3', '4']",1,2023.2.3,harveyvisual,2.1,[],8,0.75,
9,dot,0.3,['dot'],['density'],black,0,102,102,102,,,38.100215911865234,37.812657833099365,38.11262392997742,dot,"[0.08, 0.06, 0.06, 0.06, 0.08, 0.06, 0.1, 0.06, 0.06]","[[-0.13146557112902973, 0.14116723461389186], [0.2951467361821443, -0.02824752732805288], [0.19428532799116477, -0.23589609671221848], [-0.28731157875063357, -0.1506919145754202], [-0.013954936164563217, -0.2914313940092583], [0.05437169614590384, 0.05057158482376688], [-0.11710547218270359, -0.5628603002908775], [-0.3181416531292253, -0.36750682532956547], [-0.10064922490671671, -0.07835054634105423]]",density,black,,,N012,visual,3,[],"['1', '2', '3', '4']",1,2023.2.3,harveyvisual,2.1,[],8,0.75,
0,pause,0.4,None,None,None,0,103,103,103,,,,,,,,,,,,,N012,visual,3,[],"['1', '2', '3', '4']",1,2023.2.3,harveyvisual,2.1,[],8,0.75,
9,dot,0.3,['dot'],['density'],black,0,104,104,104,,,38.800232887268066,38.51261782646179,38.81260085105896,dot,"[0.06, 0.08, 0.06, 0.1, 0.08, 0.06, 0.1, 0.1, 0.1]","[[-0.4007656520072294, -0.25517300445391483], [-0.002534053661406415, -0.03841937385778563], [0.03867088550537559, -0.37109058839216275], [0.14298263539714814, -0.19121790068267305], [-0.18592892280395246, 0.09800459324165622], [-0.17114407793371844, -0.47763389460370764], [0.20594417137152282, 0.033112046987541804], [-0.3669302527083935, -0.010624696365658668], [-0.20182203610849478, -0.19970173151634407]]",density,black,,,N012,visual,3,[],"['1', '2', '3', '4']",1,2023.2.3,harveyvisual,2.1,[],8,0.75,
0,pause,0.4,None,None,None,0,105,105,105,,,,,,,,,,,,,N012,visual,3,[],"['1', '2', '3', '4']",1,2023.2.3,harveyvisual,2.1,[],8,0.75,
9,dot,0.3,['dot'],['density'],black,0,106,106,106,,,39.50023293495178,39.21257400512695,39.51256084442139,dot,"[0.08, 0.06, 0.08, 0.06, 0.1, 0.1, 0.08, 0.06, 0.1]","[[0.15603996265512696, -0.0872053538661942], [-0.29211765964195757, -0.04110002513656992], [-0.071087909845803, -0.33174387981618686], [-0.13011395490928096, 0.2584597801106329], [-0.08364541374476576, -0.0980664528631432], [-0.26669569773039664, -0.25481833902542456], [-0.35582819085755485, -0.4494505046102014], [-0.1269674344078877, -0.5566175884613933], [0.011820482989003244, 0.07934247632600783]]",density,black,,,N012,visual,3,[],"['1', '2', '3', '4']",1,2023.2.3,harveyvisual,2.1,[],8,0.75,
0,pause,0.4,None,None,None,0,107,107,107,,,,,,,,,,,,,N012,visual,3,[],"['1', '2', '3', '4']",1,2023.2.3,harveyvisual,2.1,[],8,0.75,
20,dot,0.3,['dot'],['density'],black,0,108,108,108,,,40.200222969055176,39.912566900253296,40.2125358581543,dot,"[0.06, 0.06, 0.06, 0.06, 0.1, 0.06, 0.08, 0.1, 0.06, 0.06, 0.06, 0.06, 0.06, 0.08, 0.08, 0.08, 0.08, 0.08, 0.06, 0.08]","[[0.32093536570793146, -0.4188627871094054], [0.5104768493280271, -0.31413214320646465], [-0.539528289847279, -0.18516982573178492], [-0.05493255253981255, 0.3985927160310815], [0.5940278215491707, 0.02659874719846453], [-0.04147006238242956, -0.1650858275267521], [-0.269192810856832, -0.5089992773707411], [-0.5929299449211054, 0.10745517644901466], [-0.32036751968042015, 0.2377614879053479], [0.03236947726780748, 0.09930143143087478], [0.22644437508623905, 0.23769399819871295], [0.2331444388755911, 0.46807260323090216], [0.4922666946876829, 0.2950535517557991], [0.4129800514765253, -0.04564356797022179], [-0.18201541017827833, -0.31636966272754247], [0.0386455925133693, -0.3700031906864135], [-0.18086041411039816, -0.029316066350876135], [0.02358294790814608, -0.5668240417999567], [-0.43451974265616233, 0.3904773447667028], [0.18720977268084982, -0.1411549454808973]]",density,black,,,N012,visual,3,[],"['1', '2', '3', '4']",1,2023.2.3,harveyvisual,2.1,[],8,0.75,
0,pause,0.4,None,None,None,0,109,109,109,,,,,,,,,,,,,N012,visual,3,[],"['1', '2', '3', '4']",1,2023.2.3,harveyvisual,2.1,[],8,0.75,
20,dot,0.3,['dot'],['density'],black,0,110,110,110,,,40.900237798690796,40.61255383491516,40.912585973739624,dot,"[0.08, 0.06, 0.08, 0.1, 0.08, 0.1, 0.06, 0.08, 0.08, 0.08, 0.1, 0.08, 0.08, 0.1, 0.06, 0.1, 0.1, 0.08, 0.06, 0.06]","[[-0.5284672302236845, 0.09358184056493579], [-0.16397234971337327, -0.10396709367814178], [-0.25548804823067406, 0.07806719038716758], [0.24398997377031306, -0.0944514442699051], [-0.5274259392403166, -0.12709502349000898], [0.3168328340135331, -0.3042564743069095], [-0.4913293290782092, 0.286646731522137], [0.5689274172712809, -0.09957466373705307], [-0.19420996033324406, -0.434223812818726], [0.05504240616767753, 0.18644550850259478], [-0.41637236769078445, -0.29206952122458674], [0.14564184393958113, 0.4514005502315962], [0.4728166872806637, 0.23114895888730652], [-0.09514893641297195, 0.37530537597792946], [0.3485681169254876, 0.45072903521884783], [0.13748909424323374, -0.5486059511349349], [-0.005187625324812872, -0.3896574099120164], [-0.017244784600031426, 0.5622569860405204], [0.05130267873169414, -0.03579140720503027], [0.2630517209349915, 0.22404016713752806]]",density,black,,,N012,visual,3,[],"['1', '2', '3', '4']",1,2023.2.3,harveyvisual,2.1,[],8,0.75,
0,pause,0.4,None,None,None,0,111,111,111,,,,,,,,,,,,,N012,visual,3,[],"['1', '2', '3', '4']",1,2023.2.3,harveyvisual,2.1,[],8,0.75,
20,dot,0.3,['dot'],['density'],black,0,112,112,112,,,41.600212812423706,41.312551975250244,41.612531900405884,dot,"[0.08, 0.06, 0.1, 0.06, 0.06, 0.06, 0.08, 0.08, 0.08, 0.08, 0.06, 0.1, 0.08, 0.1, 0.06, 0.06, 0.1, 0.08, 0.08, 0.08]","[[0.2591076725503716, -0.10109154009484272], [-0.27930688376756807, -0.15782500668295474], [0.037580239894155376, 0.5751943480012349], [-0.30979423487738056, 0.4394164963480449], [-0.002166428629910011, -0.48929419510869276], [-0.5737061261192018, -0.003432653430138405], [-0.05842614815374858, 0.31137022814536874], [0.5181925659547458, -0.2105847164666837], [0.4885931968995044, 0.18140226062605136], [-0.10718260380336364, -0.06445820731766572], [0.400553420060655, -0.4502274407621465], [0.27937053797236633, 0.27806242290839056], [-0.16662680385035628, -0.3432266205432822], [-0.4154964970514601, -0.3796149706038901], [-0.37033931326042735, 0.12204902888740965], [-0.4698626232245521, -0.17804795395898598], [-0.2800667262787822, -0.5125864759437946], [-0.49736733964564694, 0.26368765033736574], [0.6051108475211128, -0.008548920004628095], [0.2164370020233295, -0.5525686273147911]]",density,black,,,N012,visual,3,[],"['1', '2', '3', '4']",1,2023.2.3,harveyvisual,2.1,[],8,0.75,
0,pause,0.4,None,None,None,0,113,113,113,,,,,,,,,,,,,N012,visual,3,[],"['1', '2', '3', '4']",1,2023.2.3,harveyvisual,2.1,[],8,0.75,
20,dot,0.3,['dot'],['density'],black,0,114,114,114,,,42.300230979919434,42.03024482727051,42.31363892555237,dot,"[0.06, 0.08, 0.08, 0.08, 0.06, 0.08, 0.1, 0.08, 0.1, 0.06, 0.08, 0.1, 0.08, 0.06, 0.06, 0.08, 0.1, 0.1, 0.1, 0.06]","[[-0.40850179179344953, 0.29650623744796045], [0.35030022745396727, -0.48669021600892626], [-0.5596590684348431, -0.13262632124107998], [-0.3140668909439899, 0.05807527678220603], [0.08370773841962609, -0.5290768990107588], [-0.20903281143148467, -0.43356978359292964], [0.16833317647083157, 0.07791525630978058], [0.3867995668925175, 0.39266052515547223], [-0.07043885463636024, -0.2916699758673036], [-0.021281055262365345, 0.12313921633611202], [0.39158826015315606, 0.10919612684662383], [0.4744743162268682, -0.2877139481941373], [0.02976657294144669, 0.37683751290482825], [-0.3693859621942614, -0.27068958389250025], [-0.5414096292347669, 0.057360096667831206], [0.11418642587051842, 0.5936274030629989], [0.20634195396209742, -0.24397223400469303], [0.5419740707261543, -0.04208722672658341], [-0.19408516263761588, 0.38463168228110134], [-0.22989112745509926, -0.13687440375824644]]",density,black,,,N012,visual,3,[],"['1', '2', '3', '4']",1,2023.2.3,harveyvisual,2.1,[],8,0.75,
0,pause,0.4,None,None,None,0,115,115,115,,,,,,,,,,,,,N012,visual,3,[],"['1', '2', '3', '4']",1,2023.2.3,harveyvisual,2.1,[],8,0.75,
20,dot,0.3,['dot'],['density'],black,0,116,116,116,,,43.00022482872009,42.71267580986023,43.0125048160553,dot,"[0.08, 0.06, 0.1, 0.08, 0.08, 0.1, 0.06, 0.1, 0.06, 0.08, 0.06, 0.06, 0.08, 0.1, 0.06, 0.08, 0.1, 0.08, 0.08, 0.1]","[[-0.3168542932455697, -0.23041453567526238], [-0.030819175277938426, -0.3686036768928855], [0.18929775413918326, 0.016353021020717784], [0.520268332074315, -0.06802103067041415], [-0.6014784052531029, -0.0036485565863140917], [-0.5353241053506719, -0.2380488710728698], [0.3195368503179411, 0.4092993141362544], [0.07835148528696112, -0.5957163857753273], [0.2464353267388073, -0.46684149105444633], [-0.27325990286071156, 0.28177576072302435], [-0.3801541338384015, 0.0780299755370586], [-0.0356505050003858, 0.1692429813271632], [0.33703658415617366, 0.15260384085066592], [-0.5232191886909754, 0.2832939699308738], [-0.2405046806761535, -0.5135313607874595], [0.08269048577032401, 0.5656072616202205], [0.35411621297304985, -0.2673330047293377], [-0.2861197120070623, 0.5196944044162005], [-0.014474350132200997, 0.38024769481157694], [0.5666299156912421, 0.16802464551277538]]",density,black,,,N012,visual,3,[],"['1', '2', '3', '4']",1,2023.2.3,harveyvisual,2.1,[],8,0.75,
0,pause,0.4,None,None,None,0,117,117,117,,,,,,,,,,,,,N012,visual,3,[],"['1', '2', '3', '4']",1,2023.2.3,harveyvisual,2.1,[],8,0.75,
20,dot,0.3,['dot'],['density'],white,0,118,118,118,,,43.70021080970764,43.412513971328735,43.712469816207886,dot,"[0.1, 0.08, 0.08, 0.06, 0.06, 0.1, 0.08, 0.08, 0.08, 0.1, 0.1, 0.1, 0.1, 0.08, 0.1, 0.1, 0.06, 0.06, 0.08, 0.1]","[[-0.26077262412692365, 0.4084754884678399], [0.5687938403655243, 0.034345239457915094], [0.23797798074184884, -0.49061572094202927], [-0.37575048212802986, -0.06982510820084925], [-0.49916616015025916, 0.3413929934696748], [-0.45614609343359724, -0.3978326986796525], [-0.20812588659906095, -0.5115420301276733], [0.2313787146644264, -0.054512050053938554], [-0.528316132555491, 0.11244783395660468], [0.22560130092479247, 0.15319488462456166], [0.3574093599000182, 0.426334587066591], [0.008416797409437793, -0.22109157470290902], [-0.048148566410523674, 0.3516991729285385], [0.35817724055845224, -0.2496187635790811], [0.5688042479283483, -0.18519427269450256], [-0.5674252940366815, -0.1951639489558871], [-0.13144483584384653, 0.04989237763039123], [-0.02542317987355447, -0.5890571715775752], [0.14713490758822279, 0.5409059166115344], [0.42367943459257906, 0.17245624636593515]]",density,white,,,N012,visual,3,[],"['1', '2', '3', '4']",1,2023.2.3,harveyvisual,2.1,[],8,0.75,
0,pause,0.4,None,None,None,0,119,119,119,,,,,,,,,,,1,43.67211580276489,N012,visual,3,[],"['1', '2', '3', '4']",1,2023.2.3,harveyvisual,2.1,[],8,0.75,
20,dot,0.3,['dot'],['density'],black,0,120,120,120,,,44.40023398399353,44.11252403259277,44.41244888305664,dot,"[0.08, 0.06, 0.06, 0.08, 0.1, 0.1, 0.1, 0.1, 0.08, 0.1, 0.08, 0.08, 0.1, 0.08, 0.1, 0.08, 0.06, 0.08, 0.06, 0.1]","[[-0.6005469563345631, 0.07432941608907312], [-0.43855408156637987, -0.3827334253615032], [-0.1049311269596519, -0.24979175813123178], [0.4967200504579855, -0.2835868220003884], [0.2918492338429114, -0.37344891403278035], [0.21467593503170346, -0.1335501801070232], [0.20013335579781166, 0.3971005730424696], [0.37716101438898686, 0.03983573809305496], [-0.051425313508770776, 0.45984210945327986], [-0.4215410187888968, 0.4256123326784713], [0.25891942390364464, 0.21046851204351658], [-0.5706117472615463, -0.12757692507357465], [-0.3624808582943869, 0.09801022246808139], [0.503410731989702, 0.21813297068295068], [0.07756624653786226, 0.08316007155203275], [-0.12804954414038927, 0.10877549865555691], [-0.325886462200238, -0.21341062825233464], [-0.22108301562968707, -0.540173318597483], [-0.025370279265089724, -0.5497634160941395], [0.08056009465111047, -0.35638451277227134]]",density,black,,,N012,visual,3,[],"['1', '2', '3', '4']",1,2023.2.3,harveyvisual,2.1,[],8,0.75,
0,pause,0.4,None,None,None,0,121,121,121,,,,,,,,,,,,,N012,visual,3,[],"['1', '2', '3', '4']",1,2023.2.3,harveyvisual,2.1,[],8,0.75,
20,dot,0.3,['dot'],['density'],black,0,122,122,122,,,45.10023880004883,44.81245994567871,45.1124370098114,dot,"[0.08, 0.1, 0.08, 0.06, 0.06, 0.1, 0.06, 0.1, 0.06, 0.1, 0.1, 0.08, 0.06, 0.1, 0.08, 0.06, 0.08, 0.08, 0.1, 0.1]","[[-0.4449180943213006, 0.15674134192892464], [0.32955924267427317, 0.31284249928049657], [-0.09757649060161389, -0.012751713296395129], [0.38652711170217235, -0.4035936296017002], [0.11957123515244428, 0.022570771115577815], [0.5670935270304761, -0.11226795612579422], [-0.2563870073805353, -0.19456495193614365], [0.38715084864293126, 0.07306942718750925], [-0.6033493451209917, 0.02787924275727148], [0.08852894779747089, 0.45054919714999997], [-0.15615919169192932, 0.41295238858477734], [-0.2516539997717058, -0.5490708500920043], [-0.4149307375308921, -0.31665822060710946], [-0.265065815326435, 0.09516178616713866], [0.5667474544013783, 0.18501824229505467], [0.010931307452784145, -0.4483000624506445], [0.34761804373209304, -0.18424775775759222], [0.1426427153821921, -0.25517951197714533], [-0.5647810670289042, -0.15887876343611126], [-0.061897243172313154, -0.23284347165810326]]",density,black,,,N012,visual,3,[],"['1', '2', '3', '4']",1,2023.2.3,harveyvisual,2.1,[],8,0.75,
0,pause,0.4,None,None,None,0,123,123,123,,,,,,,,,,,,,N012,visual,3,[],"['1', '2', '3', '4']",1,2023.2.3,harveyvisual,2.1,[],8,0.75,
20,dot,0.3,['dot'],['density'],black,0,124,124,124,,,45.800215005874634,45.513561964035034,45.81354784965515,dot,"[0.08, 0.06, 0.1, 0.1, 0.06, 0.08, 0.08, 0.08, 0.1, 0.1, 0.1, 0.08, 0.06, 0.1, 0.1, 0.08, 0.1, 0.06, 0.08, 0.1]","[[0.32452977372005787, 0.10391601712065679], [-0.49806827069774107, 0.3354836489189828], [0.10586752409519273, 0.5721779736014507], [0.08754643920863525, 0.2372195161282542], [-0.04844985454592565, -0.5872885740151542], [0.4784086009535412, 0.3571464075359368], [-0.4291033885379631, -0.2406327060691115], [-0.1972311373194237, 0.3575568194531863], [-0.10210734422827661, 0.1447542868001891], [0.238146104303816, -0.33086257895601234], [-0.31645558269460444, -0.5090703353231256], [0.49155455110098123, -0.0765255073705246], [-0.5182902691324041, 0.09837794277214051], [-0.15223841593209436, -0.11990420065263546], [0.1732643785098794, -0.1381959084683126], [-0.009624412021380868, -0.3668409527068598], [-0.5627171305650003, -0.09402952272441795], [0.46891732979752676, -0.35683879393103035], [-0.28024661818179225, 0.052470239159752685], [0.28870120349538664, 0.2966239675491775]]",density,black,,,N012,visual,3,[],"['1', '2', '3', '4']",1,2023.2.3,harveyvisual,2.1,[],8,0.75,
0,pause,0.4,None,None,None,0,125,125,125,,,,,,,,,,,,,N012,visual,3,[],"['1', '2', '3', '4']",1,2023.2.3,harveyvisual,2.1,[],8,0.75,
20,dot,0.3,['dot'],['density'],black,0,126,126,126,,,46.500239849090576,46.212404012680054,46.51238393783569,dot,"[0.06, 0.06, 0.08, 0.1, 0.1, 0.1, 0.1, 0.08, 0.08, 0.06, 0.1, 0.08, 0.1, 0.1, 0.06, 0.06, 0.08, 0.1, 0.06, 0.08]","[[-0.022014146306173488, -0.410957341701239], [-0.3477255984570525, -0.08594066887039675], [0.22409233398553596, 0.394176698296026], [0.4604284145695937, -0.19466633953898443], [-0.1613840287829859, 0.2779963136553819], [-0.4156484698003633, 0.18591853655963664], [-0.010401454746917005, -0.08636395874912273], [0.3271801830164567, 0.19080659176032055], [-0.5500075437733997, -0.02877597052263231], [-0.2919348850226265, -0.5026293019308647], [-0.13704120530967578, 0.07204876936403781], [-0.4138966589471099, -0.30464706184845836], [0.17898072574961177, -0.15838197488986783], [-0.04256017225458353, 0.5179111528416711], [0.5619233622873981, 0.05739735237384036], [0.4888107677138277, 0.34646710410405684], [0.16173509529600905, 0.07233588278019942], [-0.2864757468620593, 0.48501403250392616], [0.10583931020378112, -0.5798121782130983], [-0.21330147630744795, -0.28435031535138144]]",density,black,,,N012,visual,3,[],"['1', '2', '3', '4']",1,2023.2.3,harveyvisual,2.1,[],8,0.75,
0,pause,0.4,None,None,None,0,127,127,127,,,,,,,,,,,,,N012,visual,3,[],"['1', '2', '3', '4']",1,2023.2.3,harveyvisual,2.1,[],8,0.75,
20,dot,0.3,['dot'],['density'],black,0,128,128,128,,,47.20023584365845,46.9123899936676,47.21237301826477,dot,"[0.06, 0.1, 0.08, 0.08, 0.06, 0.08, 0.08, 0.08, 0.1, 0.1, 0.1, 0.06, 0.06, 0.1, 0.06, 0.06, 0.1, 0.08, 0.08, 0.06]","[[0.2053575665558568, 0.495036224397869], [-0.5286430892187911, -0.18782741274084647], [0.5634282407260961, -0.03464311288113037], [0.29013349326694915, -0.047950501065241846], [-0.09197596640009775, 0.5219928932676846], [0.5203593193206041, 0.2651422611082695], [-0.2149262628322094, -0.010173934622694003], [-0.039182108135813354, -0.5210302227981622], [-0.42211695591310794, 0.3313729648822833], [0.14573592583395834, 0.13684904468727188], [-0.06116229559688735, 0.15262328535739478], [0.288755959186608, -0.5305439145000278], [-0.44836159253069685, -0.36490488055416626], [0.10725027769320461, -0.1480189307914982], [0.39173095113321743, -0.23540758629145875], [-0.11448016393490884, -0.3310859350281769], [-0.5694999291442758, 0.06600932374514268], [0.15187721892173378, -0.37075720235061316], [-0.3142776503636932, 0.15959514785717321], [0.3331847444654985, 0.32135484888102994]]",density,black,,,N012,visual,3,[],"['1', '2', '3', '4']",1,2023.2.3,harveyvisual,2.1,[],8,0.75,
0,pause,0.4,None,None,None,0,129,129,129,,,,,,,,,,,,,N012,visual,3,[],"['1', '2', '3', '4']",1,2023.2.3,harveyvisual,2.1,[],8,0.75,
20,dot,0.3,['dot'],['density'],black,0,130,130,130,,,47.90022397041321,47.63016390800476,47.91325902938843,dot,"[0.1, 0.08, 0.06, 0.08, 0.06, 0.08, 0.1, 0.06, 0.1, 0.08, 0.06, 0.06, 0.06, 0.06, 0.08, 0.1, 0.06, 0.08, 0.1, 0.06]","[[-0.33886485467034716, -0.36295229256819167], [-0.2795189131838643, 0.03726856029193826], [-0.21987873117624301, -0.180059705081285], [0.021907356056362293, 0.29301532670239205], [-0.5180979881909438, -0.2757208696695732], [-0.34172823481788284, 0.3738920412293096], [0.3935035533418587, 0.38648873930888833], [0.07022480418948385, -0.44360211170667707], [0.1435748008387273, -0.16318098709582557], [-0.43016183182484746, 0.18276645048912626], [0.4454747276814407, -0.037281119731002677], [0.2073473233706119, 0.14218617423912205], [0.32644003166774604, -0.252742460348757], [0.47146560744613575, 0.15867302608892742], [-0.039237280018925014, -0.27536681164886995], [-0.5215043336505698, -0.08430300900420917], [0.09498835552414031, 0.4902991356730244], [0.022747936297964566, 0.023466710547386138], [0.3715943085533825, -0.46946908816393135], [0.5160735569691627, -0.28697628468383807]]",density,black,,,N012,visual,3,[],"['1', '2', '3', '4']",1,2023.2.3,harveyvisual,2.1,[],8,0.75,
0,pause,0.4,None,None,None,0,131,131,131,,,,,,,,,,,,,N012,visual,3,[],"['1', '2', '3', '4']",1,2023.2.3,harveyvisual,2.1,[],8,0.75,
20,dot,0.3,['dot'],['density'],black,0,132,132,132,,,48.6002140045166,48.31237983703613,48.61548900604248,dot,"[0.06, 0.06, 0.08, 0.1, 0.08, 0.1, 0.08, 0.1, 0.06, 0.1, 0.06, 0.08, 0.06, 0.08, 0.1, 0.06, 0.06, 0.08, 0.1, 0.1]","[[0.041688917912892864, 0.29029985976844364], [0.3678632496907851, 0.3451113986262733], [0.53766715603504, -0.21357641770966168], [0.09732963070834477, -0.10237955238461915], [-0.5517840558749932, 0.20587078284629176], [0.09343496996702938, -0.36791907620190767], [0.3733136803589654, 0.04075117895066416], [-0.14117138746117386, 0.18718641073701203], [-0.3801145619517591, 0.4272222333496503], [-0.5667435299042224, -0.14867273294079497], [0.33275152482434267, -0.15490842894889856], [-0.10283209941334548, -0.01069180749204568], [-0.17332733518730808, 0.5472349282859749], [-0.3535905014117345, 0.05581178149414173], [0.19803352206251468, -0.5709849964473708], [-0.16401339191151987, -0.2768779089407523], [0.24847194274260964, 0.5229160718633239], [0.552665667221493, 0.18481713719282145], [-0.3769319295145894, -0.3043436818342885], [0.39013682706371267, -0.3899772541037484]]",density,black,,,N012,visual,3,[],"['1', '2', '3', '4']",1,2023.2.3,harveyvisual,2.1,[],8,0.75,
0,pause,0.4,None,None,None,0,133,133,133,,,,,,,,,,,,,N012,visual,3,[],"['1', '2', '3', '4']",1,2023.2.3,harveyvisual,2.1,[],8,0.75,
20,dot,0.3,['dot'],['density'],black,0,134,134,134,,,49.30021381378174,49.01235795021057,49.31234097480774,dot,"[0.06, 0.08, 0.06, 0.08, 0.06, 0.06, 0.1, 0.06, 0.06, 0.08, 0.1, 0.08, 0.1, 0.1, 0.06, 0.1, 0.06, 0.06, 0.06, 0.08]","[[0.11606531013990784, 0.17970308585028827], [0.579842630375483, 0.16106772875163972], [-0.3702123834708213, -0.3631841478867439], [0.28338416049453063, -0.1667654570653369], [0.5025071751995817, -0.15756953252808462], [-0.5664862219497139, 0.10419765993883076], [0.032951326680989435, -0.4300453438317479], [-0.09933665844828754, 0.23814265812944246], [-0.34881304219659787, 0.4095817204971108], [0.009956349370928042, 0.44345330631109303], [0.35998034260807976, 0.3016349564908606], [-0.2662957284812883, 0.07560215172622642], [0.32571691176406536, 0.08253733795144913], [-0.4874118600711098, -0.20362461614813732], [-0.0574797255559657, -0.03448321178788882], [0.28701387178264315, -0.3764090876445204], [-0.30999413037614243, -0.12848282082052226], [-0.20033827995842995, -0.4788184599111254], [0.03444351339433693, -0.2030896547363371], [-0.14844805307869763, 0.5653984252346027]]",density,black,,,N012,visual,3,[],"['1', '2', '3', '4']",1,2023.2.3,harveyvisual,2.1,[],8,0.75,
0,pause,0.4,None,None,None,0,135,135,135,,,,,,,,,,,,,N012,visual,3,[],"['1', '2', '3', '4']",1,2023.2.3,harveyvisual,2.1,[],8,0.75,
20,dot,0.3,['dot'],['density'],black,0,136,136,136,,,50.00022602081299,49.71232581138611,50.01231789588928,dot,"[0.08, 0.08, 0.1, 0.08, 0.08, 0.06, 0.06, 0.06, 0.08, 0.1, 0.08, 0.06, 0.1, 0.06, 0.08, 0.1, 0.08, 0.06, 0.06, 0.06]","[[0.5392795525579915, 0.1788219997161702], [0.1394528476011766, -0.15431214078620953], [-0.16067663790968245, -0.31250577261771256], [0.36016946239943815, 0.40577223496243375], [-0.5645170492952778, 0.1908272912319328], [0.36444200994017995, 0.10162985280843428], [-0.11707612657005584, 0.16734747038580133], [0.43693645163804085, -0.37608119465126366], [-0.4844860746249141, -0.2444685832602425], [0.06475338698589361, -0.4456300037949481], [0.0767028037023797, 0.40568874534936317], [-0.46901553569369625, -0.036678831343604945], [-0.1872750793749357, -0.02362522460513139], [-0.26017871602655945, 0.33029147265821657], [0.3281421215910809, -0.11895484378070809], [0.543919619883595, -0.07466396266967343], [-0.16953120349368606, 0.5669765707019752], [-0.2859148201223089, -0.5194183210068312], [-0.3353856533631476, 0.13276948457645987], [0.15190519911884903, 0.15873500864790369]]",density,black,,,N012,visual,3,[],"['1', '2', '3', '4']",1,2023.2.3,harveyvisual,2.1,[],8,0.75,
0,pause,0.4,None,None,None,0,137,137,137,,,,,,,,,,,,,N012,visual,3,[],"['1', '2', '3', '4']",1,2023.2.3,harveyvisual,2.1,[],8,0.75,
20,dot,0.3,['dot'],['density'],black,0,138,138,138,,,50.7002170085907,50.41233992576599,50.71229600906372,dot,"[0.06, 0.1, 0.08, 0.06, 0.08, 0.06, 0.1, 0.1, 0.1, 0.08, 0.06, 0.08, 0.1, 0.1, 0.06, 0.1, 0.06, 0.1, 0.1, 0.1]","[[-0.046977641475546394, -0.14435432992935904], [-0.10810823605539915, 0.2967980538607501], [0.42070341854345183, 0.22455013125115947], [0.27533290401727606, -0.14428498643359877], [0.14222832351238845, 0.3978340872960694], [0.2601833233211144, -0.47681148031593534], [-0.49608852682078813, 0.13971099290433103], [-0.2933617712808917, 0.4036576041520634], [-0.20258938424027206, -0.5396035359886542], [0.5967716446195989, 0.05660630351936076], [-0.10958036269552512, 0.581622762762087], [0.5273450097440823, -0.12000281759607384], [-0.19894384976204904, -0.2764869474193336], [0.2596787933529121, 0.08966986226502349], [-0.2229369127756518, -0.008587952703049795], [0.061133697602527404, 0.09452465820620448], [0.002950928719186008, -0.5433242802598685], [-0.41965750432095206, -0.3374195323869926], [0.28164794137785476, 0.5263594182681821], [-0.4632428059613657, -0.09388034900406894]]",density,black,,,N012,visual,3,[],"['1', '2', '3', '4']",1,2023.2.3,harveyvisual,2.1,[],8,0.75,
0,pause,0.4,None,None,None,0,139,139,139,,,,,,,,,,,,,N012,visual,3,[],"['1', '2', '3', '4']",1,2023.2.3,harveyvisual,2.1,[],8,0.75,
20,dot,0.3,['dot'],['density'],black,0,140,140,140,,,51.40021991729736,51.11228799819946,51.41229295730591,dot,"[0.08, 0.1, 0.06, 0.1, 0.06, 0.1, 0.1, 0.06, 0.06, 0.06, 0.06, 0.08, 0.08, 0.08, 0.06, 0.06, 0.1, 0.1, 0.1, 0.06]","[[-0.05781710991876832, 0.5697318640070765], [0.5727376066664954, -0.12578776063628855], [-0.3095132864294275, 0.5197581238246151], [0.17355186303474024, 0.5327835128550806], [-0.15400738065483344, 0.006728629592339774], [0.40146007683007634, 0.39427978512519746], [-0.23611403224378474, -0.40430471627770515], [0.161176913315907, 0.15286339658828751], [-0.48234423191463754, -0.23145995686093887], [-0.32331326838331514, -0.07990891262658495], [0.11978539396148113, -0.4865410137888932], [-0.07789926663245694, -0.5842080729618837], [-0.4453845544281023, 0.16549218432009638], [0.5721629905203952, 0.1613181129086473], [0.33089693126767983, -0.0021262666268277997], [-0.05761918356354745, -0.2470871741168164], [0.40984854792559655, -0.2345105056748174], [-0.0654474203598634, 0.2772826285068495], [-0.5988372863626659, -0.04866477134413686], [0.18607171187430582, -0.28468854203709465]]",density,black,,,N012,visual,3,[],"['1', '2', '3', '4']",1,2023.2.3,harveyvisual,2.1,[],8,0.75,
0,pause,0.4,None,None,None,0,141,141,141,,,,,,,,,,,,,N012,visual,3,[],"['1', '2', '3', '4']",1,2023.2.3,harveyvisual,2.1,[],8,0.75,
20,dot,0.3,['dot'],['density'],black,0,142,142,142,,,52.10022497177124,51.81228494644165,52.11226797103882,dot,"[0.06, 0.06, 0.1, 0.06, 0.06, 0.1, 0.06, 0.06, 0.06, 0.06, 0.08, 0.06, 0.08, 0.1, 0.1, 0.1, 0.1, 0.08, 0.08, 0.1]","[[-0.34378990875570414, -0.42525410737490765], [-0.48032524974364865, 0.04925057450611553], [-0.49145349397683286, -0.28689385699961417], [-0.20978850615427136, 0.18981044810516468], [0.4442676448477839, 0.2489858890917192], [-0.23200848803044266, -0.12158661268589288], [0.039044546214931586, -0.3706426392640204], [0.25907849930522686, 0.033882407474686516], [0.26467755395299286, -0.47931319564255337], [0.11406801822291912, -0.184512099412511], [-0.09861977985837667, -0.5269129733721287], [-0.07909213932816128, 0.3437615030116088], [0.4543775058975471, -0.292264590497761], [-0.10305918665594738, 0.5684414093224991], [0.23533812707846713, 0.3801144233212963], [-0.44520782770716727, 0.25298006434508086], [-0.3401774554163829, 0.45354831658257067], [0.6002067509802959, 0.00776490773562008], [0.04587133040426128, 0.0177603688362461], [0.0906441073671681, 0.23526009075817778]]",density,black,,,N012,visual,3,[],"['1', '2', '3', '4']",1,2023.2.3,harveyvisual,2.1,[],8,0.75,
0,pause,0.4,None,None,None,0,143,143,143,,,,,,,,,,,,,N012,visual,3,[],"['1', '2', '3', '4']",1,2023.2.3,harveyvisual,2.1,[],8,0.75,
20,dot,0.3,['dot'],['density'],black,0,144,144,144,,,52.8002188205719,52.51225399971008,52.81224989891052,dot,"[0.06, 0.08, 0.06, 0.06, 0.08, 0.06, 0.08, 0.08, 0.1, 0.1, 0.06, 0.06, 0.08, 0.08, 0.06, 0.1, 0.08, 0.08, 0.06, 0.06]","[[0.2603271025280065, 0.2760258533325143], [0.032560996996072844, 0.47309107516146764], [-0.15508991087601914, 0.5521682521247449], [-0.0595891630303117, -0.5902509228303716], [0.23208415315645825, -0.02053865146183176], [-0.29308614952070416, -0.5107278744044321], [-0.5455636613579381, -0.03582882204164853], [-0.1228165983942322, 0.1932108549067073], [-0.046915508529759675, -0.09616642281405774], [0.45604725946661084, 0.043199960223568756], [0.06833027016026938, -0.3051563684643663], [-0.4642096896855411, -0.2801272934053372], [0.23968853059704742, -0.47941240965750753], [0.4209363653786561, 0.409567596903705], [-0.4908363195274471, 0.2861055942243204], [0.47179572209229914, -0.32665907019996593], [0.28744296854784845, -0.25345553955712014], [-0.27730005590148504, -0.14700693414532512], [-0.31533174200035424, 0.17715038423677343], [0.1967703104765376, 0.5693145665374316]]",density,black,,,N012,visual,3,[],"['1', '2', '3', '4']",1,2023.2.3,harveyvisual,2.1,[],8,0.75,
0,pause,0.4,None,None,None,0,145,145,145,,,,,,,,,,,,,N012,visual,3,[],"['1', '2', '3', '4']",1,2023.2.3,harveyvisual,2.1,[],8,0.75,
20,dot,0.3,['dot'],['density'],black,0,146,146,146,,,53.50023794174194,53.21267294883728,53.512243032455444,dot,"[0.1, 0.08, 0.08, 0.06, 0.06, 0.08, 0.06, 0.08, 0.08, 0.08, 0.1, 0.08, 0.1, 0.06, 0.08, 0.1, 0.06, 0.06, 0.08, 0.08]","[[0.18314021417320858, 0.43243973547292835], [0.5389328125276026, -0.04151638643149699], [0.1134725108225344, -0.4621429985706911], [-0.44382603251731756, -0.3296966933991964], [-0.36927328120467534, 0.3083657650291062], [-0.15011510482165158, 0.06545197881978349], [-0.2954640656970295, -0.18735340651643378], [0.1841701222940716, -0.06073250010645026], [0.5178237614074018, 0.20390666376110855], [-0.5612364615618839, 0.08034568865740715], [-0.0785337728462997, 0.5861254995617132], [-0.09094183298552105, -0.5793595237738122], [0.275229259899196, -0.26058148885471305], [0.5154892089651976, -0.25351101702691614], [-0.1693366098089626, -0.3945296671504797], [-0.5223311116145393, -0.14717643289746732], [-0.059597952604779736, -0.11023131397320585], [-0.10097722826084177, 0.36801503701193716], [0.3998891758317208, 0.44594158265610123], [0.04446546964042419, 0.14455943913517522]]",density,black,,,N012,visual,3,[],"['1', '2', '3', '4']",1,2023.2.3,harveyvisual,2.1,[],8,0.75,
0,pause,0.4,None,None,None,0,147,147,147,,,,,,,,,,,,,N012,visual,3,[],"['1', '2', '3', '4']",1,2023.2.3,harveyvisual,2.1,[],8,0.75,
20,dot,0.3,['dot'],['density'],black,0,148,148,148,,,54.20021986961365,53.912659883499146,54.212225914001465,dot,"[0.08, 0.08, 0.08, 0.1, 0.08, 0.08, 0.06, 0.08, 0.08, 0.1, 0.06, 0.06, 0.08, 0.08, 0.08, 0.1, 0.1, 0.08, 0.06, 0.1]","[[0.08091477114160761, 0.24699197194819256], [-0.46761124628471795, -0.13547335185705078], [-0.04942281502870016, -0.08427958389436974], [0.1569531306128692, -0.47269028460121204], [0.2773450951629992, 0.3659198408459846], [-0.1130617255099915, -0.28928326309191], [-0.16077739376425693, 0.07556279617394579], [-0.3302720397943535, -0.3896518587861777], [0.29266338965251937, -0.237491765941785], [-0.13052591674555059, 0.5320919137939357], [0.48955135531000116, -0.07044329690265361], [0.18533122963551474, 0.07009400687663014], [-0.39790343238059256, 0.26809442863126365], [0.42246968824848363, -0.3990456059577707], [0.4853821639685695, 0.27776466625512336], [-0.5627437313056609, 0.08352229741209244], [0.05754140469576996, 0.5793740296337526], [-0.05639616014370841, -0.5809388917796147], [-0.1570778538562756, 0.3014702946139759], [-0.3360361437178128, 0.45889812465209445]]",density,black,,,N012,visual,3,[],"['1', '2', '3', '4']",1,2023.2.3,harveyvisual,2.1,[],8,0.75,
0,pause,0.4,None,None,None,0,149,149,149,,,,,,,,,,,,,N012,visual,3,[],"['1', '2', '3', '4']",1,2023.2.3,harveyvisual,2.1,[],8,0.75,
20,dot,0.3,['dot'],['density'],black,0,150,150,150,,,54.9002149105072,54.612895011901855,54.912192821502686,dot,"[0.08, 0.06, 0.1, 0.1, 0.08, 0.1, 0.1, 0.06, 0.08, 0.1, 0.08, 0.06, 0.06, 0.1, 0.06, 0.1, 0.08, 0.06, 0.08, 0.08]","[[-0.09994479836513837, 0.584683016821412], [0.3569505035219145, -0.30691511141116384], [-0.16192729443365617, 0.3539309104566357], [0.16557332812398018, -0.5152069691587285], [-0.5689417135171901, 0.05699184589812056], [0.09535294904365998, -0.11113209653650036], [-0.3054495672119223, -0.46868885661625015], [-0.27022332625317586, -0.016353754981947022], [-0.48449250787496384, -0.13339161058589327], [-0.5070551328303775, 0.24412127400574252], [-0.055629723364546524, -0.32345094745158975], [0.03126154559236971, 0.13641630131395532], [0.5144805501198172, 0.15417982877351122], [0.34401695045691205, -0.07957665626098093], [0.24323071870811808, 0.1497139687593423], [-0.4176373955651216, 0.41461472563846735], [0.5255609482753975, -0.14620109120549427], [0.20420622331601268, 0.47155315430318234], [-0.24864518840175054, -0.24451463292994363], [-0.32523791088075527, 0.16654993130217888]]",density,black,,,N012,visual,3,[],"['1', '2', '3', '4']",1,2023.2.3,harveyvisual,2.1,[],8,0.75,
0,pause,0.4,None,None,None,0,151,151,151,,,,,,,,,,,,,N012,visual,3,[],"['1', '2', '3', '4']",1,2023.2.3,harveyvisual,2.1,[],8,0.75,
20,dot,0.3,['dot'],['density'],black,0,152,152,152,,,55.60021781921387,55.312219858169556,55.612212896347046,dot,"[0.1, 0.1, 0.1, 0.08, 0.08, 0.06, 0.06, 0.1, 0.08, 0.06, 0.08, 0.1, 0.06, 0.06, 0.06, 0.06, 0.1, 0.08, 0.1, 0.1]","[[0.19799375633590666, 0.11560825162716681], [0.574115551913352, 0.13659456465474584], [0.12967703476915604, -0.40763488656782737], [0.4749848029871243, -0.0847048463427002], [-0.013987546632324599, 0.1333944105981526], [-0.34350549420233695, -0.43024530937977684], [0.44064717838255907, 0.29191157534049506], [0.41998626709199083, -0.41398164146423333], [-0.5598009645658321, -0.16190059970100334], [-0.01991198254617621, 0.5371236059917595], [-0.20638146519299067, 0.018721197794469013], [-0.3272995066424539, 0.5073849976233583], [-0.42649089306053223, 0.022610181016742004], [0.2363695368797284, 0.35180688799186033], [-0.236596416941316, -0.19434992030806603], [0.12503788995416654, -0.08052116473459459], [-0.04766576960761382, -0.20928691838394486], [-0.3491633521207853, 0.2633924107995934], [-0.5902371465445315, 0.1337524708404015], [-0.10116628281517437, 0.35296371016490813]]",density,black,,,N012,visual,3,[],"['1', '2', '3', '4']",1,2023.2.3,harveyvisual,2.1,[],8,0.75,
0,pause,0.4,None,None,None,0,153,153,153,,,,,,,,,,,,,N012,visual,3,[],"['1', '2', '3', '4']",1,2023.2.3,harveyvisual,2.1,[],8,0.75,
20,dot,0.3,['dot'],['density'],black,0,154,154,154,,,56.30021595954895,56.01218295097351,56.31218194961548,dot,"[0.08, 0.08, 0.06, 0.06, 0.08, 0.08, 0.1, 0.08, 0.08, 0.1, 0.06, 0.08, 0.08, 0.06, 0.06, 0.1, 0.1, 0.06, 0.06, 0.06]","[[0.32590108657403827, 0.08733515442755624], [-0.20287210650158916, -0.2653875820003347], [-0.3633900683018484, -0.15961195624974817], [0.3602943205652974, -0.3923791824309171], [0.03406433438783529, 0.29955225988518197], [-0.11428291108960748, -0.47068044070433623], [-0.5430773479969222, -0.05949866648475449], [-0.3834896567216234, 0.30946811337632446], [0.562761296715998, 0.16545954691197698], [-0.10152830723083095, 0.0703578631232692], [0.14197136065005111, -0.00016575473914670624], [0.02732594563148516, 0.536684595259363], [0.35918429444383315, 0.3396339191119855], [0.07962096167808819, -0.4272533339870138], [-0.18124356924230262, 0.2526252881161465], [-0.24259829327920684, 0.4689411004697408], [0.25012714353145227, 0.5453023809023407], [-0.35194050954441297, 0.04137654308122818], [0.10879766193922469, -0.1921470199412651], [0.5533869153277701, -0.19726890256700877]]",density,black,,,N012,visual,3,[],"['1', '2', '3', '4']",1,2023.2.3,harveyvisual,2.1,[],8,0.75,
0,pause,0.4,None,None,None,0,155,155,155,,,,,,,,,,,,,N012,visual,3,[],"['1', '2', '3', '4']",1,2023.2.3,harveyvisual,2.1,[],8,0.75,
9,dot,0.3,['dot'],['density'],black,0,156,156,156,,,57.000239849090576,56.71215581893921,57.01215386390686,dot,"[0.1, 0.08, 0.06, 0.06, 0.08, 0.06, 0.1, 0.06, 0.06]","[[-0.03413633707233166, 0.539775862693792], [0.03045342777742709, 0.14881397110038386], [0.3968101769942594, 0.3516381959676015], [-0.12464897846505978, 0.27513009849494485], [0.24828272947848068, 0.13372878599656182], [0.1825630446668698, 0.5466865974155928], [-0.40057775338259505, 0.3148646888607764], [0.06988801613907401, -0.06658504348068199], [0.07277149512897427, 0.3699912437376705]]",density,black,,,N012,visual,3,[],"['1', '2', '3', '4']",1,2023.2.3,harveyvisual,2.1,[],8,0.75,
0,pause,0.4,None,None,None,0,157,157,157,,,,,,,,,,,,,N012,visual,3,[],"['1', '2', '3', '4']",1,2023.2.3,harveyvisual,2.1,[],8,0.75,
9,dot,0.3,['dot'],['density'],black,0,158,158,158,,,57.70021986961365,57.41214990615845,57.71213698387146,dot,"[0.06, 0.06, 0.1, 0.06, 0.1, 0.06, 0.06, 0.1, 0.1]","[[0.4907720478217397, -0.04420899316542184], [0.34945142516086164, 0.15252383324094793], [0.5574461082468273, 0.19132091369540322], [0.27860246559707486, -0.040271372914082004], [0.05137088633600719, 0.3166781443626957], [0.3859483744724672, 0.35594746641407654], [0.08124150308634055, -0.11830714188255424], [-0.07254784919135501, 0.1430213671552253], [0.33979531306265204, -0.26214422422440126]]",density,black,,,N012,visual,3,[],"['1', '2', '3', '4']",1,2023.2.3,harveyvisual,2.1,[],8,0.75,
0,pause,0.4,None,None,None,0,159,159,159,,,,,,,,,,,,,N012,visual,3,[],"['1', '2', '3', '4']",1,2023.2.3,harveyvisual,2.1,[],8,0.75,
9,dot,0.3,['dot'],['density'],black,0,160,160,160,,,58.40022587776184,58.11215090751648,58.41210889816284,dot,"[0.1, 0.08, 0.1, 0.06, 0.06, 0.1, 0.06, 0.1, 0.1]","[[0.34043128493099817, 0.2271075800100716], [0.2702764120171402, -0.10456749967376819], [-0.1274635928921129, -0.04210317806044915], [-0.03460273614387521, 0.1795356259369138], [0.14470969472881007, 0.3391925298523705], [0.06761060508642219, 0.0060094309834155335], [0.5117869412029185, -0.12050585585317111], [0.07404675892906432, -0.22660478390602867], [0.35723900661310204, -0.3185591288757]]",density,black,,,N012,visual,3,[],"['1', '2', '3', '4']",1,2023.2.3,harveyvisual,2.1,[],8,0.75,
0,pause,0.4,None,None,None,0,161,161,161,,,,,,,,,,,,,N012,visual,3,[],"['1', '2', '3', '4']",1,2023.2.3,harveyvisual,2.1,[],8,0.75,
9,dot,0.3,['dot'],['density'],black,0,162,162,162,,,59.10021781921387,58.812171936035156,59.11420392990112,dot,"[0.06, 0.1, 0.08, 0.1, 0.1, 0.06, 0.1, 0.1, 0.1]","[[-0.5586095828397086, -0.08452232608263664], [-0.5120381862419278, 0.15370428824398014], [-0.08562135647518901, 0.024493186907675612], [-0.3204263364507457, 0.2397592637991136], [-0.21279117965626912, -0.18999926927512983], [-0.34615304282718484, -0.002506468551820401], [-0.32642794983948487, 0.4412976810435594], [-0.12278716272436474, 0.3390467791696382], [0.05505897535061007, 0.17426903254619158]]",density,black,,,N012,visual,3,[],"['1', '2', '3', '4']",1,2023.2.3,harveyvisual,2.1,[],8,0.75,
0,pause,0.4,None,None,None,0,163,163,163,,,,,,,,,,,,,N012,visual,3,[],"['1', '2', '3', '4']",1,2023.2.3,harveyvisual,2.1,[],8,0.75,
9,dot,0.3,['dot'],['density'],black,0,164,164,164,,,59.800225019454956,59.51323199272156,59.81210398674011,dot,"[0.08, 0.1, 0.08, 0.08, 0.08, 0.1, 0.08, 0.06, 0.08]","[[0.1897356465634014, 0.5279682873488559], [0.32378874068874214, 0.21764355715549547], [-0.02258392144612686, 0.1538672511300514], [0.18768343673053406, 0.06258281167321837], [0.4001161654736714, 0.031858124591620046], [0.03700916369328307, 0.37047593331345124], [0.18810723797826276, -0.14148750743097815], [-0.1502435433980558, -0.03059561201510329], [-0.21808568641731116, 0.28352793851031305]]",density,black,,,N012,visual,3,[],"['1', '2', '3', '4']",1,2023.2.3,harveyvisual,2.1,[],8,0.75,
0,pause,0.4,None,None,None,0,165,165,165,,,,,,,,,,,,,N012,visual,3,[],"['1', '2', '3', '4']",1,2023.2.3,harveyvisual,2.1,[],8,0.75,
9,dot,0.3,['dot'],['density'],black,0,166,166,166,,,60.50022101402283,60.21210598945618,60.51209497451782,dot,"[0.08, 0.1, 0.06, 0.08, 0.06, 0.08, 0.1, 0.1, 0.06]","[[-0.4219467838066047, -0.18114019941065054], [-0.2081543488995217, -0.4860059455967178], [-0.008274735502094755, -0.3457533902190916], [0.02376323820852766, -0.0891001390581758], [-0.4116277839025775, 0.058108040724694845], [-0.18144554169200455, -0.05292133149533743], [0.21944315682242976, -0.26450239569476724], [0.11466821484809545, 0.13327019789913197], [-0.2288148866166432, -0.2599929378926301]]",density,black,,,N012,visual,3,[],"['1', '2', '3', '4']",1,2023.2.3,harveyvisual,2.1,[],8,0.75,
0,pause,0.4,None,None,None,0,167,167,167,,,,,,,,,,,,,N012,visual,3,[],"['1', '2', '3', '4']",1,2023.2.3,harveyvisual,2.1,[],8,0.75,
8,dot,0.3,['dot'],['density'],black,0,168,168,168,,,61.200220823287964,60.91210389137268,61.21205997467041,dot,"[0.1, 0.08, 0.08, 0.08, 0.06, 0.08, 0.06, 0.08]","[[-0.24177141476747963, 0.37227001522147646], [0.022885153928237218, 0.26973630011126315], [-0.028424808126663318, 0.474031493095366], [-0.14677856605916886, 0.1510981622513803], [-0.33541894344674456, 0.07730913931898181], [0.10840621230513336, 0.04997884008138209], [0.30094222783758756, 0.17024461371702543], [-0.056701880949321645, -0.08542646800774611]]",density,black,,,N012,visual,3,[],"['1', '2', '3', '4']",1,2023.2.3,harveyvisual,2.1,[],8,0.75,
0,pause,0.4,None,None,None,0,169,169,169,,,,,,,,,,,,,N012,visual,3,[],"['1', '2', '3', '4']",1,2023.2.3,harveyvisual,2.1,[],8,0.75,
8,dot,0.3,['dot'],['density'],black,0,170,170,170,,,61.90023493766785,61.61204981803894,61.91203689575195,dot,"[0.1, 0.08, 0.08, 0.08, 0.06, 0.08, 0.06, 0.08]","[[0.4578461037593053, -0.0425280984807614], [0.3105081462658962, -0.253400778181943], [0.5107466611240274, 0.18303335057259504], [0.05013881804369301, 0.21472050036076742], [0.11913774150617627, -0.046477809882714556], [0.3069987493408211, 0.11186211070896974], [0.10261508471656716, -0.25482825738733483], [-0.08881417545548334, 0.035709595317019026]]",density,black,,,N012,visual,3,[],"['1', '2', '3', '4']",1,2023.2.3,harveyvisual,2.1,[],8,0.75,
0,pause,0.4,None,None,None,0,171,171,171,,,,,,,,,,,,,N012,visual,3,[],"['1', '2', '3', '4']",1,2023.2.3,harveyvisual,2.1,[],8,0.75,
8,dot,0.3,['dot'],['density'],black,0,172,172,172,,,62.60024690628052,62.312028884887695,62.6120228767395,dot,"[0.06, 0.1, 0.1, 0.1, 0.08, 0.06, 0.06, 0.08]","[[-0.258715538922871, 0.3828151050353194], [-0.4384035523576633, -0.18689856672911037], [-0.5586779833045601, 0.15056420889708766], [-0.1699372658897842, -0.04883432605429875], [-0.36053016753151684, 0.02858569738219561], [-0.199221799186684, 0.1876786431210615], [0.004458053620249285, 0.1240038339062716], [0.019420137312414813, -0.16023679021787893]]",density,black,,,N012,visual,3,[],"['1', '2', '3', '4']",1,2023.2.3,harveyvisual,2.1,[],8,0.75,
0,pause,0.4,None,None,None,0,173,173,173,,,,,,,,,,,,,N012,visual,3,[],"['1', '2', '3', '4']",1,2023.2.3,harveyvisual,2.1,[],8,0.75,
8,dot,0.3,['dot'],['density'],black,0,174,174,174,,,63.30022883415222,63.01206588745117,63.31200194358826,dot,"[0.08, 0.06, 0.08, 0.08, 0.1, 0.1, 0.06, 0.1]","[[-0.3265204970111284, 0.22652760434067618], [0.11129643684023392, 0.07926950251467085], [0.07893474341784651, 0.4315681374945237], [-0.2000017914838315, -0.08445279674287073], [-0.29956068591909263, 0.4664910923320479], [-0.09828291121522204, 0.1483319570086381], [0.07400994184747142, -0.11883630301138211], [-0.12650192453358844, 0.35264367728062257]]",density,black,,,N012,visual,3,[],"['1', '2', '3', '4']",1,2023.2.3,harveyvisual,2.1,[],8,0.75,
0,pause,0.4,None,None,None,0,175,175,175,,,,,,,,,,,,,N012,visual,3,[],"['1', '2', '3', '4']",1,2023.2.3,harveyvisual,2.1,[],8,0.75,
8,dot,0.3,['dot'],['density'],black,0,176,176,176,,,64.00021696090698,63.71312499046326,64.01198482513428,dot,"[0.06, 0.06, 0.1, 0.06, 0.06, 0.08, 0.06, 0.06]","[[-0.503192831713878, 0.2818759502405315], [-0.1851508851951268, 0.5121570681976513], [-0.3428391331654375, 0.06336275884690255], [-0.2620893383019587, 0.2653373399092269], [-0.09201493982796581, 0.138249408295409], [-0.14188251758679749, -0.08598668861617832], [-0.5391716430792404, 0.01870596234549803], [-0.2779852747659758, -0.23950462846526258]]",density,black,,,N012,visual,3,[],"['1', '2', '3', '4']",1,2023.2.3,harveyvisual,2.1,[],8,0.75,
0,pause,0.4,None,None,None,0,177,177,177,,,,,,,,,,,,,N012,visual,3,[],"['1', '2', '3', '4']",1,2023.2.3,harveyvisual,2.1,[],8,0.75,
8,dot,0.3,['dot'],['density'],black,0,178,178,178,,,64.70023679733276,64.41311597824097,64.71197199821472,dot,"[0.06, 0.1, 0.08, 0.1, 0.08, 0.06, 0.06, 0.06]","[[0.28112832868380594, 0.3075763237432237], [-0.21381995858864508, 0.197554992839043], [0.14035436555963224, -0.1470740351963634], [-0.04856350071149823, -0.017306043905309515], [0.12070301707556046, 0.11279463428917226], [0.35236156425888765, 0.046198621115284964], [-0.012223412543992913, 0.3265760435025566], [0.11745206869397669, 0.49408919182137495]]",density,black,,,N012,visual,3,[],"['1', '2', '3', '4']",1,2023.2.3,harveyvisual,2.1,[],8,0.75,
0,pause,0.4,None,None,None,0,179,179,179,,,,,,,,,,,,,N012,visual,3,[],"['1', '2', '3', '4']",1,2023.2.3,harveyvisual,2.1,[],8,0.75,
7,dot,0.3,['dot'],['density'],black,0,180,180,180,,,65.40023684501648,65.11310696601868,65.41297101974487,dot,"[0.06, 0.06, 0.06, 0.1, 0.08, 0.08, 0.1]","[[-0.39883248072855915, 0.30823732592088265], [-0.041341486549100435, 0.2390478988097413], [-0.013495537319202725, 0.5211111720540192], [-0.2415889716500472, 0.10795059447242317], [-0.023803066389735523, 0.02076064871433158], [0.14387498046506175, 0.3548008600093999], [-0.24331877599120405, 0.46521846842164205]]",density,black,,,N012,visual,3,[],"['1', '2', '3', '4']",1,2023.2.3,harveyvisual,2.1,[],8,0.75,
0,pause,0.4,None,None,None,0,181,181,181,,,,,,,,,,,,,N012,visual,3,[],"['1', '2', '3', '4']",1,2023.2.3,harveyvisual,2.1,[],8,0.75,
7,dot,0.3,['dot'],['density'],black,0,182,182,182,,,66.10024285316467,65.811940908432,66.11299395561218,dot,"[0.1, 0.1, 0.1, 0.1, 0.08, 0.08, 0.1]","[[-0.2314520007693297, 0.33838000150240727], [-0.18132207761103206, 0.5552670473927488], [0.017458222085991553, 0.32213086183097556], [0.10538257653630445, 0.5364165263315271], [-0.32661765694444117, 0.13553859080651098], [0.2001110614088519, 0.2352342526365964], [-0.07707990285528175, 0.1388757586163816]]",density,black,,,N012,visual,3,[],"['1', '2', '3', '4']",1,2023.2.3,harveyvisual,2.1,[],8,0.75,
0,pause,0.4,None,None,None,0,183,183,183,,,,,,,,,,,,,N012,visual,3,[],"['1', '2', '3', '4']",1,2023.2.3,harveyvisual,2.1,[],8,0.75,
7,dot,0.3,['dot'],['density'],white,0,184,184,184,,,66.80024290084839,66.51307988166809,66.81192183494568,dot,"[0.08, 0.08, 0.1, 0.1, 0.08, 0.06, 0.06]","[[-0.23867826801906328, -0.4967507610264224], [-0.008572732368673055, -0.07934474412745643], [-0.2066881937132076, -0.2790710878612567], [0.21709551483580575, -0.47507177834902015], [0.2058411173229685, -0.17553172422760346], [-0.015438952742397984, -0.3568653319460787], [-0.011603255668745115, -0.5749057065343526]]",density,white,,,N012,visual,3,[],"['1', '2', '3', '4']",1,2023.2.3,harveyvisual,2.1,[],8,0.75,
0,pause,0.4,None,None,None,0,185,185,185,,,,,,,,,,,1,66.74000787734985,N012,visual,3,[],"['1', '2', '3', '4']",1,2023.2.3,harveyvisual,2.1,[],8,0.75,
7,dot,0.3,['dot'],['density'],black,0,186,186,186,,,67.5002179145813,67.21305894851685,67.51194787025452,dot,"[0.06, 0.08, 0.06, 0.1, 0.1, 0.06, 0.06]","[[-0.39883248072855915, 0.30823732592088265], [-0.041341486549100435, 0.2390478988097413], [-0.013495537319202725, 0.5211111720540192], [-0.2415889716500472, 0.10795059447242317], [-0.023803066389735523, 0.02076064871433158], [0.14387498046506175, 0.3548008600093999], [-0.24331877599120405, 0.46521846842164205]]",density,black,,,N012,visual,3,[],"['1', '2', '3', '4']",1,2023.2.3,harveyvisual,2.1,[],8,0.75,
0,pause,0.4,None,None,None,0,187,187,187,,,,,,,,,,,,,N012,visual,3,[],"['1', '2', '3', '4']",1,2023.2.3,harveyvisual,2.1,[],8,0.75,
7,dot,0.3,['dot'],['density'],black,0,188,188,188,,,68.20024180412292,67.91190099716187,68.21186995506287,dot,"[0.1, 0.1, 0.1, 0.06, 0.08, 0.06, 0.1]","[[-0.3025445156539714, -0.42280529123536587], [0.12162933753582021, -0.2851722644810181], [-0.2753205641105948, -0.038672864930592576], [-0.4202189534315163, -0.18742991959605093], [-0.15636117447925973, -0.27217203193286355], [-0.09967880665522989, -0.47242523529006747], [-0.06261398545311019, -0.08879309989794046]]",density,black,,,N012,visual,3,[],"['1', '2', '3', '4']",1,2023.2.3,harveyvisual,2.1,[],8,0.75,
0,pause,0.4,None,None,None,0,189,189,189,,,,,,,,,,,,,N012,visual,3,[],"['1', '2', '3', '4']",1,2023.2.3,harveyvisual,2.1,[],8,0.75,
7,dot,0.3,['dot'],['density'],black,0,190,190,190,,,68.90021896362305,68.6119019985199,68.91191101074219,dot,"[0.06, 0.1, 0.08, 0.1, 0.08, 0.08, 0.08]","[[-0.03978284138183809, -0.43963729991580147], [0.2770736023028816, -0.4460091285183096], [0.4264240077257641, -0.26124456405115876], [0.04351789842027954, -0.004572294527936195], [0.08491707485555088, -0.26540219852266356], [0.2274622265833728, -0.10044916879814345], [0.4232844185721205, -0.050742783717769746]]",density,black,,,N012,visual,3,[],"['1', '2', '3', '4']",1,2023.2.3,harveyvisual,2.1,[],8,0.75,
0,pause,0.4,None,None,None,0,191,191,191,,,,,,,,,,,,,N012,visual,3,[],"['1', '2', '3', '4']",1,2023.2.3,harveyvisual,2.1,[],8,0.75,
6,dot,0.3,['dot'],['density'],black,0,192,192,192,,,69.60023093223572,69.31187200546265,69.61185097694397,dot,"[0.1, 0.06, 0.1, 0.1, 0.08, 0.08]","[[-0.06594826066790033, 0.1051940440944823], [0.15491437476435005, 0.24610541937573027], [-0.07004887042171212, 0.3755397070333221], [0.22920853754483062, 0.04629278748534093], [0.14611265926610215, 0.46549762069565603], [0.352938231914746, 0.33060025924169734]]",density,black,,,N012,visual,3,[],"['1', '2', '3', '4']",1,2023.2.3,harveyvisual,2.1,[],8,0.75,
0,pause,0.4,None,None,None,0,193,193,193,,,,,,,,,,,,,N012,visual,3,[],"['1', '2', '3', '4']",1,2023.2.3,harveyvisual,2.1,[],8,0.75,
6,dot,0.3,['dot'],['density'],black,0,194,194,194,,,70.30021691322327,70.01186490058899,70.31183791160583,dot,"[0.08, 0.06, 0.08, 0.1, 0.1, 0.1]","[[0.23041567882598732, 0.45619944218456715], [0.5278859611842325, 0.18245830030246968], [0.08738225171760033, 0.1578384040678088], [0.20561463112105705, -0.03996865664556224], [0.3021721310554224, 0.21718230064421146], [0.4273755636869532, 0.38341374408431883]]",density,black,,,N012,visual,3,[],"['1', '2', '3', '4']",1,2023.2.3,harveyvisual,2.1,[],8,0.75,
0,pause,0.4,None,None,None,0,195,195,195,,,,,,,,,,,,,N012,visual,3,[],"['1', '2', '3', '4']",1,2023.2.3,harveyvisual,2.1,[],8,0.75,
6,dot,0.3,['dot'],['density'],black,0,196,196,196,,,71.00023293495178,70.71185803413391,71.01182579994202,dot,"[0.08, 0.08, 0.08, 0.1, 0.06, 0.1]","[[-0.060066269329224556, -0.3459973645598818], [-0.2267112282887438, -0.46433083725857055], [-0.03368736353914721, -0.0592740518520544], [0.1129416353875032, -0.20466059509733167], [0.13908697530976044, -0.42386339769443276], [-0.2931789080149146, -0.2669036372638095]]",density,black,,,N012,visual,3,[],"['1', '2', '3', '4']",1,2023.2.3,harveyvisual,2.1,[],8,0.75,
0,pause,0.4,None,None,None,0,197,197,197,,,,,,,,,,,,,N012,visual,3,[],"['1', '2', '3', '4']",1,2023.2.3,harveyvisual,2.1,[],8,0.75,
6,dot,0.3,['dot'],['density'],black,0,198,198,198,,,71.70024585723877,71.4118230342865,71.71180391311646,dot,"[0.08, 0.1, 0.08, 0.08, 0.08, 0.1]","[[0.4838288853419304, 0.012393783640839304], [0.3357737587390128, 0.3939464288632381], [0.48781910936274964, 0.21484656822060386], [0.038497076365425514, 0.2266532147795764], [0.13074852606734502, 0.009493629341700475], [0.2855531954453259, 0.1811044151544938]]",density,black,,,N012,visual,3,[],"['1', '2', '3', '4']",1,2023.2.3,harveyvisual,2.1,[],8,0.75,
0,pause,0.4,None,None,None,0,199,199,199,,,,,,,,,,,,,N012,visual,3,[],"['1', '2', '3', '4']",1,2023.2.3,harveyvisual,2.1,[],8,0.75,
6,dot,0.3,['dot'],['density'],black,0,200,200,200,,,72.40023303031921,72.11180901527405,72.41291785240173,dot,"[0.06, 0.08, 0.06, 0.08, 0.06, 0.1]","[[0.2333794889108542, 0.5108688068097712], [0.17720399199515413, 0.06488002481085814], [0.3526024925964592, 0.16961020277143707], [0.1596713132306006, 0.321837067503818], [0.0007438407140586783, 0.18344495120876914], [0.42757463853404776, 0.37786691715169374]]",density,black,,,N012,visual,3,[],"['1', '2', '3', '4']",1,2023.2.3,harveyvisual,2.1,[],8,0.75,
0,pause,0.4,None,None,None,0,201,201,201,,,,,,,,,,,,,N012,visual,3,[],"['1', '2', '3', '4']",1,2023.2.3,harveyvisual,2.1,[],8,0.75,
6,dot,0.3,['dot'],['density'],black,0,202,202,202,,,73.10022687911987,72.81179189682007,73.11178684234619,dot,"[0.1, 0.1, 0.08, 0.06, 0.08, 0.06]","[[-0.36954580940820725, 0.05815165478813925], [-0.28534481837461456, -0.12375618373579561], [-0.26428406214372846, 0.28010711109252995], [-0.5657182147315603, -0.11096589427743007], [-0.1492704575467133, 0.06899119969773035], [-0.5584105255039638, 0.13196562846102936]]",density,black,,,N012,visual,3,[],"['1', '2', '3', '4']",1,2023.2.3,harveyvisual,2.1,[],8,0.75,
0,pause,0.4,None,None,None,0,203,203,203,,,,,,,,,,,,,N012,visual,3,[],"['1', '2', '3', '4']",1,2023.2.3,harveyvisual,2.1,[],8,0.75,
5,dot,0.3,['dot'],['density'],black,0,204,204,204,,,73.80021691322327,73.51175785064697,73.81175899505615,dot,"[0.1, 0.06, 0.06, 0.06, 0.1]","[[-0.20882687658313398, 0.05979685123170853], [0.07709165915785691, 0.33819008637117026], [0.02323578322535992, 0.12175330968231063], [0.02522363087913582, -0.08718927316059993], [-0.12152044988768049, 0.28453648995279207]]",density,black,,,N012,visual,3,[],"['1', '2', '3', '4']",1,2023.2.3,harveyvisual,2.1,[],8,0.75,
0,pause,0.4,None,None,None,0,205,205,205,,,,,,,,,,,,,N012,visual,3,[],"['1', '2', '3', '4']",1,2023.2.3,harveyvisual,2.1,[],8,0.75,
5,dot,0.3,['dot'],['density'],black,0,206,206,206,,,74.50023984909058,74.21175694465637,74.51173996925354,dot,"[0.1, 0.1, 0.06, 0.1, 0.06]","[[-0.47409275164437775, -0.17842554437930905], [-0.28800513042966097, -0.4059597382025641], [-0.20075697267214665, 0.008887320625593834], [-0.2708677629513771, -0.1868162154653106], [-0.0886924353013077, -0.2820475711339636]]",density,black,,,N012,visual,3,[],"['1', '2', '3', '4']",1,2023.2.3,harveyvisual,2.1,[],8,0.75,
0,pause,0.4,None,None,None,0,207,207,207,,,,,,,,,,,,,N012,visual,3,[],"['1', '2', '3', '4']",1,2023.2.3,harveyvisual,2.1,[],8,0.75,
5,dot,0.3,['dot'],['density'],black,0,208,208,208,,,75.20022702217102,74.91174697875977,75.21172881126404,dot,"[0.06, 0.08, 0.06, 0.1, 0.06]","[[-0.20882687658313398, 0.05979685123170853], [0.07709165915785691, 0.33819008637117026], [0.02323578322535992, 0.12175330968231063], [0.02522363087913582, -0.08718927316059993], [-0.12152044988768049, 0.28453648995279207]]",density,black,,,N012,visual,3,[],"['1', '2', '3', '4']",1,2023.2.3,harveyvisual,2.1,[],8,0.75,
0,pause,0.4,None,None,None,0,209,209,209,,,,,,,,,,,,,N012,visual,3,[],"['1', '2', '3', '4']",1,2023.2.3,harveyvisual,2.1,[],8,0.75,
5,dot,0.3,['dot'],['density'],black,0,210,210,210,,,75.90024399757385,75.61170697212219,75.91173982620239,dot,"[0.08, 0.1, 0.1, 0.08, 0.06]","[[-0.17224806752104949, 0.21128771658676965], [-0.35983128753182364, -0.1328600505582573], [-0.33716814897054914, 0.09708697582185674], [-0.044562237693599294, -0.03778919281981133], [-0.17109626387405982, -0.21732524013947077]]",density,black,,,N012,visual,3,[],"['1', '2', '3', '4']",1,2023.2.3,harveyvisual,2.1,[],8,0.75,
0,pause,0.4,None,None,None,0,211,211,211,,,,,,,,,,,,,N012,visual,3,[],"['1', '2', '3', '4']",1,2023.2.3,harveyvisual,2.1,[],8,0.75,
5,dot,0.3,['dot'],['density'],black,0,212,212,212,,,76.60022902488708,76.31284785270691,76.61171889305115,dot,"[0.1, 0.06, 0.06, 0.06, 0.06]","[[-0.19096480170835262, 0.2202776521134577], [0.009488999043989208, 0.5721548226574139], [0.16477125949827795, 0.3732973518003487], [0.07476286221063107, 0.1476230553836633], [-0.051949696108355745, 0.36609537475325354]]",density,black,,,N012,visual,3,[],"['1', '2', '3', '4']",1,2023.2.3,harveyvisual,2.1,[],8,0.75,
0,pause,0.4,None,None,None,0,213,213,213,,,,,,,,,,,,,N012,visual,3,[],"['1', '2', '3', '4']",1,2023.2.3,harveyvisual,2.1,[],8,0.75,
5,dot,0.3,['dot'],['density'],black,0,214,214,214,,,77.30023789405823,77.01166582107544,77.3292248249054,dot,"[0.06, 0.06, 0.1, 0.1, 0.06]","[[0.2447541601906441, 0.3086669061463178], [0.2085849672204031, -0.04267428248465989], [0.44393754570968663, -0.061602228714441105], [0.027125763574429876, 0.05764502161176834], [0.36879828001487897, 0.1310025380577708]]",density,black,,,N012,visual,3,[],"['1', '2', '3', '4']",1,2023.2.3,harveyvisual,2.1,[],8,0.75,
0,pause,0.4,None,None,None,0,215,215,215,,,,,,,,,,,,,N012,visual,3,[],"['1', '2', '3', '4']",1,2023.2.3,harveyvisual,2.1,[],8,0.75,
4,dot,0.3,['dot'],['density'],black,0,216,216,216,,,78.00024390220642,77.71168088912964,78.01166796684265,dot,"[0.06, 0.1, 0.06, 0.1]","[[0.3428963381299033, -0.004396565162037705], [0.42558881424794154, 0.18301493672810298], [0.5687630200397232, 0.01721079717795714], [0.4301208405972816, -0.23499851958356296]]",density,black,,,N012,visual,3,[],"['1', '2', '3', '4']",1,2023.2.3,harveyvisual,2.1,[],8,0.75,
0,pause,0.4,None,None,None,0,217,217,217,,,,,,,,,,,,,N012,visual,3,[],"['1', '2', '3', '4']",1,2023.2.3,harveyvisual,2.1,[],8,0.75,
4,dot,0.3,['dot'],['density'],white,0,218,218,218,,,78.70023488998413,78.41166400909424,78.71165084838867,dot,"[0.06, 0.1, 0.1, 0.08]","[[-0.24231220575667195, -0.22966258239168486], [-0.5136420973432148, -0.13696856920477488], [-0.4300726721285167, 0.13088957628356482], [-0.3148289313469241, -0.03851715211982174]]",density,white,,,N012,visual,3,[],"['1', '2', '3', '4']",1,2023.2.3,harveyvisual,2.1,[],8,0.75,
0,pause,0.4,None,None,None,0,219,219,219,,,,,,,,,,,1,78.73052597045898,N012,visual,3,[],"['1', '2', '3', '4']",1,2023.2.3,harveyvisual,2.1,[],8,0.75,
4,dot,0.3,['dot'],['density'],black,0,220,220,220,,,79.40022397041321,79.11164689064026,79.41162991523743,dot,"[0.06, 0.1, 0.06, 0.08]","[[-0.264878088602857, 0.22906395790450432], [0.07239228809704809, 0.2615492699427171], [0.10034738543262733, 0.4676118263175188], [-0.09637524959065707, 0.3769302803343899]]",density,black,,,N012,visual,3,[],"['1', '2', '3', '4']",1,2023.2.3,harveyvisual,2.1,[],8,0.75,
0,pause,0.4,None,None,None,0,221,221,221,,,,,,,,,,,,,N012,visual,3,[],"['1', '2', '3', '4']",1,2023.2.3,harveyvisual,2.1,[],8,0.75,
4,dot,0.3,['dot'],['density'],black,0,222,222,222,,,80.10022401809692,79.81161689758301,80.11160898208618,dot,"[0.06, 0.06, 0.08, 0.08]","[[0.06326389353998313, -0.3457479010937814], [-0.07512051392095552, -0.02196355495157639], [0.09410934090401228, -0.14113260442523076], [-0.13717358852421138, -0.29916566844175635]]",density,black,,,N012,visual,3,[],"['1', '2', '3', '4']",1,2023.2.3,harveyvisual,2.1,[],8,0.75,
0,pause,0.4,None,None,None,0,223,223,223,,,,,,,,,,,,,N012,visual,3,[],"['1', '2', '3', '4']",1,2023.2.3,harveyvisual,2.1,[],8,0.75,
4,dot,0.3,['dot'],['density'],black,0,224,224,224,,,80.80023503303528,80.51163101196289,80.811607837677,dot,"[0.1, 0.06, 0.06, 0.1]","[[-0.5372831058023291, 0.07679305146548565], [-0.47746952625478134, -0.11455356156484316], [-0.2888199447118168, 0.02804534169422597], [-0.3317661241759115, -0.2533775510137967]]",density,black,,,N012,visual,3,[],"['1', '2', '3', '4']",1,2023.2.3,harveyvisual,2.1,[],8,0.75,
0,pause,0.4,None,None,None,0,225,225,225,,,,,,,,,,,,,N012,visual,3,[],"['1', '2', '3', '4']",1,2023.2.3,harveyvisual,2.1,[],8,0.75,
4,dot,0.3,['dot'],['density'],black,0,226,226,226,,,81.50022792816162,81.21158480644226,81.51158380508423,dot,"[0.1, 0.06, 0.08, 0.1]","[[0.08172100217045614, 0.5402562525463245], [-0.024891988969352973, 0.31595276793208527], [-0.14685316472848742, 0.5184788481920529], [-0.2646655063210597, 0.3159281349431851]]",density,black,,,N012,visual,3,[],"['1', '2', '3', '4']",1,2023.2.3,harveyvisual,2.1,[],8,0.75,
0,pause,0.4,None,None,None,0,227,227,227,,,,,,,,,,,,,N012,visual,3,[],"['1', '2', '3', '4']",1,2023.2.3,harveyvisual,2.1,[],8,0.75,
3,dot,0.3,['dot'],['density'],white,0,228,228,228,,,82.20024490356445,81.91156888008118,82.21154499053955,dot,"[0.08, 0.1, 0.1]","[[-0.5649268285189266, -0.02945458741690218], [-0.36332336008090005, 0.05160617148840915], [-0.5004673786076542, 0.20230308468415367]]",density,white,,,N012,visual,3,[],"['1', '2', '3', '4']",1,2023.2.3,harveyvisual,2.1,[],8,0.75,
0,pause,0.4,None,None,None,0,229,229,229,,,,,,,,,,,1,82.08192181587219,N012,visual,3,[],"['1', '2', '3', '4']",1,2023.2.3,harveyvisual,2.1,[],8,0.75,
3,dot,0.3,['dot'],['density'],black,0,230,230,230,,,82.90021800994873,82.61158299446106,82.91154789924622,dot,"[0.08, 0.1, 0.06]","[[-0.32034981165049564, 0.18083778238314796], [-0.3344619052850136, -0.04022521570367012], [-0.13485517643248812, 0.10330846540140716]]",density,black,,,N012,visual,3,[],"['1', '2', '3', '4']",1,2023.2.3,harveyvisual,2.1,[],8,0.75,
0,pause,0.4,None,None,None,0,231,231,231,,,,,,,,,,,,,N012,visual,3,[],"['1', '2', '3', '4']",1,2023.2.3,harveyvisual,2.1,[],8,0.75,
3,dot,0.3,['dot'],['density'],black,0,232,232,232,,,83.60022783279419,83.31154298782349,83.61152482032776,dot,"[0.06, 0.06, 0.08]","[[-0.15674404860239688, -0.25078459247658497], [0.006578924124220241, -0.41324131210186005], [0.06959682433872849, -0.20549031443856539]]",density,black,,,N012,visual,3,[],"['1', '2', '3', '4']",1,2023.2.3,harveyvisual,2.1,[],8,0.75,
0,pause,0.4,None,None,None,0,233,233,233,,,,,,,,,,,,,N012,visual,3,[],"['1', '2', '3', '4']",1,2023.2.3,harveyvisual,2.1,[],8,0.75,
3,dot,0.3,['dot'],['density'],black,0,234,234,234,,,84.30024790763855,84.01151084899902,84.31150197982788,dot,"[0.08, 0.1, 0.06]","[[0.041215869578383385, -0.00689674906403758], [0.17500875751152645, 0.21459232562634095], [-0.03632281132631849, 0.2012994076415249]]",density,black,,,N012,visual,3,[],"['1', '2', '3', '4']",1,2023.2.3,harveyvisual,2.1,[],8,0.75,
0,pause,0.4,None,None,None,0,235,235,235,,,,,,,,,,,,,N012,visual,3,[],"['1', '2', '3', '4']",1,2023.2.3,harveyvisual,2.1,[],8,0.75,
3,dot,0.3,['dot'],['density'],black,0,236,236,236,,,85.00023293495178,84.71148896217346,85.01148581504822,dot,"[0.06, 0.08, 0.06]","[[-0.476501853024302, 0.3110516410681161], [-0.26865065753742645, 0.4732574608261889], [-0.2772428868380306, 0.2516539537451065]]",density,black,,,N012,visual,3,[],"['1', '2', '3', '4']",1,2023.2.3,harveyvisual,2.1,[],8,0.75,
0,pause,0.4,None,None,None,0,237,237,237,,,,,,,,,,,,,N012,visual,3,[],"['1', '2', '3', '4']",1,2023.2.3,harveyvisual,2.1,[],8,0.75,
3,dot,0.3,['dot'],['density'],black,0,238,238,238,,,85.70023083686829,85.41148495674133,85.71147894859314,dot,"[0.08, 0.08, 0.1]","[[0.4995185571857965, 0.14229679706320136], [0.2944600495073675, 0.23335097983198633], [0.330752226915583, 0.0299241169750933]]",density,black,,,N012,visual,3,[],"['1', '2', '3', '4']",1,2023.2.3,harveyvisual,2.1,[],8,0.75,
0,pause,0.4,None,None,None,0,239,239,239,,,,,,,,,,,,,N012,visual,3,[],"['1', '2', '3', '4']",1,2023.2.3,harveyvisual,2.1,[],8,0.75,
2,dot,0.3,['dot'],['density'],black,0,240,240,240,,,86.40021896362305,86.11146283149719,86.4114408493042,dot,"[0.06, 0.1]","[[-0.21141336561075566, 0.4273762957479495], [-0.1407142259739198, 0.23984948612333498]]",density,black,,,N012,visual,3,[],"['1', '2', '3', '4']",1,2023.2.3,harveyvisual,2.1,[],8,0.75,
0,pause,0.4,None,None,None,0,241,241,241,,,,,,,,,,,,,N012,visual,3,[],"['1', '2', '3', '4']",1,2023.2.3,harveyvisual,2.1,[],8,0.75,
2,dot,0.3,['dot'],['density'],black,0,242,242,242,,,87.10024094581604,86.81257891654968,87.1114330291748,dot,"[0.1, 0.06]","[[-0.4579128382498026, -0.013317831223324628], [-0.28624676016543393, -0.11681778735554697]]",density,black,,,N012,visual,3,[],"['1', '2', '3', '4']",1,2023.2.3,harveyvisual,2.1,[],8,0.75,
0,pause,0.4,None,None,None,0,243,243,243,,,,,,,,,,,,,N012,visual,3,[],"['1', '2', '3', '4']",1,2023.2.3,harveyvisual,2.1,[],8,0.75,
2,dot,0.3,['dot'],['density'],black,0,244,244,244,,,87.80022192001343,87.51146602630615,87.81141686439514,dot,"[0.1, 0.08]","[[-0.2277318593301165, -0.35289300204507235], [-0.09400723608355734, -0.20388512549033708]]",density,black,,,N012,visual,3,[],"['1', '2', '3', '4']",1,2023.2.3,harveyvisual,2.1,[],8,0.75,
0,pause,0.4,None,None,None,0,245,245,245,,,,,,,,,,,,,N012,visual,3,[],"['1', '2', '3', '4']",1,2023.2.3,harveyvisual,2.1,[],8,0.75,
2,dot,0.3,['dot'],['density'],black,0,246,246,246,,,88.50024890899658,88.21143794059753,88.51144695281982,dot,"[0.06, 0.08]","[[0.075840462383643, -0.21806900392302264], [0.2761252679018853, -0.22101292055433702]]",density,black,,,N012,visual,3,[],"['1', '2', '3', '4']",1,2023.2.3,harveyvisual,2.1,[],8,0.75,
0,pause,0.4,None,None,None,0,247,247,247,,,,,,,,,,,,,N012,visual,3,[],"['1', '2', '3', '4']",1,2023.2.3,harveyvisual,2.1,[],8,0.75,
2,dot,0.3,['dot'],['density'],black,0,248,248,248,,,89.20023989677429,88.91143083572388,89.2114098072052,dot,"[0.08, 0.1]","[[-0.21141336561075566, 0.4273762957479495], [-0.1407142259739198, 0.23984948612333498]]",density,black,,,N012,visual,3,[],"['1', '2', '3', '4']",1,2023.2.3,harveyvisual,2.1,[],8,0.75,
0,pause,0.4,None,None,None,0,249,249,249,,,,,,,,,,,,,N012,visual,3,[],"['1', '2', '3', '4']",1,2023.2.3,harveyvisual,2.1,[],8,0.75,
2,dot,0.3,['dot'],['density'],black,0,250,250,250,,,89.90023303031921,89.611398935318,89.911386013031,dot,"[0.06, 0.08]","[[-0.22226122312079244, -0.00806926593831646], [-0.023245446524914906, -0.037240983575548024]]",density,black,,,N012,visual,3,[],"['1', '2', '3', '4']",1,2023.2.3,harveyvisual,2.1,[],8,0.75,
0,pause,0.4,None,None,None,0,251,251,251,,,,,,,,,,,,,N012,visual,3,[],"['1', '2', '3', '4']",1,2023.2.3,harveyvisual,2.1,[],8,0.75,
1,dot,0.3,['dot'],['density'],black,0,252,252,252,,,90.6002209186554,90.3113739490509,90.61137390136719,dot,[0.1],"[-0.3678067964802796, -0.3513177213804687]",density,black,,,N012,visual,3,[],"['1', '2', '3', '4']",1,2023.2.3,harveyvisual,2.1,[],8,0.75,
0,pause,0.4,None,None,None,0,253,253,253,,,,,,,,,,,,,N012,visual,3,[],"['1', '2', '3', '4']",1,2023.2.3,harveyvisual,2.1,[],8,0.75,
1,dot,0.3,['dot'],['density'],black,0,254,254,254,,,91.3002188205719,91.01136302947998,91.31138491630554,dot,[0.1],"[0.1771264825789444, 0.012298414170669998]",density,black,,,N012,visual,3,[],"['1', '2', '3', '4']",1,2023.2.3,harveyvisual,2.1,[],8,0.75,
0,pause,0.4,None,None,None,0,255,255,255,,,,,,,,,,,,,N012,visual,3,[],"['1', '2', '3', '4']",1,2023.2.3,harveyvisual,2.1,[],8,0.75,
1,dot,0.3,['dot'],['density'],white,0,256,256,256,,,92.00022482872009,91.71134781837463,92.01133298873901,dot,[0.06],"[0.43730911014729085, 0.38068286015665653]",density,white,,,N012,visual,3,[],"['1', '2', '3', '4']",1,2023.2.3,harveyvisual,2.1,[],8,0.75,
0,pause,0.4,None,None,None,0,257,257,257,,,,,,,,,,,1,92.02912902832031,N012,visual,3,[],"['1', '2', '3', '4']",1,2023.2.3,harveyvisual,2.1,[],8,0.75,
1,dot,0.3,['dot'],['density'],black,0,258,258,258,,,92.70022583007812,92.41129398345947,92.71129202842712,dot,[0.1],"[0.1600937909388646, -0.5041032805904762]",density,black,,,N012,visual,3,[],"['1', '2', '3', '4']",1,2023.2.3,harveyvisual,2.1,[],8,0.75,
0,pause,0.4,None,None,None,0,259,259,259,,,,,,,,,,,,,N012,visual,3,[],"['1', '2', '3', '4']",1,2023.2.3,harveyvisual,2.1,[],8,0.75,
1,dot,0.3,['dot'],['density'],black,0,260,260,260,,,93.40024900436401,93.11129403114319,93.41127395629883,dot,[0.06],"[0.0956549371127339, 0.09579573331985794]",density,black,,,N012,visual,3,[],"['1', '2', '3', '4']",1,2023.2.3,harveyvisual,2.1,[],8,0.75,
0,pause,0.4,None,None,None,0,261,261,261,,,,,,,,,,,,,N012,visual,3,[],"['1', '2', '3', '4']",1,2023.2.3,harveyvisual,2.1,[],8,0.75,
1,dot,0.3,['dot'],['density'],black,0,262,262,262,,,94.10024285316467,93.81127190589905,94.11126399040222,dot,[0.1],"[-0.045934412585722416, -0.12236734128406912]",density,black,,,N012,visual,3,[],"['1', '2', '3', '4']",1,2023.2.3,harveyvisual,2.1,[],8,0.75,
0,pause,0.4,None,None,None,0,263,263,263,,,,,,,,,,,,,N012,visual,3,[],"['1', '2', '3', '4']",1,2023.2.3,harveyvisual,2.1,[],8,0.75,
20,dot,0.3,['dot'],['density'],black,0,264,264,264,,,94.80025100708008,94.51131582260132,94.81513285636902,dot,"[0.06, 0.08, 0.1, 0.06, 0.08, 0.06, 0.08, 0.1, 0.06, 0.08, 0.08, 0.1, 0.08, 0.06, 0.08, 0.08, 0.1, 0.08, 0.1, 0.08]","[[0.26243743244164053, 0.5048200160751115], [0.10400082829060509, 0.19619237847546256], [0.3607999473323066, -0.329884933249065], [0.5255477148175786, 0.04046778576296983], [0.3584127237641397, 0.19453354446922688], [0.025669676407556352, -0.2813216101816835], [-0.21385465370853263, 0.2863544246633386], [0.38419736791466175, -0.1313069414980238], [-0.46895411935740244, 0.17601645885575873], [0.10641314769171006, -0.5460622794660502], [-0.3230679746785673, -0.40725942002786314], [-0.30642358752931703, -0.1308287693297409], [-0.29694226165067605, 0.07944836056069304], [0.05834862464671853, -0.01290143145271283], [-0.5185605007976657, -0.09695721469928181], [-0.10714075349281188, -0.14505003687530832], [-0.37239158267358213, 0.4646811776701243], [-0.10982843350912458, -0.5518905756747092], [0.018917517987261268, 0.4484830051538664], [0.4831589984320216, 0.3624455745275729]]",density,black,,,N012,visual,3,[],"['1', '2', '3', '4']",1,2023.2.3,harveyvisual,2.1,[],8,0.75,
0,pause,0.4,None,None,None,0,265,265,265,,,,,,,,,,,,,N012,visual,3,[],"['1', '2', '3', '4']",1,2023.2.3,harveyvisual,2.1,[],8,0.75,
20,dot,0.3,['dot'],['density'],black,0,266,266,266,,,95.50024080276489,95.21124196052551,95.51123189926147,dot,"[0.06, 0.08, 0.08, 0.1, 0.1, 0.08, 0.1, 0.1, 0.06, 0.06, 0.1, 0.06, 0.06, 0.06, 0.08, 0.08, 0.06, 0.08, 0.1, 0.06]","[[-0.22734584798233753, 0.17185963785520497], [0.03976536047430268, -0.21080601481373568], [0.4126237917546761, -0.20105006453815358], [-0.43043362902687826, -0.34518768275215195], [0.03944461299358337, 0.2890006678300949], [0.025877735092837306, -0.41145050826268303], [0.2430481685803232, 0.15504865580131455], [-0.04259118195504363, -0.03852452038206211], [-0.08627995798539212, 0.559990347139596], [-0.5826348116377343, 0.03827086542467539], [-0.20409943938475883, -0.16133937925303143], [0.26085932895473185, -0.07438361316011355], [0.5725157786272036, 0.15372913858606474], [0.29166148295089056, 0.44506551123913984], [-0.3469825846895863, 0.3975453570819383], [-0.4301438687907665, 0.18239991819233303], [0.1897851603778391, -0.51457810341097], [-0.1424075094587876, -0.514618526778143], [-0.5539662219843009, -0.1973607483580674], [0.29156431256988735, -0.348519418886875]]",density,black,,,N012,visual,3,[],"['1', '2', '3', '4']",1,2023.2.3,harveyvisual,2.1,[],8,0.75,
0,pause,0.4,None,None,None,0,267,267,267,,,,,,,,,,,,,N012,visual,3,[],"['1', '2', '3', '4']",1,2023.2.3,harveyvisual,2.1,[],8,0.75,
