num,mod,duration,shape,ll_cond,colors,.thisRepN,.thisTrialN,.thisN,.thisIndex,thisRow.t,notes,raw_global_time,t_start,t_stop,shapes,size,pos,cond,color,button,RT,participant,session,starting_run,left button (match/odd),right button (non-match/even),samples_per_block,psychopy version,expName,offset,audio,number_runs,radius,
1,dot,0.3,['dot'],['density'],black,0,0,0,0,,,2.4001998901367188,2.11004900932312,2.4099810123443604,dot,[0.1],"[0.0038807231877187303, -0.2777732366953785]",density,black,,,N011,visual,1,[],"['1', '2', '3', '4']",1,2023.2.3,harveyvisual,2.1,[],8,0.75,
0,pause,0.4,None,None,None,0,1,1,1,,,,,,,,,,,,,N011,visual,1,[],"['1', '2', '3', '4']",1,2023.2.3,harveyvisual,2.1,[],8,0.75,
1,dot,0.3,['dot'],['density'],white,0,2,2,2,,,3.1002109050750732,2.8100948333740234,3.1105098724365234,dot,[0.1],"[0.1771264825789444, 0.012298414170669998]",density,white,,,N011,visual,1,[],"['1', '2', '3', '4']",1,2023.2.3,harveyvisual,2.1,[],8,0.75,
0,pause,0.4,None,None,None,0,3,3,3,,,,,,,,,,,1,3.32132887840271,N011,visual,1,[],"['1', '2', '3', '4']",1,2023.2.3,harveyvisual,2.1,[],8,0.75,
1,dot,0.3,['dot'],['density'],black,0,4,4,4,,,3.8001890182495117,3.510650873184204,3.8106439113616943,dot,[0.06],"[0.15956500649880873, 0.2640393008039057]",density,black,,,N011,visual,1,[],"['1', '2', '3', '4']",1,2023.2.3,harveyvisual,2.1,[],8,0.75,
0,pause,0.4,None,None,None,0,5,5,5,,,,,,,,,,,,,N011,visual,1,[],"['1', '2', '3', '4']",1,2023.2.3,harveyvisual,2.1,[],8,0.75,
1,dot,0.3,['dot'],['density'],black,0,6,6,6,,,4.500196933746338,4.210629940032959,4.510610818862915,dot,[0.06],"[-0.22364231775977078, 0.4637426405669522]",density,black,,,N011,visual,1,[],"['1', '2', '3', '4']",1,2023.2.3,harveyvisual,2.1,[],8,0.75,
0,pause,0.4,None,None,None,0,7,7,7,,,,,,,,,,,,,N011,visual,1,[],"['1', '2', '3', '4']",1,2023.2.3,harveyvisual,2.1,[],8,0.75,
1,dot,0.3,['dot'],['density'],black,0,8,8,8,,,5.200191974639893,4.910614967346191,5.210587978363037,dot,[0.08],"[0.15956500649880873, 0.2640393008039057]",density,black,,,N011,visual,1,[],"['1', '2', '3', '4']",1,2023.2.3,harveyvisual,2.1,[],8,0.75,
0,pause,0.4,None,None,None,0,9,9,9,,,,,,,,,,,,,N011,visual,1,[],"['1', '2', '3', '4']",1,2023.2.3,harveyvisual,2.1,[],8,0.75,
1,dot,0.3,['dot'],['density'],black,0,10,10,10,,,5.900205850601196,5.612762928009033,5.912739038467407,dot,[0.08],"[-0.40242150741388927, 0.27329756427278695]",density,black,,,N011,visual,1,[],"['1', '2', '3', '4']",1,2023.2.3,harveyvisual,2.1,[],8,0.75,
0,pause,0.4,None,None,None,0,11,11,11,,,,,,,,,,,,,N011,visual,1,[],"['1', '2', '3', '4']",1,2023.2.3,harveyvisual,2.1,[],8,0.75,
2,dot,0.3,['dot'],['density'],black,0,12,12,12,,,6.600193977355957,6.312711954116821,6.612695932388306,dot,"[0.1, 0.1]","[[-0.22897676209827808, 0.468650264003531], [-0.0598036877009514, 0.5760211786176329]]",density,black,,,N011,visual,1,[],"['1', '2', '3', '4']",1,2023.2.3,harveyvisual,2.1,[],8,0.75,
0,pause,0.4,None,None,None,0,13,13,13,,,,,,,,,,,,,N011,visual,1,[],"['1', '2', '3', '4']",1,2023.2.3,harveyvisual,2.1,[],8,0.75,
2,dot,0.3,['dot'],['density'],black,0,14,14,14,,,7.3002119064331055,7.012715816497803,7.3126959800720215,dot,"[0.08, 0.08]","[[-0.5356907773971091, -0.01454049690556478], [-0.3936553319468624, 0.1263392020735458]]",density,black,,,N011,visual,1,[],"['1', '2', '3', '4']",1,2023.2.3,harveyvisual,2.1,[],8,0.75,
0,pause,0.4,None,None,None,0,15,15,15,,,,,,,,,,,,,N011,visual,1,[],"['1', '2', '3', '4']",1,2023.2.3,harveyvisual,2.1,[],8,0.75,
2,dot,0.3,['dot'],['density'],black,0,16,16,16,,,8.000213861465454,7.712709903717041,8.012692928314209,dot,"[0.1, 0.1]","[[0.4101371699595759, -0.046236245446824746], [0.42481245787877703, -0.24684889303111815]]",density,black,,,N011,visual,1,[],"['1', '2', '3', '4']",1,2023.2.3,harveyvisual,2.1,[],8,0.75,
0,pause,0.4,None,None,None,0,17,17,17,,,,,,,,,,,,,N011,visual,1,[],"['1', '2', '3', '4']",1,2023.2.3,harveyvisual,2.1,[],8,0.75,
2,dot,0.3,['dot'],['density'],white,0,18,18,18,,,8.700196027755737,8.41267991065979,8.712833881378174,dot,"[0.06, 0.1]","[[0.500151128333041, 0.1656925720118866], [0.3771979967144504, 0.3235340638115745]]",density,white,,,N011,visual,1,[],"['1', '2', '3', '4']",1,2023.2.3,harveyvisual,2.1,[],8,0.75,
0,pause,0.4,None,None,None,0,19,19,19,,,,,,,,,,,1,9.000293970108032,N011,visual,1,[],"['1', '2', '3', '4']",1,2023.2.3,harveyvisual,2.1,[],8,0.75,
2,dot,0.3,['dot'],['density'],black,0,20,20,20,,,9.400199890136719,9.112630844116211,9.412873029708862,dot,"[0.06, 0.08]","[[-0.4579128382498026, -0.013317831223324628], [-0.28624676016543393, -0.11681778735554697]]",density,black,,,N011,visual,1,[],"['1', '2', '3', '4']",1,2023.2.3,harveyvisual,2.1,[],8,0.75,
0,pause,0.4,None,None,None,0,21,21,21,,,,,,,,,,,,,N011,visual,1,[],"['1', '2', '3', '4']",1,2023.2.3,harveyvisual,2.1,[],8,0.75,
2,dot,0.3,['dot'],['density'],black,0,22,22,22,,,10.100198984146118,9.812793970108032,10.112627029418945,dot,"[0.1, 0.06]","[[-0.19482721327365293, -0.5079820576301489], [-0.36119809377872014, -0.396546877814361]]",density,black,,,N011,visual,1,[],"['1', '2', '3', '4']",1,2023.2.3,harveyvisual,2.1,[],8,0.75,
0,pause,0.4,None,None,None,0,23,23,23,,,,,,,,,,,,,N011,visual,1,[],"['1', '2', '3', '4']",1,2023.2.3,harveyvisual,2.1,[],8,0.75,
3,dot,0.3,['dot'],['density'],black,0,24,24,24,,,10.800201892852783,10.512610912322998,10.812579870223999,dot,"[0.08, 0.1, 0.08]","[[-0.1591938184585166, 0.2573970255855866], [-0.049574382916532336, 0.44031337398050124], [0.08264166875933507, 0.262381570646859]]",density,black,,,N011,visual,1,[],"['1', '2', '3', '4']",1,2023.2.3,harveyvisual,2.1,[],8,0.75,
0,pause,0.4,None,None,None,0,25,25,25,,,,,,,,,,,,,N011,visual,1,[],"['1', '2', '3', '4']",1,2023.2.3,harveyvisual,2.1,[],8,0.75,
3,dot,0.3,['dot'],['density'],black,0,26,26,26,,,11.500197887420654,11.21259593963623,11.51260495185852,dot,"[0.08, 0.06, 0.06]","[[0.023581383320217864, -0.14485493475327696], [-0.06776129410461201, 0.04872406380669356], [0.14236151446293968, 0.029671970014602284]]",density,black,,,N011,visual,1,[],"['1', '2', '3', '4']",1,2023.2.3,harveyvisual,2.1,[],8,0.75,
0,pause,0.4,None,None,None,0,27,27,27,,,,,,,,,,,,,N011,visual,1,[],"['1', '2', '3', '4']",1,2023.2.3,harveyvisual,2.1,[],8,0.75,
3,dot,0.3,['dot'],['density'],black,0,28,28,28,,,12.20021390914917,11.912555932998657,12.21271800994873,dot,"[0.08, 0.08, 0.1]","[[-0.15674404860239688, -0.25078459247658497], [0.006578924124220241, -0.41324131210186005], [0.06959682433872849, -0.20549031443856539]]",density,black,,,N011,visual,1,[],"['1', '2', '3', '4']",1,2023.2.3,harveyvisual,2.1,[],8,0.75,
0,pause,0.4,None,None,None,0,29,29,29,,,,,,,,,,,,,N011,visual,1,[],"['1', '2', '3', '4']",1,2023.2.3,harveyvisual,2.1,[],8,0.75,
3,dot,0.3,['dot'],['density'],black,0,30,30,30,,,12.900190830230713,12.61272382736206,12.912524938583374,dot,"[0.1, 0.1, 0.06]","[[0.13507679288784277, 0.012189921546254917], [0.31506600046810584, 0.10578898906948993], [0.12756957777796288, 0.2513869495778075]]",density,black,,,N011,visual,1,[],"['1', '2', '3', '4']",1,2023.2.3,harveyvisual,2.1,[],8,0.75,
0,pause,0.4,None,None,None,0,31,31,31,,,,,,,,,,,,,N011,visual,1,[],"['1', '2', '3', '4']",1,2023.2.3,harveyvisual,2.1,[],8,0.75,
3,dot,0.3,['dot'],['density'],black,0,32,32,32,,,13.600205898284912,13.312551021575928,13.6124849319458,dot,"[0.08, 0.06, 0.08]","[[-0.42255820389626353, 0.35871945956833473], [-0.19896656331745483, 0.3032224324013186], [-0.25553590712368324, 0.5056038804507684]]",density,black,,,N011,visual,1,[],"['1', '2', '3', '4']",1,2023.2.3,harveyvisual,2.1,[],8,0.75,
0,pause,0.4,None,None,None,0,33,33,33,,,,,,,,,,,,,N011,visual,1,[],"['1', '2', '3', '4']",1,2023.2.3,harveyvisual,2.1,[],8,0.75,
3,dot,0.3,['dot'],['density'],black,0,34,34,34,,,14.300206899642944,14.012735843658447,14.312618017196655,dot,"[0.1, 0.1, 0.06]","[[-0.3391924794566746, 0.43027756448319565], [-0.33080415183405026, 0.2112686575961512], [-0.14277619127331137, 0.29962579604826906]]",density,black,,,N011,visual,1,[],"['1', '2', '3', '4']",1,2023.2.3,harveyvisual,2.1,[],8,0.75,
0,pause,0.4,None,None,None,0,35,35,35,,,,,,,,,,,,,N011,visual,1,[],"['1', '2', '3', '4']",1,2023.2.3,harveyvisual,2.1,[],8,0.75,
4,dot,0.3,['dot'],['density'],black,0,36,36,36,,,15.000200986862183,14.712479829788208,15.012606859207153,dot,"[0.1, 0.08, 0.06, 0.06]","[[-0.041173875632770134, -0.46498671258652186], [-0.2993670243960792, -0.1306311282158324], [-0.23343206187288035, -0.39905635110522214], [-0.1242366033797093, -0.2299834244258363]]",density,black,,,N011,visual,1,[],"['1', '2', '3', '4']",1,2023.2.3,harveyvisual,2.1,[],8,0.75,
0,pause,0.4,None,None,None,0,37,37,37,,,,,,,,,,,,,N011,visual,1,[],"['1', '2', '3', '4']",1,2023.2.3,harveyvisual,2.1,[],8,0.75,
4,dot,0.3,['dot'],['density'],black,0,38,38,38,,,15.700207948684692,15.412461996078491,15.71246886253357,dot,"[0.1, 0.06, 0.06, 0.1]","[[0.0004228548582206217, 0.4437421379736539], [0.24572762857664815, 0.2260868474052859], [0.007756854070108054, 0.1846819218217072], [0.22099789303306372, 0.4278063517398125]]",density,black,,,N011,visual,1,[],"['1', '2', '3', '4']",1,2023.2.3,harveyvisual,2.1,[],8,0.75,
0,pause,0.4,None,None,None,0,39,39,39,,,,,,,,,,,,,N011,visual,1,[],"['1', '2', '3', '4']",1,2023.2.3,harveyvisual,2.1,[],8,0.75,
4,dot,0.3,['dot'],['density'],black,0,40,40,40,,,16.400190830230713,16.11244797706604,16.41243600845337,dot,"[0.06, 0.06, 0.08, 0.1]","[[-0.03907102058372138, -0.1723346686752248], [0.13255167928633116, -0.03782047714335622], [0.2720101467217329, -0.23443565690461937], [0.07080951743106016, -0.35239766365090747]]",density,black,,,N011,visual,1,[],"['1', '2', '3', '4']",1,2023.2.3,harveyvisual,2.1,[],8,0.75,
0,pause,0.4,None,None,None,0,41,41,41,,,,,,,,,,,,,N011,visual,1,[],"['1', '2', '3', '4']",1,2023.2.3,harveyvisual,2.1,[],8,0.75,
4,dot,0.3,['dot'],['density'],black,0,42,42,42,,,17.100210905075073,16.812417030334473,17.112579822540283,dot,"[0.08, 0.06, 0.1, 0.08]","[[-0.041173875632770134, -0.46498671258652186], [-0.2993670243960792, -0.1306311282158324], [-0.23343206187288035, -0.39905635110522214], [-0.1242366033797093, -0.2299834244258363]]",density,black,,,N011,visual,1,[],"['1', '2', '3', '4']",1,2023.2.3,harveyvisual,2.1,[],8,0.75,
0,pause,0.4,None,None,None,0,43,43,43,,,,,,,,,,,,,N011,visual,1,[],"['1', '2', '3', '4']",1,2023.2.3,harveyvisual,2.1,[],8,0.75,
4,dot,0.3,['dot'],['density'],black,0,44,44,44,,,17.80021595954895,17.51253581047058,17.812536001205444,dot,"[0.06, 0.1, 0.08, 0.1]","[[0.3428963381299033, -0.004396565162037705], [0.42558881424794154, 0.18301493672810298], [0.5687630200397232, 0.01721079717795714], [0.4301208405972816, -0.23499851958356296]]",density,black,,,N011,visual,1,[],"['1', '2', '3', '4']",1,2023.2.3,harveyvisual,2.1,[],8,0.75,
0,pause,0.4,None,None,None,0,45,45,45,,,,,,,,,,,,,N011,visual,1,[],"['1', '2', '3', '4']",1,2023.2.3,harveyvisual,2.1,[],8,0.75,
4,dot,0.3,['dot'],['density'],black,0,46,46,46,,,18.500207901000977,18.212365865707397,18.51235795021057,dot,"[0.06, 0.1, 0.06, 0.1]","[[0.06019618102804278, 0.17823994931545822], [-0.1876584465411705, -0.07971170835358893], [0.026807447441335588, -0.04038633305360204], [-0.17818728785032123, 0.12753763641901858]]",density,black,,,N011,visual,1,[],"['1', '2', '3', '4']",1,2023.2.3,harveyvisual,2.1,[],8,0.75,
0,pause,0.4,None,None,None,0,47,47,47,,,,,,,,,,,,,N011,visual,1,[],"['1', '2', '3', '4']",1,2023.2.3,harveyvisual,2.1,[],8,0.75,
5,dot,0.3,['dot'],['density'],black,0,48,48,48,,,19.200193881988525,18.91235089302063,19.21233582496643,dot,"[0.08, 0.1, 0.1, 0.1, 0.1]","[[-0.13667773294397823, -0.4810836359727921], [0.22435054442879343, -0.38211739689247126], [0.18745946747878278, -0.17039478388844306], [0.024239655080151325, -0.29759851870815907], [0.08919077751561523, -0.5300131723353856]]",density,black,,,N011,visual,1,[],"['1', '2', '3', '4']",1,2023.2.3,harveyvisual,2.1,[],8,0.75,
0,pause,0.4,None,None,None,0,49,49,49,,,,,,,,,,,,,N011,visual,1,[],"['1', '2', '3', '4']",1,2023.2.3,harveyvisual,2.1,[],8,0.75,
5,dot,0.3,['dot'],['density'],black,0,50,50,50,,,19.900202989578247,19.612324953079224,19.912317037582397,dot,"[0.06, 0.06, 0.1, 0.1, 0.08]","[[0.4409169755572007, 0.017856988789309493], [0.10933872532765951, -0.20637645515835812], [0.27728831588229885, 0.198954967346464], [0.3100556643305453, -0.16532657838491105], [0.11148968869271939, 0.006469487304542018]]",density,black,,,N011,visual,1,[],"['1', '2', '3', '4']",1,2023.2.3,harveyvisual,2.1,[],8,0.75,
0,pause,0.4,None,None,None,0,51,51,51,,,,,,,,,,,,,N011,visual,1,[],"['1', '2', '3', '4']",1,2023.2.3,harveyvisual,2.1,[],8,0.75,
5,dot,0.3,['dot'],['density'],white,0,52,52,52,,,20.600214958190918,20.312297821044922,20.612298011779785,dot,"[0.06, 0.06, 0.06, 0.06, 0.08]","[[-0.16893136043895146, -0.20127892763881453], [-0.5727216740452047, -0.07682091551650742], [-0.343702592036276, -0.060533526953518955], [-0.5038383983260774, 0.15268268748871192], [-0.379488354443274, -0.2704310218069364]]",density,white,,,N011,visual,1,[],"['1', '2', '3', '4']",1,2023.2.3,harveyvisual,2.1,[],8,0.75,
0,pause,0.4,None,None,None,0,53,53,53,,,,,,,,,,,1,20.83950400352478,N011,visual,1,[],"['1', '2', '3', '4']",1,2023.2.3,harveyvisual,2.1,[],8,0.75,
5,dot,0.3,['dot'],['density'],black,0,54,54,54,,,21.300209045410156,21.01253890991211,21.31228804588318,dot,"[0.08, 0.06, 0.1, 0.08, 0.1]","[[-0.16255238243643175, 0.17860987090823105], [-0.3708934258622909, -0.17994308192218272], [-0.3873401471382859, 0.23755408526324856], [-0.3082462149465763, 0.01808515368093923], [-0.09381294098683406, -0.04001219282613638]]",density,black,,,N011,visual,1,[],"['1', '2', '3', '4']",1,2023.2.3,harveyvisual,2.1,[],8,0.75,
0,pause,0.4,None,None,None,0,55,55,55,,,,,,,,,,,,,N011,visual,1,[],"['1', '2', '3', '4']",1,2023.2.3,harveyvisual,2.1,[],8,0.75,
5,dot,0.3,['dot'],['density'],black,0,56,56,56,,,22.000203847885132,21.712265014648438,22.0122549533844,dot,"[0.06, 0.08, 0.08, 0.1, 0.1]","[[0.10176071415026891, -0.0029310292721688898], [0.32748853803000494, -0.2831003617774451], [0.10999898603900501, -0.23076615641811304], [0.2383494361888625, 0.16403485824849598], [0.3558293804179042, -0.08171974316418079]]",density,black,,,N011,visual,1,[],"['1', '2', '3', '4']",1,2023.2.3,harveyvisual,2.1,[],8,0.75,
0,pause,0.4,None,None,None,0,57,57,57,,,,,,,,,,,,,N011,visual,1,[],"['1', '2', '3', '4']",1,2023.2.3,harveyvisual,2.1,[],8,0.75,
5,dot,0.3,['dot'],['density'],black,0,58,58,58,,,22.700206995010376,22.412250995635986,22.712234020233154,dot,"[0.06, 0.06, 0.06, 0.06, 0.08]","[[-0.2338402938730933, 0.15846616122991625], [-0.3229678957369872, -0.0901175890533356], [-0.5034912146055804, 0.021834460539281654], [-0.23914892391179104, -0.28496604153387733], [-0.10132718886958789, -0.1172648190903725]]",density,black,,,N011,visual,1,[],"['1', '2', '3', '4']",1,2023.2.3,harveyvisual,2.1,[],8,0.75,
0,pause,0.4,None,None,None,0,59,59,59,,,,,,,,,,,,,N011,visual,1,[],"['1', '2', '3', '4']",1,2023.2.3,harveyvisual,2.1,[],8,0.75,
6,dot,0.3,['dot'],['density'],black,0,60,60,60,,,23.40021300315857,23.112231969833374,23.412214040756226,dot,"[0.06, 0.06, 0.06, 0.1, 0.1, 0.08]","[[0.4536033237290603, -0.10703390074252807], [0.4090862681261178, 0.14156446515860444], [0.3446070222150913, -0.333203595144996], [0.1541486512624917, 0.13839280063469406], [0.16833114318264894, -0.23068973514796048], [0.2520001164899556, -0.04323865486760776]]",density,black,,,N011,visual,1,[],"['1', '2', '3', '4']",1,2023.2.3,harveyvisual,2.1,[],8,0.75,
0,pause,0.4,None,None,None,0,61,61,61,,,,,,,,,,,,,N011,visual,1,[],"['1', '2', '3', '4']",1,2023.2.3,harveyvisual,2.1,[],8,0.75,
6,dot,0.3,['dot'],['density'],black,0,62,62,62,,,24.100219011306763,23.812225818634033,24.112251043319702,dot,"[0.06, 0.1, 0.1, 0.08, 0.1, 0.1]","[[0.1643264729387965, -0.2471077239796436], [-0.22534804549937193, -0.4918728234310363], [-0.026166131246113146, -0.09278119687647148], [-0.24451989516519138, -0.21339523607155425], [0.11868454116144263, -0.4574197693624388], [-0.058907778787058426, -0.30919141315076737]]",density,black,,,N011,visual,1,[],"['1', '2', '3', '4']",1,2023.2.3,harveyvisual,2.1,[],8,0.75,
0,pause,0.4,None,None,None,0,63,63,63,,,,,,,,,,,,,N011,visual,1,[],"['1', '2', '3', '4']",1,2023.2.3,harveyvisual,2.1,[],8,0.75,
6,dot,0.3,['dot'],['density'],black,0,64,64,64,,,24.800209045410156,24.512264013290405,24.812245845794678,dot,"[0.06, 0.06, 0.08, 0.06, 0.08, 0.1]","[[0.0015484977009578463, -0.37153509484940705], [-0.24631791352898516, -0.16063896847060222], [-0.21037316856202723, -0.37491302730087106], [-0.14520134419833938, 0.05228402714841561], [-0.41979900021501537, -0.27073368115662844], [-0.020720382871846178, -0.14076137757070492]]",density,black,,,N011,visual,1,[],"['1', '2', '3', '4']",1,2023.2.3,harveyvisual,2.1,[],8,0.75,
0,pause,0.4,None,None,None,0,65,65,65,,,,,,,,,,,,,N011,visual,1,[],"['1', '2', '3', '4']",1,2023.2.3,harveyvisual,2.1,[],8,0.75,
6,dot,0.3,['dot'],['density'],black,0,66,66,66,,,25.500203847885132,25.212235927581787,25.512233018875122,dot,"[0.06, 0.06, 0.08, 0.1, 0.06, 0.1]","[[0.404576257273406, 0.0700140295133255], [0.16236872381874318, -0.0021128728600973284], [0.5529541989122894, -0.15659614737169442], [0.13702497511457395, -0.2589057080071786], [0.36740063964394665, -0.3636528069500345], [0.3132750905084481, -0.159771579268986]]",density,black,,,N011,visual,1,[],"['1', '2', '3', '4']",1,2023.2.3,harveyvisual,2.1,[],8,0.75,
0,pause,0.4,None,None,None,0,67,67,67,,,,,,,,,,,,,N011,visual,1,[],"['1', '2', '3', '4']",1,2023.2.3,harveyvisual,2.1,[],8,0.75,
6,dot,0.3,['dot'],['density'],black,0,68,68,68,,,26.200204849243164,25.91215491294861,26.212143898010254,dot,"[0.1, 0.06, 0.1, 0.06, 0.06, 0.08]","[[-0.25052904509636076, -0.46440103658729176], [-0.12772535636451293, 0.010821502090106766], [-0.031043743050516784, -0.3649555915866845], [-0.3754529733759062, -0.18839395716731677], [0.07378414788444272, -0.15062955699655364], [-0.17220243018048728, -0.20498996683935267]]",density,black,,,N011,visual,1,[],"['1', '2', '3', '4']",1,2023.2.3,harveyvisual,2.1,[],8,0.75,
0,pause,0.4,None,None,None,0,69,69,69,,,,,,,,,,,,,N011,visual,1,[],"['1', '2', '3', '4']",1,2023.2.3,harveyvisual,2.1,[],8,0.75,
6,dot,0.3,['dot'],['density'],black,0,70,70,70,,,26.900190830230713,26.612128973007202,26.912125825881958,dot,"[0.06, 0.1, 0.08, 0.06, 0.08, 0.1]","[[0.0015484977009578463, -0.37153509484940705], [-0.24631791352898516, -0.16063896847060222], [-0.21037316856202723, -0.37491302730087106], [-0.14520134419833938, 0.05228402714841561], [-0.41979900021501537, -0.27073368115662844], [-0.020720382871846178, -0.14076137757070492]]",density,black,,,N011,visual,1,[],"['1', '2', '3', '4']",1,2023.2.3,harveyvisual,2.1,[],8,0.75,
0,pause,0.4,None,None,None,0,71,71,71,,,,,,,,,,,,,N011,visual,1,[],"['1', '2', '3', '4']",1,2023.2.3,harveyvisual,2.1,[],8,0.75,
7,dot,0.3,['dot'],['density'],black,0,72,72,72,,,27.600205898284912,27.312119960784912,27.612098932266235,dot,"[0.06, 0.06, 0.06, 0.08, 0.06, 0.1, 0.06]","[[-0.026372969700101213, 0.05085620782211805], [-0.16304282038196347, -0.3616501386780019], [-0.013762327205412121, -0.14910430285435466], [0.14729449770710015, -0.3647544547161306], [-0.22494517313234175, -0.12035103032643314], [-0.36514670174418407, -0.33057163197754225], [0.21417125919861074, -0.06627923590771367]]",density,black,,,N011,visual,1,[],"['1', '2', '3', '4']",1,2023.2.3,harveyvisual,2.1,[],8,0.75,
0,pause,0.4,None,None,None,0,73,73,73,,,,,,,,,,,,,N011,visual,1,[],"['1', '2', '3', '4']",1,2023.2.3,harveyvisual,2.1,[],8,0.75,
7,dot,0.3,['dot'],['density'],black,0,74,74,74,,,28.300200939178467,28.012091875076294,28.312095880508423,dot,"[0.06, 0.06, 0.06, 0.06, 0.06, 0.1, 0.06]","[[-0.2822174821233986, 0.002117056236134186], [-0.10673242512413421, 0.4781556216085482], [-0.18432519539246728, 0.19072201575640843], [-0.4524596318479574, 0.13966285650530724], [0.06907010423411483, 0.2912708813513049], [-0.07412436007020941, -0.021022205933558278], [-0.3208835015251209, 0.3986768431743725]]",density,black,,,N011,visual,1,[],"['1', '2', '3', '4']",1,2023.2.3,harveyvisual,2.1,[],8,0.75,
0,pause,0.4,None,None,None,0,75,75,75,,,,,,,,,,,,,N011,visual,1,[],"['1', '2', '3', '4']",1,2023.2.3,harveyvisual,2.1,[],8,0.75,
7,dot,0.3,['dot'],['density'],black,0,76,76,76,,,29.000197887420654,28.712069034576416,29.01207399368286,dot,"[0.08, 0.06, 0.1, 0.08, 0.06, 0.1, 0.08]","[[-0.15204905838880944, -0.5333107186751418], [-0.1519936835116667, -0.2986813487337615], [0.3123805602017952, -0.370842296180838], [-0.04397638837772695, -0.01669328424437847], [0.11716920447009348, -0.14912816843546053], [0.1067198166566748, -0.5553575834591685], [0.04038917577175449, -0.3541606866516689]]",density,black,,,N011,visual,1,[],"['1', '2', '3', '4']",1,2023.2.3,harveyvisual,2.1,[],8,0.75,
0,pause,0.4,None,None,None,0,77,77,77,,,,,,,,,,,,,N011,visual,1,[],"['1', '2', '3', '4']",1,2023.2.3,harveyvisual,2.1,[],8,0.75,
7,dot,0.3,['dot'],['density'],black,0,78,78,78,,,29.700199842453003,29.41210389137268,29.712047815322876,dot,"[0.08, 0.08, 0.06, 0.1, 0.1, 0.1, 0.1]","[[0.13823229125104186, -0.11287424625882309], [-0.082914425993103, 0.43156227464827385], [0.30107400633957315, 0.2583336012722512], [-0.1103107855725706, 0.20298726112520996], [0.37862923877470095, 0.05664428164281185], [0.10057609128089995, 0.3089177590539603], [0.1009283971288976, 0.1061295027106774]]",density,black,,,N011,visual,1,[],"['1', '2', '3', '4']",1,2023.2.3,harveyvisual,2.1,[],8,0.75,
0,pause,0.4,None,None,None,0,79,79,79,,,,,,,,,,,,,N011,visual,1,[],"['1', '2', '3', '4']",1,2023.2.3,harveyvisual,2.1,[],8,0.75,
7,dot,0.3,['dot'],['density'],black,0,80,80,80,,,30.40020203590393,30.11202096939087,30.412015914916992,dot,"[0.08, 0.06, 0.08, 0.08, 0.08, 0.06, 0.06]","[[-0.3025445156539714, -0.42280529123536587], [0.12162933753582021, -0.2851722644810181], [-0.2753205641105948, -0.038672864930592576], [-0.4202189534315163, -0.18742991959605093], [-0.15636117447925973, -0.27217203193286355], [-0.09967880665522989, -0.47242523529006747], [-0.06261398545311019, -0.08879309989794046]]",density,black,,,N011,visual,1,[],"['1', '2', '3', '4']",1,2023.2.3,harveyvisual,2.1,[],8,0.75,
0,pause,0.4,None,None,None,0,81,81,81,,,,,,,,,,,,,N011,visual,1,[],"['1', '2', '3', '4']",1,2023.2.3,harveyvisual,2.1,[],8,0.75,
7,dot,0.3,['dot'],['density'],white,0,82,82,82,,,31.100214958190918,30.812021017074585,31.11201500892639,dot,"[0.06, 0.08, 0.06, 0.08, 0.06, 0.08, 0.06]","[[0.27964692832129656, -0.15500474148311624], [0.48019533028943556, 0.09933774746227163], [0.08203545767143021, 0.28019381302663365], [0.05572057582720619, -0.1426303369841539], [0.31711281236335803, 0.2944831276535668], [-0.041479771322150735, 0.11885700406191958], [0.21045310206912196, 0.07075003364957701]]",density,white,,,N011,visual,1,[],"['1', '2', '3', '4']",1,2023.2.3,harveyvisual,2.1,[],8,0.75,
0,pause,0.4,None,None,None,0,83,83,83,,,,,,,,,,,1,31.294814825057983,N011,visual,1,[],"['1', '2', '3', '4']",1,2023.2.3,harveyvisual,2.1,[],8,0.75,
8,dot,0.3,['dot'],['density'],black,0,84,84,84,,,31.80020785331726,31.512009859085083,31.8119900226593,dot,"[0.1, 0.08, 0.1, 0.08, 0.08, 0.1, 0.1, 0.08]","[[0.2715518471235014, -0.4245138665073026], [0.03602391524707561, -0.40638782213015096], [0.4828297141312073, -0.09119901312376678], [0.02835794216237903, 0.028275321652194735], [-0.0895445032969687, -0.19822740391127236], [0.3178997883629752, 0.08245100984997318], [0.21920060966397442, -0.22342839817001514], [0.46807969757011175, -0.32427319705723295]]",density,black,,,N011,visual,1,[],"['1', '2', '3', '4']",1,2023.2.3,harveyvisual,2.1,[],8,0.75,
0,pause,0.4,None,None,None,0,85,85,85,,,,,,,,,,,,,N011,visual,1,[],"['1', '2', '3', '4']",1,2023.2.3,harveyvisual,2.1,[],8,0.75,
8,dot,0.3,['dot'],['density'],black,0,86,86,86,,,32.50020503997803,32.214733839035034,32.512022972106934,dot,"[0.08, 0.1, 0.08, 0.08, 0.08, 0.1, 0.08, 0.1]","[[-0.13214754069031825, -0.5402677255150703], [0.1288984478000013, -0.5519726475135984], [0.27401725229332, -0.34994268047279037], [-0.052680844420756816, 0.006786609240531098], [0.03557367748195712, -0.3699094958310016], [-0.23170140006741713, -0.18198058676873416], [-0.33504621301322857, -0.3611685350886627], [0.0760940577115827, -0.14857148175569432]]",density,black,,,N011,visual,1,[],"['1', '2', '3', '4']",1,2023.2.3,harveyvisual,2.1,[],8,0.75,
0,pause,0.4,None,None,None,0,87,87,87,,,,,,,,,,,,,N011,visual,1,[],"['1', '2', '3', '4']",1,2023.2.3,harveyvisual,2.1,[],8,0.75,
8,dot,0.3,['dot'],['density'],black,0,88,88,88,,,33.20020794868469,32.91213893890381,33.21199297904968,dot,"[0.1, 0.08, 0.06, 0.1, 0.1, 0.1, 0.08, 0.08]","[[0.2715518471235014, -0.4245138665073026], [0.03602391524707561, -0.40638782213015096], [0.4828297141312073, -0.09119901312376678], [0.02835794216237903, 0.028275321652194735], [-0.0895445032969687, -0.19822740391127236], [0.3178997883629752, 0.08245100984997318], [0.21920060966397442, -0.22342839817001514], [0.46807969757011175, -0.32427319705723295]]",density,black,,,N011,visual,1,[],"['1', '2', '3', '4']",1,2023.2.3,harveyvisual,2.1,[],8,0.75,
0,pause,0.4,None,None,None,0,89,89,89,,,,,,,,,,,,,N011,visual,1,[],"['1', '2', '3', '4']",1,2023.2.3,harveyvisual,2.1,[],8,0.75,
8,dot,0.3,['dot'],['density'],black,0,90,90,90,,,33.90020203590393,33.61212182044983,33.91197085380554,dot,"[0.08, 0.06, 0.06, 0.06, 0.06, 0.08, 0.08, 0.08]","[[-0.503192831713878, 0.2818759502405315], [-0.1851508851951268, 0.5121570681976513], [-0.3428391331654375, 0.06336275884690255], [-0.2620893383019587, 0.2653373399092269], [-0.09201493982796581, 0.138249408295409], [-0.14188251758679749, -0.08598668861617832], [-0.5391716430792404, 0.01870596234549803], [-0.2779852747659758, -0.23950462846526258]]",density,black,,,N011,visual,1,[],"['1', '2', '3', '4']",1,2023.2.3,harveyvisual,2.1,[],8,0.75,
0,pause,0.4,None,None,None,0,91,91,91,,,,,,,,,,,,,N011,visual,1,[],"['1', '2', '3', '4']",1,2023.2.3,harveyvisual,2.1,[],8,0.75,
8,dot,0.3,['dot'],['density'],black,0,92,92,92,,,34.60019588470459,34.312093019485474,34.611960887908936,dot,"[0.06, 0.06, 0.06, 0.1, 0.06, 0.06, 0.08, 0.1]","[[0.17295790489511154, -0.46037743866749825], [0.1416591427765588, 0.05421051799673566], [0.21994266958916148, -0.13656690113679631], [0.3639906379971415, 0.0627265571221228], [0.015481321741344221, -0.13916897583717935], [0.440802488837635, -0.2883976186876931], [0.5157567705321767, -0.08800602901884749], [0.24768837887357187, 0.24424825162618136]]",density,black,,,N011,visual,1,[],"['1', '2', '3', '4']",1,2023.2.3,harveyvisual,2.1,[],8,0.75,
0,pause,0.4,None,None,None,0,93,93,93,,,,,,,,,,,,,N011,visual,1,[],"['1', '2', '3', '4']",1,2023.2.3,harveyvisual,2.1,[],8,0.75,
8,dot,0.3,['dot'],['density'],black,0,94,94,94,,,35.30020999908447,35.01195502281189,35.311931848526,dot,"[0.1, 0.1, 0.08, 0.1, 0.06, 0.08, 0.1, 0.06]","[[-0.3290570048964025, 0.45712517183014534], [-0.12351728740192595, 0.19722326774196852], [-0.44617383739254307, -0.0315435053038489], [0.05824565693526591, 0.08769012542188236], [-0.4904255353169048, 0.31423420558286136], [-0.32491150822629034, 0.16696319418744587], [-0.12614658653380179, 0.4043789036591275], [0.10044097339982726, 0.3130264767685494]]",density,black,,,N011,visual,1,[],"['1', '2', '3', '4']",1,2023.2.3,harveyvisual,2.1,[],8,0.75,
0,pause,0.4,None,None,None,0,95,95,95,,,,,,,,,,,,,N011,visual,1,[],"['1', '2', '3', '4']",1,2023.2.3,harveyvisual,2.1,[],8,0.75,
9,dot,0.3,['dot'],['density'],black,0,96,96,96,,,36.000216007232666,35.71203899383545,36.01206398010254,dot,"[0.06, 0.1, 0.1, 0.1, 0.08, 0.06, 0.1, 0.08, 0.1]","[[0.12352761201622256, -0.5468572532837559], [0.3269537579821693, -0.14821727133703638], [-0.17374906020363926, -0.07190913605219341], [-0.07646026346349713, -0.5341566642345157], [0.06446752128858728, 0.011530587655488696], [0.17734850627899523, -0.32847254707869106], [-0.01015131191695844, -0.24065236825376074], [-0.3732824370369478, -0.21519922319826376], [-0.23017550258214428, -0.35747389881463476]]",density,black,,,N011,visual,1,[],"['1', '2', '3', '4']",1,2023.2.3,harveyvisual,2.1,[],8,0.75,
0,pause,0.4,None,None,None,0,97,97,97,,,,,,,,,,,,,N011,visual,1,[],"['1', '2', '3', '4']",1,2023.2.3,harveyvisual,2.1,[],8,0.75,
9,dot,0.3,['dot'],['density'],black,0,98,98,98,,,36.700204849243164,36.41194796562195,36.71183800697327,dot,"[0.06, 0.1, 0.1, 0.1, 0.06, 0.06, 0.1, 0.08, 0.1]","[[0.005765111513037631, -0.143111035787845], [-0.396275933094447, -0.3321437400526764], [0.037546025436095476, -0.5612590109297682], [-0.23561619682408028, -0.19372599185683617], [-0.24582953746203298, -0.47553838121684505], [-0.07047609790874906, -0.3562711323606942], [-0.09403038697424164, 0.06164574472317626], [0.13577280496850042, -0.3868547356250126], [0.15608206217807025, 0.06264253907795621]]",density,black,,,N011,visual,1,[],"['1', '2', '3', '4']",1,2023.2.3,harveyvisual,2.1,[],8,0.75,
0,pause,0.4,None,None,None,0,99,99,99,,,,,,,,,,,,,N011,visual,1,[],"['1', '2', '3', '4']",1,2023.2.3,harveyvisual,2.1,[],8,0.75,
9,dot,0.3,['dot'],['density'],black,0,100,100,100,,,37.40019488334656,37.11186385154724,37.41207981109619,dot,"[0.06, 0.06, 0.06, 0.08, 0.06, 0.1, 0.1, 0.08, 0.08]","[[-0.39546702852536103, 0.05887767166707298], [0.0019437857506851024, 0.07006750722115952], [0.08809400946991845, -0.15083790972035777], [-0.35358057288562594, -0.14123029179452673], [-0.18893042820243505, -0.004761820558363635], [-0.16054322822148615, -0.2701644482013472], [-0.3593088451216199, 0.2649120528395154], [-0.09346394646241396, -0.4621051997984888], [-0.5526246027455071, -0.11781718335669726]]",density,black,,,N011,visual,1,[],"['1', '2', '3', '4']",1,2023.2.3,harveyvisual,2.1,[],8,0.75,
0,pause,0.4,None,None,None,0,101,101,101,,,,,,,,,,,,,N011,visual,1,[],"['1', '2', '3', '4']",1,2023.2.3,harveyvisual,2.1,[],8,0.75,
9,dot,0.3,['dot'],['density'],black,0,102,102,102,,,38.10020303726196,37.81210494041443,38.11182403564453,dot,"[0.08, 0.08, 0.06, 0.1, 0.1, 0.1, 0.06, 0.06, 0.08]","[[-0.15654783233563613, 0.5456880468186037], [-0.24757731968740795, 0.34117179271889175], [0.237608115185398, 0.5379153628426676], [0.0469559873873498, 0.0609843963705915], [0.17872629641391088, 0.30721368784738284], [-0.014663874177430473, 0.385293302856951], [-0.1034840675008618, 0.1993866575147459], [0.37552485507684036, 0.26074226948317425], [-0.1631567374159006, -0.0021534685146951615]]",density,black,,,N011,visual,1,[],"['1', '2', '3', '4']",1,2023.2.3,harveyvisual,2.1,[],8,0.75,
0,pause,0.4,None,None,None,0,103,103,103,,,,,,,,,,,,,N011,visual,1,[],"['1', '2', '3', '4']",1,2023.2.3,harveyvisual,2.1,[],8,0.75,
9,dot,0.3,['dot'],['density'],black,0,104,104,104,,,38.800220012664795,38.511878967285156,38.81182098388672,dot,"[0.06, 0.08, 0.1, 0.08, 0.06, 0.06, 0.06, 0.06, 0.06]","[[0.5610971552988853, -0.17060184332349634], [0.41375718760989944, -0.015869013459887487], [0.10524493337967332, -0.4151143617417518], [0.33762937987512565, -0.21166948995529247], [0.31978246251342735, -0.42403070142702926], [0.14918584865882126, 0.054317793641313596], [-0.13687229080136074, -0.3544767643123256], [-0.14284940328496695, -0.15361328447573858], [0.09035025664413378, -0.16809195260635462]]",density,black,,,N011,visual,1,[],"['1', '2', '3', '4']",1,2023.2.3,harveyvisual,2.1,[],8,0.75,
0,pause,0.4,None,None,None,0,105,105,105,,,,,,,,,,,,,N011,visual,1,[],"['1', '2', '3', '4']",1,2023.2.3,harveyvisual,2.1,[],8,0.75,
9,dot,0.3,['dot'],['density'],black,0,106,106,106,,,39.500205993652344,39.211859941482544,39.51201581954956,dot,"[0.08, 0.1, 0.06, 0.08, 0.1, 0.06, 0.08, 0.08, 0.06]","[[0.22829877875946783, -0.39640994854570016], [0.3366371496270161, 0.05839125036393789], [-0.11436045239834208, -0.12024221759915668], [-0.02100147820737577, -0.3824026009196371], [0.08479146627654295, 0.024089629435920912], [0.16206374850784472, -0.16075841177209507], [0.38495438842944835, -0.24810596019115372], [-0.23418047716532614, 0.09565997955556291], [0.2111996426858246, 0.23215637940447356]]",density,black,,,N011,visual,1,[],"['1', '2', '3', '4']",1,2023.2.3,harveyvisual,2.1,[],8,0.75,
0,pause,0.4,None,None,None,0,107,107,107,,,,,,,,,,,,,N011,visual,1,[],"['1', '2', '3', '4']",1,2023.2.3,harveyvisual,2.1,[],8,0.75,
20,dot,0.3,['dot'],['density'],black,0,108,108,108,,,40.2002158164978,39.91194486618042,40.211824893951416,dot,"[0.1, 0.06, 0.1, 0.06, 0.08, 0.06, 0.06, 0.1, 0.08, 0.06, 0.1, 0.08, 0.06, 0.08, 0.06, 0.06, 0.1, 0.1, 0.06, 0.08]","[[-0.42224353758494093, 0.3982273791908205], [-0.04451858710563983, 0.21762990773664292], [-0.19513150195739076, -0.11602654402052909], [0.47924560033706876, -0.06699703960151693], [0.28681986037001717, 0.25043988426456687], [-0.3926440241595546, -0.20051550961637965], [-0.0019301422454891526, -0.1456225897448739], [-0.09135622499681706, -0.48928177905545067], [-0.5032111267859448, 0.04656296640126584], [-0.10858231483735936, 0.5420324277802734], [0.27050998025607775, 0.47390059515282434], [0.2762026839955136, 0.048537611659233204], [0.20950869607277156, -0.5440075097512163], [0.4577269238713205, -0.3800836227997688], [0.2430157564353237, -0.2101964732911818], [0.0948502244047188, 0.38285628877643685], [0.48130773692363216, 0.16070632948584895], [-0.3198457688624497, -0.4017686331521715], [-0.3203989856167663, 0.2028962293124429], [0.09893518548843716, -0.35390231359653984]]",density,black,,,N011,visual,1,[],"['1', '2', '3', '4']",1,2023.2.3,harveyvisual,2.1,[],8,0.75,
0,pause,0.4,None,None,None,0,109,109,109,,,,,,,,,,,,,N011,visual,1,[],"['1', '2', '3', '4']",1,2023.2.3,harveyvisual,2.1,[],8,0.75,
20,dot,0.3,['dot'],['density'],black,0,110,110,110,,,40.900216817855835,40.611974000930786,40.911792039871216,dot,"[0.08, 0.08, 0.1, 0.06, 0.08, 0.08, 0.1, 0.08, 0.06, 0.1, 0.08, 0.06, 0.08, 0.06, 0.08, 0.06, 0.1, 0.06, 0.1, 0.1]","[[-0.07103214816149528, -0.5739095102613531], [0.575678483759697, 0.03779341609647893], [0.29560889080455577, 0.42929074842869697], [-0.3789223674807076, -0.050604784826476124], [0.09616826298526149, -0.3117251074108082], [-0.18781512732620032, 0.13633046754736267], [-0.6048965799065686, 0.0004977212728977456], [0.33949069594771886, -0.027455380419463882], [0.06023565309635659, 0.11351951128849758], [-0.4688105063797869, 0.3680921138813462], [0.06478527588830718, 0.5906498551118217], [-0.09504120221527412, 0.32562878195787637], [0.3735642926863132, -0.34169324992202194], [-0.4957203865843294, -0.27426909345851347], [-0.20225418938647205, -0.15742296213076978], [0.4626614374475587, 0.26000607099202805], [-0.3155773779987307, -0.4449907940910596], [0.12283045924185776, 0.3196890563007365], [0.15190552124413426, -0.0937682165226445], [0.550487686286531, -0.1750337516904269]]",density,black,,,N011,visual,1,[],"['1', '2', '3', '4']",1,2023.2.3,harveyvisual,2.1,[],8,0.75,
0,pause,0.4,None,None,None,0,111,111,111,,,,,,,,,,,,,N011,visual,1,[],"['1', '2', '3', '4']",1,2023.2.3,harveyvisual,2.1,[],8,0.75,
20,dot,0.3,['dot'],['density'],black,0,112,112,112,,,41.60019493103027,41.31198287010193,41.61196804046631,dot,"[0.08, 0.08, 0.06, 0.06, 0.06, 0.06, 0.1, 0.08, 0.06, 0.06, 0.06, 0.08, 0.1, 0.1, 0.08, 0.06, 0.06, 0.08, 0.1, 0.08]","[[0.2585049344580852, -0.03180229955655489], [-0.1701896836842705, 0.2332492040960067], [-0.23060955135672806, -0.1524309672589242], [-0.3963870296791137, 0.038356241587794604], [-0.142836252846405, -0.3217026802768064], [-0.5199087785263294, -0.27444954529424737], [0.13250281800022656, 0.42062598885678304], [0.08804124764214827, -0.34168817045459443], [-0.5348275750073936, 0.192748881895889], [-0.3958145195090117, -0.42285247649848445], [0.5200547028745156, 0.246283869853751], [-0.2820327821512805, 0.39930478724641594], [0.5073526201902313, -0.23168432064375838], [-0.5844047471666922, -7.167897525128808e-05], [0.06301982720222643, -0.04123097798397479], [0.5542110848132179, -0.04332144741209348], [0.39999147622970066, -0.45185072410183386], [0.21567144360533164, -0.5543556843267139], [0.11321651682465461, 0.1974026323063941], [-0.06481725692198093, -0.5948380304653116]]",density,black,,,N011,visual,1,[],"['1', '2', '3', '4']",1,2023.2.3,harveyvisual,2.1,[],8,0.75,
0,pause,0.4,None,None,None,0,113,113,113,,,,,,,,,,,,,N011,visual,1,[],"['1', '2', '3', '4']",1,2023.2.3,harveyvisual,2.1,[],8,0.75,
20,dot,0.3,['dot'],['density'],white,0,114,114,114,,,42.30022192001343,42.01200985908508,42.31174397468567,dot,"[0.1, 0.08, 0.06, 0.06, 0.08, 0.1, 0.08, 0.08, 0.1, 0.08, 0.08, 0.1, 0.08, 0.1, 0.06, 0.08, 0.06, 0.08, 0.08, 0.08]","[[0.25447133204974237, -0.3208617684102625], [0.5033760214352464, 0.28855797887846374], [-0.06704814783067792, -0.2803053012717191], [-0.50789881392746, 0.2115641647833344], [-0.18102984786502302, -0.11953194302147346], [-0.32508228973117714, 0.05716646068704667], [-0.4288046642101886, -0.38142930775832307], [-0.07091853570519291, 0.2792313187837492], [-0.1490438801016839, -0.4987280868208953], [0.30607349378191984, 0.20346480063089367], [0.51044047154278, -0.2017696610929583], [0.23387709160933512, -0.07738856409681716], [-0.2897827551673139, 0.39815658840754575], [0.10933821436606228, -0.5522955968973542], [0.5851734986619747, 0.08101395451351792], [-0.5126666798093439, -0.0625360026042025], [-0.02628766543636052, 0.00014411797143931704], [0.11534795150056276, 0.17982679394078005], [0.16573131569265087, 0.5630231845154378], [-0.0578707940138421, 0.555042869531984]]",density,white,,,N011,visual,1,[],"['1', '2', '3', '4']",1,2023.2.3,harveyvisual,2.1,[],8,0.75,
0,pause,0.4,None,None,None,0,115,115,115,,,,,,,,,,,1,42.3983039855957,N011,visual,1,[],"['1', '2', '3', '4']",1,2023.2.3,harveyvisual,2.1,[],8,0.75,
20,dot,0.3,['dot'],['density'],black,0,116,116,116,,,43.000200033187866,42.71176099777222,43.011739015579224,dot,"[0.08, 0.06, 0.08, 0.08, 0.06, 0.08, 0.06, 0.1, 0.1, 0.06, 0.1, 0.1, 0.08, 0.08, 0.1, 0.08, 0.08, 0.08, 0.06, 0.08]","[[-0.5436246915456757, 0.0890743621005251], [0.08422072357442745, -0.47773451986542403], [0.23447672259299823, 0.10512090931990858], [-0.27503792838241986, -0.05781664735105424], [0.002191107710296736, -0.24085218761828936], [-0.5491191372748777, -0.10453795138749317], [0.3591187895724184, 0.48075937054625706], [-0.096912535699194, 0.10892898920576899], [0.26611937242200034, -0.15716100356725726], [-0.2728040933374527, 0.45868095973123313], [0.5632038404612275, 0.0689881374192241], [0.5905617522683547, -0.13127553181321383], [0.47703344069629605, 0.23897497914565363], [0.2953021320171132, -0.38412461668269693], [-0.3540169150447497, 0.14082564171679052], [-0.2561517719026415, -0.5207924694032665], [0.17900824032967289, 0.3350197697434142], [-0.4249286180059335, -0.3494189430030403], [-0.020479140923369887, 0.3697516275277972], [0.06123088031777901, -0.0319709743637735]]",density,black,,,N011,visual,1,[],"['1', '2', '3', '4']",1,2023.2.3,harveyvisual,2.1,[],8,0.75,
0,pause,0.4,None,None,None,0,117,117,117,,,,,,,,,,,,,N011,visual,1,[],"['1', '2', '3', '4']",1,2023.2.3,harveyvisual,2.1,[],8,0.75,
20,dot,0.3,['dot'],['density'],black,0,118,118,118,,,43.70019793510437,43.411717891693115,43.71165680885315,dot,"[0.08, 0.06, 0.08, 0.1, 0.1, 0.06, 0.1, 0.1, 0.06, 0.06, 0.1, 0.1, 0.08, 0.06, 0.06, 0.08, 0.1, 0.06, 0.1, 0.1]","[[0.534706198039293, -0.16315962527291128], [0.22522972451059653, -0.3458739520787314], [0.5586714753673533, 0.19426777597652917], [0.18030095042814376, -0.0396389637234299], [0.16813044061858473, -0.5599594931714235], [-0.4828024033151005, 0.2640707340948728], [-0.1951990561002186, 0.23958216260802911], [-0.1749374834642693, 0.0024752322918657477], [-0.04837052664020436, -0.4038317151878519], [-0.599338949721605, -0.03379898184400111], [-0.38127801365314684, 0.42953400087795307], [0.07883097050665344, 0.3851067501211667], [-0.08116896581441746, -0.171821696593904], [-0.19300899870183336, 0.5527502287255271], [0.41628717025233264, -0.32971047028129175], [0.3228439445309601, 0.3388817476868219], [0.06460436408938985, 0.5962327677410527], [-0.5405078510110766, -0.21442285645194542], [-0.39260995969331036, 0.08907058224393322], [-0.26037763947658804, -0.28733678362087417]]",density,black,,,N011,visual,1,[],"['1', '2', '3', '4']",1,2023.2.3,harveyvisual,2.1,[],8,0.75,
0,pause,0.4,None,None,None,0,119,119,119,,,,,,,,,,,,,N011,visual,1,[],"['1', '2', '3', '4']",1,2023.2.3,harveyvisual,2.1,[],8,0.75,
20,dot,0.3,['dot'],['density'],white,0,120,120,120,,,44.40021991729736,44.1116509437561,44.41167998313904,dot,"[0.06, 0.06, 0.1, 0.1, 0.08, 0.08, 0.08, 0.06, 0.08, 0.06, 0.06, 0.06, 0.06, 0.06, 0.06, 0.08, 0.08, 0.08, 0.1, 0.06]","[[0.3318143842333844, -0.401747333794113], [0.1931284652918358, -0.1514557182269386], [0.3762958302310029, 0.09942604374210517], [-0.5810499229330492, 0.1595434756834915], [-0.16749387834779084, -0.012845683337252], [0.16346323780597094, 0.5003041329044412], [-0.3860853981898451, -0.30216536275317374], [0.3959299023413657, -0.20990157580583443], [-0.08094625398611532, 0.43014342905537195], [0.37508484157840283, 0.30814950295710036], [-0.3616731086636557, 0.3868243553806864], [0.5907644011353935, 0.05205509443458611], [0.13249306027890162, -0.5211724219936198], [-0.07441147793826541, -0.2442908289919949], [-0.17886286053424488, -0.442377757953792], [-0.07799319430771867, 0.18760822081965856], [0.16601182449787266, 0.22247342561373196], [-0.5222530829194323, -0.05229166685776443], [-0.35875498539881145, 0.18051470371613726], [0.029995903520738, -0.03930620787014849]]",density,white,,,N011,visual,1,[],"['1', '2', '3', '4']",1,2023.2.3,harveyvisual,2.1,[],8,0.75,
0,pause,0.4,None,None,None,0,121,121,121,,,,,,,,,,,1,44.51839590072632,N011,visual,1,[],"['1', '2', '3', '4']",1,2023.2.3,harveyvisual,2.1,[],8,0.75,
20,dot,0.3,['dot'],['density'],black,0,122,122,122,,,45.10019397735596,44.81162786483765,45.11160397529602,dot,"[0.06, 0.06, 0.1, 0.06, 0.1, 0.08, 0.1, 0.08, 0.08, 0.06, 0.1, 0.1, 0.08, 0.06, 0.1, 0.06, 0.08, 0.1, 0.1, 0.1]","[[-0.11494043119888903, 0.20389443726002032], [0.1857804872183857, 0.5277429592768836], [-0.0322201062588221, -0.4888211226828936], [-0.33613932733510404, -0.0727534324197649], [-0.4816932949667531, 0.07550264221568409], [-0.5156030064111129, -0.30839240915574745], [0.24190720143473943, 0.10357012956954514], [0.18941001019849257, -0.251667290403455], [0.5044466040229446, -0.3062984559636414], [-0.14883069615243982, -0.24963773663732602], [0.585264861490754, 0.1194780084570036], [0.4526024707685624, 0.29235511293122324], [0.20533450655672958, -0.48599142738787715], [-0.2996369231997904, 0.5014452173287025], [0.4527612608459598, -0.026100067622198186], [0.09237352838492063, 0.2758302777741567], [-0.4798736175808723, 0.300781842008002], [0.040700245571106075, 0.03472502800560129], [-0.10019577355058973, 0.5821165660678748], [-0.14414782971530865, -0.05794176354491898]]",density,black,,,N011,visual,1,[],"['1', '2', '3', '4']",1,2023.2.3,harveyvisual,2.1,[],8,0.75,
0,pause,0.4,None,None,None,0,123,123,123,,,,,,,,,,,,,N011,visual,1,[],"['1', '2', '3', '4']",1,2023.2.3,harveyvisual,2.1,[],8,0.75,
20,dot,0.3,['dot'],['density'],black,0,124,124,124,,,45.80021286010742,45.511600971221924,45.811594009399414,dot,"[0.06, 0.06, 0.1, 0.06, 0.1, 0.08, 0.1, 0.06, 0.06, 0.1, 0.1, 0.1, 0.06, 0.08, 0.1, 0.06, 0.08, 0.1, 0.1, 0.06]","[[-0.5128672794999883, -0.004559120820670837], [0.2350246941831523, -0.31194644561175644], [0.5564168211650112, 0.20889909804593937], [0.4794708980816723, -0.28904865858794315], [-0.17237433152812887, 0.12506166805338836], [-0.44902554101402636, 0.19760994305647378], [-0.047752172051721775, -0.5830660568483222], [0.25129902117697356, -0.05703268479753665], [-0.11790972168693781, 0.4654456227832806], [0.3680059163870161, 0.3433305448210714], [0.06153713524461202, 0.13755906471080903], [0.01870492854353134, -0.4042127336898122], [-0.10854442782604823, -0.20395774546047135], [0.20695686889926734, 0.5642191210883524], [0.1873367057093388, -0.5156954499060226], [-0.3497297771472723, -0.3161564498673275], [0.5273677346954001, -0.05362139415380485], [0.06323517795866596, 0.34895811664109333], [-0.3181875774212028, -0.009271694578673273], [0.3795606772861997, 0.09778886436645268]]",density,black,,,N011,visual,1,[],"['1', '2', '3', '4']",1,2023.2.3,harveyvisual,2.1,[],8,0.75,
0,pause,0.4,None,None,None,0,125,125,125,,,,,,,,,,,,,N011,visual,1,[],"['1', '2', '3', '4']",1,2023.2.3,harveyvisual,2.1,[],8,0.75,
20,dot,0.3,['dot'],['density'],black,0,126,126,126,,,46.50020694732666,46.21158194541931,46.51158094406128,dot,"[0.1, 0.06, 0.06, 0.06, 0.06, 0.08, 0.08, 0.06, 0.1, 0.1, 0.06, 0.08, 0.06, 0.06, 0.1, 0.06, 0.06, 0.06, 0.08, 0.06]","[[0.14447921946297448, -0.25877906377364973], [0.30013528064948525, 0.4752091225995432], [0.4747287105873955, 0.04344704156594653], [-0.500230299487857, -0.030379054768596536], [-0.16816236372028492, -0.05465805267361323], [0.0480247384470307, 0.13854526949865553], [-0.29411116191403003, -0.24695838819522958], [0.3277884021860096, 0.23085799152997555], [-0.07037956903266085, -0.5247784661446561], [-0.034941617376525236, 0.5469362559044838], [-0.18782375784919775, 0.24356885462243139], [0.2916487458314311, -0.47356823582550717], [0.36809555144495254, -0.17954265924709562], [-0.5070998298315345, 0.2203668760167708], [-0.5099870034885993, -0.27314608322676004], [0.19717892516970326, 0.013214582171767075], [-0.31204084784397396, -0.4398456726319868], [0.11247714995730729, 0.41935588943792235], [-0.03551175664241335, -0.19497726589607955], [0.5315523595314556, 0.2888376740805177]]",density,black,,,N011,visual,1,[],"['1', '2', '3', '4']",1,2023.2.3,harveyvisual,2.1,[],8,0.75,
0,pause,0.4,None,None,None,0,127,127,127,,,,,,,,,,,,,N011,visual,1,[],"['1', '2', '3', '4']",1,2023.2.3,harveyvisual,2.1,[],8,0.75,
20,dot,0.3,['dot'],['density'],black,0,128,128,128,,,47.20020890235901,46.91156792640686,47.211549043655396,dot,"[0.06, 0.06, 0.06, 0.08, 0.06, 0.1, 0.06, 0.1, 0.08, 0.08, 0.06, 0.08, 0.06, 0.06, 0.1, 0.06, 0.1, 0.06, 0.06, 0.06]","[[0.3422801715329614, 0.29582291755083934], [-0.3887897309104402, -0.26246420808316673], [-0.22491329765689227, 0.3141382977606102], [-0.060972577833284136, -0.292971504856909], [-0.5950708420762206, -0.004881021834443305], [0.07186973298056765, 0.29186084890275477], [-0.42726034703924004, 0.2876984242617735], [0.5637379814056088, -0.157280637785718], [-0.2576189334031424, 0.010120559116366667], [0.5505753576056912, 0.21357533864916634], [0.4474546725268894, -0.0005545371388477882], [-0.24466906797814086, -0.4807814923508794], [0.21097418684001923, 0.5084759071888124], [0.09469237776794615, -0.05711777028628662], [0.48510068106700877, -0.3500123305499993], [0.1476335030266489, -0.345473784338458], [0.24903085333808528, -0.513616914172935], [0.2645878270581834, 0.09411100075210654], [-0.21778212222464616, 0.5181137812613354], [-0.03502523709023897, -0.5451607443995191]]",density,black,,,N011,visual,1,[],"['1', '2', '3', '4']",1,2023.2.3,harveyvisual,2.1,[],8,0.75,
0,pause,0.4,None,None,None,0,129,129,129,,,,,,,,,,,,,N011,visual,1,[],"['1', '2', '3', '4']",1,2023.2.3,harveyvisual,2.1,[],8,0.75,
20,dot,0.3,['dot'],['density'],black,0,130,130,130,,,47.90019989013672,47.611554861068726,47.91156888008118,dot,"[0.08, 0.08, 0.08, 0.1, 0.06, 0.08, 0.08, 0.06, 0.06, 0.1, 0.08, 0.1, 0.08, 0.06, 0.06, 0.06, 0.06, 0.08, 0.08, 0.08]","[[0.38505000372262865, -0.41516340674389784], [-0.0774689043200737, 0.42753601464374325], [0.33716236345771033, 0.027926406453504193], [-0.19394952827620837, -0.10378088929481094], [-0.3260184858730653, 0.4880853237819116], [-0.4735301359161424, 0.03969532964260564], [0.08520141376939794, -0.1489927502011345], [0.168882012883397, -0.5287675179399809], [-0.16405272823323752, -0.33873788899101476], [0.21784706623715988, 0.2234999969790723], [0.22881298743101208, 0.4509948391832598], [0.5283266063613118, -0.29065858376127685], [0.5676649128303858, 0.09813068311302076], [-0.48799947783044906, 0.3237205217008388], [-0.3713600491294838, -0.24083366398877692], [-0.2151463221529511, -0.561617112633558], [0.06844185650763268, 0.04526410584455387], [0.05626732467568041, 0.5766932766218614], [0.30441973882617035, -0.19370153470089102], [-0.28144508524562145, 0.28934305473311117]]",density,black,,,N011,visual,1,[],"['1', '2', '3', '4']",1,2023.2.3,harveyvisual,2.1,[],8,0.75,
0,pause,0.4,None,None,None,0,131,131,131,,,,,,,,,,,,,N011,visual,1,[],"['1', '2', '3', '4']",1,2023.2.3,harveyvisual,2.1,[],8,0.75,
20,dot,0.3,['dot'],['density'],black,0,132,132,132,,,48.60020995140076,48.311622858047485,48.61160087585449,dot,"[0.1, 0.08, 0.1, 0.06, 0.06, 0.1, 0.08, 0.06, 0.08, 0.06, 0.1, 0.08, 0.1, 0.06, 0.06, 0.08, 0.08, 0.08, 0.1, 0.06]","[[0.010667621459269805, 0.15213791055342574], [-0.03537418824245386, -0.2667932159695174], [0.6045466002867729, 0.021087197217637202], [0.38052188249133245, -0.1578479051473391], [-0.19895889851552268, 0.04355619291693369], [-0.45949528701435843, 0.036839645226538875], [-0.3118611397767868, -0.46143431843263716], [0.19660446873474746, -0.30885576438626394], [0.36173688193017817, 0.13812198518436752], [-0.48163340436275826, -0.22043553768697544], [0.12876329711445433, -0.06024343646231389], [0.2805213298233803, 0.47447192284256834], [-0.2278862489655466, 0.3383313945981028], [-0.018474786634021245, -0.5273908387584695], [-0.42373403536875553, 0.34487815364772056], [-0.2743236122701889, -0.25122873599937334], [0.06551426194848387, 0.44387997065908125], [0.49393903652157023, -0.34524402237236396], [-0.16397514808556107, 0.5246737725671924], [0.19961150103863123, 0.2549800499104271]]",density,black,,,N011,visual,1,[],"['1', '2', '3', '4']",1,2023.2.3,harveyvisual,2.1,[],8,0.75,
0,pause,0.4,None,None,None,0,133,133,133,,,,,,,,,,,,,N011,visual,1,[],"['1', '2', '3', '4']",1,2023.2.3,harveyvisual,2.1,[],8,0.75,
20,dot,0.3,['dot'],['density'],black,0,134,134,134,,,49.30019688606262,49.01152682304382,49.31159687042236,dot,"[0.08, 0.1, 0.1, 0.1, 0.1, 0.06, 0.1, 0.06, 0.08, 0.06, 0.06, 0.06, 0.08, 0.06, 0.1, 0.06, 0.08, 0.1, 0.1, 0.1]","[[-0.12184120656991182, -0.4954500004509688], [-0.1959324577423937, -0.2802116125365832], [-0.4996155484064063, 0.1308713834828391], [-0.06439967174343675, -0.05262527586404575], [-0.3484833012808352, 0.38822126787129446], [0.485395616998361, 0.21312205645572224], [0.026333195917408014, 0.5659225229884542], [0.2972334447904409, -0.34514690424933864], [-0.4019250365338376, -0.05007200937728107], [0.45433294258241974, -0.12666242555105917], [0.10102545249094885, -0.4128535849475321], [-0.16711284083222172, 0.21596848799660873], [-0.36239188077059653, -0.44519401075892306], [0.42834282069131635, 0.4067525240714], [0.14308869831533855, -0.08009650430622484], [-0.5024560736433711, -0.30461156188101624], [-0.039117297749594604, 0.36625966701758716], [0.5897236894111665, 0.049169243748783814], [0.2186357895561737, 0.262517046810976], [0.21763742075370895, 0.5146949651053553]]",density,black,,,N011,visual,1,[],"['1', '2', '3', '4']",1,2023.2.3,harveyvisual,2.1,[],8,0.75,
0,pause,0.4,None,None,None,0,135,135,135,,,,,,,,,,,,,N011,visual,1,[],"['1', '2', '3', '4']",1,2023.2.3,harveyvisual,2.1,[],8,0.75,
20,dot,0.3,['dot'],['density'],white,0,136,136,136,,,50.000221967697144,49.711575984954834,50.01158404350281,dot,"[0.08, 0.1, 0.06, 0.1, 0.1, 0.06, 0.1, 0.1, 0.08, 0.06, 0.1, 0.06, 0.08, 0.08, 0.06, 0.1, 0.1, 0.08, 0.1, 0.1]","[[0.40333173252731747, -0.0651074180653689], [-0.14949061041854966, -0.5230580390758337], [-0.4760245088047757, 0.36712919371954894], [0.10683677913458356, 0.45874698150368753], [0.10269961399814187, -0.185453640411258], [-0.15600394780112087, 0.21564303290132358], [0.5499004139788287, 0.05861424003871668], [0.38181533187760175, 0.27584941508911653], [0.25492774106298355, 0.0797089178578243], [-0.059549542521487364, -0.0014305341381897207], [-0.27867263799505915, 0.015209358191319633], [-0.15290760715819895, 0.5267851959909786], [-0.5145634186041981, -0.30984320970086715], [0.18756124417130826, -0.39167746014157134], [0.024526282552028822, -0.6013957735773706], [0.5845288602190265, -0.13797041133994195], [-0.12258086172081561, -0.21356296930482288], [-0.4174201053648515, 0.18251092908759065], [0.3191329428895051, 0.4849185620044386], [-0.5134228653380706, -0.07632764992092256]]",density,white,,,N011,visual,1,[],"['1', '2', '3', '4']",1,2023.2.3,harveyvisual,2.1,[],8,0.75,
0,pause,0.4,None,None,None,0,137,137,137,,,,,,,,,,,1,50.23012185096741,N011,visual,1,[],"['1', '2', '3', '4']",1,2023.2.3,harveyvisual,2.1,[],8,0.75,
20,dot,0.3,['dot'],['density'],black,0,138,138,138,,,50.700214862823486,50.41156601905823,50.71147704124451,dot,"[0.06, 0.1, 0.06, 0.08, 0.1, 0.08, 0.1, 0.08, 0.1, 0.06, 0.08, 0.1, 0.06, 0.06, 0.1, 0.08, 0.06, 0.06, 0.06, 0.08]","[[-0.4070787436887243, 0.40233175444583497], [-0.5660945496869627, 0.06844309377705032], [-0.0538696503846523, 0.47583063850357454], [0.43855497432912316, 0.08625831614283691], [0.22755650965440966, 0.2656055895091568], [-0.28123014198634594, -0.13470192233050016], [-0.5326585383196649, -0.16439528691152866], [-0.21711578141775828, 0.08485618466111489], [-0.3022175091701204, -0.4251151610479284], [0.565856650188212, -0.20439682736053097], [0.24260597431892228, 0.5145368915118829], [0.007972583639704989, -0.5761687045411042], [-0.030677202124868463, -0.04647848116926856], [0.09503742438103202, -0.3449662957578804], [0.2613846258764555, -0.5131950687357174], [0.33480921670878916, -0.1963512042260716], [-0.012960650899854986, 0.15247121327932245], [-0.10302120329928222, -0.3748713490893889], [0.42022221116952563, 0.3449320996519118], [0.40545873756413464, -0.38729867209950936]]",density,black,,,N011,visual,1,[],"['1', '2', '3', '4']",1,2023.2.3,harveyvisual,2.1,[],8,0.75,
0,pause,0.4,None,None,None,0,139,139,139,,,,,,,,,,,,,N011,visual,1,[],"['1', '2', '3', '4']",1,2023.2.3,harveyvisual,2.1,[],8,0.75,
20,dot,0.3,['dot'],['density'],black,0,140,140,140,,,51.40021300315857,51.11144495010376,51.41144585609436,dot,"[0.1, 0.06, 0.06, 0.08, 0.08, 0.08, 0.1, 0.06, 0.06, 0.06, 0.06, 0.1, 0.06, 0.1, 0.06, 0.08, 0.1, 0.06, 0.08, 0.08]","[[0.4732995641602865, -0.08133266339886686], [-0.46356564213390605, 0.06650228792486435], [-0.44038729643309854, 0.37623734848308404], [0.3200846364384663, 0.42882462839346314], [-0.4162242713232416, -0.21402552370223762], [-0.11939155855940925, -0.39431850405044433], [-0.12235777258572805, 0.17397613875810036], [0.5060860667931487, 0.33100374806872035], [-0.3582009300543051, -0.40031039662367873], [-0.2064150029156071, -0.08132316425191122], [0.10312450111656013, -0.4887985142378869], [0.016018894563349262, -0.2349495587203963], [0.025353818811086115, -0.03463691357355092], [0.2779403218171468, -0.07684229684912425], [-0.2798552603183968, 0.4860444667918692], [0.007580671243381354, 0.3266127747817047], [0.4499207540524489, 0.11753693933107112], [-0.011734029100010868, 0.5499766291337749], [0.3235091782301345, -0.4282051560869314], [0.496629433457456, -0.290548043399574]]",density,black,,,N011,visual,1,[],"['1', '2', '3', '4']",1,2023.2.3,harveyvisual,2.1,[],8,0.75,
0,pause,0.4,None,None,None,0,141,141,141,,,,,,,,,,,,,N011,visual,1,[],"['1', '2', '3', '4']",1,2023.2.3,harveyvisual,2.1,[],8,0.75,
20,dot,0.3,['dot'],['density'],black,0,142,142,142,,,52.100212812423706,51.81145000457764,52.11142086982727,dot,"[0.08, 0.08, 0.08, 0.06, 0.08, 0.06, 0.06, 0.1, 0.08, 0.06, 0.08, 0.08, 0.1, 0.06, 0.06, 0.08, 0.06, 0.06, 0.08, 0.1]","[[0.02124870987585148, -0.2535325674966466], [0.36228812408624056, -0.4487066912660523], [-0.2740127273451878, 0.4955676565201098], [-0.28041350977942625, -0.3221012399273754], [-0.38809791142042427, 0.05265782491713772], [0.48474856005894196, 0.1604629249048955], [-0.4726548207273532, -0.16656513096744835], [0.10260163956989998, 0.4273602750693729], [0.12761901994073188, 0.12328645954474804], [-0.21987324751595672, 0.27460369561035014], [0.09612653250344672, -0.5075884564612043], [-0.21488881321375686, -0.0444283358122074], [-0.5844344143544027, 0.06491179833896782], [0.36605861183743493, -0.11068429471196811], [-0.015718669289151888, -0.015069520675675574], [-0.46815423438241155, -0.36977200934271914], [-0.10395923243872185, -0.5787063988978535], [0.5623923106737708, -0.018633351253440567], [0.368572508296486, 0.3354998623735622], [-0.4165931792446088, 0.268877423597145]]",density,black,,,N011,visual,1,[],"['1', '2', '3', '4']",1,2023.2.3,harveyvisual,2.1,[],8,0.75,
0,pause,0.4,None,None,None,0,143,143,143,,,,,,,,,,,,,N011,visual,1,[],"['1', '2', '3', '4']",1,2023.2.3,harveyvisual,2.1,[],8,0.75,
20,dot,0.3,['dot'],['density'],black,0,144,144,144,,,52.80022192001343,52.51146388053894,52.81143093109131,dot,"[0.08, 0.06, 0.1, 0.08, 0.1, 0.06, 0.1, 0.08, 0.1, 0.06, 0.06, 0.1, 0.08, 0.06, 0.06, 0.06, 0.1, 0.1, 0.08, 0.1]","[[-0.22059463142159252, 0.4875467808023003], [0.36400836414360604, -0.16574238300667843], [-0.40867897293949923, -0.0667757560213465], [-0.3475652826695423, 0.2391172712143349], [-0.021080857081115734, 0.4564093360390382], [0.09861233888197585, 0.2867693598324922], [0.46310724552687155, 0.060357835741428], [-0.020527435188050447, -0.2312261641234386], [-0.4498713821800959, -0.373170386259702], [-0.20739974606646838, 0.08986055798751647], [-0.013093528941353183, -0.5710652812733832], [0.25562358183140943, -0.3833573475820402], [0.24309551679671038, 0.045453596571863875], [0.3984972017484302, 0.3212986419516071], [0.5568391897060326, -0.21747342104042286], [-0.5239353057553283, 0.10335291468874519], [0.21310554415053384, 0.45483969300820903], [-0.5580144785827442, -0.19438313229974089], [-0.22703086096493358, -0.3503857073206841], [0.00011242126414079401, 0.11557149004937706]]",density,black,,,N011,visual,1,[],"['1', '2', '3', '4']",1,2023.2.3,harveyvisual,2.1,[],8,0.75,
0,pause,0.4,None,None,None,0,145,145,145,,,,,,,,,,,,,N011,visual,1,[],"['1', '2', '3', '4']",1,2023.2.3,harveyvisual,2.1,[],8,0.75,
20,dot,0.3,['dot'],['density'],black,0,146,146,146,,,53.50022101402283,53.211402893066406,53.51138091087341,dot,"[0.08, 0.06, 0.06, 0.06, 0.06, 0.06, 0.08, 0.1, 0.1, 0.06, 0.06, 0.1, 0.08, 0.08, 0.06, 0.08, 0.06, 0.06, 0.06, 0.08]","[[0.5201370403724964, -0.1479499037042107], [-0.5546191435083095, -0.10713395984870913], [0.17961168554450624, 0.04519936183670492], [-0.202905627111656, -0.32569327440340134], [-0.23170581893673442, 0.4295628390419304], [-0.43891104644211987, 0.22263554734474356], [0.0495202866766572, 0.26840148720301615], [0.5855465530343517, 0.07075092875806849], [0.311244514027494, -0.22481838243037866], [0.21696907650642805, 0.46712962460524], [-0.15719885212022866, 0.2510946978125316], [0.4588612597048648, 0.36727770669087234], [0.26178030327345037, -0.47625680410604454], [-0.33437521548936594, -0.07947377137606709], [0.38598384487817317, 0.19131460965255803], [-0.04996457289944012, -0.5962954018155494], [0.016380296676338446, -0.19755738823197233], [-0.11389756573172471, -0.02125021483765921], [-0.4963333164255077, -0.31870500227341414], [-0.04823281079036834, 0.5981118012345771]]",density,black,,,N011,visual,1,[],"['1', '2', '3', '4']",1,2023.2.3,harveyvisual,2.1,[],8,0.75,
0,pause,0.4,None,None,None,0,147,147,147,,,,,,,,,,,,,N011,visual,1,[],"['1', '2', '3', '4']",1,2023.2.3,harveyvisual,2.1,[],8,0.75,
20,dot,0.3,['dot'],['density'],black,0,148,148,148,,,54.20021080970764,53.91137886047363,54.211369037628174,dot,"[0.1, 0.06, 0.08, 0.06, 0.1, 0.1, 0.1, 0.1, 0.06, 0.06, 0.06, 0.1, 0.1, 0.08, 0.08, 0.1, 0.1, 0.06, 0.1, 0.08]","[[0.1010689302121669, 0.2618829159380375], [0.5068927776173088, 0.0899443043698459], [-0.26532567730940515, -0.18448469688411495], [0.058177346893916404, -0.1956992745348602], [-0.13369670610500112, 0.09604296061035222], [-0.42762015018169586, 0.40097908378470676], [-0.5489945674779741, 0.10486373543877381], [0.3949706462457866, -0.33231583572342327], [-0.13284513028507006, -0.3474134178878564], [0.0471491776604106, -0.5938571005827586], [-0.5276082310377717, -0.2537439659257177], [0.45238505020549813, 0.3643798165999792], [0.17680939614160573, -0.44288897850791564], [0.309084811590671, -0.05986071372466434], [-0.21057010922806463, 0.45125138020900923], [-0.40375995604153203, -0.01688289922250502], [-0.2536637735750078, -0.5452036566717208], [0.06902785875338158, 0.05678410479552787], [-0.37774236241155784, 0.20386890375220068], [0.5376593189784223, -0.19446929498061521]]",density,black,,,N011,visual,1,[],"['1', '2', '3', '4']",1,2023.2.3,harveyvisual,2.1,[],8,0.75,
0,pause,0.4,None,None,None,0,149,149,149,,,,,,,,,,,,,N011,visual,1,[],"['1', '2', '3', '4']",1,2023.2.3,harveyvisual,2.1,[],8,0.75,
20,dot,0.3,['dot'],['density'],black,0,150,150,150,,,54.900216817855835,54.61135196685791,54.91142392158508,dot,"[0.06, 0.06, 0.06, 0.08, 0.06, 0.08, 0.1, 0.08, 0.08, 0.08, 0.08, 0.1, 0.1, 0.1, 0.08, 0.06, 0.08, 0.1, 0.1, 0.1]","[[0.20552163975507587, 0.26495635239602067], [0.17095596212227215, -0.22378947597160698], [0.32521964133692205, 0.01683559908967147], [0.5198799301112772, -0.02681575093469679], [0.2439535202426778, -0.4752335887923267], [-0.22969648589596986, -0.0312535715816602], [0.45428488278425727, -0.3634016889141044], [-0.1846013602317767, 0.4586751652251224], [-0.5441065782865387, -0.0963088996482207], [-0.4477111131026412, 0.22783327127968978], [0.032172315071167024, 0.03230573238751433], [-0.44479270004381244, -0.33655625517713006], [-0.08886528016565243, -0.2478380536323394], [-0.2796637250988538, -0.5088051485354473], [0.1927869919258154, 0.5081411224410503], [-0.08775120617348753, 0.2179478020698744], [0.3896919110517941, 0.33590757021590667], [0.05084401154041951, -0.42863639286422217], [-0.38700331906933, 0.44573394490807855], [0.5507617007873072, 0.22262764845519345]]",density,black,,,N011,visual,1,[],"['1', '2', '3', '4']",1,2023.2.3,harveyvisual,2.1,[],8,0.75,
0,pause,0.4,None,None,None,0,151,151,151,,,,,,,,,,,,,N011,visual,1,[],"['1', '2', '3', '4']",1,2023.2.3,harveyvisual,2.1,[],8,0.75,
20,dot,0.3,['dot'],['density'],black,0,152,152,152,,,55.60020899772644,55.31135892868042,55.6113338470459,dot,"[0.06, 0.1, 0.1, 0.06, 0.06, 0.1, 0.08, 0.06, 0.08, 0.08, 0.06, 0.1, 0.08, 0.08, 0.1, 0.08, 0.1, 0.1, 0.1, 0.08]","[[-0.5445802736844687, 0.21852203961061561], [-0.4279259680609272, 0.42529371030471724], [-0.1927205881864822, 0.12858882231891433], [0.49309890851373395, -0.19531442143900915], [0.14635108275905684, -0.4129076857101897], [-0.0888007704486462, -0.09708967767226795], [-0.25435603078636926, 0.5021447552974676], [0.27970937044192556, 0.5119250546810195], [0.04246649517143131, 0.4310453825455508], [-0.34149957643414175, -0.07804324233424575], [0.604963204424304, 0.014780947120377638], [-0.4175392799867371, -0.25575279029050124], [0.3760459259956006, 0.004840465940921468], [0.14133731705884578, 0.022462487620235394], [0.5617046230103432, 0.20745948306670658], [-0.1303579118278509, -0.4460822218481013], [-0.5898695671245338, -0.027686168026911748], [0.04608648684626826, 0.23466740433087863], [0.28503585176063784, 0.2561410294410259], [0.39611399778467715, -0.43310361672343517]]",density,black,,,N011,visual,1,[],"['1', '2', '3', '4']",1,2023.2.3,harveyvisual,2.1,[],8,0.75,
0,pause,0.4,None,None,None,0,153,153,153,,,,,,,,,,,,,N011,visual,1,[],"['1', '2', '3', '4']",1,2023.2.3,harveyvisual,2.1,[],8,0.75,
20,dot,0.3,['dot'],['density'],black,0,154,154,154,,,56.300199031829834,56.01132082939148,56.31132102012634,dot,"[0.08, 0.1, 0.1, 0.1, 0.06, 0.1, 0.06, 0.08, 0.08, 0.08, 0.1, 0.08, 0.1, 0.06, 0.1, 0.08, 0.1, 0.08, 0.06, 0.06]","[[-0.08656274670709807, 0.25285189902788363], [-0.5219766674041045, -0.21295129958434122], [0.0704693567724709, -0.15944855119410084], [0.52260755082891, 0.15392450458662787], [-0.3593579429699286, 0.15068753402919055], [-0.07337414242822637, -0.3758790550315476], [-0.05507088730933751, 0.4813981908872065], [0.3288037234928558, -0.39420799610026563], [-0.2407700420286925, 0.438457074760665], [0.2866277517720549, -0.12874347689605886], [0.5783195052210316, -0.1302998923584328], [-0.29741756099096217, -0.36182224062632995], [0.34559944059065195, 0.48550125281485484], [0.17241935787802487, 0.33290797437255826], [-0.5918531619748344, 0.004425513364536948], [-0.15407576877376133, 0.016901543047020517], [0.12961150482234773, -0.5456035212546838], [-0.27522376200794435, -0.14678258407107175], [0.1535248692331258, 0.5431782783886726], [0.03819056471157378, 0.06348443048197294]]",density,black,,,N011,visual,1,[],"['1', '2', '3', '4']",1,2023.2.3,harveyvisual,2.1,[],8,0.75,
0,pause,0.4,None,None,None,0,155,155,155,,,,,,,,,,,,,N011,visual,1,[],"['1', '2', '3', '4']",1,2023.2.3,harveyvisual,2.1,[],8,0.75,
9,dot,0.3,['dot'],['density'],black,0,156,156,156,,,57.000202894210815,56.711315870285034,57.011305809020996,dot,"[0.06, 0.08, 0.06, 0.06, 0.06, 0.08, 0.08, 0.08, 0.06]","[[-0.05049485011715354, 0.3013521193238899], [0.15354596755057998, 0.36785015051376163], [0.22995749783639982, 0.07309138415424772], [0.13460311710395165, -0.18603378415368982], [0.33097739113381164, -0.13822260855557728], [-0.16464148731134703, 0.07190493829483618], [0.521154897315396, -0.007803673430992942], [0.02684304494395013, 0.0018704401699241912], [-0.15545279255173522, -0.15329938800760382]]",density,black,,,N011,visual,1,[],"['1', '2', '3', '4']",1,2023.2.3,harveyvisual,2.1,[],8,0.75,
0,pause,0.4,None,None,None,0,157,157,157,,,,,,,,,,,,,N011,visual,1,[],"['1', '2', '3', '4']",1,2023.2.3,harveyvisual,2.1,[],8,0.75,
9,dot,0.3,['dot'],['density'],black,0,158,158,158,,,57.70020890235901,57.41132092475891,57.71129083633423,dot,"[0.1, 0.1, 0.1, 0.08, 0.06, 0.1, 0.08, 0.06, 0.08]","[[-0.05049485011715354, 0.3013521193238899], [0.15354596755057998, 0.36785015051376163], [0.22995749783639982, 0.07309138415424772], [0.13460311710395165, -0.18603378415368982], [0.33097739113381164, -0.13822260855557728], [-0.16464148731134703, 0.07190493829483618], [0.521154897315396, -0.007803673430992942], [0.02684304494395013, 0.0018704401699241912], [-0.15545279255173522, -0.15329938800760382]]",density,black,,,N011,visual,1,[],"['1', '2', '3', '4']",1,2023.2.3,harveyvisual,2.1,[],8,0.75,
0,pause,0.4,None,None,None,0,159,159,159,,,,,,,,,,,,,N011,visual,1,[],"['1', '2', '3', '4']",1,2023.2.3,harveyvisual,2.1,[],8,0.75,
9,dot,0.3,['dot'],['density'],black,0,160,160,160,,,58.400195837020874,58.111289978027344,58.41127395629883,dot,"[0.08, 0.08, 0.1, 0.08, 0.06, 0.06, 0.06, 0.08, 0.06]","[[-0.08351644510687262, 0.021707353155035948], [0.11173555070370329, 0.3931220271068859], [-0.15396522232717408, 0.3423719725559184], [0.23829169989725132, 0.186218803300476], [-0.29008049122260166, 0.17395274189193027], [0.2491440638781109, -0.04662568063892593], [-0.2854023508218629, -0.06307984259985559], [0.003596708871689959, 0.21717875760955796], [-0.47489413548496523, 0.030788186259843496]]",density,black,,,N011,visual,1,[],"['1', '2', '3', '4']",1,2023.2.3,harveyvisual,2.1,[],8,0.75,
0,pause,0.4,None,None,None,0,161,161,161,,,,,,,,,,,,,N011,visual,1,[],"['1', '2', '3', '4']",1,2023.2.3,harveyvisual,2.1,[],8,0.75,
9,dot,0.3,['dot'],['density'],black,0,162,162,162,,,59.10022497177124,58.81128001213074,59.11122989654541,dot,"[0.06, 0.1, 0.08, 0.08, 0.06, 0.06, 0.08, 0.06, 0.1]","[[0.17250841666444466, -0.5173949811024123], [-0.03744062107829021, -0.3895067986023326], [0.30010350549611725, -0.35742528465303014], [0.33064876224298684, -0.08057424749072183], [-0.16743636965090838, -0.09291053242622109], [0.1226827020066543, -0.24711763375004436], [0.047527772487498496, -0.037432207059122605], [0.20928928941955194, 0.09999474740890861], [-0.30040876562534896, -0.42726910911839744]]",density,black,,,N011,visual,1,[],"['1', '2', '3', '4']",1,2023.2.3,harveyvisual,2.1,[],8,0.75,
0,pause,0.4,None,None,None,0,163,163,163,,,,,,,,,,,,,N011,visual,1,[],"['1', '2', '3', '4']",1,2023.2.3,harveyvisual,2.1,[],8,0.75,
9,dot,0.3,['dot'],['density'],black,0,164,164,164,,,59.80021095275879,59.511260986328125,59.811261892318726,dot,"[0.08, 0.1, 0.1, 0.06, 0.1, 0.06, 0.1, 0.1, 0.1]","[[0.21556792455118703, 0.37642033042102185], [0.14366510572844648, -0.18651452926789283], [0.49642287684820396, -0.0794158383055628], [-0.04770628609247857, -0.12519201939426747], [0.20310136493979325, 0.154094551714378], [-0.004065485174475974, 0.09100382633055243], [-0.018053901421587658, 0.34918523294118026], [0.29624623666919286, -0.053344657000752645], [-0.2018857737562037, 0.01971770186205045]]",density,black,,,N011,visual,1,[],"['1', '2', '3', '4']",1,2023.2.3,harveyvisual,2.1,[],8,0.75,
0,pause,0.4,None,None,None,0,165,165,165,,,,,,,,,,,,,N011,visual,1,[],"['1', '2', '3', '4']",1,2023.2.3,harveyvisual,2.1,[],8,0.75,
9,dot,0.3,['dot'],['density'],black,0,166,166,166,,,60.50021696090698,60.21143293380737,60.51125502586365,dot,"[0.1, 0.1, 0.08, 0.06, 0.1, 0.1, 0.08, 0.08, 0.08]","[[0.17250841666444466, -0.5173949811024123], [-0.03744062107829021, -0.3895067986023326], [0.30010350549611725, -0.35742528465303014], [0.33064876224298684, -0.08057424749072183], [-0.16743636965090838, -0.09291053242622109], [0.1226827020066543, -0.24711763375004436], [0.047527772487498496, -0.037432207059122605], [0.20928928941955194, 0.09999474740890861], [-0.30040876562534896, -0.42726910911839744]]",density,black,,,N011,visual,1,[],"['1', '2', '3', '4']",1,2023.2.3,harveyvisual,2.1,[],8,0.75,
0,pause,0.4,None,None,None,0,167,167,167,,,,,,,,,,,,,N011,visual,1,[],"['1', '2', '3', '4']",1,2023.2.3,harveyvisual,2.1,[],8,0.75,
8,dot,0.3,['dot'],['density'],black,0,168,168,168,,,61.200204849243164,60.9112548828125,61.211376905441284,dot,"[0.1, 0.1, 0.08, 0.06, 0.06, 0.06, 0.08, 0.08]","[[-0.2875956673588428, -0.37608972473646446], [0.1738442798715151, -0.5418380206356169], [-0.005791994605287101, -0.36400925298789194], [0.15381919852689818, -0.2106776783026027], [-0.02243369038452208, -0.11017027562433494], [-0.1375601387891928, -0.5383184991665005], [0.3481619806761259, -0.4256719133417836], [-0.2437856683810358, -0.16373273019932677]]",density,black,,,N011,visual,1,[],"['1', '2', '3', '4']",1,2023.2.3,harveyvisual,2.1,[],8,0.75,
0,pause,0.4,None,None,None,0,169,169,169,,,,,,,,,,,,,N011,visual,1,[],"['1', '2', '3', '4']",1,2023.2.3,harveyvisual,2.1,[],8,0.75,
8,dot,0.3,['dot'],['density'],black,0,170,170,170,,,61.900211811065674,61.61138582229614,61.91125297546387,dot,"[0.08, 0.06, 0.06, 0.1, 0.08, 0.08, 0.1, 0.1]","[[-0.3306282708070712, -0.09459634407206743], [0.17708038186302957, -0.36794437316098305], [-0.34368294577136044, -0.39688855169369486], [-0.16397220561896333, 0.03033928826277653], [-0.08476975953586025, -0.41834960305423746], [-0.16765121495786453, -0.2265743681515788], [0.0449590487082352, -0.10546915507075137], [-0.5574709661459258, -0.15664368712912546]]",density,black,,,N011,visual,1,[],"['1', '2', '3', '4']",1,2023.2.3,harveyvisual,2.1,[],8,0.75,
0,pause,0.4,None,None,None,0,171,171,171,,,,,,,,,,,,,N011,visual,1,[],"['1', '2', '3', '4']",1,2023.2.3,harveyvisual,2.1,[],8,0.75,
8,dot,0.3,['dot'],['density'],black,0,172,172,172,,,62.60021686553955,62.31121301651001,62.61119198799133,dot,"[0.08, 0.1, 0.08, 0.06, 0.1, 0.1, 0.08, 0.06]","[[-0.2875956673588428, -0.37608972473646446], [0.1738442798715151, -0.5418380206356169], [-0.005791994605287101, -0.36400925298789194], [0.15381919852689818, -0.2106776783026027], [-0.02243369038452208, -0.11017027562433494], [-0.1375601387891928, -0.5383184991665005], [0.3481619806761259, -0.4256719133417836], [-0.2437856683810358, -0.16373273019932677]]",density,black,,,N011,visual,1,[],"['1', '2', '3', '4']",1,2023.2.3,harveyvisual,2.1,[],8,0.75,
0,pause,0.4,None,None,None,0,173,173,173,,,,,,,,,,,,,N011,visual,1,[],"['1', '2', '3', '4']",1,2023.2.3,harveyvisual,2.1,[],8,0.75,
8,dot,0.3,['dot'],['density'],white,0,174,174,174,,,63.30021691322327,63.01130986213684,63.31119990348816,dot,"[0.06, 0.06, 0.1, 0.06, 0.1, 0.06, 0.08, 0.06]","[[-0.13470540342303577, 0.06408260861786476], [-0.32633744656496655, 0.15045505181492372], [-0.2908673593763413, -0.0762007135190446], [-0.5368971138264618, 0.18470905249118252], [0.055331558945424124, 0.1732254888039505], [-0.30909967543404826, 0.3845911877556102], [-0.0777863596696305, 0.41921053595603236], [0.03181857584637903, -0.08967320215721851]]",density,white,,,N011,visual,1,[],"['1', '2', '3', '4']",1,2023.2.3,harveyvisual,2.1,[],8,0.75,
0,pause,0.4,None,None,None,0,175,175,175,,,,,,,,,,,1,63.392735958099365,N011,visual,1,[],"['1', '2', '3', '4']",1,2023.2.3,harveyvisual,2.1,[],8,0.75,
8,dot,0.3,['dot'],['density'],black,0,176,176,176,,,64.00020003318787,63.711169958114624,64.01125884056091,dot,"[0.08, 0.1, 0.08, 0.06, 0.1, 0.1, 0.08, 0.06]","[[-0.2395708272612018, -0.3613018167456044], [-0.39529086986423073, -0.13116056396528103], [0.016143118738118, -0.3000453801144436], [-0.10247857353615338, 0.12176090555598315], [0.11784264820349834, -0.12422453235794288], [-0.1468533202112338, -0.18280007972172757], [-0.31504288856899026, 0.06147683711297207], [0.2614313121475242, -0.33215718180641224]]",density,black,,,N011,visual,1,[],"['1', '2', '3', '4']",1,2023.2.3,harveyvisual,2.1,[],8,0.75,
0,pause,0.4,None,None,None,0,177,177,177,,,,,,,,,,,,,N011,visual,1,[],"['1', '2', '3', '4']",1,2023.2.3,harveyvisual,2.1,[],8,0.75,
8,dot,0.3,['dot'],['density'],black,0,178,178,178,,,64.70021796226501,64.4112708568573,64.7112648487091,dot,"[0.06, 0.06, 0.1, 0.08, 0.1, 0.06, 0.08, 0.1]","[[-0.13470540342303577, 0.06408260861786476], [-0.32633744656496655, 0.15045505181492372], [-0.2908673593763413, -0.0762007135190446], [-0.5368971138264618, 0.18470905249118252], [0.055331558945424124, 0.1732254888039505], [-0.30909967543404826, 0.3845911877556102], [-0.0777863596696305, 0.41921053595603236], [0.03181857584637903, -0.08967320215721851]]",density,black,,,N011,visual,1,[],"['1', '2', '3', '4']",1,2023.2.3,harveyvisual,2.1,[],8,0.75,
0,pause,0.4,None,None,None,0,179,179,179,,,,,,,,,,,,,N011,visual,1,[],"['1', '2', '3', '4']",1,2023.2.3,harveyvisual,2.1,[],8,0.75,
7,dot,0.3,['dot'],['density'],black,0,180,180,180,,,65.40022087097168,65.1113109588623,65.41126799583435,dot,"[0.1, 0.08, 0.1, 0.06, 0.08, 0.06, 0.1]","[[0.1318978468379982, 0.48780960721302624], [-0.15530952210580917, 0.2429536962773128], [0.21675324185561073, 0.09111206147250148], [0.13033099328542835, 0.28547066376201063], [0.3859901392997328, 0.20497483482614012], [0.014590257841440182, 0.0970646397970693], [0.1730960121663288, -0.1180805096677859]]",density,black,,,N011,visual,1,[],"['1', '2', '3', '4']",1,2023.2.3,harveyvisual,2.1,[],8,0.75,
0,pause,0.4,None,None,None,0,181,181,181,,,,,,,,,,,,,N011,visual,1,[],"['1', '2', '3', '4']",1,2023.2.3,harveyvisual,2.1,[],8,0.75,
7,dot,0.3,['dot'],['density'],black,0,182,182,182,,,66.10022401809692,65.81112003326416,66.11107397079468,dot,"[0.1, 0.06, 0.06, 0.06, 0.1, 0.08, 0.1]","[[-0.27819289690075527, 0.2483046813246476], [-0.5592260237138849, -0.07980801324287977], [-0.026637344717372308, -0.10521889364121585], [-0.16909952645659185, 0.05101222878256789], [-0.21868546305501066, -0.16482274839932262], [-0.3689572500107929, 0.03738969849335829], [-0.49227831811218986, 0.2063327632277477]]",density,black,,,N011,visual,1,[],"['1', '2', '3', '4']",1,2023.2.3,harveyvisual,2.1,[],8,0.75,
0,pause,0.4,None,None,None,0,183,183,183,,,,,,,,,,,,,N011,visual,1,[],"['1', '2', '3', '4']",1,2023.2.3,harveyvisual,2.1,[],8,0.75,
7,dot,0.3,['dot'],['density'],black,0,184,184,184,,,66.8002278804779,66.51132702827454,66.81101894378662,dot,"[0.06, 0.08, 0.08, 0.08, 0.06, 0.08, 0.08]","[[-0.16635260996794698, 0.28084462036912], [-0.40218122969076125, -0.17991686156932815], [-0.0845402480451966, 0.09445086570213204], [-0.12722724135381816, -0.176029296145206], [-0.3668576348978093, 0.24153552923633032], [-0.5374975881789634, 0.10465170418994485], [-0.31219932221879926, 0.029177302383891702]]",density,black,,,N011,visual,1,[],"['1', '2', '3', '4']",1,2023.2.3,harveyvisual,2.1,[],8,0.75,
0,pause,0.4,None,None,None,0,185,185,185,,,,,,,,,,,,,N011,visual,1,[],"['1', '2', '3', '4']",1,2023.2.3,harveyvisual,2.1,[],8,0.75,
7,dot,0.3,['dot'],['density'],black,0,186,186,186,,,67.50020694732666,67.2110538482666,67.51105999946594,dot,"[0.06, 0.08, 0.1, 0.08, 0.1, 0.1, 0.08]","[[0.27964692832129656, -0.15500474148311624], [0.48019533028943556, 0.09933774746227163], [0.08203545767143021, 0.28019381302663365], [0.05572057582720619, -0.1426303369841539], [0.31711281236335803, 0.2944831276535668], [-0.041479771322150735, 0.11885700406191958], [0.21045310206912196, 0.07075003364957701]]",density,black,,,N011,visual,1,[],"['1', '2', '3', '4']",1,2023.2.3,harveyvisual,2.1,[],8,0.75,
0,pause,0.4,None,None,None,0,187,187,187,,,,,,,,,,,,,N011,visual,1,[],"['1', '2', '3', '4']",1,2023.2.3,harveyvisual,2.1,[],8,0.75,
7,dot,0.3,['dot'],['density'],black,0,188,188,188,,,68.20021200180054,67.9110689163208,68.21119689941406,dot,"[0.1, 0.08, 0.1, 0.08, 0.08, 0.1, 0.06]","[[0.3899189512010899, -0.40728696153528776], [0.20392863561369634, -0.3305625840210526], [0.31626985815109576, 0.13567824844623666], [0.5017338684339655, -0.028549680114735937], [0.11648855723187378, -0.1078833072829627], [0.07041138378868489, 0.08730219371944997], [0.32910598476010167, -0.13660711058181768]]",density,black,,,N011,visual,1,[],"['1', '2', '3', '4']",1,2023.2.3,harveyvisual,2.1,[],8,0.75,
0,pause,0.4,None,None,None,0,189,189,189,,,,,,,,,,,,,N011,visual,1,[],"['1', '2', '3', '4']",1,2023.2.3,harveyvisual,2.1,[],8,0.75,
7,dot,0.3,['dot'],['density'],black,0,190,190,190,,,68.90021395683289,68.61102485656738,68.91101002693176,dot,"[0.08, 0.1, 0.1, 0.1, 0.06, 0.1, 0.06]","[[0.12902113605384963, -0.35167066519854956], [0.3838909825822851, -0.05572740120406059], [-0.02857767273637445, 0.1549795872955612], [0.19333287999408408, 0.10698923431715611], [-0.08146847087507005, -0.06064403559207536], [0.18020694687254563, -0.15550905334431223], [-0.07225335190945896, -0.28606481362007624]]",density,black,,,N011,visual,1,[],"['1', '2', '3', '4']",1,2023.2.3,harveyvisual,2.1,[],8,0.75,
0,pause,0.4,None,None,None,0,191,191,191,,,,,,,,,,,,,N011,visual,1,[],"['1', '2', '3', '4']",1,2023.2.3,harveyvisual,2.1,[],8,0.75,
6,dot,0.3,['dot'],['density'],black,0,192,192,192,,,69.6002049446106,69.31098794937134,69.61098885536194,dot,"[0.06, 0.06, 0.08, 0.06, 0.08, 0.06]","[[-0.36954580940820725, 0.05815165478813925], [-0.28534481837461456, -0.12375618373579561], [-0.26428406214372846, 0.28010711109252995], [-0.5657182147315603, -0.11096589427743007], [-0.1492704575467133, 0.06899119969773035], [-0.5584105255039638, 0.13196562846102936]]",density,black,,,N011,visual,1,[],"['1', '2', '3', '4']",1,2023.2.3,harveyvisual,2.1,[],8,0.75,
0,pause,0.4,None,None,None,0,193,193,193,,,,,,,,,,,,,N011,visual,1,[],"['1', '2', '3', '4']",1,2023.2.3,harveyvisual,2.1,[],8,0.75,
6,dot,0.3,['dot'],['density'],black,0,194,194,194,,,70.30022501945496,70.01121091842651,70.31095695495605,dot,"[0.08, 0.06, 0.06, 0.08, 0.1, 0.1]","[[0.5108460974500976, 0.10904555526594768], [0.5033362887342737, -0.29902707163897635], [0.3062164979741722, 0.05793810054487639], [0.22849736264613016, -0.28041776899433873], [0.12909977445373055, -0.06500178518750158], [0.41889526300287094, -0.11616960582105396]]",density,black,,,N011,visual,1,[],"['1', '2', '3', '4']",1,2023.2.3,harveyvisual,2.1,[],8,0.75,
0,pause,0.4,None,None,None,0,195,195,195,,,,,,,,,,,,,N011,visual,1,[],"['1', '2', '3', '4']",1,2023.2.3,harveyvisual,2.1,[],8,0.75,
6,dot,0.3,['dot'],['density'],black,0,196,196,196,,,71.00021696090698,70.71121501922607,71.01096701622009,dot,"[0.08, 0.08, 0.06, 0.08, 0.1, 0.08]","[[-0.5042184434856596, 0.24959378884587158], [-0.14877643798118484, -0.059020126001740114], [-0.46546181494132466, -0.1471818588402077], [-0.26957518187208745, -0.22263810459524838], [-0.2342448443914648, 0.21754944417529726], [-0.37109182385784195, 0.03297203532481631]]",density,black,,,N011,visual,1,[],"['1', '2', '3', '4']",1,2023.2.3,harveyvisual,2.1,[],8,0.75,
0,pause,0.4,None,None,None,0,197,197,197,,,,,,,,,,,,,N011,visual,1,[],"['1', '2', '3', '4']",1,2023.2.3,harveyvisual,2.1,[],8,0.75,
6,dot,0.3,['dot'],['density'],black,0,198,198,198,,,71.7002158164978,71.41112399101257,71.71108794212341,dot,"[0.1, 0.08, 0.1, 0.06, 0.06, 0.1]","[[0.23625405956766557, 0.3892633732772463], [0.11760889656980711, -0.0038201085241890706], [0.42882153754783053, 0.07157264481568941], [0.22360409458703237, 0.16865996735680294], [-0.08582952339030024, 0.051003002567710905], [-0.0010028139275050567, 0.23222523166366787]]",density,black,,,N011,visual,1,[],"['1', '2', '3', '4']",1,2023.2.3,harveyvisual,2.1,[],8,0.75,
0,pause,0.4,None,None,None,0,199,199,199,,,,,,,,,,,,,N011,visual,1,[],"['1', '2', '3', '4']",1,2023.2.3,harveyvisual,2.1,[],8,0.75,
6,dot,0.3,['dot'],['density'],black,0,200,200,200,,,72.400221824646,72.11094188690186,72.41090488433838,dot,"[0.1, 0.08, 0.06, 0.08, 0.1, 0.1]","[[-0.12151555870586603, -0.4812968000001843], [0.16790488833295267, -0.2471088416996458], [0.27214716196035416, -0.49820278546509117], [-0.038147587524033764, -0.29309333197091036], [0.014949188681413147, -0.08915939926713055], [0.06798063624072649, -0.5852336971646088]]",density,black,,,N011,visual,1,[],"['1', '2', '3', '4']",1,2023.2.3,harveyvisual,2.1,[],8,0.75,
0,pause,0.4,None,None,None,0,201,201,201,,,,,,,,,,,,,N011,visual,1,[],"['1', '2', '3', '4']",1,2023.2.3,harveyvisual,2.1,[],8,0.75,
6,dot,0.3,['dot'],['density'],black,0,202,202,202,,,73.10020589828491,72.81091690063477,73.11091184616089,dot,"[0.06, 0.06, 0.1, 0.1, 0.1, 0.08]","[[-0.5379788740814003, -0.011730333491669416], [-0.1820890739253136, -0.27973544868684425], [-0.07809457889047756, -0.09124846264896269], [-0.30616251401069866, -0.45101817852416426], [-0.44200878281119743, -0.26991620184617166], [-0.3315938551005316, -0.08696624632848979]]",density,black,,,N011,visual,1,[],"['1', '2', '3', '4']",1,2023.2.3,harveyvisual,2.1,[],8,0.75,
0,pause,0.4,None,None,None,0,203,203,203,,,,,,,,,,,,,N011,visual,1,[],"['1', '2', '3', '4']",1,2023.2.3,harveyvisual,2.1,[],8,0.75,
5,dot,0.3,['dot'],['density'],black,0,204,204,204,,,73.80020999908447,73.51087284088135,73.81084394454956,dot,"[0.06, 0.06, 0.06, 0.08, 0.06]","[[-0.4702494158317004, 0.19352793081356498], [-0.36864189631283095, -0.2113573127283173], [-0.3573601989406874, -0.007363185939446715], [-0.15559938224235453, -0.02548680069503583], [-0.25069196230576396, 0.1747846118010945]]",density,black,,,N011,visual,1,[],"['1', '2', '3', '4']",1,2023.2.3,harveyvisual,2.1,[],8,0.75,
0,pause,0.4,None,None,None,0,205,205,205,,,,,,,,,,,,,N011,visual,1,[],"['1', '2', '3', '4']",1,2023.2.3,harveyvisual,2.1,[],8,0.75,
5,dot,0.3,['dot'],['density'],black,0,206,206,206,,,74.50022101402283,74.21083903312683,74.51082682609558,dot,"[0.06, 0.06, 0.08, 0.08, 0.1]","[[-0.16893136043895146, -0.20127892763881453], [-0.5727216740452047, -0.07682091551650742], [-0.343702592036276, -0.060533526953518955], [-0.5038383983260774, 0.15268268748871192], [-0.379488354443274, -0.2704310218069364]]",density,black,,,N011,visual,1,[],"['1', '2', '3', '4']",1,2023.2.3,harveyvisual,2.1,[],8,0.75,
0,pause,0.4,None,None,None,0,207,207,207,,,,,,,,,,,,,N011,visual,1,[],"['1', '2', '3', '4']",1,2023.2.3,harveyvisual,2.1,[],8,0.75,
5,dot,0.3,['dot'],['density'],black,0,208,208,208,,,75.20019888877869,74.91083002090454,75.21080684661865,dot,"[0.06, 0.06, 0.08, 0.06, 0.06]","[[-0.5348211864270219, -0.08335004612931018], [-0.428892633085643, 0.14758700623805307], [-0.3277098387322906, -0.27887202276080253], [-0.29687101947458117, -0.03792463078145938], [-0.23363771935579355, 0.21194794904782605]]",density,black,,,N011,visual,1,[],"['1', '2', '3', '4']",1,2023.2.3,harveyvisual,2.1,[],8,0.75,
0,pause,0.4,None,None,None,0,209,209,209,,,,,,,,,,,,,N011,visual,1,[],"['1', '2', '3', '4']",1,2023.2.3,harveyvisual,2.1,[],8,0.75,
5,dot,0.3,['dot'],['density'],white,0,210,210,210,,,75.900221824646,75.61079502105713,75.91078901290894,dot,"[0.08, 0.06, 0.1, 0.06, 0.06]","[[-0.006164932418690097, -0.4528126201229341], [-0.1681524682570009, -0.11721653268637569], [-0.1959903964051736, -0.3710708837277218], [0.03544926667602863, -0.1302589477940128], [0.16830580561999814, -0.32298356607012285]]",density,white,,,N011,visual,1,[],"['1', '2', '3', '4']",1,2023.2.3,harveyvisual,2.1,[],8,0.75,
0,pause,0.4,None,None,None,0,211,211,211,,,,,,,,,,,1,76.09323382377625,N011,visual,1,[],"['1', '2', '3', '4']",1,2023.2.3,harveyvisual,2.1,[],8,0.75,
5,dot,0.3,['dot'],['density'],black,0,212,212,212,,,76.60022497177124,76.31077790260315,76.61076188087463,dot,"[0.1, 0.08, 0.06, 0.08, 0.1]","[[0.10558973120531606, -0.20428866875977839], [-0.0893225412758366, 0.16524926947551877], [-0.05793580974794309, -0.07826743033729393], [0.11130747138107101, 0.10875249109580729], [0.28035132100960686, -0.09064984251937742]]",density,black,,,N011,visual,1,[],"['1', '2', '3', '4']",1,2023.2.3,harveyvisual,2.1,[],8,0.75,
0,pause,0.4,None,None,None,0,213,213,213,,,,,,,,,,,,,N011,visual,1,[],"['1', '2', '3', '4']",1,2023.2.3,harveyvisual,2.1,[],8,0.75,
5,dot,0.3,['dot'],['density'],black,0,214,214,214,,,77.3002200126648,77.01075387001038,77.31076383590698,dot,"[0.06, 0.06, 0.06, 0.08, 0.08]","[[-0.26965218803342234, -0.06061691990321757], [-0.44412238708790114, -0.1605793459593267], [-0.2738608688716076, -0.33598391440877745], [-0.06160694910013377, -0.19463283807086704], [-0.16469008497891707, 0.13324638745272324]]",density,black,,,N011,visual,1,[],"['1', '2', '3', '4']",1,2023.2.3,harveyvisual,2.1,[],8,0.75,
0,pause,0.4,None,None,None,0,215,215,215,,,,,,,,,,,,,N011,visual,1,[],"['1', '2', '3', '4']",1,2023.2.3,harveyvisual,2.1,[],8,0.75,
4,dot,0.3,['dot'],['density'],black,0,216,216,216,,,78.00021290779114,77.71073603630066,78.01072597503662,dot,"[0.1, 0.1, 0.06, 0.1]","[[0.2472118047986834, -0.10298318101898082], [0.5832669122255578, -0.0503561045998346], [0.411076479450662, -0.2641061246578253], [0.42907679660555237, 0.09101913809416001]]",density,black,,,N011,visual,1,[],"['1', '2', '3', '4']",1,2023.2.3,harveyvisual,2.1,[],8,0.75,
0,pause,0.4,None,None,None,0,217,217,217,,,,,,,,,,,,,N011,visual,1,[],"['1', '2', '3', '4']",1,2023.2.3,harveyvisual,2.1,[],8,0.75,
4,dot,0.3,['dot'],['density'],white,0,218,218,218,,,78.70021986961365,78.41070485115051,78.71068501472473,dot,"[0.08, 0.06, 0.06, 0.08]","[[-0.3130108772186628, 0.4658633188731559], [0.06875292536802097, 0.3619778545149697], [-0.12928423743784842, 0.28835211797578114], [-0.08764786508193922, 0.5151731075523892]]",density,white,,,N011,visual,1,[],"['1', '2', '3', '4']",1,2023.2.3,harveyvisual,2.1,[],8,0.75,
0,pause,0.4,None,None,None,0,219,219,219,,,,,,,,,,,1,78.95060682296753,N011,visual,1,[],"['1', '2', '3', '4']",1,2023.2.3,harveyvisual,2.1,[],8,0.75,
4,dot,0.3,['dot'],['density'],black,0,220,220,220,,,79.4002149105072,79.1106789112091,79.41067481040955,dot,"[0.06, 0.06, 0.06, 0.1]","[[0.010836700166572746, 0.3385055392368038], [-0.21755291078517647, 0.23172276430217797], [0.04881011250022837, 0.13413393103699342], [-0.16894730197854985, 0.4434327172909165]]",density,black,,,N011,visual,1,[],"['1', '2', '3', '4']",1,2023.2.3,harveyvisual,2.1,[],8,0.75,
0,pause,0.4,None,None,None,0,221,221,221,,,,,,,,,,,,,N011,visual,1,[],"['1', '2', '3', '4']",1,2023.2.3,harveyvisual,2.1,[],8,0.75,
4,dot,0.3,['dot'],['density'],black,0,222,222,222,,,80.10022497177124,79.81069803237915,80.11068296432495,dot,"[0.1, 0.1, 0.06, 0.06]","[[0.06326389353998313, -0.3457479010937814], [-0.07512051392095552, -0.02196355495157639], [0.09410934090401228, -0.14113260442523076], [-0.13717358852421138, -0.29916566844175635]]",density,black,,,N011,visual,1,[],"['1', '2', '3', '4']",1,2023.2.3,harveyvisual,2.1,[],8,0.75,
0,pause,0.4,None,None,None,0,223,223,223,,,,,,,,,,,,,N011,visual,1,[],"['1', '2', '3', '4']",1,2023.2.3,harveyvisual,2.1,[],8,0.75,
4,dot,0.3,['dot'],['density'],black,0,224,224,224,,,80.80022883415222,80.51066589355469,80.8106439113617,dot,"[0.08, 0.1, 0.08, 0.08]","[[-0.3130108772186628, 0.4658633188731559], [0.06875292536802097, 0.3619778545149697], [-0.12928423743784842, 0.28835211797578114], [-0.08764786508193922, 0.5151731075523892]]",density,black,,,N011,visual,1,[],"['1', '2', '3', '4']",1,2023.2.3,harveyvisual,2.1,[],8,0.75,
0,pause,0.4,None,None,None,0,225,225,225,,,,,,,,,,,,,N011,visual,1,[],"['1', '2', '3', '4']",1,2023.2.3,harveyvisual,2.1,[],8,0.75,
4,dot,0.3,['dot'],['density'],black,0,226,226,226,,,81.50022888183594,81.21063184738159,81.51067304611206,dot,"[0.1, 0.08, 0.1, 0.08]","[[-0.22711054503220823, -0.5144049053218714], [-0.016307770745122817, -0.5558659767831347], [-0.26432457165568224, -0.2824025039497699], [-0.026303944553407815, -0.34464361634901186]]",density,black,,,N011,visual,1,[],"['1', '2', '3', '4']",1,2023.2.3,harveyvisual,2.1,[],8,0.75,
0,pause,0.4,None,None,None,0,227,227,227,,,,,,,,,,,,,N011,visual,1,[],"['1', '2', '3', '4']",1,2023.2.3,harveyvisual,2.1,[],8,0.75,
3,dot,0.3,['dot'],['density'],black,0,228,228,228,,,82.20020604133606,81.91060590744019,82.21060490608215,dot,"[0.06, 0.1, 0.1]","[[-0.05604225559701161, -0.5082314702914299], [0.10137377066920354, -0.3837858820064252], [-0.12802807887251882, -0.3142638921214105]]",density,black,,,N011,visual,1,[],"['1', '2', '3', '4']",1,2023.2.3,harveyvisual,2.1,[],8,0.75,
0,pause,0.4,None,None,None,0,229,229,229,,,,,,,,,,,,,N011,visual,1,[],"['1', '2', '3', '4']",1,2023.2.3,harveyvisual,2.1,[],8,0.75,
3,dot,0.3,['dot'],['density'],black,0,230,230,230,,,82.90021300315857,82.6106219291687,82.91061592102051,dot,"[0.06, 0.06, 0.1]","[[-0.1591938184585166, 0.2573970255855866], [-0.049574382916532336, 0.44031337398050124], [0.08264166875933507, 0.262381570646859]]",density,black,,,N011,visual,1,[],"['1', '2', '3', '4']",1,2023.2.3,harveyvisual,2.1,[],8,0.75,
0,pause,0.4,None,None,None,0,231,231,231,,,,,,,,,,,,,N011,visual,1,[],"['1', '2', '3', '4']",1,2023.2.3,harveyvisual,2.1,[],8,0.75,
3,dot,0.3,['dot'],['density'],black,0,232,232,232,,,83.60021686553955,83.31058287620544,83.61062598228455,dot,"[0.1, 0.08, 0.06]","[[0.13574725429899362, -0.5423283227425341], [-0.036793286563257144, -0.3768814925557267], [0.16175487704753985, -0.3348017255345844]]",density,black,,,N011,visual,1,[],"['1', '2', '3', '4']",1,2023.2.3,harveyvisual,2.1,[],8,0.75,
0,pause,0.4,None,None,None,0,233,233,233,,,,,,,,,,,,,N011,visual,1,[],"['1', '2', '3', '4']",1,2023.2.3,harveyvisual,2.1,[],8,0.75,
3,dot,0.3,['dot'],['density'],black,0,234,234,234,,,84.30022597312927,84.01061391830444,84.3105959892273,dot,"[0.06, 0.1, 0.1]","[[-0.42255820389626353, 0.35871945956833473], [-0.19896656331745483, 0.3032224324013186], [-0.25553590712368324, 0.5056038804507684]]",density,black,,,N011,visual,1,[],"['1', '2', '3', '4']",1,2023.2.3,harveyvisual,2.1,[],8,0.75,
0,pause,0.4,None,None,None,0,235,235,235,,,,,,,,,,,,,N011,visual,1,[],"['1', '2', '3', '4']",1,2023.2.3,harveyvisual,2.1,[],8,0.75,
3,dot,0.3,['dot'],['density'],black,0,236,236,236,,,85.00020289421082,84.71054100990295,85.01280903816223,dot,"[0.1, 0.08, 0.06]","[[-0.04083818552357515, -0.522177599776496], [0.2241586230204485, -0.5188142294055383], [0.09506152973916207, -0.364648334381489]]",density,black,,,N011,visual,1,[],"['1', '2', '3', '4']",1,2023.2.3,harveyvisual,2.1,[],8,0.75,
0,pause,0.4,None,None,None,0,237,237,237,,,,,,,,,,,,,N011,visual,1,[],"['1', '2', '3', '4']",1,2023.2.3,harveyvisual,2.1,[],8,0.75,
3,dot,0.3,['dot'],['density'],black,0,238,238,238,,,85.70020794868469,85.41055703163147,85.71051383018494,dot,"[0.06, 0.1, 0.06]","[[-0.18534860244577742, 0.5145019772121514], [0.05660586421610542, 0.42456432010350276], [-0.11463700911578348, 0.31489985189225056]]",density,black,,,N011,visual,1,[],"['1', '2', '3', '4']",1,2023.2.3,harveyvisual,2.1,[],8,0.75,
0,pause,0.4,None,None,None,0,239,239,239,,,,,,,,,,,,,N011,visual,1,[],"['1', '2', '3', '4']",1,2023.2.3,harveyvisual,2.1,[],8,0.75,
2,dot,0.3,['dot'],['density'],black,0,240,240,240,,,86.40021800994873,86.11054491996765,86.41051697731018,dot,"[0.08, 0.06]","[[0.24265818653156754, -0.3775895252336694], [0.4224299169789366, -0.289759305909148]]",density,black,,,N011,visual,1,[],"['1', '2', '3', '4']",1,2023.2.3,harveyvisual,2.1,[],8,0.75,
0,pause,0.4,None,None,None,0,241,241,241,,,,,,,,,,,,,N011,visual,1,[],"['1', '2', '3', '4']",1,2023.2.3,harveyvisual,2.1,[],8,0.75,
2,dot,0.3,['dot'],['density'],black,0,242,242,242,,,87.10020303726196,86.81066584587097,87.11066198348999,dot,"[0.06, 0.1]","[[-0.22897676209827808, 0.468650264003531], [-0.0598036877009514, 0.5760211786176329]]",density,black,,,N011,visual,1,[],"['1', '2', '3', '4']",1,2023.2.3,harveyvisual,2.1,[],8,0.75,
0,pause,0.4,None,None,None,0,243,243,243,,,,,,,,,,,,,N011,visual,1,[],"['1', '2', '3', '4']",1,2023.2.3,harveyvisual,2.1,[],8,0.75,
2,dot,0.3,['dot'],['density'],black,0,244,244,244,,,87.80022597312927,87.51056003570557,87.81051993370056,dot,"[0.08, 0.1]","[[-0.20887660672828282, 0.3399455197969581], [-0.34272369919491674, 0.19089688818271272]]",density,black,,,N011,visual,1,[],"['1', '2', '3', '4']",1,2023.2.3,harveyvisual,2.1,[],8,0.75,
0,pause,0.4,None,None,None,0,245,245,245,,,,,,,,,,,,,N011,visual,1,[],"['1', '2', '3', '4']",1,2023.2.3,harveyvisual,2.1,[],8,0.75,
2,dot,0.3,['dot'],['density'],black,0,246,246,246,,,88.50020289421082,88.2106339931488,88.51046204566956,dot,"[0.06, 0.06]","[[0.1851205616289071, -0.3624876981064337], [0.3405923022038234, -0.23608025195482504]]",density,black,,,N011,visual,1,[],"['1', '2', '3', '4']",1,2023.2.3,harveyvisual,2.1,[],8,0.75,
0,pause,0.4,None,None,None,0,247,247,247,,,,,,,,,,,,,N011,visual,1,[],"['1', '2', '3', '4']",1,2023.2.3,harveyvisual,2.1,[],8,0.75,
2,dot,0.3,['dot'],['density'],black,0,248,248,248,,,89.20021200180054,88.91049098968506,89.21045398712158,dot,"[0.1, 0.1]","[[0.02987007740145294, 0.4330921892138179], [-0.1698845640653836, 0.4119973540264252]]",density,black,,,N011,visual,1,[],"['1', '2', '3', '4']",1,2023.2.3,harveyvisual,2.1,[],8,0.75,
0,pause,0.4,None,None,None,0,249,249,249,,,,,,,,,,,,,N011,visual,1,[],"['1', '2', '3', '4']",1,2023.2.3,harveyvisual,2.1,[],8,0.75,
2,dot,0.3,['dot'],['density'],black,0,250,250,250,,,89.9002058506012,89.61060285568237,89.91038990020752,dot,"[0.1, 0.1]","[[-0.09730612249650272, 0.4989075015380273], [-0.22752244688881013, 0.34485221713342457]]",density,black,,,N011,visual,1,[],"['1', '2', '3', '4']",1,2023.2.3,harveyvisual,2.1,[],8,0.75,
0,pause,0.4,None,None,None,0,251,251,251,,,,,,,,,,,,,N011,visual,1,[],"['1', '2', '3', '4']",1,2023.2.3,harveyvisual,2.1,[],8,0.75,
1,dot,0.3,['dot'],['density'],black,0,252,252,252,,,90.60021591186523,90.31060981750488,90.61040496826172,dot,[0.06],"[-0.22364231775977078, 0.4637426405669522]",density,black,,,N011,visual,1,[],"['1', '2', '3', '4']",1,2023.2.3,harveyvisual,2.1,[],8,0.75,
0,pause,0.4,None,None,None,0,253,253,253,,,,,,,,,,,,,N011,visual,1,[],"['1', '2', '3', '4']",1,2023.2.3,harveyvisual,2.1,[],8,0.75,
1,dot,0.3,['dot'],['density'],black,0,254,254,254,,,91.30022192001343,91.01052904129028,91.31039595603943,dot,[0.06],"[0.0038807231877187303, -0.2777732366953785]",density,black,,,N011,visual,1,[],"['1', '2', '3', '4']",1,2023.2.3,harveyvisual,2.1,[],8,0.75,
0,pause,0.4,None,None,None,0,255,255,255,,,,,,,,,,,,,N011,visual,1,[],"['1', '2', '3', '4']",1,2023.2.3,harveyvisual,2.1,[],8,0.75,
1,dot,0.3,['dot'],['density'],black,0,256,256,256,,,92.00020289421082,91.71052885055542,92.01049399375916,dot,[0.06],"[0.46628601751002285, 0.12197617226191985]",density,black,,,N011,visual,1,[],"['1', '2', '3', '4']",1,2023.2.3,harveyvisual,2.1,[],8,0.75,
0,pause,0.4,None,None,None,0,257,257,257,,,,,,,,,,,,,N011,visual,1,[],"['1', '2', '3', '4']",1,2023.2.3,harveyvisual,2.1,[],8,0.75,
1,dot,0.3,['dot'],['density'],black,0,258,258,258,,,92.70021796226501,92.41052103042603,92.71050381660461,dot,[0.08],"[-0.06064478149429028, 0.10204082006191012]",density,black,,,N011,visual,1,[],"['1', '2', '3', '4']",1,2023.2.3,harveyvisual,2.1,[],8,0.75,
0,pause,0.4,None,None,None,0,259,259,259,,,,,,,,,,,,,N011,visual,1,[],"['1', '2', '3', '4']",1,2023.2.3,harveyvisual,2.1,[],8,0.75,
1,dot,0.3,['dot'],['density'],black,0,260,260,260,,,93.40023183822632,93.11038303375244,93.41054391860962,dot,[0.06],"[-0.22364231775977078, 0.4637426405669522]",density,black,,,N011,visual,1,[],"['1', '2', '3', '4']",1,2023.2.3,harveyvisual,2.1,[],8,0.75,
0,pause,0.4,None,None,None,0,261,261,261,,,,,,,,,,,,,N011,visual,1,[],"['1', '2', '3', '4']",1,2023.2.3,harveyvisual,2.1,[],8,0.75,
1,dot,0.3,['dot'],['density'],black,0,262,262,262,,,94.10020804405212,93.81028604507446,94.11035799980164,dot,[0.1],"[0.4230572171255965, 0.15564154118015242]",density,black,,,N011,visual,1,[],"['1', '2', '3', '4']",1,2023.2.3,harveyvisual,2.1,[],8,0.75,
0,pause,0.4,None,None,None,0,263,263,263,,,,,,,,,,,,,N011,visual,1,[],"['1', '2', '3', '4']",1,2023.2.3,harveyvisual,2.1,[],8,0.75,
20,dot,0.3,['dot'],['density'],black,0,264,264,264,,,94.80023288726807,94.52709889411926,94.81036901473999,dot,"[0.1, 0.1, 0.08, 0.1, 0.1, 0.06, 0.06, 0.1, 0.08, 0.06, 0.1, 0.08, 0.06, 0.08, 0.06, 0.06, 0.1, 0.1, 0.08, 0.08]","[[-0.20581983047559776, 0.1919980974119615], [0.19335767340363796, -0.04486785863830611], [0.42374586645727075, -0.2958824680260913], [-0.36210723103141684, -0.24276782229721214], [-0.021339764194377442, 0.490630104965028], [0.39260441702646365, 0.33779677967883603], [0.5536131116313278, -0.10899456564034254], [-0.025863912449760385, 0.28712352756630233], [-0.1189719503600446, -0.5845174741862099], [0.47673984101234923, 0.1500280388810425], [0.027761361594847545, -0.28230160328675297], [-0.5618592051345588, -0.029991469263873083], [-0.43489418746800046, 0.22495430524046794], [0.20825811025292884, 0.2632169055924135], [-0.3410531864908982, 0.013772688556441981], [-0.18383483253661542, -0.3659699154953311], [-0.21232042402170054, 0.5393704375448373], [-0.39139582243026816, 0.4467671979310822], [0.011547114287414395, 0.07527678962711348], [0.2485365501736736, -0.48889271519956984]]",density,black,,,N011,visual,1,[],"['1', '2', '3', '4']",1,2023.2.3,harveyvisual,2.1,[],8,0.75,
0,pause,0.4,None,None,None,0,265,265,265,,,,,,,,,,,,,N011,visual,1,[],"['1', '2', '3', '4']",1,2023.2.3,harveyvisual,2.1,[],8,0.75,
20,dot,0.3,['dot'],['density'],black,0,266,266,266,,,95.50020790100098,95.21044492721558,95.51038789749146,dot,"[0.06, 0.06, 0.1, 0.1, 0.08, 0.06, 0.06, 0.06, 0.1, 0.08, 0.08, 0.1, 0.06, 0.06, 0.06, 0.1, 0.08, 0.08, 0.08, 0.1]","[[0.33760433474501794, 0.4016064006972033], [0.21385124145400103, 0.11543551288012166], [0.20998865452611493, -0.2809822966220344], [-0.4571009602272916, 0.3210735173626177], [-0.07197519822357834, -0.46967398198709354], [-0.05114309337877132, 0.574270542795286], [-0.42684901534848085, -0.2689590435294428], [0.5386416433556148, -0.1292759669149576], [-0.22277376240962155, 0.2754317858357779], [0.3969238429120384, -0.36299065776511696], [0.09893761295873793, 0.35204402815877944], [-0.23301894810235313, 0.49218822402155615], [-0.096462706820033, -0.16637886819590508], [-0.45823354145228984, -0.047482368655071217], [-0.2655489581677665, -0.4038832959123835], [0.556475199217436, 0.17030386045437546], [-0.09437403076304485, 0.11248800554287386], [0.21790804099547167, -0.08533265993724859], [0.20394068068987947, -0.49510865487645894], [-0.2911804365286439, 0.0817298483858776]]",density,black,,,N011,visual,1,[],"['1', '2', '3', '4']",1,2023.2.3,harveyvisual,2.1,[],8,0.75,
0,pause,0.4,None,None,None,0,267,267,267,,,,,,,,,,,,,N011,visual,1,[],"['1', '2', '3', '4']",1,2023.2.3,harveyvisual,2.1,[],8,0.75,
