num,mod,duration,shape,ll_cond,colors,.thisRepN,.thisTrialN,.thisN,.thisIndex,thisRow.t,notes,raw_global_time,t_start,t_stop,shapes,size,pos,cond,color,button,RT,participant,session,starting_run,left button (match/odd),right button (non-match/even),samples_per_block,psychopy version,expName,offset,audio,number_runs,radius,
1,dot,0.3,['dot'],['density'],black,0,0,0,0,,,2.400192975997925,2.1141250133514404,2.414112091064453,dot,[0.08],"[0.43730911014729085, 0.38068286015665653]",density,black,,,N011,visual,6,[],"['1', '2', '3', '4']",1,2023.2.3,harveyvisual,2.1,[],8,0.75,
0,pause,0.4,None,None,None,0,1,1,1,,,,,,,,,,,,,N011,visual,6,[],"['1', '2', '3', '4']",1,2023.2.3,harveyvisual,2.1,[],8,0.75,
1,dot,0.3,['dot'],['density'],black,0,2,2,2,,,3.1001899242401123,2.813965082168579,3.1140899658203125,dot,[0.1],"[0.2830289625583117, -0.03026882548871228]",density,black,,,N011,visual,6,[],"['1', '2', '3', '4']",1,2023.2.3,harveyvisual,2.1,[],8,0.75,
0,pause,0.4,None,None,None,0,3,3,3,,,,,,,,,,,,,N011,visual,6,[],"['1', '2', '3', '4']",1,2023.2.3,harveyvisual,2.1,[],8,0.75,
1,dot,0.3,['dot'],['density'],black,0,4,4,4,,,3.8002140522003174,3.5139529705047607,3.8139588832855225,dot,[0.1],"[-0.48958603946102763, 0.32731293615049173]",density,black,,,N011,visual,6,[],"['1', '2', '3', '4']",1,2023.2.3,harveyvisual,2.1,[],8,0.75,
0,pause,0.4,None,None,None,0,5,5,5,,,,,,,,,,,,,N011,visual,6,[],"['1', '2', '3', '4']",1,2023.2.3,harveyvisual,2.1,[],8,0.75,
1,dot,0.3,['dot'],['density'],black,0,6,6,6,,,4.500197887420654,4.213932991027832,4.513927936553955,dot,[0.08],"[-0.30422713965878023, 0.0739284850406325]",density,black,,,N011,visual,6,[],"['1', '2', '3', '4']",1,2023.2.3,harveyvisual,2.1,[],8,0.75,
0,pause,0.4,None,None,None,0,7,7,7,,,,,,,,,,,,,N011,visual,6,[],"['1', '2', '3', '4']",1,2023.2.3,harveyvisual,2.1,[],8,0.75,
1,dot,0.3,['dot'],['density'],white,0,8,8,8,,,5.200207948684692,4.913887023925781,5.213909864425659,dot,[0.08],"[0.075024325262877, 0.28946834799837856]",density,white,,,N011,visual,6,[],"['1', '2', '3', '4']",1,2023.2.3,harveyvisual,2.1,[],8,0.75,
0,pause,0.4,None,None,None,0,9,9,9,,,,,,,,,,,1,5.161410093307495,N011,visual,6,[],"['1', '2', '3', '4']",1,2023.2.3,harveyvisual,2.1,[],8,0.75,
1,dot,0.3,['dot'],['density'],black,0,10,10,10,,,5.900191068649292,5.613894939422607,5.913853883743286,dot,[0.1],"[0.25023401086931774, -0.3984124620602511]",density,black,,,N011,visual,6,[],"['1', '2', '3', '4']",1,2023.2.3,harveyvisual,2.1,[],8,0.75,
0,pause,0.4,None,None,None,0,11,11,11,,,,,,,,,,,,,N011,visual,6,[],"['1', '2', '3', '4']",1,2023.2.3,harveyvisual,2.1,[],8,0.75,
2,dot,0.3,['dot'],['density'],black,0,12,12,12,,,6.600214004516602,6.313880920410156,6.613869905471802,dot,"[0.1, 0.08]","[[0.1851205616289071, -0.3624876981064337], [0.3405923022038234, -0.23608025195482504]]",density,black,,,N011,visual,6,[],"['1', '2', '3', '4']",1,2023.2.3,harveyvisual,2.1,[],8,0.75,
0,pause,0.4,None,None,None,0,13,13,13,,,,,,,,,,,,,N011,visual,6,[],"['1', '2', '3', '4']",1,2023.2.3,harveyvisual,2.1,[],8,0.75,
2,dot,0.3,['dot'],['density'],black,0,14,14,14,,,7.300203084945679,7.013827085494995,7.313847064971924,dot,"[0.06, 0.06]","[[0.4162662019019998, 0.09129510669171749], [0.33420900269466314, 0.27427456354974017]]",density,black,,,N011,visual,6,[],"['1', '2', '3', '4']",1,2023.2.3,harveyvisual,2.1,[],8,0.75,
0,pause,0.4,None,None,None,0,15,15,15,,,,,,,,,,,,,N011,visual,6,[],"['1', '2', '3', '4']",1,2023.2.3,harveyvisual,2.1,[],8,0.75,
2,dot,0.3,['dot'],['density'],black,0,16,16,16,,,8.00019907951355,7.71386194229126,8.013797044754028,dot,"[0.1, 0.08]","[[0.06661886780735636, -0.3109770134588511], [-0.03502229105109153, -0.4833380692870097]]",density,black,,,N011,visual,6,[],"['1', '2', '3', '4']",1,2023.2.3,harveyvisual,2.1,[],8,0.75,
0,pause,0.4,None,None,None,0,17,17,17,,,,,,,,,,,,,N011,visual,6,[],"['1', '2', '3', '4']",1,2023.2.3,harveyvisual,2.1,[],8,0.75,
2,dot,0.3,['dot'],['density'],black,0,18,18,18,,,8.70021104812622,8.413821935653687,8.713813066482544,dot,"[0.1, 0.06]","[[0.24818458179829028, -0.5230613829255512], [0.05315527151035717, -0.47711981276458415]]",density,black,,,N011,visual,6,[],"['1', '2', '3', '4']",1,2023.2.3,harveyvisual,2.1,[],8,0.75,
0,pause,0.4,None,None,None,0,19,19,19,,,,,,,,,,,,,N011,visual,6,[],"['1', '2', '3', '4']",1,2023.2.3,harveyvisual,2.1,[],8,0.75,
2,dot,0.3,['dot'],['density'],black,0,20,20,20,,,9.400201082229614,9.113780975341797,9.41380000114441,dot,"[0.1, 0.06]","[[0.3054529246123127, 0.4455278178545299], [0.3548458028228903, 0.2510588499170468]]",density,black,,,N011,visual,6,[],"['1', '2', '3', '4']",1,2023.2.3,harveyvisual,2.1,[],8,0.75,
0,pause,0.4,None,None,None,0,21,21,21,,,,,,,,,,,,,N011,visual,6,[],"['1', '2', '3', '4']",1,2023.2.3,harveyvisual,2.1,[],8,0.75,
2,dot,0.3,['dot'],['density'],black,0,22,22,22,,,10.100204944610596,9.813777923583984,10.113751888275146,dot,"[0.1, 0.06]","[[0.24265818653156754, -0.3775895252336694], [0.4224299169789366, -0.289759305909148]]",density,black,,,N011,visual,6,[],"['1', '2', '3', '4']",1,2023.2.3,harveyvisual,2.1,[],8,0.75,
0,pause,0.4,None,None,None,0,23,23,23,,,,,,,,,,,,,N011,visual,6,[],"['1', '2', '3', '4']",1,2023.2.3,harveyvisual,2.1,[],8,0.75,
3,dot,0.3,['dot'],['density'],black,0,24,24,24,,,10.800201892852783,10.513772964477539,10.813745021820068,dot,"[0.1, 0.08, 0.1]","[[-0.17592395544936776, 0.40510565415719324], [-0.30566154612550034, 0.21848422264492345], [-0.39822260978708685, 0.43144058222919995]]",density,black,,,N011,visual,6,[],"['1', '2', '3', '4']",1,2023.2.3,harveyvisual,2.1,[],8,0.75,
0,pause,0.4,None,None,None,0,25,25,25,,,,,,,,,,,,,N011,visual,6,[],"['1', '2', '3', '4']",1,2023.2.3,harveyvisual,2.1,[],8,0.75,
3,dot,0.3,['dot'],['density'],black,0,26,26,26,,,11.500211000442505,11.213726997375488,11.513746976852417,dot,"[0.1, 0.1, 0.06]","[[0.11213305146232053, -0.07893917948794166], [0.05639720131197772, -0.2966044022377523], [-0.1031859716129837, -0.13437008874356654]]",density,black,,,N011,visual,6,[],"['1', '2', '3', '4']",1,2023.2.3,harveyvisual,2.1,[],8,0.75,
0,pause,0.4,None,None,None,0,27,27,27,,,,,,,,,,,,,N011,visual,6,[],"['1', '2', '3', '4']",1,2023.2.3,harveyvisual,2.1,[],8,0.75,
3,dot,0.3,['dot'],['density'],black,0,28,28,28,,,12.200193881988525,11.913708925247192,12.21373200416565,dot,"[0.1, 0.06, 0.06]","[[-0.3391924794566746, 0.43027756448319565], [-0.33080415183405026, 0.2112686575961512], [-0.14277619127331137, 0.29962579604826906]]",density,black,,,N011,visual,6,[],"['1', '2', '3', '4']",1,2023.2.3,harveyvisual,2.1,[],8,0.75,
0,pause,0.4,None,None,None,0,29,29,29,,,,,,,,,,,,,N011,visual,6,[],"['1', '2', '3', '4']",1,2023.2.3,harveyvisual,2.1,[],8,0.75,
3,dot,0.3,['dot'],['density'],black,0,30,30,30,,,12.90020203590393,12.613770008087158,12.913673877716064,dot,"[0.1, 0.06, 0.08]","[[0.07700183490032705, -0.35627018624379625], [-0.11838355721398923, -0.41989981358322065], [0.04553884901650391, -0.5822363694770394]]",density,black,,,N011,visual,6,[],"['1', '2', '3', '4']",1,2023.2.3,harveyvisual,2.1,[],8,0.75,
0,pause,0.4,None,None,None,0,31,31,31,,,,,,,,,,,,,N011,visual,6,[],"['1', '2', '3', '4']",1,2023.2.3,harveyvisual,2.1,[],8,0.75,
3,dot,0.3,['dot'],['density'],black,0,32,32,32,,,13.60020899772644,13.31370997428894,13.613690853118896,dot,"[0.08, 0.1, 0.08]","[[0.4290032298944087, 0.1407520187648592], [0.22848299553954127, 0.06362144779139585], [0.3595680574788582, -0.09433362503040832]]",density,black,,,N011,visual,6,[],"['1', '2', '3', '4']",1,2023.2.3,harveyvisual,2.1,[],8,0.75,
0,pause,0.4,None,None,None,0,33,33,33,,,,,,,,,,,,,N011,visual,6,[],"['1', '2', '3', '4']",1,2023.2.3,harveyvisual,2.1,[],8,0.75,
3,dot,0.3,['dot'],['density'],black,0,34,34,34,,,14.300215005874634,14.013650894165039,14.313669919967651,dot,"[0.1, 0.08, 0.1]","[[-0.05604225559701161, -0.5082314702914299], [0.10137377066920354, -0.3837858820064252], [-0.12802807887251882, -0.3142638921214105]]",density,black,,,N011,visual,6,[],"['1', '2', '3', '4']",1,2023.2.3,harveyvisual,2.1,[],8,0.75,
0,pause,0.4,None,None,None,0,35,35,35,,,,,,,,,,,,,N011,visual,6,[],"['1', '2', '3', '4']",1,2023.2.3,harveyvisual,2.1,[],8,0.75,
4,dot,0.3,['dot'],['density'],black,0,36,36,36,,,15.000216007232666,14.713667869567871,15.013691902160645,dot,"[0.06, 0.06, 0.1, 0.06]","[[0.37520814465037905, -0.4432880181017862], [0.4692830223283075, -0.19655799526205012], [0.3063896805601884, -0.036788685454167226], [0.2471196723673293, -0.2344474043623998]]",density,black,,,N011,visual,6,[],"['1', '2', '3', '4']",1,2023.2.3,harveyvisual,2.1,[],8,0.75,
0,pause,0.4,None,None,None,0,37,37,37,,,,,,,,,,,,,N011,visual,6,[],"['1', '2', '3', '4']",1,2023.2.3,harveyvisual,2.1,[],8,0.75,
4,dot,0.3,['dot'],['density'],black,0,38,38,38,,,15.70019793510437,15.413651943206787,15.713653087615967,dot,"[0.1, 0.1, 0.08, 0.08]","[[0.15462156444594843, 0.0379601134824338], [-0.046642739949193296, 0.06510400621286498], [0.12320708371464141, 0.2499967514902957], [-0.13279798436850673, 0.2624558601457805]]",density,black,,,N011,visual,6,[],"['1', '2', '3', '4']",1,2023.2.3,harveyvisual,2.1,[],8,0.75,
0,pause,0.4,None,None,None,0,39,39,39,,,,,,,,,,,,,N011,visual,6,[],"['1', '2', '3', '4']",1,2023.2.3,harveyvisual,2.1,[],8,0.75,
4,dot,0.3,['dot'],['density'],black,0,40,40,40,,,16.40019392967224,16.113672018051147,16.41362500190735,dot,"[0.08, 0.08, 0.1, 0.1]","[[-0.3884818304242726, 0.11421243679268873], [-0.11472928134965246, -0.13141119473891247], [-0.1657593024508462, 0.13368900033666462], [-0.36655717599886073, -0.10387254737714131]]",density,black,,,N011,visual,6,[],"['1', '2', '3', '4']",1,2023.2.3,harveyvisual,2.1,[],8,0.75,
0,pause,0.4,None,None,None,0,41,41,41,,,,,,,,,,,,,N011,visual,6,[],"['1', '2', '3', '4']",1,2023.2.3,harveyvisual,2.1,[],8,0.75,
4,dot,0.3,['dot'],['density'],black,0,42,42,42,,,17.10021686553955,16.81534695625305,17.114547967910767,dot,"[0.08, 0.08, 0.1, 0.08]","[[0.0015408600658227804, 0.35051751062746694], [-0.20674122870780898, 0.3211588031025307], [-0.08430622538187964, 0.13383917563087117], [0.1780252705082131, 0.19175915241248492]]",density,black,,,N011,visual,6,[],"['1', '2', '3', '4']",1,2023.2.3,harveyvisual,2.1,[],8,0.75,
0,pause,0.4,None,None,None,0,43,43,43,,,,,,,,,,,,,N011,visual,6,[],"['1', '2', '3', '4']",1,2023.2.3,harveyvisual,2.1,[],8,0.75,
4,dot,0.3,['dot'],['density'],white,0,44,44,44,,,17.80020785331726,17.514139890670776,17.814600944519043,dot,"[0.1, 0.06, 0.08, 0.06]","[[0.3428963381299033, -0.004396565162037705], [0.42558881424794154, 0.18301493672810298], [0.5687630200397232, 0.01721079717795714], [0.4301208405972816, -0.23499851958356296]]",density,white,,,N011,visual,6,[],"['1', '2', '3', '4']",1,2023.2.3,harveyvisual,2.1,[],8,0.75,
0,pause,0.4,None,None,None,0,45,45,45,,,,,,,,,,,1,17.5707790851593,N011,visual,6,[],"['1', '2', '3', '4']",1,2023.2.3,harveyvisual,2.1,[],8,0.75,
4,dot,0.3,['dot'],['density'],black,0,46,46,46,,,18.5002179145813,18.214062929153442,18.514112949371338,dot,"[0.06, 0.06, 0.08, 0.1]","[[-0.0389916918612136, -0.388752419995929], [-0.2709884701808293, -0.36873671266769453], [0.09349318837137091, -0.23801008290575854], [-0.09100040788429245, -0.11490803606521542]]",density,black,,,N011,visual,6,[],"['1', '2', '3', '4']",1,2023.2.3,harveyvisual,2.1,[],8,0.75,
0,pause,0.4,None,None,None,0,47,47,47,,,,,,,,,,,,,N011,visual,6,[],"['1', '2', '3', '4']",1,2023.2.3,harveyvisual,2.1,[],8,0.75,
5,dot,0.3,['dot'],['density'],black,0,48,48,48,,,19.200200080871582,18.914491891860962,19.214051961898804,dot,"[0.08, 0.06, 0.06, 0.08, 0.1]","[[0.029171133319913545, -0.11913068329317353], [-0.2981845944788078, -0.46624640290839614], [-0.1844599491613969, -0.04126455345730423], [-0.2900988597239497, -0.2493716418714862], [-0.0791391532727178, -0.3057260733699829]]",density,black,,,N011,visual,6,[],"['1', '2', '3', '4']",1,2023.2.3,harveyvisual,2.1,[],8,0.75,
0,pause,0.4,None,None,None,0,49,49,49,,,,,,,,,,,,,N011,visual,6,[],"['1', '2', '3', '4']",1,2023.2.3,harveyvisual,2.1,[],8,0.75,
5,dot,0.3,['dot'],['density'],black,0,50,50,50,,,19.900212049484253,19.61627197265625,19.916878938674927,dot,"[0.08, 0.06, 0.06, 0.1, 0.1]","[[-0.19096480170835262, 0.2202776521134577], [0.009488999043989208, 0.5721548226574139], [0.16477125949827795, 0.3732973518003487], [0.07476286221063107, 0.1476230553836633], [-0.051949696108355745, 0.36609537475325354]]",density,black,,,N011,visual,6,[],"['1', '2', '3', '4']",1,2023.2.3,harveyvisual,2.1,[],8,0.75,
0,pause,0.4,None,None,None,0,51,51,51,,,,,,,,,,,,,N011,visual,6,[],"['1', '2', '3', '4']",1,2023.2.3,harveyvisual,2.1,[],8,0.75,
5,dot,0.3,['dot'],['density'],black,0,52,52,52,,,20.60020899772644,20.316243886947632,20.61622905731201,dot,"[0.1, 0.1, 0.08, 0.06, 0.08]","[[-0.24811222937808852, -0.0926462173418487], [-0.0684102839715827, 0.053707960252323945], [-0.4199359189551936, 0.028595247832400618], [-0.4311232183625476, -0.17348815390478414], [-0.08153496032007611, -0.23043043025001772]]",density,black,,,N011,visual,6,[],"['1', '2', '3', '4']",1,2023.2.3,harveyvisual,2.1,[],8,0.75,
0,pause,0.4,None,None,None,0,53,53,53,,,,,,,,,,,,,N011,visual,6,[],"['1', '2', '3', '4']",1,2023.2.3,harveyvisual,2.1,[],8,0.75,
5,dot,0.3,['dot'],['density'],black,0,54,54,54,,,21.30020308494568,21.016186952590942,21.316214084625244,dot,"[0.06, 0.08, 0.08, 0.06, 0.06]","[[0.33660852042816714, -0.448935078303268], [0.16237328695183198, -0.028906365321866932], [0.003149504206933677, -0.1844463225559013], [0.4065340125681681, -0.22407981263326276], [0.20027486954239768, -0.2346061295568129]]",density,black,,,N011,visual,6,[],"['1', '2', '3', '4']",1,2023.2.3,harveyvisual,2.1,[],8,0.75,
0,pause,0.4,None,None,None,0,55,55,55,,,,,,,,,,,,,N011,visual,6,[],"['1', '2', '3', '4']",1,2023.2.3,harveyvisual,2.1,[],8,0.75,
5,dot,0.3,['dot'],['density'],white,0,56,56,56,,,22.000221014022827,21.71622085571289,22.01615595817566,dot,"[0.1, 0.06, 0.1, 0.06, 0.06]","[[0.33660852042816714, -0.448935078303268], [0.16237328695183198, -0.028906365321866932], [0.003149504206933677, -0.1844463225559013], [0.4065340125681681, -0.22407981263326276], [0.20027486954239768, -0.2346061295568129]]",density,white,,,N011,visual,6,[],"['1', '2', '3', '4']",1,2023.2.3,harveyvisual,2.1,[],8,0.75,
0,pause,0.4,None,None,None,0,57,57,57,,,,,,,,,,,1,21.728321075439453,N011,visual,6,[],"['1', '2', '3', '4']",1,2023.2.3,harveyvisual,2.1,[],8,0.75,
5,dot,0.3,['dot'],['density'],white,0,58,58,58,,,22.700200080871582,22.41629695892334,22.716300010681152,dot,"[0.06, 0.06, 0.08, 0.1, 0.1]","[[0.45108699871130137, 0.12052648913612102], [0.3120839015871755, -0.055344110322042436], [0.5361186937318446, -0.08608482415671545], [0.24926945818158194, 0.15209517992691748], [0.3855135356736719, -0.25840400127360613]]",density,white,,,N011,visual,6,[],"['1', '2', '3', '4']",1,2023.2.3,harveyvisual,2.1,[],8,0.75,
0,pause,0.4,None,None,None,0,59,59,59,,,,,,,,,,,1,22.504422187805176,N011,visual,6,[],"['1', '2', '3', '4']",1,2023.2.3,harveyvisual,2.1,[],8,0.75,
6,dot,0.3,['dot'],['density'],black,0,60,60,60,,,23.400198936462402,23.11626100540161,23.416239976882935,dot,"[0.08, 0.08, 0.08, 0.1, 0.08, 0.1]","[[-0.5379788740814003, -0.011730333491669416], [-0.1820890739253136, -0.27973544868684425], [-0.07809457889047756, -0.09124846264896269], [-0.30616251401069866, -0.45101817852416426], [-0.44200878281119743, -0.26991620184617166], [-0.3315938551005316, -0.08696624632848979]]",density,black,,,N011,visual,6,[],"['1', '2', '3', '4']",1,2023.2.3,harveyvisual,2.1,[],8,0.75,
0,pause,0.4,None,None,None,0,61,61,61,,,,,,,,,,,,,N011,visual,6,[],"['1', '2', '3', '4']",1,2023.2.3,harveyvisual,2.1,[],8,0.75,
6,dot,0.3,['dot'],['density'],black,0,62,62,62,,,24.100197076797485,23.816396951675415,24.11625599861145,dot,"[0.08, 0.1, 0.06, 0.06, 0.1, 0.08]","[[0.285926512064941, -0.24481785515673876], [0.418595730147314, -0.41068201076939437], [0.08023911914447063, -0.2907744195836184], [0.5255309086764915, -0.21900298349449057], [0.21619509519697316, -0.004828458463526469], [0.21043770887025895, -0.4594541383061854]]",density,black,,,N011,visual,6,[],"['1', '2', '3', '4']",1,2023.2.3,harveyvisual,2.1,[],8,0.75,
0,pause,0.4,None,None,None,0,63,63,63,,,,,,,,,,,,,N011,visual,6,[],"['1', '2', '3', '4']",1,2023.2.3,harveyvisual,2.1,[],8,0.75,
6,dot,0.3,['dot'],['density'],black,0,64,64,64,,,24.80019497871399,24.51622200012207,24.8162100315094,dot,"[0.1, 0.08, 0.1, 0.08, 0.08, 0.1]","[[-0.060066269329224556, -0.3459973645598818], [-0.2267112282887438, -0.46433083725857055], [-0.03368736353914721, -0.0592740518520544], [0.1129416353875032, -0.20466059509733167], [0.13908697530976044, -0.42386339769443276], [-0.2931789080149146, -0.2669036372638095]]",density,black,,,N011,visual,6,[],"['1', '2', '3', '4']",1,2023.2.3,harveyvisual,2.1,[],8,0.75,
0,pause,0.4,None,None,None,0,65,65,65,,,,,,,,,,,,,N011,visual,6,[],"['1', '2', '3', '4']",1,2023.2.3,harveyvisual,2.1,[],8,0.75,
6,dot,0.3,['dot'],['density'],black,0,66,66,66,,,25.500212907791138,25.21619701385498,25.51621699333191,dot,"[0.06, 0.08, 0.08, 0.06, 0.06, 0.08]","[[0.1442800129286608, -0.025670240792647715], [-0.253335145558221, 0.06312541807928282], [0.15340240856287354, 0.2410349392962658], [-0.1639657784688781, 0.25075335361279655], [-0.07910231793701084, -0.12784096878077061], [-0.011661193723423325, 0.11361106492824657]]",density,black,,,N011,visual,6,[],"['1', '2', '3', '4']",1,2023.2.3,harveyvisual,2.1,[],8,0.75,
0,pause,0.4,None,None,None,0,67,67,67,,,,,,,,,,,,,N011,visual,6,[],"['1', '2', '3', '4']",1,2023.2.3,harveyvisual,2.1,[],8,0.75,
6,dot,0.3,['dot'],['density'],white,0,68,68,68,,,26.200212955474854,25.916197061538696,26.216182947158813,dot,"[0.1, 0.08, 0.1, 0.06, 0.1, 0.08]","[[0.3299424372810393, 0.4114780133894161], [0.051944887288218326, -0.03233758374135307], [0.4337222981537534, -0.07578498258626121], [0.10477943773033714, 0.1703675017914044], [0.3400878522727408, 0.20016066552806494], [0.2510029109880425, 0.01747244452819591]]",density,white,,,N011,visual,6,[],"['1', '2', '3', '4']",1,2023.2.3,harveyvisual,2.1,[],8,0.75,
0,pause,0.4,None,None,None,0,69,69,69,,,,,,,,,,,1,25.944002151489258,N011,visual,6,[],"['1', '2', '3', '4']",1,2023.2.3,harveyvisual,2.1,[],8,0.75,
6,dot,0.3,['dot'],['density'],black,0,70,70,70,,,26.900203943252563,26.616200923919678,26.91617488861084,dot,"[0.06, 0.06, 0.1, 0.06, 0.06, 0.1]","[[-0.11553075830627273, 0.47698778124428043], [-0.1112787518129194, 0.10456141670764223], [-0.48855705683845824, 0.21494657582805063], [-0.2538299919008863, 0.2532006538804931], [-0.3271837865365474, 0.4662148945367939], [0.006792750312598743, 0.27345996435494924]]",density,black,,,N011,visual,6,[],"['1', '2', '3', '4']",1,2023.2.3,harveyvisual,2.1,[],8,0.75,
0,pause,0.4,None,None,None,0,71,71,71,,,,,,,,,,,,,N011,visual,6,[],"['1', '2', '3', '4']",1,2023.2.3,harveyvisual,2.1,[],8,0.75,
7,dot,0.3,['dot'],['density'],white,0,72,72,72,,,27.600202083587646,27.31729006767273,27.616158962249756,dot,"[0.1, 0.06, 0.08, 0.08, 0.1, 0.1, 0.1]","[[-0.4069355390488937, 0.37207368581823036], [-0.24593577727054447, 0.19917396778247878], [-0.42360727833657225, -0.08003411738888748], [-0.22269992972584096, -0.007913174381400552], [-0.5458110461780458, 0.2006057762678532], [-0.12767295506375728, 0.3689678629588407], [-0.26313434255033313, 0.5223746060296944]]",density,white,,,N011,visual,6,[],"['1', '2', '3', '4']",1,2023.2.3,harveyvisual,2.1,[],8,0.75,
0,pause,0.4,None,None,None,0,73,73,73,,,,,,,,,,,1,27.357192993164062,N011,visual,6,[],"['1', '2', '3', '4']",1,2023.2.3,harveyvisual,2.1,[],8,0.75,
7,dot,0.3,['dot'],['density'],black,0,74,74,74,,,28.300221920013428,28.016167879104614,28.31613802909851,dot,"[0.06, 0.08, 0.08, 0.08, 0.1, 0.08, 0.1]","[[0.21536278937261513, -0.01733091677764761], [-0.08931035591216824, -0.05246349631749078], [0.21870610454298933, 0.21067491250041093], [-0.1587576617113587, 0.26068369883413384], [0.04623079518225047, 0.4568527369480977], [0.022942391481424712, 0.13939122930077608], [-0.27674911739568203, 0.09730719745121558]]",density,black,,,N011,visual,6,[],"['1', '2', '3', '4']",1,2023.2.3,harveyvisual,2.1,[],8,0.75,
0,pause,0.4,None,None,None,0,75,75,75,,,,,,,,,,,,,N011,visual,6,[],"['1', '2', '3', '4']",1,2023.2.3,harveyvisual,2.1,[],8,0.75,
7,dot,0.3,['dot'],['density'],black,0,76,76,76,,,29.000197887420654,28.716141939163208,29.0172438621521,dot,"[0.06, 0.08, 0.1, 0.08, 0.08, 0.1, 0.08]","[[0.23608374802607182, -0.42864299173344095], [-0.09209027036414452, -0.12416238309953632], [0.2788105912293623, 0.0033410667889120396], [0.04539289310230788, 0.08875296613859053], [0.036272769320452085, -0.32980830156280494], [-0.23317126701056543, -0.2895908304292693], [0.15392952834370008, -0.16140965755482034]]",density,black,,,N011,visual,6,[],"['1', '2', '3', '4']",1,2023.2.3,harveyvisual,2.1,[],8,0.75,
0,pause,0.4,None,None,None,0,77,77,77,,,,,,,,,,,,,N011,visual,6,[],"['1', '2', '3', '4']",1,2023.2.3,harveyvisual,2.1,[],8,0.75,
7,dot,0.3,['dot'],['density'],black,0,78,78,78,,,29.70020604133606,29.416125059127808,29.716115951538086,dot,"[0.06, 0.1, 0.06, 0.1, 0.1, 0.08, 0.1]","[[0.020512593940644967, 0.06058225053891463], [-0.12457192929091994, 0.22210134043855223], [0.2267676360835929, 0.07227077176864677], [-0.19381219694833235, -0.14277017550647156], [0.096077147208419, -0.13886261858003718], [0.087393672000005, 0.26445259248386815], [-0.018663113410245565, 0.4344684582511623]]",density,black,,,N011,visual,6,[],"['1', '2', '3', '4']",1,2023.2.3,harveyvisual,2.1,[],8,0.75,
0,pause,0.4,None,None,None,0,79,79,79,,,,,,,,,,,,,N011,visual,6,[],"['1', '2', '3', '4']",1,2023.2.3,harveyvisual,2.1,[],8,0.75,
7,dot,0.3,['dot'],['density'],black,0,80,80,80,,,30.400218963623047,30.11607789993286,30.416099071502686,dot,"[0.06, 0.06, 0.06, 0.06, 0.1, 0.1, 0.06]","[[0.12430361198122393, -0.484697593056103], [0.0493599320108737, -0.036540600477799993], [0.2536650008125765, -0.05314613827093128], [-0.10908149692518246, -0.38401305955505927], [0.3510411480849886, -0.3949608705840701], [0.16732256025271752, -0.2817377092689904], [0.4277002215428168, -0.1937739732965619]]",density,black,,,N011,visual,6,[],"['1', '2', '3', '4']",1,2023.2.3,harveyvisual,2.1,[],8,0.75,
0,pause,0.4,None,None,None,0,81,81,81,,,,,,,,,,,,,N011,visual,6,[],"['1', '2', '3', '4']",1,2023.2.3,harveyvisual,2.1,[],8,0.75,
7,dot,0.3,['dot'],['density'],black,0,82,82,82,,,31.100199937820435,30.816071033477783,31.116039991378784,dot,"[0.06, 0.06, 0.1, 0.06, 0.08, 0.06, 0.08]","[[0.2966712274604575, -0.2131825579980761], [-0.1186836204372937, -0.4965034514665913], [-0.01440301872015537, -0.0403072600505146], [0.1950017499803942, -0.04023412759326238], [0.279011892689379, -0.46996203863525404], [-0.05628257964606558, -0.24364929332980273], [0.11956786588335709, -0.3438640467385331]]",density,black,,,N011,visual,6,[],"['1', '2', '3', '4']",1,2023.2.3,harveyvisual,2.1,[],8,0.75,
0,pause,0.4,None,None,None,0,83,83,83,,,,,,,,,,,,,N011,visual,6,[],"['1', '2', '3', '4']",1,2023.2.3,harveyvisual,2.1,[],8,0.75,
8,dot,0.3,['dot'],['density'],black,0,84,84,84,,,31.800206899642944,31.516589879989624,31.816061973571777,dot,"[0.1, 0.06, 0.08, 0.06, 0.06, 0.06, 0.08, 0.1]","[[-0.3167478768396544, -0.2124469325344782], [0.11150510454677101, -0.25361932254341324], [0.17657050060311263, -0.496926349220185], [0.20833757931744315, -0.0002320808252021913], [-0.0015234955214533466, 0.034722119540356526], [-0.10690598217119997, -0.19846612199298916], [0.32498422138424443, -0.23444872628509345], [-0.054741640541526956, -0.4230750989992696]]",density,black,,,N011,visual,6,[],"['1', '2', '3', '4']",1,2023.2.3,harveyvisual,2.1,[],8,0.75,
0,pause,0.4,None,None,None,0,85,85,85,,,,,,,,,,,,,N011,visual,6,[],"['1', '2', '3', '4']",1,2023.2.3,harveyvisual,2.1,[],8,0.75,
8,dot,0.3,['dot'],['density'],black,0,86,86,86,,,32.500211000442505,32.216042041778564,32.51601004600525,dot,"[0.08, 0.06, 0.06, 0.06, 0.06, 0.08, 0.08, 0.1]","[[-0.17001050475317317, -0.17367687575201368], [0.3600613666554234, 0.010096468830953859], [-0.08326222131596324, 0.04242117989324811], [0.04296950773068638, 0.29875887990525135], [0.04919814700692566, -0.23206276490508926], [0.2733682510361541, 0.19343137942482672], [0.15974695196996483, -0.02827404827190698], [-0.2919014881818027, 0.0006738684867251376]]",density,black,,,N011,visual,6,[],"['1', '2', '3', '4']",1,2023.2.3,harveyvisual,2.1,[],8,0.75,
0,pause,0.4,None,None,None,0,87,87,87,,,,,,,,,,,,,N011,visual,6,[],"['1', '2', '3', '4']",1,2023.2.3,harveyvisual,2.1,[],8,0.75,
8,dot,0.3,['dot'],['density'],black,0,88,88,88,,,33.200217962265015,32.91602087020874,33.21601605415344,dot,"[0.1, 0.06, 0.08, 0.08, 0.06, 0.1, 0.1, 0.1]","[[0.016639406518403475, -0.10031965053970064], [-0.49734137941811546, 0.023312718056099104], [0.03171158295547566, 0.2028207856397581], [-0.3777108616291506, 0.18827317115199685], [-0.2734124440264558, -0.20525012861841768], [-0.1742574757978524, 0.04093824739900491], [-0.17815403785603903, 0.26205888083036905], [-0.2502819750276768, 0.4804358206127844]]",density,black,,,N011,visual,6,[],"['1', '2', '3', '4']",1,2023.2.3,harveyvisual,2.1,[],8,0.75,
0,pause,0.4,None,None,None,0,89,89,89,,,,,,,,,,,,,N011,visual,6,[],"['1', '2', '3', '4']",1,2023.2.3,harveyvisual,2.1,[],8,0.75,
8,dot,0.3,['dot'],['density'],black,0,90,90,90,,,33.90021800994873,33.616008043289185,33.91597294807434,dot,"[0.1, 0.06, 0.1, 0.06, 0.06, 0.08, 0.06, 0.1]","[[0.3364035831170529, 0.12390393923093283], [0.4336864367158133, 0.35981147627037974], [0.06743640335689947, 0.0759148581953004], [-0.079559988999742, 0.39531058321326396], [0.21309668101319243, 0.48855257098982907], [0.23478258025928536, -0.08446837776908474], [-0.12854716397353463, 0.17339976512773136], [0.14965136140762586, 0.26897313353206964]]",density,black,,,N011,visual,6,[],"['1', '2', '3', '4']",1,2023.2.3,harveyvisual,2.1,[],8,0.75,
0,pause,0.4,None,None,None,0,91,91,91,,,,,,,,,,,,,N011,visual,6,[],"['1', '2', '3', '4']",1,2023.2.3,harveyvisual,2.1,[],8,0.75,
8,dot,0.3,['dot'],['density'],black,0,92,92,92,,,34.600208044052124,34.315978050231934,34.61710500717163,dot,"[0.06, 0.08, 0.08, 0.1, 0.06, 0.06, 0.08, 0.1]","[[-0.3290570048964025, 0.45712517183014534], [-0.12351728740192595, 0.19722326774196852], [-0.44617383739254307, -0.0315435053038489], [0.05824565693526591, 0.08769012542188236], [-0.4904255353169048, 0.31423420558286136], [-0.32491150822629034, 0.16696319418744587], [-0.12614658653380179, 0.4043789036591275], [0.10044097339982726, 0.3130264767685494]]",density,black,,,N011,visual,6,[],"['1', '2', '3', '4']",1,2023.2.3,harveyvisual,2.1,[],8,0.75,
0,pause,0.4,None,None,None,0,93,93,93,,,,,,,,,,,,,N011,visual,6,[],"['1', '2', '3', '4']",1,2023.2.3,harveyvisual,2.1,[],8,0.75,
8,dot,0.3,['dot'],['density'],black,0,94,94,94,,,35.30019807815552,35.015953063964844,35.315950870513916,dot,"[0.1, 0.1, 0.08, 0.1, 0.08, 0.06, 0.08, 0.06]","[[-0.17001050475317317, -0.17367687575201368], [0.3600613666554234, 0.010096468830953859], [-0.08326222131596324, 0.04242117989324811], [0.04296950773068638, 0.29875887990525135], [0.04919814700692566, -0.23206276490508926], [0.2733682510361541, 0.19343137942482672], [0.15974695196996483, -0.02827404827190698], [-0.2919014881818027, 0.0006738684867251376]]",density,black,,,N011,visual,6,[],"['1', '2', '3', '4']",1,2023.2.3,harveyvisual,2.1,[],8,0.75,
0,pause,0.4,None,None,None,0,95,95,95,,,,,,,,,,,,,N011,visual,6,[],"['1', '2', '3', '4']",1,2023.2.3,harveyvisual,2.1,[],8,0.75,
9,dot,0.3,['dot'],['density'],black,0,96,96,96,,,36.00022006034851,35.71592903137207,36.01595187187195,dot,"[0.08, 0.08, 0.08, 0.06, 0.1, 0.08, 0.08, 0.06, 0.1]","[[0.5610971552988853, -0.17060184332349634], [0.41375718760989944, -0.015869013459887487], [0.10524493337967332, -0.4151143617417518], [0.33762937987512565, -0.21166948995529247], [0.31978246251342735, -0.42403070142702926], [0.14918584865882126, 0.054317793641313596], [-0.13687229080136074, -0.3544767643123256], [-0.14284940328496695, -0.15361328447573858], [0.09035025664413378, -0.16809195260635462]]",density,black,,,N011,visual,6,[],"['1', '2', '3', '4']",1,2023.2.3,harveyvisual,2.1,[],8,0.75,
0,pause,0.4,None,None,None,0,97,97,97,,,,,,,,,,,,,N011,visual,6,[],"['1', '2', '3', '4']",1,2023.2.3,harveyvisual,2.1,[],8,0.75,
9,dot,0.3,['dot'],['density'],black,0,98,98,98,,,36.70021104812622,36.41595005989075,36.715924978256226,dot,"[0.06, 0.08, 0.06, 0.08, 0.08, 0.06, 0.06, 0.1, 0.08]","[[-0.3143165991636532, -0.4594448536910345], [-0.2552048841139852, -0.06866208597721758], [-0.4539914907372049, -0.019462523532982], [-0.0016330512078212595, -0.20036737320767878], [-0.1856154264835833, -0.2915493351998931], [-0.41369389823818076, -0.2734186166626005], [0.2388286227728169, -0.07063581723838416], [0.0412368179136257, 0.05808754956878123], [-0.37802967984412894, 0.19285536194211775]]",density,black,,,N011,visual,6,[],"['1', '2', '3', '4']",1,2023.2.3,harveyvisual,2.1,[],8,0.75,
0,pause,0.4,None,None,None,0,99,99,99,,,,,,,,,,,,,N011,visual,6,[],"['1', '2', '3', '4']",1,2023.2.3,harveyvisual,2.1,[],8,0.75,
9,dot,0.3,['dot'],['density'],black,0,100,100,100,,,37.40021204948425,37.11593294143677,37.41702198982239,dot,"[0.08, 0.06, 0.08, 0.06, 0.1, 0.06, 0.08, 0.06, 0.08]","[[0.08964926938552661, 0.05394775442474662], [0.013667798857315082, 0.3651287039276397], [-0.3518235196438996, 0.4482863301015001], [0.0843039828244993, 0.5528122926054443], [-0.16049547673848438, 0.0730005648255046], [-0.2144141911430125, 0.27623828598157274], [0.3465547907671387, 0.0307758660088046], [-0.13596480001028877, 0.5242376261272882], [0.2304522598158348, 0.3521277948761275]]",density,black,,,N011,visual,6,[],"['1', '2', '3', '4']",1,2023.2.3,harveyvisual,2.1,[],8,0.75,
0,pause,0.4,None,None,None,0,101,101,101,,,,,,,,,,,,,N011,visual,6,[],"['1', '2', '3', '4']",1,2023.2.3,harveyvisual,2.1,[],8,0.75,
9,dot,0.3,['dot'],['density'],white,0,102,102,102,,,38.1002140045166,37.815908908843994,38.115901947021484,dot,"[0.1, 0.1, 0.06, 0.06, 0.08, 0.06, 0.1, 0.08, 0.08]","[[-0.39546702852536103, 0.05887767166707298], [0.0019437857506851024, 0.07006750722115952], [0.08809400946991845, -0.15083790972035777], [-0.35358057288562594, -0.14123029179452673], [-0.18893042820243505, -0.004761820558363635], [-0.16054322822148615, -0.2701644482013472], [-0.3593088451216199, 0.2649120528395154], [-0.09346394646241396, -0.4621051997984888], [-0.5526246027455071, -0.11781718335669726]]",density,white,,,N011,visual,6,[],"['1', '2', '3', '4']",1,2023.2.3,harveyvisual,2.1,[],8,0.75,
0,pause,0.4,None,None,None,0,103,103,103,,,,,,,,,,,1,37.80234122276306,N011,visual,6,[],"['1', '2', '3', '4']",1,2023.2.3,harveyvisual,2.1,[],8,0.75,
9,dot,0.3,['dot'],['density'],black,0,104,104,104,,,38.80021095275879,38.51587986946106,38.815855979919434,dot,"[0.08, 0.06, 0.08, 0.1, 0.06, 0.06, 0.08, 0.1, 0.06]","[[0.5176022259896301, 0.07013652950073157], [0.29073914382076843, 0.49095716113391286], [0.25755010907869064, 0.10321661572421419], [0.11549350267606502, 0.37871636325142816], [-0.040248060121338324, 0.07603447111469516], [0.35733910828644905, -0.07238149579930037], [0.09184169877402729, -0.10424630849328012], [-0.10934901156313583, -0.14911132891814113], [0.4158094160330474, 0.26019999263529187]]",density,black,,,N011,visual,6,[],"['1', '2', '3', '4']",1,2023.2.3,harveyvisual,2.1,[],8,0.75,
0,pause,0.4,None,None,None,0,105,105,105,,,,,,,,,,,,,N011,visual,6,[],"['1', '2', '3', '4']",1,2023.2.3,harveyvisual,2.1,[],8,0.75,
9,dot,0.3,['dot'],['density'],black,0,106,106,106,,,39.50022006034851,39.21585702896118,39.515843868255615,dot,"[0.06, 0.1, 0.08, 0.06, 0.06, 0.08, 0.06, 0.1, 0.06]","[[0.22829877875946783, -0.39640994854570016], [0.3366371496270161, 0.05839125036393789], [-0.11436045239834208, -0.12024221759915668], [-0.02100147820737577, -0.3824026009196371], [0.08479146627654295, 0.024089629435920912], [0.16206374850784472, -0.16075841177209507], [0.38495438842944835, -0.24810596019115372], [-0.23418047716532614, 0.09565997955556291], [0.2111996426858246, 0.23215637940447356]]",density,black,,,N011,visual,6,[],"['1', '2', '3', '4']",1,2023.2.3,harveyvisual,2.1,[],8,0.75,
0,pause,0.4,None,None,None,0,107,107,107,,,,,,,,,,,,,N011,visual,6,[],"['1', '2', '3', '4']",1,2023.2.3,harveyvisual,2.1,[],8,0.75,
20,dot,0.3,['dot'],['density'],black,0,108,108,108,,,40.20019602775574,39.915854930877686,40.21585392951965,dot,"[0.08, 0.1, 0.06, 0.1, 0.08, 0.08, 0.08, 0.08, 0.08, 0.1, 0.06, 0.1, 0.1, 0.06, 0.1, 0.1, 0.06, 0.06, 0.1, 0.1]","[[-0.49655735820369873, -0.3100056104587989], [0.1093270164200153, 0.4311109088147591], [0.18838266028950956, -0.47335746315895727], [-0.026127510579572855, 0.09643680575245217], [0.3721884350288981, -0.04415339190992029], [0.29213127929289173, 0.2528942176807695], [-0.4342189350379295, -0.02684925913110303], [0.297302902355311, 0.47665576910708407], [0.19671245898556944, -0.21546277421671367], [-0.07617605405302641, 0.3813810521883496], [-0.2381999361836104, 0.5194806381234205], [0.5557597326634792, 0.08533285257852222], [0.4700300232712037, 0.338944459325274], [0.37881495206605886, -0.4302109001525268], [-0.4786342878672726, 0.1954494032724331], [-0.29507698040953134, -0.4628259194506815], [-0.02550328524560297, -0.24400136908583597], [-0.23379889598214915, -0.09988711227567204], [0.16068322594277473, 0.033711541050261196], [0.5075974986087183, -0.20291548539130738]]",density,black,,,N011,visual,6,[],"['1', '2', '3', '4']",1,2023.2.3,harveyvisual,2.1,[],8,0.75,
0,pause,0.4,None,None,None,0,109,109,109,,,,,,,,,,,,,N011,visual,6,[],"['1', '2', '3', '4']",1,2023.2.3,harveyvisual,2.1,[],8,0.75,
20,dot,0.3,['dot'],['density'],black,0,110,110,110,,,40.900222063064575,40.61581802368164,40.91761589050293,dot,"[0.08, 0.08, 0.08, 0.06, 0.1, 0.08, 0.08, 0.08, 0.1, 0.1, 0.06, 0.08, 0.08, 0.08, 0.1, 0.08, 0.08, 0.1, 0.06, 0.1]","[[-0.15734533933463601, 0.3085674869232702], [-0.36663351826272506, 0.22504609014109495], [-0.40802045764514383, -0.24381921964168518], [0.43578869710404466, 0.2561163578342736], [0.03601416668867419, -0.06517555886856297], [0.19928305024374082, 0.48557768707401683], [0.5986605307896561, 0.019556934491068212], [0.07491214220221631, -0.28307634788478103], [-0.2898396170652525, -0.027811374488478702], [-0.008379489257493322, 0.543962063834087], [0.1690412595247539, 0.07220251789593168], [0.054863731611816347, 0.23478814809352644], [-0.34010268171597435, 0.465114263687599], [0.5313342594420595, -0.23396704160269163], [0.2854743799116841, -0.08104851849715011], [-0.017061925320590365, -0.5187030703467166], [0.30036923844553176, -0.28135849211377056], [-0.12904162482590148, 0.09278675910104839], [-0.31781491383475835, -0.449885668835986], [-0.5905580030640254, -0.05187488359526993]]",density,black,,,N011,visual,6,[],"['1', '2', '3', '4']",1,2023.2.3,harveyvisual,2.1,[],8,0.75,
0,pause,0.4,None,None,None,0,111,111,111,,,,,,,,,,,,,N011,visual,6,[],"['1', '2', '3', '4']",1,2023.2.3,harveyvisual,2.1,[],8,0.75,
20,dot,0.3,['dot'],['density'],black,0,112,112,112,,,41.600199937820435,41.31582188606262,41.61579394340515,dot,"[0.1, 0.08, 0.1, 0.08, 0.08, 0.06, 0.06, 0.08, 0.1, 0.06, 0.08, 0.06, 0.08, 0.1, 0.1, 0.06, 0.06, 0.06, 0.08, 0.08]","[[0.14231087278521204, 0.06655855161069413], [-0.18784329367925934, -0.10427992880582299], [0.1679648715979538, 0.3619981639676938], [0.6036178176233679, -0.027909585232344963], [-0.3630879714625173, 0.15160609432000283], [-0.5863680976218407, -0.13400049674067468], [0.4084614829137715, 0.009316252973712469], [0.4339582622498589, 0.3630969409245923], [0.001955391495209513, -0.5620611284932211], [0.22235545581600558, -0.3567538566924955], [-0.141207880754399, -0.3168251303818708], [-0.3134108867045703, -0.4179101051842758], [-0.53527904900684, 0.051733527689679426], [0.15345314815999123, -0.12991761334433938], [0.11019253417525343, 0.594215851313773], [-0.1683422516112083, 0.1634671533593285], [-0.4549680609284757, -0.272158797155152], [-0.11211925232165987, 0.3678219527315425], [0.383642837073498, -0.18062796309689172], [-0.4594113684659053, 0.34109587111011974]]",density,black,,,N011,visual,6,[],"['1', '2', '3', '4']",1,2023.2.3,harveyvisual,2.1,[],8,0.75,
0,pause,0.4,None,None,None,0,113,113,113,,,,,,,,,,,,,N011,visual,6,[],"['1', '2', '3', '4']",1,2023.2.3,harveyvisual,2.1,[],8,0.75,
20,dot,0.3,['dot'],['density'],black,0,114,114,114,,,42.30021595954895,42.01579403877258,42.31584095954895,dot,"[0.08, 0.06, 0.06, 0.06, 0.08, 0.06, 0.08, 0.1, 0.08, 0.08, 0.08, 0.1, 0.1, 0.08, 0.06, 0.1, 0.06, 0.1, 0.1, 0.06]","[[-0.5258565506296482, 0.08392710607232245], [0.3254716958359549, -0.09052306163883328], [0.5832526351783637, 0.16053573454510492], [0.5880512987416239, -0.0738826472341862], [0.1744669058770466, -0.5012124444368794], [-0.3439805397008539, -0.18266317211822747], [0.21386536643187004, 0.1397283431508326], [0.12425000301662481, -0.14327069475542548], [0.1410960710815642, 0.46421244721470534], [-0.01644812230137538, -0.3320541325659519], [-0.19273189347976877, -0.4676885743335347], [0.540751825027746, -0.26243392916040115], [-0.21977845550373687, 0.1653313451498818], [-0.04678031486667511, 0.39985479505556176], [-0.4930167371738283, 0.2740686429211157], [-0.2995045796656129, 0.5196621860291829], [-0.049706678517171254, 0.0030144923107255917], [0.45843700481065064, 0.32271570887728324], [0.3658964162244924, -0.44821115683889295], [-0.5694626352574551, -0.1354058330110751]]",density,black,,,N011,visual,6,[],"['1', '2', '3', '4']",1,2023.2.3,harveyvisual,2.1,[],8,0.75,
0,pause,0.4,None,None,None,0,115,115,115,,,,,,,,,,,,,N011,visual,6,[],"['1', '2', '3', '4']",1,2023.2.3,harveyvisual,2.1,[],8,0.75,
20,dot,0.3,['dot'],['density'],black,0,116,116,116,,,43.00021290779114,42.715758085250854,43.01573395729065,dot,"[0.08, 0.08, 0.06, 0.1, 0.06, 0.06, 0.08, 0.1, 0.1, 0.06, 0.06, 0.06, 0.1, 0.08, 0.08, 0.08, 0.08, 0.06, 0.06, 0.08]","[[0.4454027486017379, -0.37793079387691614], [0.6031243110663095, 0.0105292106233014], [-0.02517502783182568, 0.47887879287541435], [0.29612731543537696, 0.49465745396341054], [-0.3226528027928492, -0.006625984124898343], [-0.1341850007912036, -0.1844839478414932], [0.09756240128799065, -0.05364095435565819], [0.10381271977852458, 0.17497850374293877], [-0.5244946271390787, -0.0962855337798535], [-0.36126267730933126, -0.21084399361613632], [0.1678377335022957, -0.5249192323202253], [0.47729093566536485, 0.16999282288063794], [0.3278962012303702, 0.018220577044746333], [-0.35337259001758903, 0.41131137076217944], [-0.5156920356788248, 0.09358791578558817], [0.10576692250707143, -0.2671349315178823], [-0.04908769607036889, -0.4296754357349008], [0.2606499241294208, 0.30393187439684133], [-0.06349524252702965, 0.06555892844871491], [-0.3627708337835414, -0.4082509262493215]]",density,black,,,N011,visual,6,[],"['1', '2', '3', '4']",1,2023.2.3,harveyvisual,2.1,[],8,0.75,
0,pause,0.4,None,None,None,0,117,117,117,,,,,,,,,,,,,N011,visual,6,[],"['1', '2', '3', '4']",1,2023.2.3,harveyvisual,2.1,[],8,0.75,
20,dot,0.3,['dot'],['density'],black,0,118,118,118,,,43.70022201538086,43.41574692726135,43.71686506271362,dot,"[0.1, 0.1, 0.1, 0.1, 0.08, 0.06, 0.06, 0.1, 0.08, 0.1, 0.1, 0.08, 0.08, 0.1, 0.1, 0.08, 0.08, 0.06, 0.08, 0.1]","[[-0.29425613313830257, -0.18943123104376475], [0.5405576661174921, -0.23798502873468824], [0.03719544261717567, -0.3628686804651954], [0.20775504782378995, -0.46393478887418643], [0.4499227669624549, 0.1398814212481373], [-0.42652954788653347, 0.33900178905449496], [0.23694796952177766, 0.10611524813962592], [0.25726153545017916, 0.39979415347860103], [0.10377891918093163, 0.28278309123430356], [-0.0929983911828185, 0.04927275830642164], [-0.3017288886783404, -0.48376697856762374], [-0.5494730735181733, -0.13366189230814843], [-0.4698858052748891, 0.0675662614665134], [-0.16206193814197745, 0.29434307984660435], [-0.023544489259373136, 0.574339971891004], [0.2258809088045386, -0.11900664050044796], [-0.25915719073384963, 0.5090918180657917], [0.5317265319363508, -0.039917006153294715], [-0.28299280965677354, 0.12336873373739565], [0.4905145923127582, 0.3325352621421634]]",density,black,,,N011,visual,6,[],"['1', '2', '3', '4']",1,2023.2.3,harveyvisual,2.1,[],8,0.75,
0,pause,0.4,None,None,None,0,119,119,119,,,,,,,,,,,,,N011,visual,6,[],"['1', '2', '3', '4']",1,2023.2.3,harveyvisual,2.1,[],8,0.75,
20,dot,0.3,['dot'],['density'],black,0,120,120,120,,,44.40032386779785,44.11574196815491,44.41577696800232,dot,"[0.1, 0.06, 0.1, 0.06, 0.08, 0.06, 0.08, 0.06, 0.1, 0.1, 0.08, 0.06, 0.08, 0.1, 0.08, 0.06, 0.1, 0.1, 0.06, 0.1]","[[-0.40850179179344953, 0.29650623744796045], [0.35030022745396727, -0.48669021600892626], [-0.5596590684348431, -0.13262632124107998], [-0.3140668909439899, 0.05807527678220603], [0.08370773841962609, -0.5290768990107588], [-0.20903281143148467, -0.43356978359292964], [0.16833317647083157, 0.07791525630978058], [0.3867995668925175, 0.39266052515547223], [-0.07043885463636024, -0.2916699758673036], [-0.021281055262365345, 0.12313921633611202], [0.39158826015315606, 0.10919612684662383], [0.4744743162268682, -0.2877139481941373], [0.02976657294144669, 0.37683751290482825], [-0.3693859621942614, -0.27068958389250025], [-0.5414096292347669, 0.057360096667831206], [0.11418642587051842, 0.5936274030629989], [0.20634195396209742, -0.24397223400469303], [0.5419740707261543, -0.04208722672658341], [-0.19408516263761588, 0.38463168228110134], [-0.22989112745509926, -0.13687440375824644]]",density,black,,,N011,visual,6,[],"['1', '2', '3', '4']",1,2023.2.3,harveyvisual,2.1,[],8,0.75,
0,pause,0.4,None,None,None,0,121,121,121,,,,,,,,,,,,,N011,visual,6,[],"['1', '2', '3', '4']",1,2023.2.3,harveyvisual,2.1,[],8,0.75,
20,dot,0.3,['dot'],['density'],black,0,122,122,122,,,45.10022592544556,44.815743923187256,45.11573886871338,dot,"[0.1, 0.1, 0.06, 0.06, 0.1, 0.06, 0.1, 0.1, 0.08, 0.1, 0.1, 0.06, 0.06, 0.1, 0.06, 0.06, 0.08, 0.08, 0.06, 0.1]","[[-0.505022062621708, -0.033426126051413485], [0.379558465643295, -0.33750593413269114], [-0.34920059706133005, -0.19586842324043496], [0.048019073763111875, -0.4992112937786961], [0.5941540156969419, -0.0029932626941241575], [-0.2880093062744464, 0.3008477963080638], [0.14285099591920414, -0.06431092541490346], [0.16885440971381416, 0.1359235647748941], [0.3898976049236842, -0.0410900030490195], [-0.2337335043406632, 0.024169581958600195], [0.08522541452473886, 0.4117840400121233], [-0.03318774339644637, 0.13381246491937526], [0.39487655322145565, 0.15500939771651412], [0.28388428903200713, 0.5257285464721373], [0.17134029025709818, -0.33066959685746244], [-0.32069258825305524, -0.4050264380796561], [-0.11965220350054828, 0.4441943859284505], [-0.5642522486469552, 0.15369317232256088], [-0.016561603275238257, -0.2794952252677455], [0.4734298112933292, 0.3620054398069978]]",density,black,,,N011,visual,6,[],"['1', '2', '3', '4']",1,2023.2.3,harveyvisual,2.1,[],8,0.75,
0,pause,0.4,None,None,None,0,123,123,123,,,,,,,,,,,,,N011,visual,6,[],"['1', '2', '3', '4']",1,2023.2.3,harveyvisual,2.1,[],8,0.75,
20,dot,0.3,['dot'],['density'],black,0,124,124,124,,,45.800204038619995,45.51572608947754,45.81572604179382,dot,"[0.08, 0.06, 0.06, 0.08, 0.06, 0.1, 0.06, 0.1, 0.1, 0.06, 0.06, 0.08, 0.08, 0.08, 0.1, 0.06, 0.1, 0.06, 0.06, 0.06]","[[-0.2679350228782332, 0.049597981745366226], [-0.43573518189943194, 0.40158076064704984], [0.5143069276894637, 0.2103330525819349], [0.17371798429780339, 0.187000536872736], [0.03525605672727883, -0.38094237216288723], [-0.39573529799212814, -0.3290702002640111], [-0.10215090833928897, 0.5174052460659767], [0.2008880947650058, -0.14365234895978374], [-0.037871355327413925, 0.27457243445052903], [0.25017733882932225, -0.4607531323528437], [-0.4868006540043368, -0.005221293702581564], [0.42591023309975007, 0.38364481122290983], [-0.07821875301020553, 0.0474087297545982], [-0.31393508548250515, -0.14900499553514124], [-0.20314508765459938, -0.3259212682954613], [0.5221045159158114, -0.2996814379763889], [0.4224042161114464, -0.11218906433279391], [0.1329384727055375, 0.4743217144936641], [-0.1519813578529931, -0.5233153988136392], [0.5965611657139968, -0.0191505327593261]]",density,black,,,N011,visual,6,[],"['1', '2', '3', '4']",1,2023.2.3,harveyvisual,2.1,[],8,0.75,
0,pause,0.4,None,None,None,0,125,125,125,,,,,,,,,,,,,N011,visual,6,[],"['1', '2', '3', '4']",1,2023.2.3,harveyvisual,2.1,[],8,0.75,
20,dot,0.3,['dot'],['density'],black,0,126,126,126,,,46.500197887420654,46.2156879901886,46.51569390296936,dot,"[0.08, 0.06, 0.06, 0.06, 0.1, 0.08, 0.06, 0.08, 0.08, 0.08, 0.08, 0.1, 0.06, 0.06, 0.06, 0.06, 0.06, 0.06, 0.08, 0.08]","[[-0.41033390616821114, -0.12517639424336097], [0.24732973924169854, -0.22675761371901265], [0.08646434714091678, 0.18351784515108593], [-0.4301086126839525, 0.3418743968388179], [-0.23562560117093634, 0.39327911944383054], [0.4112989110881159, -0.38322727345344165], [-0.10279607547149205, 0.22474808495226362], [-0.10815662964592243, -0.36917053528407007], [0.4434811343303505, -0.1346100869301991], [0.17048819093411227, 0.4900778355674058], [0.5713382195641535, 0.053150568761934774], [0.43062666534937677, 0.2563086827403152], [-0.2864577296274596, 0.12163725607617737], [0.06899746390519224, -0.013466316531516198], [-0.5569299424505673, 0.10896914804759955], [-0.22163494106637438, -0.1893221277995779], [-0.11762580093175251, 0.5534104620196855], [0.14200497644342436, -0.5334520252873107], [-0.32430020263025416, -0.4233887650139255], [-0.021064478361472738, -0.19838117880768358]]",density,black,,,N011,visual,6,[],"['1', '2', '3', '4']",1,2023.2.3,harveyvisual,2.1,[],8,0.75,
0,pause,0.4,None,None,None,0,127,127,127,,,,,,,,,,,,,N011,visual,6,[],"['1', '2', '3', '4']",1,2023.2.3,harveyvisual,2.1,[],8,0.75,
20,dot,0.3,['dot'],['density'],black,0,128,128,128,,,47.2002010345459,46.9168119430542,47.21569204330444,dot,"[0.06, 0.06, 0.06, 0.06, 0.06, 0.06, 0.1, 0.06, 0.1, 0.08, 0.1, 0.1, 0.1, 0.06, 0.06, 0.1, 0.08, 0.08, 0.1, 0.06]","[[0.26500685624786147, 0.19419343711070292], [0.07675947380017256, 0.5942963185941615], [-0.5568583198614512, 0.19953154015220503], [0.15165909489437512, -0.3580756403873687], [0.5157664249440458, -0.1756584515012484], [-0.21178690390425858, 0.30350579370227115], [-0.4669212829537729, -0.3299992850522529], [-0.21645795910405868, -0.4172115040253851], [-0.059667030975256274, 0.14211824842035403], [0.380048277457783, -0.4607297762351051], [-0.46658063180879916, -0.12050246854484431], [0.26294805076021743, -0.011733608873594426], [-0.03392872554024229, -0.21973603454468588], [0.5735013228324898, 0.056300069855113294], [-0.32430821292037504, 0.0570535793412128], [0.014832239542369896, 0.32067359918605276], [0.029488248030836717, -0.559725359294171], [-0.24021550920866636, -0.176043952910452], [0.4579491325907624, 0.2961077524550066], [-0.40017404874103013, 0.33941366895234926]]",density,black,,,N011,visual,6,[],"['1', '2', '3', '4']",1,2023.2.3,harveyvisual,2.1,[],8,0.75,
0,pause,0.4,None,None,None,0,129,129,129,,,,,,,,,,,,,N011,visual,6,[],"['1', '2', '3', '4']",1,2023.2.3,harveyvisual,2.1,[],8,0.75,
20,dot,0.3,['dot'],['density'],black,0,130,130,130,,,47.9001989364624,47.6157009601593,47.91563606262207,dot,"[0.08, 0.08, 0.08, 0.1, 0.08, 0.06, 0.08, 0.08, 0.08, 0.08, 0.06, 0.1, 0.06, 0.08, 0.08, 0.1, 0.1, 0.1, 0.08, 0.06]","[[-0.49411211223943824, 0.09107410347011441], [0.5492944079448331, -0.17339693674148138], [0.296142742826658, -0.3824189773014198], [-0.18193633991988872, 0.34024724692845065], [0.500919388019751, 0.011820380412168874], [0.10798776091880258, -0.4076311828305009], [-0.095919349765066, -0.04593918955696241], [-0.3212159759713269, -0.19927693026419857], [-0.2556082178154817, -0.42414707550195063], [-0.5088198375659123, -0.1438945587481666], [-0.05547241001960468, 0.4964354253413259], [-0.25992758016161793, 0.16383506002928694], [-0.10771983920434625, -0.24000074808805189], [0.43092083712676843, 0.2453541296516656], [0.3159477546599565, -0.1395665127253084], [0.11593162951915392, 0.18652251374062778], [-0.28974378782098664, 0.5259862111300565], [0.364284079196757, 0.438101284571781], [-0.43754205366166793, 0.3057095156820129], [0.14750114964272043, 0.42129614828213735]]",density,black,,,N011,visual,6,[],"['1', '2', '3', '4']",1,2023.2.3,harveyvisual,2.1,[],8,0.75,
0,pause,0.4,None,None,None,0,131,131,131,,,,,,,,,,,,,N011,visual,6,[],"['1', '2', '3', '4']",1,2023.2.3,harveyvisual,2.1,[],8,0.75,
20,dot,0.3,['dot'],['density'],black,0,132,132,132,,,48.60020089149475,48.31565499305725,48.61564087867737,dot,"[0.06, 0.1, 0.06, 0.08, 0.06, 0.1, 0.06, 0.1, 0.06, 0.1, 0.06, 0.08, 0.06, 0.1, 0.08, 0.06, 0.06, 0.08, 0.08, 0.08]","[[-0.0051282313785390166, -0.4038487689473975], [-0.3809231638531423, -0.4643408078453162], [-0.16585267478619964, 0.4363303880207583], [0.5603609439312681, 0.039830067042989276], [0.0830008402217649, -0.22435624995561115], [0.16836666046978443, 0.4933502419595803], [-0.02417409488604061, -0.01679239736716298], [-0.2636484279356743, 0.13606998191202224], [-0.6047903379528654, -0.003253591467938209], [-0.3586466215853976, 0.43708310206585416], [0.5370021156592507, -0.27206218254647224], [-0.45350296516154054, -0.13602622289211574], [0.13617645060937733, 0.18979485667361784], [-0.17870887835225502, -0.48958894018115273], [0.3607877554193065, 0.2818886214965827], [0.3044123564660931, -0.4039194034699297], [-0.4606278299424662, 0.27467151350623403], [-0.2040743797082729, -0.11263317606519263], [0.3996646247245127, -0.09260539174382659], [-0.009201459676091539, 0.3268885845350217]]",density,black,,,N011,visual,6,[],"['1', '2', '3', '4']",1,2023.2.3,harveyvisual,2.1,[],8,0.75,
0,pause,0.4,None,None,None,0,133,133,133,,,,,,,,,,,,,N011,visual,6,[],"['1', '2', '3', '4']",1,2023.2.3,harveyvisual,2.1,[],8,0.75,
20,dot,0.3,['dot'],['density'],black,0,134,134,134,,,49.30022597312927,49.016746044158936,49.31673288345337,dot,"[0.08, 0.06, 0.08, 0.06, 0.06, 0.06, 0.08, 0.08, 0.08, 0.1, 0.08, 0.1, 0.08, 0.06, 0.08, 0.1, 0.1, 0.1, 0.1, 0.1]","[[-0.07462695823362853, -0.15185274534322457], [0.2377929349688973, -0.32371525220262876], [0.10955793767253008, 0.42644065863609737], [0.013015394871449093, 0.2624104866116229], [-0.12413854849860617, -0.5792925137431192], [-0.2864728762641659, -0.28466382806365953], [0.2946166601041259, 0.2867910492471325], [-0.16726609743910098, 0.32705125122177536], [0.3311869297185679, -0.07197693538174932], [-0.35500464641073015, 0.15470056963125878], [-0.1727770465036606, 0.5453660674720214], [-0.5916190132374094, -0.12760105349516623], [0.11333590871287091, -0.555334575098274], [0.49599460494718206, 0.15973792303565337], [-0.5767302829442308, 0.15104215083120986], [-0.4537788630101087, 0.3574252493589864], [0.5657523807641199, -0.046636659960008625], [0.058668141561528664, 0.051688291551654775], [0.43247656793014755, -0.244766012618052], [0.2983559079516157, -0.5039445440049282]]",density,black,,,N011,visual,6,[],"['1', '2', '3', '4']",1,2023.2.3,harveyvisual,2.1,[],8,0.75,
0,pause,0.4,None,None,None,0,135,135,135,,,,,,,,,,,,,N011,visual,6,[],"['1', '2', '3', '4']",1,2023.2.3,harveyvisual,2.1,[],8,0.75,
20,dot,0.3,['dot'],['density'],black,0,136,136,136,,,50.000197887420654,49.715638875961304,50.01560187339783,dot,"[0.06, 0.08, 0.06, 0.06, 0.06, 0.06, 0.1, 0.1, 0.08, 0.08, 0.1, 0.08, 0.08, 0.06, 0.1, 0.1, 0.1, 0.06, 0.08, 0.1]","[[-0.31738388287066316, -0.3780093106549779], [-0.5891817103416688, -0.026556107696505904], [-0.2217275136372825, 0.4394379691161253], [0.03929416674413355, -0.21373877279384224], [0.2915433231647816, 0.277933640039302], [0.38456461459326086, -0.2637525588253088], [-0.14012514710649993, 0.12005611937573901], [0.050892298940788505, 0.23054654875225722], [-0.5309720504650103, -0.279273997957581], [0.11788875199279669, -0.4458058784272989], [0.5592261061027047, 0.10633121123546768], [-0.14793865643024073, -0.1273621306345344], [0.48458556061312075, 0.29415682497285234], [-0.3606142002802969, 0.040204789956850784], [0.5842308580545955, -0.10605605517485239], [0.32277071613031383, 0.0812276924269485], [-0.4839137078300744, 0.2616452331894526], [0.02621854304809146, -0.022367585390624223], [0.18769686668181873, 0.4861348392305175], [-0.04859632236500466, 0.5663710966735842]]",density,black,,,N011,visual,6,[],"['1', '2', '3', '4']",1,2023.2.3,harveyvisual,2.1,[],8,0.75,
0,pause,0.4,None,None,None,0,137,137,137,,,,,,,,,,,,,N011,visual,6,[],"['1', '2', '3', '4']",1,2023.2.3,harveyvisual,2.1,[],8,0.75,
20,dot,0.3,['dot'],['density'],black,0,138,138,138,,,50.70020294189453,50.415595054626465,50.7155818939209,dot,"[0.08, 0.1, 0.08, 0.1, 0.06, 0.08, 0.08, 0.1, 0.1, 0.08, 0.08, 0.08, 0.06, 0.1, 0.08, 0.06, 0.06, 0.08, 0.1, 0.06]","[[-0.18439088722609503, 0.003935769582261606], [0.5394935458796192, 0.2701676876795269], [0.3044865018590074, -0.17901782986162762], [-0.16123981836506573, 0.48709460475471333], [-0.4117910659425048, 0.356304046478217], [-0.4725390851631701, -0.12483891442302986], [-0.031321769462485105, 0.13450076576443382], [0.4818194192105526, -0.11188722374861793], [-0.1536505624064997, -0.2804843293136433], [0.2546217625123067, 0.2802179497139521], [-0.3877313355048412, -0.34006041211045607], [0.12908383167761217, -0.31925220953102507], [-0.41362906007264855, 0.11801800420821862], [0.4462014505011206, 0.08343140144159339], [-0.21039514550056043, 0.2988107335176423], [0.15841324925200984, -0.5276508717809967], [0.11805266532439107, 0.4358357506365105], [0.37993093072027806, -0.39432355840333944], [-0.1799932412918947, -0.5469547960891257], [0.01103931908236122, -0.11280875706830124]]",density,black,,,N011,visual,6,[],"['1', '2', '3', '4']",1,2023.2.3,harveyvisual,2.1,[],8,0.75,
0,pause,0.4,None,None,None,0,139,139,139,,,,,,,,,,,,,N011,visual,6,[],"['1', '2', '3', '4']",1,2023.2.3,harveyvisual,2.1,[],8,0.75,
20,dot,0.3,['dot'],['density'],black,0,140,140,140,,,51.4001989364624,51.11557698249817,51.4155650138855,dot,"[0.06, 0.06, 0.06, 0.1, 0.08, 0.06, 0.1, 0.1, 0.08, 0.1, 0.1, 0.08, 0.08, 0.1, 0.08, 0.08, 0.08, 0.08, 0.1, 0.08]","[[-0.0695518837883885, 0.4846190974698602], [0.1037554494017523, -0.21279411093126332], [0.5696230883029764, 0.11034742660928562], [0.010134927188437226, 0.0926920397867903], [-0.5521742931052024, -0.006855919139541394], [-0.19611358286941133, -0.03929230293166064], [-0.26309389556674045, 0.39490431204113985], [0.5041736127257342, -0.1396245478361695], [0.24169888269600448, 0.369294587484315], [-0.5613859264527262, 0.21781700620959493], [-0.39249726499961235, -0.25491394449298393], [-0.3436834215130084, 0.19725355136652223], [0.36489054527289, -0.3745679870875342], [0.299752619453021, 0.0643632721697378], [0.07688040529417794, -0.5619541161365861], [-0.15101031969562378, -0.4667519398240281], [-0.3598859728088061, -0.45860650694901556], [0.4942063437444525, 0.33929297089837435], [0.03148844700946518, 0.2871284027604313], [0.10804714117324299, 0.5855623053035044]]",density,black,,,N011,visual,6,[],"['1', '2', '3', '4']",1,2023.2.3,harveyvisual,2.1,[],8,0.75,
0,pause,0.4,None,None,None,0,141,141,141,,,,,,,,,,,,,N011,visual,6,[],"['1', '2', '3', '4']",1,2023.2.3,harveyvisual,2.1,[],8,0.75,
20,dot,0.3,['dot'],['density'],black,0,142,142,142,,,52.10020709037781,51.81557297706604,52.11554503440857,dot,"[0.08, 0.06, 0.1, 0.08, 0.1, 0.06, 0.08, 0.06, 0.08, 0.06, 0.06, 0.08, 0.06, 0.06, 0.08, 0.1, 0.1, 0.08, 0.08, 0.06]","[[0.3095844828647901, -0.17202126209687335], [-0.3709229806219642, 0.3812403085316128], [0.46436617493088816, 0.36491787594947644], [0.58927104702757, 0.08873182873736812], [0.5074584762383941, -0.286539948076876], [0.11777538400590226, -0.30355816474410735], [-0.3294186557507479, -0.10062412435086554], [0.025328479616924082, 0.2051632862160705], [-0.12862964706800295, -0.31332420110418463], [-0.5772350668118734, 0.07726135915716506], [0.013512381641894278, 0.4817455453386711], [0.37297563074688866, -0.46367704911213886], [-0.11687796807098699, -0.5170442019523996], [-0.16654390669542835, 0.16459811325794949], [-0.3691926968343949, 0.11080502330429304], [-0.4820238312065868, -0.3564335559029681], [0.14041446657404955, 0.05295430227018616], [0.16538862567875523, -0.5174313415023511], [0.19326054029012407, 0.4155043125889232], [0.31695825041962433, 0.2194909288605641]]",density,black,,,N011,visual,6,[],"['1', '2', '3', '4']",1,2023.2.3,harveyvisual,2.1,[],8,0.75,
0,pause,0.4,None,None,None,0,143,143,143,,,,,,,,,,,,,N011,visual,6,[],"['1', '2', '3', '4']",1,2023.2.3,harveyvisual,2.1,[],8,0.75,
20,dot,0.3,['dot'],['density'],white,0,144,144,144,,,52.80022692680359,52.51554608345032,52.81553101539612,dot,"[0.1, 0.06, 0.1, 0.1, 0.1, 0.1, 0.1, 0.08, 0.06, 0.1, 0.06, 0.1, 0.06, 0.08, 0.08, 0.1, 0.1, 0.08, 0.08, 0.08]","[[0.11586080589197523, -0.5737079421618928], [-0.2786247195618918, 0.4112491137908548], [0.5447284103036639, 0.0712188872934878], [-0.2783269323412868, -0.5345396544843354], [-0.4071896095743861, -0.11543190414925047], [0.26013226372439247, 0.13013286888734954], [-0.05947342668886668, -0.040930385033964845], [0.2796726029691642, -0.3123623694990332], [-0.5345119780457689, 0.03293502492085515], [0.3872453653217387, -0.15498904917249784], [0.33320788191758355, 0.4387187024508963], [-0.265990784586164, -0.328446420319939], [0.06070462640035479, 0.1415146386367231], [-0.38879012956563874, 0.16751004507398692], [0.03761159374795753, 0.5221669018651591], [-0.48824322133633347, 0.336171690132951], [0.4548217180736994, 0.2815591934583545], [-0.08374185166334491, -0.3867215411808852], [-0.24620646733482682, -0.004820160358492642], [0.07725358754268563, -0.20091825061695479]]",density,white,,,N011,visual,6,[],"['1', '2', '3', '4']",1,2023.2.3,harveyvisual,2.1,[],8,0.75,
0,pause,0.4,None,None,None,0,145,145,145,,,,,,,,,,,1,52.53707003593445,N011,visual,6,[],"['1', '2', '3', '4']",1,2023.2.3,harveyvisual,2.1,[],8,0.75,
20,dot,0.3,['dot'],['density'],black,0,146,146,146,,,53.50020098686218,53.215527057647705,53.515522956848145,dot,"[0.1, 0.06, 0.08, 0.1, 0.06, 0.1, 0.08, 0.08, 0.08, 0.06, 0.08, 0.06, 0.08, 0.08, 0.1, 0.1, 0.06, 0.1, 0.06, 0.08]","[[0.11634429381443145, 0.3993919335797781], [-0.5138324313076175, -0.19146337953575196], [-0.22198446235272684, -0.4654322647620541], [-0.3325630977375571, 0.27486501148014864], [0.43532549281342237, 0.4082625946150945], [-0.4754647303550617, 0.08496016158450415], [0.3836614833850861, 0.07313492974408642], [0.5967298098529251, 0.09274198743592746], [0.0673625334624457, 0.060477099986759764], [0.11169194129039306, -0.3871087444251641], [0.31487782190784686, -0.46525648345622944], [-0.21298464758015462, 0.0462629344568557], [-0.05261027027094023, -0.2578309915760811], [-0.34872113609390937, 0.4642029368988276], [0.5263093289149566, -0.13887531270716974], [0.17097376103640938, -0.1767488672591242], [-0.4069048353139062, -0.38071272186354815], [-0.14078160336912338, 0.4191714040337733], [-0.08581392709592728, 0.19833773540935007], [0.27519439859159545, 0.2603290051061291]]",density,black,,,N011,visual,6,[],"['1', '2', '3', '4']",1,2023.2.3,harveyvisual,2.1,[],8,0.75,
0,pause,0.4,None,None,None,0,147,147,147,,,,,,,,,,,,,N011,visual,6,[],"['1', '2', '3', '4']",1,2023.2.3,harveyvisual,2.1,[],8,0.75,
20,dot,0.3,['dot'],['density'],black,0,148,148,148,,,54.20020508766174,53.91549491882324,54.21549391746521,dot,"[0.1, 0.1, 0.08, 0.1, 0.06, 0.08, 0.1, 0.06, 0.1, 0.06, 0.08, 0.08, 0.08, 0.08, 0.1, 0.06, 0.08, 0.06, 0.1, 0.08]","[[-0.3731054908824416, 0.17830999985606028], [0.5462659262816135, -0.1967333583183818], [-0.08331076105430402, -0.25260590211159456], [0.221333442433559, 0.378558912062685], [0.2262374717146709, 0.05701521965596046], [-0.031315138236097884, 0.11432208290960189], [-0.2397346510199705, 0.51014254968282], [0.37635478100876407, -0.4426862784080438], [0.28876864758504417, -0.2597686258080359], [-0.18085004276567218, 0.23964844542677022], [0.5997075692995412, 0.021779154349933855], [-0.10146052502127301, -0.5031016442643979], [0.41861516886563155, 0.4070251046015076], [-0.43653705961225053, -0.18349691780435837], [-0.5637567999035213, 0.12048992481613346], [0.01930001924905289, 0.38695326122927], [0.1412376938683414, -0.5259380471311013], [-0.3111277594530658, -0.32636130850674416], [-0.16133662921068415, -0.05820930938321389], [0.4008720881981246, 0.19902407307183273]]",density,black,,,N011,visual,6,[],"['1', '2', '3', '4']",1,2023.2.3,harveyvisual,2.1,[],8,0.75,
0,pause,0.4,None,None,None,0,149,149,149,,,,,,,,,,,,,N011,visual,6,[],"['1', '2', '3', '4']",1,2023.2.3,harveyvisual,2.1,[],8,0.75,
20,dot,0.3,['dot'],['density'],black,0,150,150,150,,,54.90021204948425,54.615500926971436,54.91545796394348,dot,"[0.1, 0.06, 0.06, 0.06, 0.1, 0.06, 0.1, 0.08, 0.1, 0.1, 0.1, 0.08, 0.06, 0.06, 0.06, 0.1, 0.1, 0.06, 0.06, 0.08]","[[0.3681327075113281, -0.10001318977544821], [0.4419602866956075, 0.23686324080844506], [0.2949969056028633, 0.5219352511162748], [0.23089885784757758, 0.1515538030872997], [0.31093638842492477, -0.406640126236685], [0.22445388798331545, -0.23555815866901808], [0.5823344515340839, -0.04363771753293408], [0.05418936122363904, 0.5503936677887366], [-0.4371797168736744, -0.16842126689894305], [-0.02381584562934902, -0.24797253414167397], [-0.5677427314942585, 0.10583789884462688], [-0.3015005049606605, 0.2698659794212174], [-0.0026599376893259308, -0.5060277031870928], [-0.21390428160704444, -0.3008204237158644], [0.5037485390124191, -0.2697150846181531], [-0.2828207086202834, 0.5288569046194245], [-0.2486301070826582, 0.07372768362865001], [-0.1027348490724479, 0.26887499711597085], [-0.309310756173971, -0.49028301944513863], [-0.49257588226341126, 0.3005149743394112]]",density,black,,,N011,visual,6,[],"['1', '2', '3', '4']",1,2023.2.3,harveyvisual,2.1,[],8,0.75,
0,pause,0.4,None,None,None,0,151,151,151,,,,,,,,,,,,,N011,visual,6,[],"['1', '2', '3', '4']",1,2023.2.3,harveyvisual,2.1,[],8,0.75,
20,dot,0.3,['dot'],['density'],black,0,152,152,152,,,55.60022592544556,55.3154718875885,55.615463972091675,dot,"[0.06, 0.06, 0.1, 0.08, 0.08, 0.1, 0.1, 0.08, 0.06, 0.08, 0.08, 0.06, 0.1, 0.08, 0.08, 0.06, 0.06, 0.08, 0.08, 0.08]","[[0.4328211785650783, 0.3187941253212796], [-0.4509279298944564, -0.1452155615095691], [-0.5999945884712078, 0.03136152206427817], [-0.03391827075088216, 0.5518779565421109], [0.6027966974545839, -0.005028586872871457], [0.3440288567850829, -0.0928384210334176], [0.1958332062565652, 0.33173210960383603], [0.21538521873195882, -0.5287100943752495], [0.19825993560449529, -0.30499224706747907], [-0.2896873406052798, -0.04204185668614946], [0.509298221888231, -0.2741582950651481], [-0.251393916138267, 0.4026987336765371], [-0.34407947748441425, -0.39366075938202977], [-0.4019230566328358, 0.16671663077035187], [0.1481059176608629, 0.11068433308573244], [-0.0778378249652889, -0.4960372949219963], [-0.15312205884085028, -0.28926958540707626], [-0.13873553805362027, 0.11906732177145452], [0.0315511061618996, -0.17323424811406946], [-0.4634521834386051, 0.36377140816872944]]",density,black,,,N011,visual,6,[],"['1', '2', '3', '4']",1,2023.2.3,harveyvisual,2.1,[],8,0.75,
0,pause,0.4,None,None,None,0,153,153,153,,,,,,,,,,,,,N011,visual,6,[],"['1', '2', '3', '4']",1,2023.2.3,harveyvisual,2.1,[],8,0.75,
20,dot,0.3,['dot'],['density'],black,0,154,154,154,,,56.30022597312927,56.01545000076294,56.31545305252075,dot,"[0.1, 0.06, 0.06, 0.1, 0.08, 0.08, 0.1, 0.1, 0.1, 0.06, 0.06, 0.1, 0.08, 0.1, 0.08, 0.1, 0.1, 0.1, 0.06, 0.08]","[[0.5436937424129663, 0.0816090559154537], [-0.5867044222682145, -0.10141354954188359], [-0.5415530140264962, 0.23120633059038315], [-0.2168824440558323, 0.054653730274140444], [-0.45533637599230514, -0.3303360376671729], [-0.39758774767854926, 0.3894279214022475], [-0.07575038005589996, -0.2196865761253305], [-0.022826259625819856, 0.07508981503083667], [0.09703769633571224, 0.5959058533636485], [0.34038378211377496, 0.044366314038725596], [0.45764241885029355, -0.3763618948967763], [-0.08549662361036336, 0.5089895718923001], [-0.1196368158777566, 0.30823921846799995], [0.4268119839622525, -0.15999139486074243], [0.06266925225324693, 0.3837224570361425], [-0.24059158030556865, -0.4206351137759536], [0.46870870998610437, 0.3154354939216311], [0.11179778462455137, -0.08551150411137431], [-0.3865774182407046, -0.14440165206416022], [0.08936362843220047, -0.44685560278556324]]",density,black,,,N011,visual,6,[],"['1', '2', '3', '4']",1,2023.2.3,harveyvisual,2.1,[],8,0.75,
0,pause,0.4,None,None,None,0,155,155,155,,,,,,,,,,,,,N011,visual,6,[],"['1', '2', '3', '4']",1,2023.2.3,harveyvisual,2.1,[],8,0.75,
9,dot,0.3,['dot'],['density'],white,0,156,156,156,,,57.000223875045776,56.71541404724121,57.015429973602295,dot,"[0.08, 0.1, 0.06, 0.08, 0.06, 0.08, 0.1, 0.1, 0.06]","[[-0.011980588702785358, -0.14271344386551676], [-0.15345504415890063, -0.3599837049237609], [0.2909474261289129, -0.3591516282942406], [0.16239073734315843, -0.5386624114967425], [0.2227638828830022, -0.11271380419745088], [0.06426208015886789, 0.04859175461581491], [-0.3648571389210414, -0.3413683676300365], [0.3831858227582706, 0.019718563726728144], [0.06479696894599615, -0.3534524636945761]]",density,white,,,N011,visual,6,[],"['1', '2', '3', '4']",1,2023.2.3,harveyvisual,2.1,[],8,0.75,
0,pause,0.4,None,None,None,0,157,157,157,,,,,,,,,,,1,56.80655002593994,N011,visual,6,[],"['1', '2', '3', '4']",1,2023.2.3,harveyvisual,2.1,[],8,0.75,
9,dot,0.3,['dot'],['density'],black,0,158,158,158,,,57.70020294189453,57.4153950214386,57.71621799468994,dot,"[0.06, 0.06, 0.08, 0.1, 0.08, 0.08, 0.06, 0.06, 0.06]","[[0.4433726728065019, 0.22320554513198193], [0.1026133663954636, -0.050786049565613584], [0.20022034484770485, 0.4412403735117007], [0.45250313802570796, 0.010227273383000257], [0.037500571895399265, 0.24935285809920393], [0.23874579090912346, 0.11348512554989887], [0.25013734113836505, -0.23502010549412247], [0.4599692436892986, -0.2536974682823114], [0.04694731086691962, -0.2548367103293993]]",density,black,,,N011,visual,6,[],"['1', '2', '3', '4']",1,2023.2.3,harveyvisual,2.1,[],8,0.75,
0,pause,0.4,None,None,None,0,159,159,159,,,,,,,,,,,,,N011,visual,6,[],"['1', '2', '3', '4']",1,2023.2.3,harveyvisual,2.1,[],8,0.75,
9,dot,0.3,['dot'],['density'],black,0,160,160,160,,,58.400208950042725,58.1154088973999,58.41541600227356,dot,"[0.06, 0.06, 0.06, 0.08, 0.1, 0.06, 0.08, 0.06, 0.06]","[[0.15603996265512696, -0.0872053538661942], [-0.29211765964195757, -0.04110002513656992], [-0.071087909845803, -0.33174387981618686], [-0.13011395490928096, 0.2584597801106329], [-0.08364541374476576, -0.0980664528631432], [-0.26669569773039664, -0.25481833902542456], [-0.35582819085755485, -0.4494505046102014], [-0.1269674344078877, -0.5566175884613933], [0.011820482989003244, 0.07934247632600783]]",density,black,,,N011,visual,6,[],"['1', '2', '3', '4']",1,2023.2.3,harveyvisual,2.1,[],8,0.75,
0,pause,0.4,None,None,None,0,161,161,161,,,,,,,,,,,,,N011,visual,6,[],"['1', '2', '3', '4']",1,2023.2.3,harveyvisual,2.1,[],8,0.75,
9,dot,0.3,['dot'],['density'],black,0,162,162,162,,,59.10021901130676,58.815402030944824,59.11539697647095,dot,"[0.08, 0.06, 0.1, 0.08, 0.08, 0.1, 0.08, 0.08, 0.06]","[[0.21556792455118703, 0.37642033042102185], [0.14366510572844648, -0.18651452926789283], [0.49642287684820396, -0.0794158383055628], [-0.04770628609247857, -0.12519201939426747], [0.20310136493979325, 0.154094551714378], [-0.004065485174475974, 0.09100382633055243], [-0.018053901421587658, 0.34918523294118026], [0.29624623666919286, -0.053344657000752645], [-0.2018857737562037, 0.01971770186205045]]",density,black,,,N011,visual,6,[],"['1', '2', '3', '4']",1,2023.2.3,harveyvisual,2.1,[],8,0.75,
0,pause,0.4,None,None,None,0,163,163,163,,,,,,,,,,,,,N011,visual,6,[],"['1', '2', '3', '4']",1,2023.2.3,harveyvisual,2.1,[],8,0.75,
9,dot,0.3,['dot'],['density'],black,0,164,164,164,,,59.800206899642944,59.5154070854187,59.815391063690186,dot,"[0.06, 0.08, 0.08, 0.1, 0.06, 0.06, 0.06, 0.1, 0.08]","[[-0.01550530976013749, -0.4685693709261764], [-0.18673980358629047, -0.03677939788938074], [-0.492500386343057, -0.31631588298646995], [-0.31211872613566405, -0.49615226168915794], [-0.29213402726227655, -0.2779210730957987], [-0.48141959868665407, -0.11483975315711048], [0.2805727548720413, -0.20550850813502752], [-0.0662162642732561, -0.2200496541038322], [0.06776853683421198, -0.046300179137656175]]",density,black,,,N011,visual,6,[],"['1', '2', '3', '4']",1,2023.2.3,harveyvisual,2.1,[],8,0.75,
0,pause,0.4,None,None,None,0,165,165,165,,,,,,,,,,,,,N011,visual,6,[],"['1', '2', '3', '4']",1,2023.2.3,harveyvisual,2.1,[],8,0.75,
9,dot,0.3,['dot'],['density'],black,0,166,166,166,,,60.50020408630371,60.215391874313354,60.51535701751709,dot,"[0.1, 0.06, 0.1, 0.08, 0.06, 0.08, 0.06, 0.06, 0.08]","[[0.15603996265512696, -0.0872053538661942], [-0.29211765964195757, -0.04110002513656992], [-0.071087909845803, -0.33174387981618686], [-0.13011395490928096, 0.2584597801106329], [-0.08364541374476576, -0.0980664528631432], [-0.26669569773039664, -0.25481833902542456], [-0.35582819085755485, -0.4494505046102014], [-0.1269674344078877, -0.5566175884613933], [0.011820482989003244, 0.07934247632600783]]",density,black,,,N011,visual,6,[],"['1', '2', '3', '4']",1,2023.2.3,harveyvisual,2.1,[],8,0.75,
0,pause,0.4,None,None,None,0,167,167,167,,,,,,,,,,,,,N011,visual,6,[],"['1', '2', '3', '4']",1,2023.2.3,harveyvisual,2.1,[],8,0.75,
8,dot,0.3,['dot'],['density'],white,0,168,168,168,,,61.20020389556885,60.91530203819275,61.215338945388794,dot,"[0.1, 0.1, 0.06, 0.08, 0.1, 0.08, 0.08, 0.06]","[[-0.25621621658373334, -0.516505587173681], [-0.1662036889407214, -0.08514196380588028], [-0.18387329975925823, -0.32724781719236296], [0.018951322384734254, -0.28276580262079387], [-0.4257935961758009, -0.11165978892152287], [-0.38337046113926315, -0.34678862335127664], [0.08447884857343574, -0.4920123821830729], [0.02561025798733424, 0.0007844895199748298]]",density,white,,,N011,visual,6,[],"['1', '2', '3', '4']",1,2023.2.3,harveyvisual,2.1,[],8,0.75,
0,pause,0.4,None,None,None,0,169,169,169,,,,,,,,,,,1,60.96909022331238,N011,visual,6,[],"['1', '2', '3', '4']",1,2023.2.3,harveyvisual,2.1,[],8,0.75,
8,dot,0.3,['dot'],['density'],white,0,170,170,170,,,61.90021586418152,61.61534094810486,61.91530203819275,dot,"[0.08, 0.06, 0.08, 0.08, 0.1, 0.1, 0.08, 0.06]","[[-0.3869743371455666, 0.15388434217336297], [0.11424038932868294, 0.18734519769139274], [-0.06602262913525138, -0.20199883598953133], [-0.13221522482970946, 0.16661696891490863], [-0.2408224703751142, -0.03724946932993881], [-0.01219752370661542, -0.004327099574405561], [-0.20345141844285677, 0.44978546357431476], [0.2450906497331586, -0.012808503174003826]]",density,white,,,N011,visual,6,[],"['1', '2', '3', '4']",1,2023.2.3,harveyvisual,2.1,[],8,0.75,
0,pause,0.4,None,None,None,0,171,171,171,,,,,,,,,,,,,N011,visual,6,[],"['1', '2', '3', '4']",1,2023.2.3,harveyvisual,2.1,[],8,0.75,
8,dot,0.3,['dot'],['density'],black,0,172,172,172,,,62.600220918655396,62.31532907485962,62.61530900001526,dot,"[0.06, 0.1, 0.1, 0.06, 0.1, 0.08, 0.1, 0.08]","[[-0.25621621658373334, -0.516505587173681], [-0.1662036889407214, -0.08514196380588028], [-0.18387329975925823, -0.32724781719236296], [0.018951322384734254, -0.28276580262079387], [-0.4257935961758009, -0.11165978892152287], [-0.38337046113926315, -0.34678862335127664], [0.08447884857343574, -0.4920123821830729], [0.02561025798733424, 0.0007844895199748298]]",density,black,,,N011,visual,6,[],"['1', '2', '3', '4']",1,2023.2.3,harveyvisual,2.1,[],8,0.75,
0,pause,0.4,None,None,None,0,173,173,173,,,,,,,,,,,,,N011,visual,6,[],"['1', '2', '3', '4']",1,2023.2.3,harveyvisual,2.1,[],8,0.75,
8,dot,0.3,['dot'],['density'],black,0,174,174,174,,,63.3002290725708,63.015305042266846,63.31525993347168,dot,"[0.06, 0.06, 0.08, 0.06, 0.06, 0.1, 0.06, 0.08]","[[-0.258715538922871, 0.3828151050353194], [-0.4384035523576633, -0.18689856672911037], [-0.5586779833045601, 0.15056420889708766], [-0.1699372658897842, -0.04883432605429875], [-0.36053016753151684, 0.02858569738219561], [-0.199221799186684, 0.1876786431210615], [0.004458053620249285, 0.1240038339062716], [0.019420137312414813, -0.16023679021787893]]",density,black,,,N011,visual,6,[],"['1', '2', '3', '4']",1,2023.2.3,harveyvisual,2.1,[],8,0.75,
0,pause,0.4,None,None,None,0,175,175,175,,,,,,,,,,,,,N011,visual,6,[],"['1', '2', '3', '4']",1,2023.2.3,harveyvisual,2.1,[],8,0.75,
8,dot,0.3,['dot'],['density'],black,0,176,176,176,,,64.00022506713867,63.71526288986206,64.01524806022644,dot,"[0.06, 0.1, 0.06, 0.08, 0.06, 0.08, 0.1, 0.1]","[[-0.3869743371455666, 0.15388434217336297], [0.11424038932868294, 0.18734519769139274], [-0.06602262913525138, -0.20199883598953133], [-0.13221522482970946, 0.16661696891490863], [-0.2408224703751142, -0.03724946932993881], [-0.01219752370661542, -0.004327099574405561], [-0.20345141844285677, 0.44978546357431476], [0.2450906497331586, -0.012808503174003826]]",density,black,,,N011,visual,6,[],"['1', '2', '3', '4']",1,2023.2.3,harveyvisual,2.1,[],8,0.75,
0,pause,0.4,None,None,None,0,177,177,177,,,,,,,,,,,,,N011,visual,6,[],"['1', '2', '3', '4']",1,2023.2.3,harveyvisual,2.1,[],8,0.75,
8,dot,0.3,['dot'],['density'],white,0,178,178,178,,,64.70020890235901,64.41524386405945,64.71523094177246,dot,"[0.06, 0.06, 0.08, 0.06, 0.1, 0.1, 0.08, 0.06]","[[0.2564657333297123, -0.5164120873644681], [0.16207736998829034, -0.17430025554579232], [0.3801370228700199, -0.12440354324600712], [0.3861419762144276, -0.3474957963553726], [0.023072413076989942, -0.006703975881976366], [-0.07114697953604181, -0.35683211304459495], [0.45447188669532573, 0.06927659529933487], [0.23571610799738704, 0.02784742549372824]]",density,white,,,N011,visual,6,[],"['1', '2', '3', '4']",1,2023.2.3,harveyvisual,2.1,[],8,0.75,
0,pause,0.4,None,None,None,0,179,179,179,,,,,,,,,,,1,64.38551902770996,N011,visual,6,[],"['1', '2', '3', '4']",1,2023.2.3,harveyvisual,2.1,[],8,0.75,
7,dot,0.3,['dot'],['density'],white,0,180,180,180,,,65.40021204948425,65.11521506309509,65.41633200645447,dot,"[0.06, 0.06, 0.06, 0.06, 0.08, 0.08, 0.06]","[[0.3474653327129969, -0.31878285251617694], [0.04167069501601444, -0.04495125607964222], [-0.05005146056072613, -0.501422524998621], [-0.11295401278341419, -0.30095052262615135], [0.08710344590613708, -0.2932726077696002], [0.25592372840254046, -0.13825923460737455], [-0.15770825932276006, -0.07757053521742455]]",density,white,,,N011,visual,6,[],"['1', '2', '3', '4']",1,2023.2.3,harveyvisual,2.1,[],8,0.75,
0,pause,0.4,None,None,None,0,181,181,181,,,,,,,,,,,,,N011,visual,6,[],"['1', '2', '3', '4']",1,2023.2.3,harveyvisual,2.1,[],8,0.75,
7,dot,0.3,['dot'],['density'],black,0,182,182,182,,,66.10022497177124,65.81733989715576,66.11519002914429,dot,"[0.06, 0.08, 0.1, 0.08, 0.06, 0.1, 0.06]","[[0.27964692832129656, -0.15500474148311624], [0.48019533028943556, 0.09933774746227163], [0.08203545767143021, 0.28019381302663365], [0.05572057582720619, -0.1426303369841539], [0.31711281236335803, 0.2944831276535668], [-0.041479771322150735, 0.11885700406191958], [0.21045310206912196, 0.07075003364957701]]",density,black,,,N011,visual,6,[],"['1', '2', '3', '4']",1,2023.2.3,harveyvisual,2.1,[],8,0.75,
0,pause,0.4,None,None,None,0,183,183,183,,,,,,,,,,,,,N011,visual,6,[],"['1', '2', '3', '4']",1,2023.2.3,harveyvisual,2.1,[],8,0.75,
7,dot,0.3,['dot'],['density'],black,0,184,184,184,,,66.80021500587463,66.51518702507019,66.81518006324768,dot,"[0.1, 0.08, 0.1, 0.1, 0.1, 0.08, 0.08]","[[0.3302081014073935, 0.19448071361351732], [-0.22286629369238187, 0.3450023392305547], [-0.11533339293480348, 0.13926201039730488], [0.12023407780451623, 0.21240672508650668], [0.2659789407074307, 0.3894086603790018], [0.026604934602130894, 0.39133200849180605], [0.212400253920387, 0.027377351413115796]]",density,black,,,N011,visual,6,[],"['1', '2', '3', '4']",1,2023.2.3,harveyvisual,2.1,[],8,0.75,
0,pause,0.4,None,None,None,0,185,185,185,,,,,,,,,,,,,N011,visual,6,[],"['1', '2', '3', '4']",1,2023.2.3,harveyvisual,2.1,[],8,0.75,
7,dot,0.3,['dot'],['density'],black,0,186,186,186,,,67.50022387504578,67.21519207954407,67.51518297195435,dot,"[0.1, 0.1, 0.06, 0.1, 0.1, 0.1, 0.06]","[[0.36124702795982905, 0.02861074637729004], [0.035495459613383976, -0.03736980990239832], [0.4545067059830119, -0.22475560039862832], [0.21831658066582188, 0.20471036725638603], [0.23621436127430617, -0.13960795011418334], [0.5606656921354746, -0.047865395727918474], [0.5468561378002438, 0.2161657569851178]]",density,black,,,N011,visual,6,[],"['1', '2', '3', '4']",1,2023.2.3,harveyvisual,2.1,[],8,0.75,
0,pause,0.4,None,None,None,0,187,187,187,,,,,,,,,,,,,N011,visual,6,[],"['1', '2', '3', '4']",1,2023.2.3,harveyvisual,2.1,[],8,0.75,
7,dot,0.3,['dot'],['density'],black,0,188,188,188,,,68.20020985603333,67.9151759147644,68.21516585350037,dot,"[0.08, 0.1, 0.06, 0.06, 0.1, 0.08, 0.08]","[[-0.2314520007693297, 0.33838000150240727], [-0.18132207761103206, 0.5552670473927488], [0.017458222085991553, 0.32213086183097556], [0.10538257653630445, 0.5364165263315271], [-0.32661765694444117, 0.13553859080651098], [0.2001110614088519, 0.2352342526365964], [-0.07707990285528175, 0.1388757586163816]]",density,black,,,N011,visual,6,[],"['1', '2', '3', '4']",1,2023.2.3,harveyvisual,2.1,[],8,0.75,
0,pause,0.4,None,None,None,0,189,189,189,,,,,,,,,,,,,N011,visual,6,[],"['1', '2', '3', '4']",1,2023.2.3,harveyvisual,2.1,[],8,0.75,
7,dot,0.3,['dot'],['density'],black,0,190,190,190,,,68.90022897720337,68.61516785621643,68.91514992713928,dot,"[0.06, 0.08, 0.06, 0.1, 0.08, 0.1, 0.06]","[[-0.1639205104410485, 0.5375336320852997], [0.13665370749938832, 0.21910895384688228], [-0.33778978147358674, 0.04597826141406851], [-0.2268593015261854, 0.22000868921510455], [-0.39586497221419475, 0.3389169711393182], [-0.023188047053822363, 0.08417042442854547], [-0.025005414605345992, 0.38521147685537843]]",density,black,,,N011,visual,6,[],"['1', '2', '3', '4']",1,2023.2.3,harveyvisual,2.1,[],8,0.75,
0,pause,0.4,None,None,None,0,191,191,191,,,,,,,,,,,,,N011,visual,6,[],"['1', '2', '3', '4']",1,2023.2.3,harveyvisual,2.1,[],8,0.75,
6,dot,0.3,['dot'],['density'],black,0,192,192,192,,,69.60021185874939,69.31513690948486,69.61513900756836,dot,"[0.08, 0.06, 0.1, 0.1, 0.1, 0.08]","[[0.26568550625605564, -0.48823100126060537], [0.030589778490880962, -0.34307155488476027], [0.2920158589989485, -0.005481777194348812], [0.4969139129819881, -0.3034402107212153], [0.2924968692334099, -0.2393606426967254], [0.09404279540557291, -0.1505005030192783]]",density,black,,,N011,visual,6,[],"['1', '2', '3', '4']",1,2023.2.3,harveyvisual,2.1,[],8,0.75,
0,pause,0.4,None,None,None,0,193,193,193,,,,,,,,,,,,,N011,visual,6,[],"['1', '2', '3', '4']",1,2023.2.3,harveyvisual,2.1,[],8,0.75,
6,dot,0.3,['dot'],['density'],black,0,194,194,194,,,70.30020499229431,70.01512598991394,70.31512308120728,dot,"[0.08, 0.06, 0.06, 0.06, 0.08, 0.06]","[[0.5108460974500976, 0.10904555526594768], [0.5033362887342737, -0.29902707163897635], [0.3062164979741722, 0.05793810054487639], [0.22849736264613016, -0.28041776899433873], [0.12909977445373055, -0.06500178518750158], [0.41889526300287094, -0.11616960582105396]]",density,black,,,N011,visual,6,[],"['1', '2', '3', '4']",1,2023.2.3,harveyvisual,2.1,[],8,0.75,
0,pause,0.4,None,None,None,0,195,195,195,,,,,,,,,,,,,N011,visual,6,[],"['1', '2', '3', '4']",1,2023.2.3,harveyvisual,2.1,[],8,0.75,
6,dot,0.3,['dot'],['density'],black,0,196,196,196,,,71.00022387504578,70.71511101722717,71.01509499549866,dot,"[0.08, 0.1, 0.1, 0.08, 0.1, 0.06]","[[-0.4718675517483807, -0.080313523620691], [-0.31247550484642445, -0.23218356379105512], [-0.2575593735283343, 0.24158811959194182], [-0.2948669609652105, 0.017652028830845004], [-0.0883702388727292, 0.027494606567874856], [-0.45154527444290743, 0.17691331155056722]]",density,black,,,N011,visual,6,[],"['1', '2', '3', '4']",1,2023.2.3,harveyvisual,2.1,[],8,0.75,
0,pause,0.4,None,None,None,0,197,197,197,,,,,,,,,,,,,N011,visual,6,[],"['1', '2', '3', '4']",1,2023.2.3,harveyvisual,2.1,[],8,0.75,
6,dot,0.3,['dot'],['density'],black,0,198,198,198,,,71.7002260684967,71.41508889198303,71.71508407592773,dot,"[0.06, 0.1, 0.08, 0.06, 0.08, 0.1]","[[-0.5379788740814003, -0.011730333491669416], [-0.1820890739253136, -0.27973544868684425], [-0.07809457889047756, -0.09124846264896269], [-0.30616251401069866, -0.45101817852416426], [-0.44200878281119743, -0.26991620184617166], [-0.3315938551005316, -0.08696624632848979]]",density,black,,,N011,visual,6,[],"['1', '2', '3', '4']",1,2023.2.3,harveyvisual,2.1,[],8,0.75,
0,pause,0.4,None,None,None,0,199,199,199,,,,,,,,,,,,,N011,visual,6,[],"['1', '2', '3', '4']",1,2023.2.3,harveyvisual,2.1,[],8,0.75,
6,dot,0.3,['dot'],['density'],white,0,200,200,200,,,72.40020298957825,72.11507201194763,72.41506600379944,dot,"[0.06, 0.1, 0.08, 0.08, 0.06, 0.06]","[[-0.2094991805307552, 0.08302354111181451], [0.09557258300728075, 0.3458622669714129], [0.22056408800171526, -0.017094369341425636], [0.026601936584830878, 0.1297564650757722], [-0.11681768564656844, 0.2726391152528644], [-0.03570146891163527, -0.09222923444939024]]",density,white,,,N011,visual,6,[],"['1', '2', '3', '4']",1,2023.2.3,harveyvisual,2.1,[],8,0.75,
0,pause,0.4,None,None,None,0,201,201,201,,,,,,,,,,,1,72.191486120224,N011,visual,6,[],"['1', '2', '3', '4']",1,2023.2.3,harveyvisual,2.1,[],8,0.75,
6,dot,0.3,['dot'],['density'],black,0,202,202,202,,,73.10021185874939,72.81504797935486,73.11682987213135,dot,"[0.06, 0.1, 0.08, 0.08, 0.1, 0.06]","[[0.01776890784276672, 0.3448500499300058], [-0.18238616215991446, 0.4840889924469993], [-0.2129582374372363, 0.07157874559070018], [-0.41549008775918617, 0.14353268657608398], [0.019487844458329944, 0.1389587799501653], [-0.21004805074000235, 0.2837936954907191]]",density,black,,,N011,visual,6,[],"['1', '2', '3', '4']",1,2023.2.3,harveyvisual,2.1,[],8,0.75,
0,pause,0.4,None,None,None,0,203,203,203,,,,,,,,,,,,,N011,visual,6,[],"['1', '2', '3', '4']",1,2023.2.3,harveyvisual,2.1,[],8,0.75,
5,dot,0.3,['dot'],['density'],black,0,204,204,204,,,73.80020999908447,73.51503705978394,73.8149950504303,dot,"[0.08, 0.06, 0.08, 0.1, 0.08]","[[-0.5348211864270219, -0.08335004612931018], [-0.428892633085643, 0.14758700623805307], [-0.3277098387322906, -0.27887202276080253], [-0.29687101947458117, -0.03792463078145938], [-0.23363771935579355, 0.21194794904782605]]",density,black,,,N011,visual,6,[],"['1', '2', '3', '4']",1,2023.2.3,harveyvisual,2.1,[],8,0.75,
0,pause,0.4,None,None,None,0,205,205,205,,,,,,,,,,,,,N011,visual,6,[],"['1', '2', '3', '4']",1,2023.2.3,harveyvisual,2.1,[],8,0.75,
5,dot,0.3,['dot'],['density'],black,0,206,206,206,,,74.50022196769714,74.215017080307,74.51598405838013,dot,"[0.08, 0.08, 0.08, 0.1, 0.1]","[[-0.11834215492801986, 0.412508379109845], [0.31881799646300274, 0.30859303438359803], [-0.06368743078099719, 0.10105058071702504], [0.1133485112468387, 0.46262203184429457], [0.11957051434631445, 0.24197418837926052]]",density,black,,,N011,visual,6,[],"['1', '2', '3', '4']",1,2023.2.3,harveyvisual,2.1,[],8,0.75,
0,pause,0.4,None,None,None,0,207,207,207,,,,,,,,,,,,,N011,visual,6,[],"['1', '2', '3', '4']",1,2023.2.3,harveyvisual,2.1,[],8,0.75,
5,dot,0.3,['dot'],['density'],black,0,208,208,208,,,75.2002170085907,74.91501307487488,75.21499300003052,dot,"[0.08, 0.08, 0.08, 0.08, 0.1]","[[-0.4702494158317004, 0.19352793081356498], [-0.36864189631283095, -0.2113573127283173], [-0.3573601989406874, -0.007363185939446715], [-0.15559938224235453, -0.02548680069503583], [-0.25069196230576396, 0.1747846118010945]]",density,black,,,N011,visual,6,[],"['1', '2', '3', '4']",1,2023.2.3,harveyvisual,2.1,[],8,0.75,
0,pause,0.4,None,None,None,0,209,209,209,,,,,,,,,,,,,N011,visual,6,[],"['1', '2', '3', '4']",1,2023.2.3,harveyvisual,2.1,[],8,0.75,
5,dot,0.3,['dot'],['density'],black,0,210,210,210,,,75.90023493766785,75.61494708061218,75.91492104530334,dot,"[0.1, 0.1, 0.08, 0.06, 0.06]","[[-0.11834215492801986, 0.412508379109845], [0.31881799646300274, 0.30859303438359803], [-0.06368743078099719, 0.10105058071702504], [0.1133485112468387, 0.46262203184429457], [0.11957051434631445, 0.24197418837926052]]",density,black,,,N011,visual,6,[],"['1', '2', '3', '4']",1,2023.2.3,harveyvisual,2.1,[],8,0.75,
0,pause,0.4,None,None,None,0,211,211,211,,,,,,,,,,,,,N011,visual,6,[],"['1', '2', '3', '4']",1,2023.2.3,harveyvisual,2.1,[],8,0.75,
5,dot,0.3,['dot'],['density'],black,0,212,212,212,,,76.60022687911987,76.31493186950684,76.61491894721985,dot,"[0.1, 0.1, 0.08, 0.1, 0.06]","[[0.2447541601906441, 0.3086669061463178], [0.2085849672204031, -0.04267428248465989], [0.44393754570968663, -0.061602228714441105], [0.027125763574429876, 0.05764502161176834], [0.36879828001487897, 0.1310025380577708]]",density,black,,,N011,visual,6,[],"['1', '2', '3', '4']",1,2023.2.3,harveyvisual,2.1,[],8,0.75,
0,pause,0.4,None,None,None,0,213,213,213,,,,,,,,,,,,,N011,visual,6,[],"['1', '2', '3', '4']",1,2023.2.3,harveyvisual,2.1,[],8,0.75,
5,dot,0.3,['dot'],['density'],black,0,214,214,214,,,77.30023002624512,77.01491904258728,77.31490206718445,dot,"[0.08, 0.06, 0.1, 0.1, 0.08]","[[-0.26965218803342234, -0.06061691990321757], [-0.44412238708790114, -0.1605793459593267], [-0.2738608688716076, -0.33598391440877745], [-0.06160694910013377, -0.19463283807086704], [-0.16469008497891707, 0.13324638745272324]]",density,black,,,N011,visual,6,[],"['1', '2', '3', '4']",1,2023.2.3,harveyvisual,2.1,[],8,0.75,
0,pause,0.4,None,None,None,0,215,215,215,,,,,,,,,,,,,N011,visual,6,[],"['1', '2', '3', '4']",1,2023.2.3,harveyvisual,2.1,[],8,0.75,
4,dot,0.3,['dot'],['density'],black,0,216,216,216,,,78.0002110004425,77.71489596366882,78.01487302780151,dot,"[0.08, 0.08, 0.1, 0.06]","[[0.1665887267295909, 0.08389582001604734], [0.4584359263982055, 0.26405512465689546], [0.4157764543415929, 0.03513878013061779], [0.2392225064082761, 0.29777239984320175]]",density,black,,,N011,visual,6,[],"['1', '2', '3', '4']",1,2023.2.3,harveyvisual,2.1,[],8,0.75,
0,pause,0.4,None,None,None,0,217,217,217,,,,,,,,,,,,,N011,visual,6,[],"['1', '2', '3', '4']",1,2023.2.3,harveyvisual,2.1,[],8,0.75,
4,dot,0.3,['dot'],['density'],black,0,218,218,218,,,78.70022106170654,78.41488599777222,78.71486902236938,dot,"[0.06, 0.08, 0.06, 0.1]","[[-0.42715721775789556, -0.3806885655784049], [-0.5104054706627589, -0.18016651458941194], [-0.409412055521987, 0.008153849732111747], [-0.2456709064377862, -0.21492281530681134]]",density,black,,,N011,visual,6,[],"['1', '2', '3', '4']",1,2023.2.3,harveyvisual,2.1,[],8,0.75,
0,pause,0.4,None,None,None,0,219,219,219,,,,,,,,,,,,,N011,visual,6,[],"['1', '2', '3', '4']",1,2023.2.3,harveyvisual,2.1,[],8,0.75,
4,dot,0.3,['dot'],['density'],white,0,220,220,220,,,79.40022587776184,79.11576390266418,79.41485095024109,dot,"[0.1, 0.06, 0.08, 0.06]","[[0.28769160010247724, 0.4706884012140322], [0.03735362687931127, 0.4645781312677133], [0.33102019499247487, 0.1847810932959147], [0.1685132699603264, 0.30497059043407926]]",density,white,,,N011,visual,6,[],"['1', '2', '3', '4']",1,2023.2.3,harveyvisual,2.1,[],8,0.75,
0,pause,0.4,None,None,None,0,221,221,221,,,,,,,,,,,1,79.13430619239807,N011,visual,6,[],"['1', '2', '3', '4']",1,2023.2.3,harveyvisual,2.1,[],8,0.75,
4,dot,0.3,['dot'],['density'],black,0,222,222,222,,,80.10020899772644,79.81484293937683,80.11482906341553,dot,"[0.06, 0.08, 0.06, 0.08]","[[0.2541297109701026, -0.03410267595110144], [0.396116024817599, -0.19002287009394117], [0.4303711222235913, 0.2602585224666286], [0.4446461975978109, 0.027516111316963392]]",density,black,,,N011,visual,6,[],"['1', '2', '3', '4']",1,2023.2.3,harveyvisual,2.1,[],8,0.75,
0,pause,0.4,None,None,None,0,223,223,223,,,,,,,,,,,,,N011,visual,6,[],"['1', '2', '3', '4']",1,2023.2.3,harveyvisual,2.1,[],8,0.75,
4,dot,0.3,['dot'],['density'],black,0,224,224,224,,,80.8002200126648,80.51483201980591,80.81482195854187,dot,"[0.08, 0.06, 0.1, 0.1]","[[0.15462156444594843, 0.0379601134824338], [-0.046642739949193296, 0.06510400621286498], [0.12320708371464141, 0.2499967514902957], [-0.13279798436850673, 0.2624558601457805]]",density,black,,,N011,visual,6,[],"['1', '2', '3', '4']",1,2023.2.3,harveyvisual,2.1,[],8,0.75,
0,pause,0.4,None,None,None,0,225,225,225,,,,,,,,,,,,,N011,visual,6,[],"['1', '2', '3', '4']",1,2023.2.3,harveyvisual,2.1,[],8,0.75,
4,dot,0.3,['dot'],['density'],black,0,226,226,226,,,81.50023102760315,81.21569991111755,81.51480293273926,dot,"[0.1, 0.1, 0.06, 0.1]","[[-0.4918595852306691, 0.19162898845839058], [-0.30188041745692074, 0.10218906117132437], [-0.3018224646415858, -0.14357118929282034], [-0.4853871342809682, -0.061736688026617866]]",density,black,,,N011,visual,6,[],"['1', '2', '3', '4']",1,2023.2.3,harveyvisual,2.1,[],8,0.75,
0,pause,0.4,None,None,None,0,227,227,227,,,,,,,,,,,,,N011,visual,6,[],"['1', '2', '3', '4']",1,2023.2.3,harveyvisual,2.1,[],8,0.75,
3,dot,0.3,['dot'],['density'],black,0,228,228,228,,,82.20022988319397,81.9147720336914,82.21477389335632,dot,"[0.08, 0.08, 0.1]","[[0.07700183490032705, -0.35627018624379625], [-0.11838355721398923, -0.41989981358322065], [0.04553884901650391, -0.5822363694770394]]",density,black,,,N011,visual,6,[],"['1', '2', '3', '4']",1,2023.2.3,harveyvisual,2.1,[],8,0.75,
0,pause,0.4,None,None,None,0,229,229,229,,,,,,,,,,,,,N011,visual,6,[],"['1', '2', '3', '4']",1,2023.2.3,harveyvisual,2.1,[],8,0.75,
3,dot,0.3,['dot'],['density'],black,0,230,230,230,,,82.90021991729736,82.61478686332703,82.91474890708923,dot,"[0.1, 0.08, 0.08]","[[-0.476501853024302, 0.3110516410681161], [-0.26865065753742645, 0.4732574608261889], [-0.2772428868380306, 0.2516539537451065]]",density,black,,,N011,visual,6,[],"['1', '2', '3', '4']",1,2023.2.3,harveyvisual,2.1,[],8,0.75,
0,pause,0.4,None,None,None,0,231,231,231,,,,,,,,,,,,,N011,visual,6,[],"['1', '2', '3', '4']",1,2023.2.3,harveyvisual,2.1,[],8,0.75,
3,dot,0.3,['dot'],['density'],black,0,232,232,232,,,83.60020589828491,83.31476306915283,83.61474394798279,dot,"[0.08, 0.06, 0.08]","[[0.16698284004709638, 0.14340522813657522], [0.014382160343152013, -0.0120418799203457], [0.17626274868444566, -0.13037823744598942]]",density,black,,,N011,visual,6,[],"['1', '2', '3', '4']",1,2023.2.3,harveyvisual,2.1,[],8,0.75,
0,pause,0.4,None,None,None,0,233,233,233,,,,,,,,,,,,,N011,visual,6,[],"['1', '2', '3', '4']",1,2023.2.3,harveyvisual,2.1,[],8,0.75,
3,dot,0.3,['dot'],['density'],black,0,234,234,234,,,84.30021595954895,84.0147340297699,84.3147189617157,dot,"[0.1, 0.1, 0.08]","[[-0.36641147837046456, 0.28339849123565264], [-0.19108570342652328, 0.4628134959899303], [-0.16564092668537764, 0.24926372681875647]]",density,black,,,N011,visual,6,[],"['1', '2', '3', '4']",1,2023.2.3,harveyvisual,2.1,[],8,0.75,
0,pause,0.4,None,None,None,0,235,235,235,,,,,,,,,,,,,N011,visual,6,[],"['1', '2', '3', '4']",1,2023.2.3,harveyvisual,2.1,[],8,0.75,
3,dot,0.3,['dot'],['density'],black,0,236,236,236,,,85.00021600723267,84.71471691131592,85.0147168636322,dot,"[0.08, 0.06, 0.08]","[[-0.27441186418729774, -0.31428620701652393], [-0.10438281902574013, -0.2032379983598837], [-0.31523395761825285, -0.08768035506307631]]",density,black,,,N011,visual,6,[],"['1', '2', '3', '4']",1,2023.2.3,harveyvisual,2.1,[],8,0.75,
0,pause,0.4,None,None,None,0,237,237,237,,,,,,,,,,,,,N011,visual,6,[],"['1', '2', '3', '4']",1,2023.2.3,harveyvisual,2.1,[],8,0.75,
3,dot,0.3,['dot'],['density'],white,0,238,238,238,,,85.7002329826355,85.41470408439636,85.71469306945801,dot,"[0.06, 0.06, 0.06]","[[-0.27441186418729774, -0.31428620701652393], [-0.10438281902574013, -0.2032379983598837], [-0.31523395761825285, -0.08768035506307631]]",density,white,,,N011,visual,6,[],"['1', '2', '3', '4']",1,2023.2.3,harveyvisual,2.1,[],8,0.75,
0,pause,0.4,None,None,None,0,239,239,239,,,,,,,,,,,1,85.45609617233276,N011,visual,6,[],"['1', '2', '3', '4']",1,2023.2.3,harveyvisual,2.1,[],8,0.75,
2,dot,0.3,['dot'],['density'],black,0,240,240,240,,,86.40022397041321,86.11619687080383,86.41465592384338,dot,"[0.06, 0.08]","[[0.3054529246123127, 0.4455278178545299], [0.3548458028228903, 0.2510588499170468]]",density,black,,,N011,visual,6,[],"['1', '2', '3', '4']",1,2023.2.3,harveyvisual,2.1,[],8,0.75,
0,pause,0.4,None,None,None,0,241,241,241,,,,,,,,,,,,,N011,visual,6,[],"['1', '2', '3', '4']",1,2023.2.3,harveyvisual,2.1,[],8,0.75,
2,dot,0.3,['dot'],['density'],black,0,242,242,242,,,87.10021495819092,86.81466293334961,87.11462903022766,dot,"[0.1, 0.08]","[[0.1851205616289071, -0.3624876981064337], [0.3405923022038234, -0.23608025195482504]]",density,black,,,N011,visual,6,[],"['1', '2', '3', '4']",1,2023.2.3,harveyvisual,2.1,[],8,0.75,
0,pause,0.4,None,None,None,0,243,243,243,,,,,,,,,,,,,N011,visual,6,[],"['1', '2', '3', '4']",1,2023.2.3,harveyvisual,2.1,[],8,0.75,
2,dot,0.3,['dot'],['density'],black,0,244,244,244,,,87.80022406578064,87.51461696624756,87.81574487686157,dot,"[0.08, 0.08]","[[0.07059805578258149, -0.2458188734665979], [0.058763118304238846, -0.4455693812784497]]",density,black,,,N011,visual,6,[],"['1', '2', '3', '4']",1,2023.2.3,harveyvisual,2.1,[],8,0.75,
0,pause,0.4,None,None,None,0,245,245,245,,,,,,,,,,,,,N011,visual,6,[],"['1', '2', '3', '4']",1,2023.2.3,harveyvisual,2.1,[],8,0.75,
2,dot,0.3,['dot'],['density'],black,0,246,246,246,,,88.50021195411682,88.21460294723511,88.51462697982788,dot,"[0.06, 0.06]","[[-0.5356907773971091, -0.01454049690556478], [-0.3936553319468624, 0.1263392020735458]]",density,black,,,N011,visual,6,[],"['1', '2', '3', '4']",1,2023.2.3,harveyvisual,2.1,[],8,0.75,
0,pause,0.4,None,None,None,0,247,247,247,,,,,,,,,,,,,N011,visual,6,[],"['1', '2', '3', '4']",1,2023.2.3,harveyvisual,2.1,[],8,0.75,
2,dot,0.3,['dot'],['density'],black,0,248,248,248,,,89.20023107528687,88.91656589508057,89.21458196640015,dot,"[0.08, 0.08]","[[0.038501021189721846, -0.3380528513692932], [0.2360793696083702, -0.306423538752856]]",density,black,,,N011,visual,6,[],"['1', '2', '3', '4']",1,2023.2.3,harveyvisual,2.1,[],8,0.75,
0,pause,0.4,None,None,None,0,249,249,249,,,,,,,,,,,,,N011,visual,6,[],"['1', '2', '3', '4']",1,2023.2.3,harveyvisual,2.1,[],8,0.75,
2,dot,0.3,['dot'],['density'],black,0,250,250,250,,,89.90021395683289,89.61461091041565,89.91456985473633,dot,"[0.06, 0.06]","[[0.1851205616289071, -0.3624876981064337], [0.3405923022038234, -0.23608025195482504]]",density,black,,,N011,visual,6,[],"['1', '2', '3', '4']",1,2023.2.3,harveyvisual,2.1,[],8,0.75,
0,pause,0.4,None,None,None,0,251,251,251,,,,,,,,,,,,,N011,visual,6,[],"['1', '2', '3', '4']",1,2023.2.3,harveyvisual,2.1,[],8,0.75,
1,dot,0.3,['dot'],['density'],black,0,252,252,252,,,90.60022187232971,90.31457805633545,90.61455392837524,dot,[0.1],"[0.1600937909388646, -0.5041032805904762]",density,black,,,N011,visual,6,[],"['1', '2', '3', '4']",1,2023.2.3,harveyvisual,2.1,[],8,0.75,
0,pause,0.4,None,None,None,0,253,253,253,,,,,,,,,,,,,N011,visual,6,[],"['1', '2', '3', '4']",1,2023.2.3,harveyvisual,2.1,[],8,0.75,
1,dot,0.3,['dot'],['density'],black,0,254,254,254,,,91.3002200126648,91.01453685760498,91.31565403938293,dot,[0.08],"[0.46628601751002285, 0.12197617226191985]",density,black,,,N011,visual,6,[],"['1', '2', '3', '4']",1,2023.2.3,harveyvisual,2.1,[],8,0.75,
0,pause,0.4,None,None,None,0,255,255,255,,,,,,,,,,,,,N011,visual,6,[],"['1', '2', '3', '4']",1,2023.2.3,harveyvisual,2.1,[],8,0.75,
1,dot,0.3,['dot'],['density'],black,0,256,256,256,,,92.00022387504578,91.71450686454773,92.01452493667603,dot,[0.1],"[-0.06064478149429028, 0.10204082006191012]",density,black,,,N011,visual,6,[],"['1', '2', '3', '4']",1,2023.2.3,harveyvisual,2.1,[],8,0.75,
0,pause,0.4,None,None,None,0,257,257,257,,,,,,,,,,,,,N011,visual,6,[],"['1', '2', '3', '4']",1,2023.2.3,harveyvisual,2.1,[],8,0.75,
1,dot,0.3,['dot'],['density'],black,0,258,258,258,,,92.70020604133606,92.41450095176697,92.71448397636414,dot,[0.06],"[0.5163804524385218, 0.172353611070521]",density,black,,,N011,visual,6,[],"['1', '2', '3', '4']",1,2023.2.3,harveyvisual,2.1,[],8,0.75,
0,pause,0.4,None,None,None,0,259,259,259,,,,,,,,,,,,,N011,visual,6,[],"['1', '2', '3', '4']",1,2023.2.3,harveyvisual,2.1,[],8,0.75,
1,dot,0.3,['dot'],['density'],black,0,260,260,260,,,93.40021800994873,93.11447501182556,93.4144549369812,dot,[0.06],"[-0.4913090862596544, 0.31587628757091063]",density,black,,,N011,visual,6,[],"['1', '2', '3', '4']",1,2023.2.3,harveyvisual,2.1,[],8,0.75,
0,pause,0.4,None,None,None,0,261,261,261,,,,,,,,,,,,,N011,visual,6,[],"['1', '2', '3', '4']",1,2023.2.3,harveyvisual,2.1,[],8,0.75,
1,dot,0.3,['dot'],['density'],black,0,262,262,262,,,94.10020709037781,93.81447696685791,94.11444592475891,dot,[0.1],"[-0.0300711363278092, -0.16168860719337894]",density,black,,,N011,visual,6,[],"['1', '2', '3', '4']",1,2023.2.3,harveyvisual,2.1,[],8,0.75,
0,pause,0.4,None,None,None,0,263,263,263,,,,,,,,,,,,,N011,visual,6,[],"['1', '2', '3', '4']",1,2023.2.3,harveyvisual,2.1,[],8,0.75,
20,dot,0.3,['dot'],['density'],black,0,264,264,264,,,94.80021095275879,94.51442885398865,94.81442594528198,dot,"[0.1, 0.1, 0.06, 0.08, 0.08, 0.06, 0.06, 0.06, 0.08, 0.1, 0.06, 0.1, 0.06, 0.06, 0.1, 0.1, 0.1, 0.06, 0.1, 0.08]","[[-0.5335209375311261, -0.09033533351296355], [-0.07444488113259284, 0.4854495761413251], [0.5792766778793977, 0.031033262143679907], [-0.17035098874702936, 0.19538398993252393], [0.23966582038331885, -0.3412511348413664], [-0.3724358889828962, 0.459000391514086], [0.036915722677777096, -0.3203498118008693], [-0.23689498433678868, -0.08743753853516079], [-0.019195565048990337, -0.5155946517213716], [-0.45922154754769584, 0.14027220823189884], [0.49346180230015146, 0.25938304431923603], [0.04898810752286287, 0.2267003894260825], [0.2691334957884136, 0.11760630139580397], [-0.29620856360084197, -0.28437930218220847], [0.13463983362497756, -0.14515448024753524], [-0.32291439323671134, -0.4970543156827298], [0.3884184588102966, -0.208609190183212], [0.19111555534530433, 0.423482413987898], [-0.4956606352697261, -0.30518752803493643], [-0.0516476750406305, -0.0013591900533252987]]",density,black,,,N011,visual,6,[],"['1', '2', '3', '4']",1,2023.2.3,harveyvisual,2.1,[],8,0.75,
0,pause,0.4,None,None,None,0,265,265,265,,,,,,,,,,,,,N011,visual,6,[],"['1', '2', '3', '4']",1,2023.2.3,harveyvisual,2.1,[],8,0.75,
20,dot,0.3,['dot'],['density'],black,0,266,266,266,,,95.50022888183594,95.21441888809204,95.51556706428528,dot,"[0.06, 0.08, 0.08, 0.06, 0.08, 0.1, 0.08, 0.06, 0.1, 0.08, 0.06, 0.06, 0.08, 0.06, 0.06, 0.1, 0.06, 0.08, 0.08, 0.06]","[[0.29578577287168495, -0.42261327371349183], [0.34623874970149426, -0.06334437439057], [0.03799662343195609, -0.12919115862100328], [-0.04953595529514698, -0.3838009557907056], [-0.019285556711468033, 0.4323319813541533], [0.21464492805962854, 0.4034035692457655], [0.5789582445041644, 0.1409126224038214], [-0.2288068864262992, 0.027863685303668895], [0.221003378704565, 0.19246056519481058], [-0.3971698982245772, -0.37930840948748384], [0.43561383313407254, -0.23282092836992294], [-0.48508975585431663, 0.1796991026743031], [-0.045111252817515046, -0.5884534061827804], [-0.2616310443293396, 0.3739787678239389], [-0.5792575119250127, 0.003627774718814508], [-0.5023861940811271, -0.19699915130762646], [-0.054589340460122315, 0.18524039342444742], [0.1778726477359811, -0.2681925244945811], [-0.14948132621240334, -0.19838260406031277], [0.4121345390192036, 0.4231843393338451]]",density,black,,,N011,visual,6,[],"['1', '2', '3', '4']",1,2023.2.3,harveyvisual,2.1,[],8,0.75,
0,pause,0.4,None,None,None,0,267,267,267,,,,,,,,,,,,,N011,visual,6,[],"['1', '2', '3', '4']",1,2023.2.3,harveyvisual,2.1,[],8,0.75,
