num,mod,duration,shape,ll_cond,colors,.thisRepN,.thisTrialN,.thisN,.thisIndex,thisRow.t,notes,raw_global_time,t_start,t_stop,shapes,size,pos,cond,color,button,RT,participant,session,starting_run,left button (match/odd),right button (non-match/even),samples_per_block,psychopy version,expName,offset,audio,number_runs,radius,
1,dot,0.3,['dot'],['density'],black,0,0,0,0,,,2.400212049484253,2.114626884460449,2.4143970012664795,dot,[0.08],"[0.00661777001411412, 0.39634766145863237]",density,black,,,N011,visual,6,[],"['1', '2', '3', '4']",1,2023.2.3,harveyvisual,2.1,[],8,0.75,
0,pause,0.4,None,None,None,0,1,1,1,,,,,,,,,,,,,N011,visual,6,[],"['1', '2', '3', '4']",1,2023.2.3,harveyvisual,2.1,[],8,0.75,
1,dot,0.3,['dot'],['density'],black,0,2,2,2,,,3.1001980304718018,2.814512014389038,3.115463972091675,dot,[0.1],"[-0.2532192430475575, -0.5275431624831907]",density,black,,,N011,visual,6,[],"['1', '2', '3', '4']",1,2023.2.3,harveyvisual,2.1,[],8,0.75,
0,pause,0.4,None,None,None,0,3,3,3,,,,,,,,,,,,,N011,visual,6,[],"['1', '2', '3', '4']",1,2023.2.3,harveyvisual,2.1,[],8,0.75,
1,dot,0.3,['dot'],['density'],black,0,4,4,4,,,3.8002219200134277,3.5148708820343018,3.8148598670959473,dot,[0.06],"[-0.4519365434524677, 0.22287683068434597]",density,black,,,N011,visual,6,[],"['1', '2', '3', '4']",1,2023.2.3,harveyvisual,2.1,[],8,0.75,
0,pause,0.4,None,None,None,0,5,5,5,,,,,,,,,,,,,N011,visual,6,[],"['1', '2', '3', '4']",1,2023.2.3,harveyvisual,2.1,[],8,0.75,
1,dot,0.3,['dot'],['density'],black,0,6,6,6,,,4.5002219676971436,4.2149269580841064,4.514837980270386,dot,[0.1],"[0.5163804524385218, 0.172353611070521]",density,black,,,N011,visual,6,[],"['1', '2', '3', '4']",1,2023.2.3,harveyvisual,2.1,[],8,0.75,
0,pause,0.4,None,None,None,0,7,7,7,,,,,,,,,,,,,N011,visual,6,[],"['1', '2', '3', '4']",1,2023.2.3,harveyvisual,2.1,[],8,0.75,
1,dot,0.3,['dot'],['density'],black,0,8,8,8,,,5.200201034545898,4.914830923080444,5.214817047119141,dot,[0.08],"[0.1600937909388646, -0.5041032805904762]",density,black,,,N011,visual,6,[],"['1', '2', '3', '4']",1,2023.2.3,harveyvisual,2.1,[],8,0.75,
0,pause,0.4,None,None,None,0,9,9,9,,,,,,,,,,,,,N011,visual,6,[],"['1', '2', '3', '4']",1,2023.2.3,harveyvisual,2.1,[],8,0.75,
1,dot,0.3,['dot'],['density'],black,0,10,10,10,,,5.900213956832886,5.617109060287476,5.917104959487915,dot,[0.08],"[-0.43105706563061386, -0.18359692062194616]",density,black,,,N011,visual,6,[],"['1', '2', '3', '4']",1,2023.2.3,harveyvisual,2.1,[],8,0.75,
0,pause,0.4,None,None,None,0,11,11,11,,,,,,,,,,,,,N011,visual,6,[],"['1', '2', '3', '4']",1,2023.2.3,harveyvisual,2.1,[],8,0.75,
2,dot,0.3,['dot'],['density'],black,0,12,12,12,,,6.600204944610596,6.317089080810547,6.617096900939941,dot,"[0.1, 0.1]","[[0.19540278997321237, -0.319457995891214], [0.34462774624387493, -0.4544903302695001]]",density,black,,,N011,visual,6,[],"['1', '2', '3', '4']",1,2023.2.3,harveyvisual,2.1,[],8,0.75,
0,pause,0.4,None,None,None,0,13,13,13,,,,,,,,,,,,,N011,visual,6,[],"['1', '2', '3', '4']",1,2023.2.3,harveyvisual,2.1,[],8,0.75,
2,dot,0.3,['dot'],['density'],black,0,14,14,14,,,7.30019998550415,7.0170769691467285,7.317064046859741,dot,"[0.08, 0.08]","[[0.07059805578258149, -0.2458188734665979], [0.058763118304238846, -0.4455693812784497]]",density,black,,,N011,visual,6,[],"['1', '2', '3', '4']",1,2023.2.3,harveyvisual,2.1,[],8,0.75,
0,pause,0.4,None,None,None,0,15,15,15,,,,,,,,,,,,,N011,visual,6,[],"['1', '2', '3', '4']",1,2023.2.3,harveyvisual,2.1,[],8,0.75,
2,dot,0.3,['dot'],['density'],black,0,16,16,16,,,8.000217914581299,7.717058897018433,8.017055034637451,dot,"[0.08, 0.1]","[[0.1652621768884792, -0.40183218801656556], [-0.03337249546828684, -0.4281924369736378]]",density,black,,,N011,visual,6,[],"['1', '2', '3', '4']",1,2023.2.3,harveyvisual,2.1,[],8,0.75,
0,pause,0.4,None,None,None,0,17,17,17,,,,,,,,,,,,,N011,visual,6,[],"['1', '2', '3', '4']",1,2023.2.3,harveyvisual,2.1,[],8,0.75,
2,dot,0.3,['dot'],['density'],black,0,18,18,18,,,8.700198888778687,8.417036056518555,8.717040061950684,dot,"[0.06, 0.06]","[[0.28379985726396956, 0.19228106150028407], [0.10160376615595414, 0.2763535177041957]]",density,black,,,N011,visual,6,[],"['1', '2', '3', '4']",1,2023.2.3,harveyvisual,2.1,[],8,0.75,
0,pause,0.4,None,None,None,0,19,19,19,,,,,,,,,,,,,N011,visual,6,[],"['1', '2', '3', '4']",1,2023.2.3,harveyvisual,2.1,[],8,0.75,
2,dot,0.3,['dot'],['density'],black,0,20,20,20,,,9.400215864181519,9.117023944854736,9.417012929916382,dot,"[0.1, 0.06]","[[-0.03288134563171543, -0.4238564918242606], [-0.10611641736664675, -0.2370354775439666]]",density,black,,,N011,visual,6,[],"['1', '2', '3', '4']",1,2023.2.3,harveyvisual,2.1,[],8,0.75,
0,pause,0.4,None,None,None,0,21,21,21,,,,,,,,,,,,,N011,visual,6,[],"['1', '2', '3', '4']",1,2023.2.3,harveyvisual,2.1,[],8,0.75,
2,dot,0.3,['dot'],['density'],black,0,22,22,22,,,10.100225925445557,9.81700587272644,10.117003917694092,dot,"[0.1, 0.1]","[[0.002249876020969301, 0.20442088447143333], [-0.056293345030126195, 0.39599742374220376]]",density,black,,,N011,visual,6,[],"['1', '2', '3', '4']",1,2023.2.3,harveyvisual,2.1,[],8,0.75,
0,pause,0.4,None,None,None,0,23,23,23,,,,,,,,,,,,,N011,visual,6,[],"['1', '2', '3', '4']",1,2023.2.3,harveyvisual,2.1,[],8,0.75,
3,dot,0.3,['dot'],['density'],black,0,24,24,24,,,10.800209045410156,10.516987085342407,10.816977977752686,dot,"[0.06, 0.1, 0.08]","[[-0.5599668940784417, -0.1503624274944763], [-0.33715825845103314, -0.1742393560729378], [-0.447658281307079, 0.035586458508876644]]",density,black,,,N011,visual,6,[],"['1', '2', '3', '4']",1,2023.2.3,harveyvisual,2.1,[],8,0.75,
0,pause,0.4,None,None,None,0,25,25,25,,,,,,,,,,,,,N011,visual,6,[],"['1', '2', '3', '4']",1,2023.2.3,harveyvisual,2.1,[],8,0.75,
3,dot,0.3,['dot'],['density'],black,0,26,26,26,,,11.500221014022827,11.216970920562744,11.51695704460144,dot,"[0.08, 0.1, 0.08]","[[0.07700183490032705, -0.35627018624379625], [-0.11838355721398923, -0.41989981358322065], [0.04553884901650391, -0.5822363694770394]]",density,black,,,N011,visual,6,[],"['1', '2', '3', '4']",1,2023.2.3,harveyvisual,2.1,[],8,0.75,
0,pause,0.4,None,None,None,0,27,27,27,,,,,,,,,,,,,N011,visual,6,[],"['1', '2', '3', '4']",1,2023.2.3,harveyvisual,2.1,[],8,0.75,
3,dot,0.3,['dot'],['density'],white,0,28,28,28,,,12.200201034545898,11.916960000991821,12.217213869094849,dot,"[0.06, 0.06, 0.1]","[[0.4995185571857965, 0.14229679706320136], [0.2944600495073675, 0.23335097983198633], [0.330752226915583, 0.0299241169750933]]",density,white,,,N011,visual,6,[],"['1', '2', '3', '4']",1,2023.2.3,harveyvisual,2.1,[],8,0.75,
0,pause,0.4,None,None,None,0,29,29,29,,,,,,,,,,,1,12.38343596458435,N011,visual,6,[],"['1', '2', '3', '4']",1,2023.2.3,harveyvisual,2.1,[],8,0.75,
3,dot,0.3,['dot'],['density'],black,0,30,30,30,,,12.900201082229614,12.616947889328003,12.916915893554688,dot,"[0.08, 0.08, 0.1]","[[0.4290032298944087, 0.1407520187648592], [0.22848299553954127, 0.06362144779139585], [0.3595680574788582, -0.09433362503040832]]",density,black,,,N011,visual,6,[],"['1', '2', '3', '4']",1,2023.2.3,harveyvisual,2.1,[],8,0.75,
0,pause,0.4,None,None,None,0,31,31,31,,,,,,,,,,,,,N011,visual,6,[],"['1', '2', '3', '4']",1,2023.2.3,harveyvisual,2.1,[],8,0.75,
3,dot,0.3,['dot'],['density'],black,0,32,32,32,,,13.600198984146118,13.316906929016113,13.616888046264648,dot,"[0.06, 0.08, 0.06]","[[-0.31319101668702665, 0.019781348947723338], [-0.5473895760332308, 0.024991247927059115], [-0.4494119348059314, -0.1602141851013313]]",density,black,,,N011,visual,6,[],"['1', '2', '3', '4']",1,2023.2.3,harveyvisual,2.1,[],8,0.75,
0,pause,0.4,None,None,None,0,33,33,33,,,,,,,,,,,,,N011,visual,6,[],"['1', '2', '3', '4']",1,2023.2.3,harveyvisual,2.1,[],8,0.75,
3,dot,0.3,['dot'],['density'],black,0,34,34,34,,,14.300214052200317,14.01689100265503,14.31688404083252,dot,"[0.08, 0.08, 0.06]","[[0.06695044750400271, -0.4036822973150869], [0.2898428615912539, -0.43752325319744867], [0.2484486434572057, -0.2241911098289173]]",density,black,,,N011,visual,6,[],"['1', '2', '3', '4']",1,2023.2.3,harveyvisual,2.1,[],8,0.75,
0,pause,0.4,None,None,None,0,35,35,35,,,,,,,,,,,,,N011,visual,6,[],"['1', '2', '3', '4']",1,2023.2.3,harveyvisual,2.1,[],8,0.75,
4,dot,0.3,['dot'],['density'],black,0,36,36,36,,,15.000209093093872,14.716863870620728,15.016862869262695,dot,"[0.1, 0.06, 0.1, 0.06]","[[-0.0389916918612136, -0.388752419995929], [-0.2709884701808293, -0.36873671266769453], [0.09349318837137091, -0.23801008290575854], [-0.09100040788429245, -0.11490803606521542]]",density,black,,,N011,visual,6,[],"['1', '2', '3', '4']",1,2023.2.3,harveyvisual,2.1,[],8,0.75,
0,pause,0.4,None,None,None,0,37,37,37,,,,,,,,,,,,,N011,visual,6,[],"['1', '2', '3', '4']",1,2023.2.3,harveyvisual,2.1,[],8,0.75,
4,dot,0.3,['dot'],['density'],black,0,38,38,38,,,15.700216054916382,15.41685700416565,15.716845035552979,dot,"[0.1, 0.08, 0.08, 0.1]","[[-0.3130108772186628, 0.4658633188731559], [0.06875292536802097, 0.3619778545149697], [-0.12928423743784842, 0.28835211797578114], [-0.08764786508193922, 0.5151731075523892]]",density,black,,,N011,visual,6,[],"['1', '2', '3', '4']",1,2023.2.3,harveyvisual,2.1,[],8,0.75,
0,pause,0.4,None,None,None,0,39,39,39,,,,,,,,,,,,,N011,visual,6,[],"['1', '2', '3', '4']",1,2023.2.3,harveyvisual,2.1,[],8,0.75,
4,dot,0.3,['dot'],['density'],black,0,40,40,40,,,16.400227069854736,16.116832971572876,16.416828870773315,dot,"[0.08, 0.08, 0.1, 0.06]","[[-0.264878088602857, 0.22906395790450432], [0.07239228809704809, 0.2615492699427171], [0.10034738543262733, 0.4676118263175188], [-0.09637524959065707, 0.3769302803343899]]",density,black,,,N011,visual,6,[],"['1', '2', '3', '4']",1,2023.2.3,harveyvisual,2.1,[],8,0.75,
0,pause,0.4,None,None,None,0,41,41,41,,,,,,,,,,,,,N011,visual,6,[],"['1', '2', '3', '4']",1,2023.2.3,harveyvisual,2.1,[],8,0.75,
4,dot,0.3,['dot'],['density'],black,0,42,42,42,,,17.10023307800293,16.81687092781067,17.11679697036743,dot,"[0.08, 0.1, 0.08, 0.08]","[[-0.2516773625496151, -0.30151264897341506], [-0.16747001932966935, -0.11477707456203952], [0.007305472957725734, -0.4586877449884055], [0.017540980065453668, -0.20354321808263612]]",density,black,,,N011,visual,6,[],"['1', '2', '3', '4']",1,2023.2.3,harveyvisual,2.1,[],8,0.75,
0,pause,0.4,None,None,None,0,43,43,43,,,,,,,,,,,,,N011,visual,6,[],"['1', '2', '3', '4']",1,2023.2.3,harveyvisual,2.1,[],8,0.75,
4,dot,0.3,['dot'],['density'],black,0,44,44,44,,,17.800206899642944,17.51697087287903,17.81693196296692,dot,"[0.06, 0.1, 0.1, 0.06]","[[-0.4771446773377139, 0.25157103962592786], [-0.4259846000875058, -0.15982147080050188], [-0.5514119563937664, 0.017569371675289724], [-0.3400083930451492, 0.09263869595453958]]",density,black,,,N011,visual,6,[],"['1', '2', '3', '4']",1,2023.2.3,harveyvisual,2.1,[],8,0.75,
0,pause,0.4,None,None,None,0,45,45,45,,,,,,,,,,,,,N011,visual,6,[],"['1', '2', '3', '4']",1,2023.2.3,harveyvisual,2.1,[],8,0.75,
4,dot,0.3,['dot'],['density'],white,0,46,46,46,,,18.500207901000977,18.216805934906006,18.516790866851807,dot,"[0.08, 0.08, 0.08, 0.1]","[[-0.035956560563939345, -0.32709283091503677], [-0.2190429995428959, -0.2035699502326352], [-0.06992348234594314, -0.5664776463754845], [-0.220471277594294, -0.41208836036752056]]",density,white,,,N011,visual,6,[],"['1', '2', '3', '4']",1,2023.2.3,harveyvisual,2.1,[],8,0.75,
0,pause,0.4,None,None,None,0,47,47,47,,,,,,,,,,,1,18.66419506072998,N011,visual,6,[],"['1', '2', '3', '4']",1,2023.2.3,harveyvisual,2.1,[],8,0.75,
5,dot,0.3,['dot'],['density'],black,0,48,48,48,,,19.200221061706543,18.916774034500122,19.216770887374878,dot,"[0.06, 0.08, 0.06, 0.06, 0.06]","[[-0.053215572458232586, 0.27221330895143253], [0.10089702531331296, 0.1334794413224796], [0.12897289155288158, 0.4002796015157326], [0.3022660506716914, 0.02685289149411272], [0.2804295634962893, 0.24950018434757285]]",density,black,,,N011,visual,6,[],"['1', '2', '3', '4']",1,2023.2.3,harveyvisual,2.1,[],8,0.75,
0,pause,0.4,None,None,None,0,49,49,49,,,,,,,,,,,,,N011,visual,6,[],"['1', '2', '3', '4']",1,2023.2.3,harveyvisual,2.1,[],8,0.75,
5,dot,0.3,['dot'],['density'],black,0,50,50,50,,,19.90022087097168,19.616766929626465,19.916754007339478,dot,"[0.1, 0.08, 0.06, 0.1, 0.06]","[[0.27183890960736007, -0.2807898153303064], [0.09520185447546438, -0.14661409162522948], [0.4811798017999712, -0.08799056171856828], [0.2824926782126669, -0.029701986940959574], [0.07325476391384783, 0.10525290151012107]]",density,black,,,N011,visual,6,[],"['1', '2', '3', '4']",1,2023.2.3,harveyvisual,2.1,[],8,0.75,
0,pause,0.4,None,None,None,0,51,51,51,,,,,,,,,,,,,N011,visual,6,[],"['1', '2', '3', '4']",1,2023.2.3,harveyvisual,2.1,[],8,0.75,
5,dot,0.3,['dot'],['density'],white,0,52,52,52,,,20.60022497177124,20.316730976104736,20.61670207977295,dot,"[0.08, 0.06, 0.08, 0.06, 0.08]","[[-0.3632963637400461, -0.33792544526642676], [-0.48189922448633543, -0.036156829306921726], [-0.2958020468624338, 0.07292024124872273], [-0.10639492237515816, -0.0008972940205680791], [-0.20818262001932955, -0.17666930306052683]]",density,white,,,N011,visual,6,[],"['1', '2', '3', '4']",1,2023.2.3,harveyvisual,2.1,[],8,0.75,
0,pause,0.4,None,None,None,0,53,53,53,,,,,,,,,,,1,20.749447107315063,N011,visual,6,[],"['1', '2', '3', '4']",1,2023.2.3,harveyvisual,2.1,[],8,0.75,
5,dot,0.3,['dot'],['density'],black,0,54,54,54,,,21.300216913223267,21.01675009727478,21.316746950149536,dot,"[0.08, 0.1, 0.06, 0.06, 0.06]","[[0.05896558140131438, -0.5342250951568444], [0.41924064092593105, -0.38742881471212404], [0.0789485457987589, -0.15857793529431863], [0.19859038409043042, -0.3300393182504279], [-0.04229804568701367, -0.31959008629620334]]",density,black,,,N011,visual,6,[],"['1', '2', '3', '4']",1,2023.2.3,harveyvisual,2.1,[],8,0.75,
0,pause,0.4,None,None,None,0,55,55,55,,,,,,,,,,,,,N011,visual,6,[],"['1', '2', '3', '4']",1,2023.2.3,harveyvisual,2.1,[],8,0.75,
5,dot,0.3,['dot'],['density'],black,0,56,56,56,,,22.000205039978027,21.716715097427368,22.01668405532837,dot,"[0.1, 0.08, 0.06, 0.08, 0.08]","[[0.11182935554897071, 0.3084500478813638], [0.20284409002608467, 0.5199666233992849], [0.31882748915707354, 0.1252782162051447], [0.39083404861423326, 0.3494221689807338], [0.1196046891632849, 0.10173499350566408]]",density,black,,,N011,visual,6,[],"['1', '2', '3', '4']",1,2023.2.3,harveyvisual,2.1,[],8,0.75,
0,pause,0.4,None,None,None,0,57,57,57,,,,,,,,,,,,,N011,visual,6,[],"['1', '2', '3', '4']",1,2023.2.3,harveyvisual,2.1,[],8,0.75,
5,dot,0.3,['dot'],['density'],black,0,58,58,58,,,22.700212001800537,22.416688919067383,22.71681308746338,dot,"[0.06, 0.06, 0.06, 0.06, 0.06]","[[-0.4004020094395207, -0.04445243948850948], [-0.17181756668418613, -0.18180129995893848], [-0.46264198425852476, 0.17889071841303528], [-0.23640824159873003, 0.08340028676903545], [-0.2824747884808712, 0.2826805534387526]]",density,black,,,N011,visual,6,[],"['1', '2', '3', '4']",1,2023.2.3,harveyvisual,2.1,[],8,0.75,
0,pause,0.4,None,None,None,0,59,59,59,,,,,,,,,,,,,N011,visual,6,[],"['1', '2', '3', '4']",1,2023.2.3,harveyvisual,2.1,[],8,0.75,
6,dot,0.3,['dot'],['density'],black,0,60,60,60,,,23.400206089019775,23.116677045822144,23.41682004928589,dot,"[0.1, 0.1, 0.08, 0.06, 0.06, 0.06]","[[-0.2715212558254698, 0.2586056842756752], [-0.41011716394998093, -0.23288273174477314], [-0.4259032553852052, 0.02963770343160952], [-0.037696467485790364, -0.07921729390734374], [-0.19058944014171011, 0.07565381115733183], [-0.22931220879523878, -0.14417898787482208]]",density,black,,,N011,visual,6,[],"['1', '2', '3', '4']",1,2023.2.3,harveyvisual,2.1,[],8,0.75,
0,pause,0.4,None,None,None,0,61,61,61,,,,,,,,,,,,,N011,visual,6,[],"['1', '2', '3', '4']",1,2023.2.3,harveyvisual,2.1,[],8,0.75,
6,dot,0.3,['dot'],['density'],black,0,62,62,62,,,24.10022497177124,23.81678605079651,24.11664390563965,dot,"[0.08, 0.06, 0.06, 0.06, 0.1, 0.08]","[[0.21259181929123794, -0.28356491423097735], [0.48303195854319764, 0.06048455888335473], [0.22913681079270962, 0.07473613686017411], [0.4939377514137012, -0.2837040300549214], [0.055643620130747785, -0.14290468481535015], [0.3711413815128542, -0.10952979375652658]]",density,black,,,N011,visual,6,[],"['1', '2', '3', '4']",1,2023.2.3,harveyvisual,2.1,[],8,0.75,
0,pause,0.4,None,None,None,0,63,63,63,,,,,,,,,,,,,N011,visual,6,[],"['1', '2', '3', '4']",1,2023.2.3,harveyvisual,2.1,[],8,0.75,
6,dot,0.3,['dot'],['density'],black,0,64,64,64,,,24.800214052200317,24.516720056533813,24.81660008430481,dot,"[0.1, 0.06, 0.1, 0.08, 0.06, 0.08]","[[-0.3495133471434448, -0.27378397825191725], [-0.13100446626766318, 0.13866361521721876], [-0.5155090776439144, 0.11776884681908774], [-0.4780287848267884, -0.11588239978167382], [-0.11897161770401087, -0.0933943475842369], [-0.303431097341306, -0.010759678588622423]]",density,black,,,N011,visual,6,[],"['1', '2', '3', '4']",1,2023.2.3,harveyvisual,2.1,[],8,0.75,
0,pause,0.4,None,None,None,0,65,65,65,,,,,,,,,,,,,N011,visual,6,[],"['1', '2', '3', '4']",1,2023.2.3,harveyvisual,2.1,[],8,0.75,
6,dot,0.3,['dot'],['density'],black,0,66,66,66,,,25.5002179145813,25.216665983200073,25.51668405532837,dot,"[0.06, 0.08, 0.1, 0.1, 0.1, 0.1]","[[-0.25199583264674774, 0.1645076628059283], [-0.30980015185235615, -0.30059811601219943], [-0.3416104032120793, -0.08609002542292095], [-0.44539923421558947, 0.10453038353258776], [-0.10444623085343022, 0.0009067836503606603], [-0.5495015018291214, -0.1770200348029928]]",density,black,,,N011,visual,6,[],"['1', '2', '3', '4']",1,2023.2.3,harveyvisual,2.1,[],8,0.75,
0,pause,0.4,None,None,None,0,67,67,67,,,,,,,,,,,,,N011,visual,6,[],"['1', '2', '3', '4']",1,2023.2.3,harveyvisual,2.1,[],8,0.75,
6,dot,0.3,['dot'],['density'],black,0,68,68,68,,,26.2002010345459,25.916570901870728,26.21656894683838,dot,"[0.06, 0.06, 0.1, 0.08, 0.08, 0.1]","[[0.4536033237290603, -0.10703390074252807], [0.4090862681261178, 0.14156446515860444], [0.3446070222150913, -0.333203595144996], [0.1541486512624917, 0.13839280063469406], [0.16833114318264894, -0.23068973514796048], [0.2520001164899556, -0.04323865486760776]]",density,black,,,N011,visual,6,[],"['1', '2', '3', '4']",1,2023.2.3,harveyvisual,2.1,[],8,0.75,
0,pause,0.4,None,None,None,0,69,69,69,,,,,,,,,,,,,N011,visual,6,[],"['1', '2', '3', '4']",1,2023.2.3,harveyvisual,2.1,[],8,0.75,
6,dot,0.3,['dot'],['density'],black,0,70,70,70,,,26.900218963623047,26.616554975509644,26.91654109954834,dot,"[0.1, 0.06, 0.08, 0.06, 0.1, 0.08]","[[0.285926512064941, -0.24481785515673876], [0.418595730147314, -0.41068201076939437], [0.08023911914447063, -0.2907744195836184], [0.5255309086764915, -0.21900298349449057], [0.21619509519697316, -0.004828458463526469], [0.21043770887025895, -0.4594541383061854]]",density,black,,,N011,visual,6,[],"['1', '2', '3', '4']",1,2023.2.3,harveyvisual,2.1,[],8,0.75,
0,pause,0.4,None,None,None,0,71,71,71,,,,,,,,,,,,,N011,visual,6,[],"['1', '2', '3', '4']",1,2023.2.3,harveyvisual,2.1,[],8,0.75,
7,dot,0.3,['dot'],['density'],black,0,72,72,72,,,27.600209951400757,27.316536903381348,27.616502046585083,dot,"[0.06, 0.1, 0.06, 0.08, 0.1, 0.06, 0.1]","[[0.19245168201499255, -0.1876960705048169], [-0.3381443552002159, -0.23329338142126996], [-0.10497405195571721, -0.20200038512761503], [-0.19215049966389516, -0.01485034356210763], [-0.14804808022624072, 0.20187381879058183], [0.049390412829639754, -0.0077734514623590935], [0.08212821656350888, 0.19234027401595055]]",density,black,,,N011,visual,6,[],"['1', '2', '3', '4']",1,2023.2.3,harveyvisual,2.1,[],8,0.75,
0,pause,0.4,None,None,None,0,73,73,73,,,,,,,,,,,,,N011,visual,6,[],"['1', '2', '3', '4']",1,2023.2.3,harveyvisual,2.1,[],8,0.75,
7,dot,0.3,['dot'],['density'],black,0,74,74,74,,,28.300206899642944,28.01651406288147,28.3165180683136,dot,"[0.06, 0.06, 0.1, 0.1, 0.1, 0.06, 0.06]","[[0.21536278937261513, -0.01733091677764761], [-0.08931035591216824, -0.05246349631749078], [0.21870610454298933, 0.21067491250041093], [-0.1587576617113587, 0.26068369883413384], [0.04623079518225047, 0.4568527369480977], [0.022942391481424712, 0.13939122930077608], [-0.27674911739568203, 0.09730719745121558]]",density,black,,,N011,visual,6,[],"['1', '2', '3', '4']",1,2023.2.3,harveyvisual,2.1,[],8,0.75,
0,pause,0.4,None,None,None,0,75,75,75,,,,,,,,,,,,,N011,visual,6,[],"['1', '2', '3', '4']",1,2023.2.3,harveyvisual,2.1,[],8,0.75,
7,dot,0.3,['dot'],['density'],black,0,76,76,76,,,29.0002019405365,28.716558933258057,29.01648497581482,dot,"[0.1, 0.06, 0.06, 0.08, 0.1, 0.08, 0.08]","[[-0.2877807563129739, -0.2392998172879968], [-0.4930284393840153, 0.02918626900802282], [-0.13307942101536208, -0.4135874564509098], [-0.1727922191076213, -0.04289663127052677], [-0.3943840059764042, -0.4351600913800347], [-0.03321109949484203, -0.21096883087625085], [-0.5418728138863746, -0.1990057631286019]]",density,black,,,N011,visual,6,[],"['1', '2', '3', '4']",1,2023.2.3,harveyvisual,2.1,[],8,0.75,
0,pause,0.4,None,None,None,0,77,77,77,,,,,,,,,,,,,N011,visual,6,[],"['1', '2', '3', '4']",1,2023.2.3,harveyvisual,2.1,[],8,0.75,
7,dot,0.3,['dot'],['density'],white,0,78,78,78,,,29.70022702217102,29.41755700111389,29.716652870178223,dot,"[0.08, 0.08, 0.06, 0.1, 0.08, 0.1, 0.06]","[[-0.3025445156539714, -0.42280529123536587], [0.12162933753582021, -0.2851722644810181], [-0.2753205641105948, -0.038672864930592576], [-0.4202189534315163, -0.18742991959605093], [-0.15636117447925973, -0.27217203193286355], [-0.09967880665522989, -0.47242523529006747], [-0.06261398545311019, -0.08879309989794046]]",density,white,,,N011,visual,6,[],"['1', '2', '3', '4']",1,2023.2.3,harveyvisual,2.1,[],8,0.75,
0,pause,0.4,None,None,None,0,79,79,79,,,,,,,,,,,1,29.9127140045166,N011,visual,6,[],"['1', '2', '3', '4']",1,2023.2.3,harveyvisual,2.1,[],8,0.75,
7,dot,0.3,['dot'],['density'],black,0,80,80,80,,,30.400217056274414,30.116611003875732,30.416604042053223,dot,"[0.06, 0.06, 0.06, 0.08, 0.1, 0.06, 0.1]","[[-0.1639205104410485, 0.5375336320852997], [0.13665370749938832, 0.21910895384688228], [-0.33778978147358674, 0.04597826141406851], [-0.2268593015261854, 0.22000868921510455], [-0.39586497221419475, 0.3389169711393182], [-0.023188047053822363, 0.08417042442854547], [-0.025005414605345992, 0.38521147685537843]]",density,black,,,N011,visual,6,[],"['1', '2', '3', '4']",1,2023.2.3,harveyvisual,2.1,[],8,0.75,
0,pause,0.4,None,None,None,0,81,81,81,,,,,,,,,,,,,N011,visual,6,[],"['1', '2', '3', '4']",1,2023.2.3,harveyvisual,2.1,[],8,0.75,
7,dot,0.3,['dot'],['density'],black,0,82,82,82,,,31.1002299785614,30.816601037979126,31.116577863693237,dot,"[0.1, 0.1, 0.06, 0.06, 0.06, 0.1, 0.06]","[[-0.23675386446936744, -0.019099737415117023], [-0.3793299299598963, 0.3840296974489508], [0.16444052853698826, 0.25964081185693966], [-0.17441972694422359, 0.2376971805458075], [0.025313303261310992, 0.0859287266400301], [-0.3760941870171968, 0.1722047307528389], [-0.012854506600276856, 0.3778399739802858]]",density,black,,,N011,visual,6,[],"['1', '2', '3', '4']",1,2023.2.3,harveyvisual,2.1,[],8,0.75,
0,pause,0.4,None,None,None,0,83,83,83,,,,,,,,,,,,,N011,visual,6,[],"['1', '2', '3', '4']",1,2023.2.3,harveyvisual,2.1,[],8,0.75,
8,dot,0.3,['dot'],['density'],black,0,84,84,84,,,31.800225019454956,31.516573905944824,31.816577911376953,dot,"[0.1, 0.1, 0.08, 0.08, 0.1, 0.08, 0.1, 0.08]","[[-0.17382250058115215, 0.008030820220576582], [-0.5561520679887834, 0.09064024109159684], [-0.2322770524578434, -0.18818443710846813], [-0.41357291590276396, -0.2905316508268561], [-0.37423053416790164, -0.04064357687765813], [-0.014699175284411378, 0.15059198662288528], [-0.015485985535575739, -0.1348843831724925], [-0.36639977644872057, 0.228205681233079]]",density,black,,,N011,visual,6,[],"['1', '2', '3', '4']",1,2023.2.3,harveyvisual,2.1,[],8,0.75,
0,pause,0.4,None,None,None,0,85,85,85,,,,,,,,,,,,,N011,visual,6,[],"['1', '2', '3', '4']",1,2023.2.3,harveyvisual,2.1,[],8,0.75,
8,dot,0.3,['dot'],['density'],black,0,86,86,86,,,32.50022888183594,32.21648287773132,32.51653289794922,dot,"[0.06, 0.1, 0.06, 0.1, 0.1, 0.1, 0.1, 0.08]","[[-0.19469543066458847, -0.326291241472255], [0.30343637985980976, -0.10925869102227477], [-0.1969922581528186, -0.11664339975312436], [0.2570255161168456, -0.3247060146943647], [0.10684135558856425, -0.18174565546534566], [0.03482742583321104, -0.4893606045609451], [-0.015658395544436696, -0.0001692298399926468], [0.11980560642279467, 0.15585563517441894]]",density,black,,,N011,visual,6,[],"['1', '2', '3', '4']",1,2023.2.3,harveyvisual,2.1,[],8,0.75,
0,pause,0.4,None,None,None,0,87,87,87,,,,,,,,,,,,,N011,visual,6,[],"['1', '2', '3', '4']",1,2023.2.3,harveyvisual,2.1,[],8,0.75,
8,dot,0.3,['dot'],['density'],black,0,88,88,88,,,33.20022702217102,32.916409969329834,33.21652793884277,dot,"[0.1, 0.08, 0.06, 0.06, 0.08, 0.06, 0.1, 0.08]","[[0.2695774744445919, -0.006239189610034271], [0.562582848369008, 0.10338967896652898], [0.24075709842543627, 0.2415297589697605], [0.16944247952526825, 0.43473569867318385], [0.009973801462114143, 0.2622623098226203], [0.4378981685404615, 0.30984992123658367], [0.345623627049791, -0.19390063473497438], [0.01218861403819752, 6.35764658527089e-05]]",density,black,,,N011,visual,6,[],"['1', '2', '3', '4']",1,2023.2.3,harveyvisual,2.1,[],8,0.75,
0,pause,0.4,None,None,None,0,89,89,89,,,,,,,,,,,,,N011,visual,6,[],"['1', '2', '3', '4']",1,2023.2.3,harveyvisual,2.1,[],8,0.75,
8,dot,0.3,['dot'],['density'],black,0,90,90,90,,,33.90020704269409,33.61639189720154,33.916383028030396,dot,"[0.1, 0.06, 0.06, 0.06, 0.06, 0.08, 0.1, 0.06]","[[-0.3167478768396544, -0.2124469325344782], [0.11150510454677101, -0.25361932254341324], [0.17657050060311263, -0.496926349220185], [0.20833757931744315, -0.0002320808252021913], [-0.0015234955214533466, 0.034722119540356526], [-0.10690598217119997, -0.19846612199298916], [0.32498422138424443, -0.23444872628509345], [-0.054741640541526956, -0.4230750989992696]]",density,black,,,N011,visual,6,[],"['1', '2', '3', '4']",1,2023.2.3,harveyvisual,2.1,[],8,0.75,
0,pause,0.4,None,None,None,0,91,91,91,,,,,,,,,,,,,N011,visual,6,[],"['1', '2', '3', '4']",1,2023.2.3,harveyvisual,2.1,[],8,0.75,
8,dot,0.3,['dot'],['density'],black,0,92,92,92,,,34.600215911865234,34.31645393371582,34.6163649559021,dot,"[0.1, 0.1, 0.1, 0.06, 0.06, 0.1, 0.08, 0.1]","[[0.4107983822504989, -0.04783789354839145], [-0.06954892783911702, 0.20421019801840873], [0.19287329246680035, -0.23674413065931216], [-0.04658255687897442, -0.27568538913083557], [0.19478566210173015, -0.00965484605936359], [-0.04069516991009335, -0.04900998707948758], [0.17921022995035232, 0.2044367826380957], [-0.22871454517575843, 0.05025111546696341]]",density,black,,,N011,visual,6,[],"['1', '2', '3', '4']",1,2023.2.3,harveyvisual,2.1,[],8,0.75,
0,pause,0.4,None,None,None,0,93,93,93,,,,,,,,,,,,,N011,visual,6,[],"['1', '2', '3', '4']",1,2023.2.3,harveyvisual,2.1,[],8,0.75,
8,dot,0.3,['dot'],['density'],white,0,94,94,94,,,35.300225019454956,35.0163369178772,35.31632709503174,dot,"[0.06, 0.08, 0.08, 0.06, 0.08, 0.08, 0.06, 0.06]","[[0.11895989691250043, -0.4531686673706004], [-0.16516506104640707, -0.03240926074491446], [0.03539791161122963, 0.017706842047032937], [0.2602726326243711, -0.2021454296306109], [-0.07993394910368964, -0.42305571474287856], [-0.2833532244481061, -0.22994433794129646], [0.3633812293108319, -0.4186270945829863], [-0.04042382183071007, -0.1991401458565282]]",density,white,,,N011,visual,6,[],"['1', '2', '3', '4']",1,2023.2.3,harveyvisual,2.1,[],8,0.75,
0,pause,0.4,None,None,None,0,95,95,95,,,,,,,,,,,1,35.45526194572449,N011,visual,6,[],"['1', '2', '3', '4']",1,2023.2.3,harveyvisual,2.1,[],8,0.75,
9,dot,0.3,['dot'],['density'],black,0,96,96,96,,,36.00020909309387,35.71632790565491,36.01632308959961,dot,"[0.08, 0.06, 0.08, 0.1, 0.1, 0.1, 0.1, 0.06, 0.08]","[[0.5176022259896301, 0.07013652950073157], [0.29073914382076843, 0.49095716113391286], [0.25755010907869064, 0.10321661572421419], [0.11549350267606502, 0.37871636325142816], [-0.040248060121338324, 0.07603447111469516], [0.35733910828644905, -0.07238149579930037], [0.09184169877402729, -0.10424630849328012], [-0.10934901156313583, -0.14911132891814113], [0.4158094160330474, 0.26019999263529187]]",density,black,,,N011,visual,6,[],"['1', '2', '3', '4']",1,2023.2.3,harveyvisual,2.1,[],8,0.75,
0,pause,0.4,None,None,None,0,97,97,97,,,,,,,,,,,,,N011,visual,6,[],"['1', '2', '3', '4']",1,2023.2.3,harveyvisual,2.1,[],8,0.75,
9,dot,0.3,['dot'],['density'],black,0,98,98,98,,,36.70020604133606,36.41629695892334,36.71628999710083,dot,"[0.06, 0.08, 0.1, 0.06, 0.06, 0.1, 0.06, 0.1, 0.1]","[[0.30047334598257713, -0.32583448447642216], [0.4997394081452916, 0.05175273655880906], [0.13646797290608587, 0.02221883094322858], [0.11448241016544139, -0.2117191838414046], [0.417500260412479, 0.2413963184479076], [0.19152536325099656, 0.23172406522327998], [0.5046802385722475, -0.28323005758562664], [-0.037891296982194685, 0.14714919272112825], [0.3292067348064443, -0.0657181274468392]]",density,black,,,N011,visual,6,[],"['1', '2', '3', '4']",1,2023.2.3,harveyvisual,2.1,[],8,0.75,
0,pause,0.4,None,None,None,0,99,99,99,,,,,,,,,,,,,N011,visual,6,[],"['1', '2', '3', '4']",1,2023.2.3,harveyvisual,2.1,[],8,0.75,
9,dot,0.3,['dot'],['density'],white,0,100,100,100,,,37.400224924087524,37.11629390716553,37.41626691818237,dot,"[0.08, 0.08, 0.08, 0.1, 0.1, 0.06, 0.08, 0.1, 0.08]","[[0.005765111513037631, -0.143111035787845], [-0.396275933094447, -0.3321437400526764], [0.037546025436095476, -0.5612590109297682], [-0.23561619682408028, -0.19372599185683617], [-0.24582953746203298, -0.47553838121684505], [-0.07047609790874906, -0.3562711323606942], [-0.09403038697424164, 0.06164574472317626], [0.13577280496850042, -0.3868547356250126], [0.15608206217807025, 0.06264253907795621]]",density,white,,,N011,visual,6,[],"['1', '2', '3', '4']",1,2023.2.3,harveyvisual,2.1,[],8,0.75,
0,pause,0.4,None,None,None,0,101,101,101,,,,,,,,,,,1,37.56751608848572,N011,visual,6,[],"['1', '2', '3', '4']",1,2023.2.3,harveyvisual,2.1,[],8,0.75,
9,dot,0.3,['dot'],['density'],black,0,102,102,102,,,38.100224018096924,37.816279888153076,38.11623287200928,dot,"[0.1, 0.08, 0.06, 0.1, 0.06, 0.06, 0.1, 0.1, 0.06]","[[0.17250841666444466, -0.5173949811024123], [-0.03744062107829021, -0.3895067986023326], [0.30010350549611725, -0.35742528465303014], [0.33064876224298684, -0.08057424749072183], [-0.16743636965090838, -0.09291053242622109], [0.1226827020066543, -0.24711763375004436], [0.047527772487498496, -0.037432207059122605], [0.20928928941955194, 0.09999474740890861], [-0.30040876562534896, -0.42726910911839744]]",density,black,,,N011,visual,6,[],"['1', '2', '3', '4']",1,2023.2.3,harveyvisual,2.1,[],8,0.75,
0,pause,0.4,None,None,None,0,103,103,103,,,,,,,,,,,,,N011,visual,6,[],"['1', '2', '3', '4']",1,2023.2.3,harveyvisual,2.1,[],8,0.75,
9,dot,0.3,['dot'],['density'],black,0,104,104,104,,,38.80023002624512,38.51622700691223,38.816214084625244,dot,"[0.06, 0.06, 0.06, 0.06, 0.08, 0.1, 0.1, 0.08, 0.08]","[[-0.25982930089867384, 0.41046177320377714], [0.2391912210628672, 0.4152301159030731], [-0.011899047454085643, 0.5103750441914148], [0.15826907621474634, 0.20577518054892585], [-0.29033424199965224, 0.2058356795488901], [-0.056026696670660174, 0.08152775180209879], [-0.32571421803823364, -0.002973879155612714], [0.39820859476685, 0.29236875228581105], [-0.06367065787951752, 0.28966088639372295]]",density,black,,,N011,visual,6,[],"['1', '2', '3', '4']",1,2023.2.3,harveyvisual,2.1,[],8,0.75,
0,pause,0.4,None,None,None,0,105,105,105,,,,,,,,,,,,,N011,visual,6,[],"['1', '2', '3', '4']",1,2023.2.3,harveyvisual,2.1,[],8,0.75,
9,dot,0.3,['dot'],['density'],black,0,106,106,106,,,39.50022888183594,39.21622395515442,39.51620888710022,dot,"[0.08, 0.1, 0.06, 0.06, 0.06, 0.08, 0.06, 0.06, 0.06]","[[-0.4219467838066047, -0.18114019941065054], [-0.2081543488995217, -0.4860059455967178], [-0.008274735502094755, -0.3457533902190916], [0.02376323820852766, -0.0891001390581758], [-0.4116277839025775, 0.058108040724694845], [-0.18144554169200455, -0.05292133149533743], [0.21944315682242976, -0.26450239569476724], [0.11466821484809545, 0.13327019789913197], [-0.2288148866166432, -0.2599929378926301]]",density,black,,,N011,visual,6,[],"['1', '2', '3', '4']",1,2023.2.3,harveyvisual,2.1,[],8,0.75,
0,pause,0.4,None,None,None,0,107,107,107,,,,,,,,,,,,,N011,visual,6,[],"['1', '2', '3', '4']",1,2023.2.3,harveyvisual,2.1,[],8,0.75,
20,dot,0.3,['dot'],['density'],black,0,108,108,108,,,40.2002170085907,39.9161958694458,40.216180086135864,dot,"[0.1, 0.08, 0.08, 0.08, 0.08, 0.06, 0.08, 0.08, 0.08, 0.1, 0.08, 0.1, 0.1, 0.08, 0.06, 0.06, 0.08, 0.1, 0.1, 0.1]","[[-0.16758867132277033, -0.37966034495956913], [-0.5551192656905415, 0.17585340035830901], [-0.4157071470274887, 0.030248143930456106], [-0.28139832167719503, -0.1246694439309563], [0.42369975771965296, 0.39449690536829296], [0.4838189167241146, -0.1509312502388717], [-0.22063788868245438, 0.1627521846098854], [0.2031802498467361, -0.3020244243011273], [-0.05900224618428851, 0.04264816344257494], [0.6004563125853853, 0.03199039680294699], [0.09331873857263506, 0.561479611861034], [0.3838873139989055, 0.06741209026502026], [-0.36409599458738784, -0.4078198200821511], [0.4364273418047734, -0.3391431996273634], [0.14502439302840353, 0.047238015377026654], [0.5386008223167654, 0.21824667365938616], [-0.42108901552121936, 0.3942181232984792], [-0.5508759297168792, -0.2186024945441791], [-0.15045207246825187, 0.47323671770780973], [0.032943790153386, -0.16035724950514818]]",density,black,,,N011,visual,6,[],"['1', '2', '3', '4']",1,2023.2.3,harveyvisual,2.1,[],8,0.75,
0,pause,0.4,None,None,None,0,109,109,109,,,,,,,,,,,,,N011,visual,6,[],"['1', '2', '3', '4']",1,2023.2.3,harveyvisual,2.1,[],8,0.75,
20,dot,0.3,['dot'],['density'],black,0,110,110,110,,,40.900224924087524,40.616188049316406,40.916208028793335,dot,"[0.08, 0.1, 0.08, 0.06, 0.06, 0.06, 0.1, 0.1, 0.06, 0.06, 0.06, 0.08, 0.06, 0.1, 0.06, 0.06, 0.06, 0.1, 0.06, 0.08]","[[-0.22819297116528514, 0.40715681168385454], [0.19712003963208558, 0.30445730739999155], [-0.6035678342010803, -0.01980544751385477], [-0.463931825880407, 0.3163043785354131], [-0.24649977623215902, -0.48200453458797543], [0.4933624863450944, -0.04426235962308711], [0.4402865623298001, 0.1505796590933139], [0.35966532614319224, -0.3384218904511135], [0.04082847075477958, -0.5559654818129194], [-0.012124808950386812, 0.49866749555542045], [0.04745895222107854, 0.18056682188677498], [-0.06058547596198738, -0.3001744767661674], [-0.5601294996538935, -0.22732112735832055], [-0.34249357033614947, 0.15667224092488452], [0.15357803918493762, -0.002767114987380137], [0.44200714789679363, 0.3518341715940534], [-0.35929821206329404, -0.043305822432390506], [0.2258728014660789, -0.1847344726367635], [-0.4092736693277604, -0.3758533478630056], [-0.14463877162557598, 0.06138803372601975]]",density,black,,,N011,visual,6,[],"['1', '2', '3', '4']",1,2023.2.3,harveyvisual,2.1,[],8,0.75,
0,pause,0.4,None,None,None,0,111,111,111,,,,,,,,,,,,,N011,visual,6,[],"['1', '2', '3', '4']",1,2023.2.3,harveyvisual,2.1,[],8,0.75,
20,dot,0.3,['dot'],['density'],black,0,112,112,112,,,41.600213050842285,41.31641507148743,41.61642503738403,dot,"[0.06, 0.08, 0.06, 0.08, 0.1, 0.1, 0.08, 0.06, 0.1, 0.08, 0.1, 0.08, 0.08, 0.06, 0.08, 0.1, 0.1, 0.08, 0.08, 0.08]","[[-0.27382982000338935, 0.19100652240725113], [-0.10666679547981783, 0.4319813502679166], [0.43521729672895837, -0.3085045610913011], [0.15342457789903674, 0.33157380657344215], [0.4638434231366092, 0.21557176520762789], [-0.5900579721740086, -0.1273932029756757], [-0.34282476209691093, -0.007855312744803777], [0.5725040651463297, -0.041304158426411275], [-0.4613768263112548, 0.2614722736768461], [-0.04203236627829143, -0.6007814933459872], [0.29462989924244165, -0.44961431742516555], [-0.01185916710278312, 0.18961102901411864], [0.1853328689130016, -0.1697064201951785], [-0.37162894576344163, -0.2145788290500657], [0.37344942065611497, 0.000653384713445837], [-0.5880538351286133, 0.10054758660225899], [-0.13025465902555555, -0.07819313405620887], [-0.11763788923867152, -0.3378268906250791], [-0.3391086726456405, -0.5005220895847248], [0.12057921547636097, 0.02586449380128586]]",density,black,,,N011,visual,6,[],"['1', '2', '3', '4']",1,2023.2.3,harveyvisual,2.1,[],8,0.75,
0,pause,0.4,None,None,None,0,113,113,113,,,,,,,,,,,,,N011,visual,6,[],"['1', '2', '3', '4']",1,2023.2.3,harveyvisual,2.1,[],8,0.75,
20,dot,0.3,['dot'],['density'],white,0,114,114,114,,,42.30020999908447,42.01614308357239,42.3161358833313,dot,"[0.06, 0.08, 0.06, 0.1, 0.08, 0.08, 0.08, 0.1, 0.08, 0.1, 0.06, 0.06, 0.1, 0.06, 0.1, 0.1, 0.06, 0.06, 0.08, 0.06]","[[-0.18537139800036606, -0.37322022146590983], [-0.4896107358580498, -0.04842260592868147], [0.293723977118026, -0.4200201643430438], [-0.18403001507159844, 0.4408015543360897], [-0.23869212540375223, 0.08537042886502533], [0.022606135199092936, 0.34216873713928475], [0.21430806000599523, 0.05384103294025244], [-0.42588896905364826, -0.2384136902753713], [0.561427103396832, 0.0025429131361025814], [-0.09581299402912435, -0.1209847291796104], [0.35865335013670563, -0.22361476288714593], [0.2386970998081891, 0.284334199225581], [-0.5393491922829183, 0.16973612400879828], [-0.3695569801623586, 0.25895716521890083], [0.07923074494428883, -0.44892817157552317], [-0.015598209897268123, 0.12108275271646418], [0.5237940492338856, 0.2822292959498527], [-0.38379981629930915, 0.45317992715246164], [0.0045800665058787216, 0.5502831086118863], [0.2959826070484376, 0.4820755113228258]]",density,white,,,N011,visual,6,[],"['1', '2', '3', '4']",1,2023.2.3,harveyvisual,2.1,[],8,0.75,
0,pause,0.4,None,None,None,0,115,115,115,,,,,,,,,,,1,42.51211500167847,N011,visual,6,[],"['1', '2', '3', '4']",1,2023.2.3,harveyvisual,2.1,[],8,0.75,
20,dot,0.3,['dot'],['density'],black,0,116,116,116,,,43.0002179145813,42.716142892837524,43.016156911849976,dot,"[0.1, 0.08, 0.08, 0.06, 0.08, 0.1, 0.1, 0.1, 0.1, 0.1, 0.08, 0.06, 0.08, 0.08, 0.08, 0.08, 0.08, 0.06, 0.06, 0.08]","[[-0.321827030895523, -0.4639777613732779], [-0.3569974943249361, -0.0070618517229150135], [-0.49605969644146075, -0.2278937087563921], [0.3369411773834152, -0.3842499604590162], [0.42942232686080606, 0.20023282389435065], [-0.33480728790826053, 0.2210594881790774], [0.23205347981852908, -0.049676938401440496], [-0.05693790354615491, 0.3828581604386003], [0.2461088623887303, 0.4479056649484555], [0.5660208794016189, -0.010900515118268894], [-0.10674433150784679, -0.39595311510612624], [0.021848948537618207, -0.0768084300653914], [0.10124103841003018, -0.35464431997007795], [0.5158856632359045, -0.21386952699198558], [-0.5522134169454352, 0.1500839595211993], [-0.2699830600238004, 0.4155969322117421], [-0.03928847723737583, 0.1315332048402339], [0.1322072459098822, -0.5460494759152681], [0.22710220493246192, 0.16715845666435147], [-0.047219945603029556, 0.573159093360305]]",density,black,,,N011,visual,6,[],"['1', '2', '3', '4']",1,2023.2.3,harveyvisual,2.1,[],8,0.75,
0,pause,0.4,None,None,None,0,117,117,117,,,,,,,,,,,,,N011,visual,6,[],"['1', '2', '3', '4']",1,2023.2.3,harveyvisual,2.1,[],8,0.75,
20,dot,0.3,['dot'],['density'],white,0,118,118,118,,,43.70022201538086,43.41616606712341,43.716283082962036,dot,"[0.08, 0.08, 0.08, 0.08, 0.06, 0.08, 0.1, 0.1, 0.06, 0.08, 0.08, 0.1, 0.1, 0.06, 0.08, 0.1, 0.08, 0.1, 0.08, 0.08]","[[-0.4670963145965086, -0.19991123720892837], [0.0746044491242126, 0.3337840008629719], [0.1339298337689131, 0.5215761352712881], [0.5760149680587338, -0.017051548298371078], [-0.023470359461405077, -0.14965870167006456], [-0.2398149373358383, 0.3779323603849326], [0.24254275951091597, -0.27313386867745887], [-0.05401992019074131, 0.1531613065711127], [-0.21863547178781922, -0.08764886678018874], [0.2679918605257591, 0.18351496369956677], [-0.5586154545951807, 0.07774106260938621], [-0.1882398979571408, -0.5094461213813415], [0.3857946458124075, -0.09387783565106184], [-0.4375338930077576, 0.35148110613069056], [0.49880773926536237, 0.20007548995079377], [0.45536062132729216, 0.39793803763501534], [-0.3532794550717434, 0.05463405883469974], [0.5109409999680451, -0.24498828985012044], [-0.07598404460806629, 0.5926624481618304], [0.07121749487651052, -0.38524588131028215]]",density,white,,,N011,visual,6,[],"['1', '2', '3', '4']",1,2023.2.3,harveyvisual,2.1,[],8,0.75,
0,pause,0.4,None,None,None,0,119,119,119,,,,,,,,,,,1,43.848275899887085,N011,visual,6,[],"['1', '2', '3', '4']",1,2023.2.3,harveyvisual,2.1,[],8,0.75,
20,dot,0.3,['dot'],['density'],black,0,120,120,120,,,44.400213956832886,44.11624193191528,44.416271924972534,dot,"[0.06, 0.06, 0.1, 0.1, 0.06, 0.1, 0.08, 0.1, 0.06, 0.1, 0.08, 0.06, 0.1, 0.06, 0.06, 0.08, 0.08, 0.1, 0.1, 0.06]","[[-0.34175358909739784, -0.07971067767469914], [-0.08332746456353013, -0.4359976008284793], [0.23818443608503215, -0.017140137916398568], [0.20218884817808325, 0.5479454935613742], [0.48234989341851564, 0.056876236163934835], [0.48881422100539995, -0.17239305055738324], [-0.5870302800460964, 0.007190129099538173], [-0.20084827146555567, 0.19246364635413427], [0.04990725950778285, 0.18360272557216617], [0.2572839092528716, 0.1821553999292651], [-0.013842089231914101, 0.526048049734087], [-0.010326859616426765, -0.15237018943673464], [0.24943477326174934, -0.46494650753162886], [-0.43668518676427853, -0.37276218679460915], [0.3948818446390917, 0.39636022406266364], [0.536717811513081, 0.2693872921742598], [-0.22713047191292474, 0.4137079815420158], [-0.3842486292353534, 0.24000776298072762], [-0.13156856640148656, -0.005496351168453595], [0.08077389749796915, -0.5976023054404636]]",density,black,,,N011,visual,6,[],"['1', '2', '3', '4']",1,2023.2.3,harveyvisual,2.1,[],8,0.75,
0,pause,0.4,None,None,None,0,121,121,121,,,,,,,,,,,,,N011,visual,6,[],"['1', '2', '3', '4']",1,2023.2.3,harveyvisual,2.1,[],8,0.75,
20,dot,0.3,['dot'],['density'],black,0,122,122,122,,,45.100229024887085,44.816062927246094,45.11606287956238,dot,"[0.06, 0.08, 0.06, 0.06, 0.08, 0.06, 0.1, 0.06, 0.1, 0.08, 0.08, 0.06, 0.1, 0.06, 0.06, 0.08, 0.08, 0.06, 0.08, 0.1]","[[0.17813573934652804, 0.5295343632777201], [-0.12981847973559218, 0.3146159870090862], [-0.5216294394955279, -0.2913837328144379], [0.4594161018444557, 0.2773764478525407], [0.0119312108710381, -0.2421740509512993], [-0.2043328800437697, -0.13015359012520616], [0.5816974874502844, 0.10788484818423469], [0.1127908589815293, 0.1533059028346], [-0.5440169419610685, 0.021389666179475464], [0.34649641060725256, -0.3586085543324325], [0.4620293954301439, -0.05182790693789596], [-0.18715404448702405, 0.5134668893451033], [-0.4072142540401108, 0.29842381710402954], [0.5139163959996181, -0.25825627488893527], [0.22142324990858253, 0.3122525831146393], [0.22451210174405567, -0.13893212857245268], [-0.08439612282147557, -0.5742966611034777], [0.14212563161072678, -0.45266245555761986], [-0.25880542636303316, -0.38395548338159813], [-0.24669587901538942, 0.12176934330209743]]",density,black,,,N011,visual,6,[],"['1', '2', '3', '4']",1,2023.2.3,harveyvisual,2.1,[],8,0.75,
0,pause,0.4,None,None,None,0,123,123,123,,,,,,,,,,,,,N011,visual,6,[],"['1', '2', '3', '4']",1,2023.2.3,harveyvisual,2.1,[],8,0.75,
20,dot,0.3,['dot'],['density'],black,0,124,124,124,,,45.800211906433105,45.516098976135254,45.81623387336731,dot,"[0.1, 0.1, 0.06, 0.08, 0.06, 0.06, 0.08, 0.1, 0.06, 0.1, 0.1, 0.08, 0.06, 0.1, 0.08, 0.08, 0.1, 0.08, 0.1, 0.1]","[[0.3005981626220602, -0.4972801282475343], [0.42265239659376064, -0.2824308001734691], [-0.02130870457815648, 0.5077661370970662], [0.16040528535341136, -0.20572347048893386], [-0.22079646679656595, 0.19161443024516078], [-0.27786283232804787, -0.5030681110276846], [-0.4995946524346659, 0.15942586471914139], [0.4109543626585693, 0.27115367986711214], [0.3099309795860923, 0.5099220856949176], [-0.41489701534316875, -0.26719548633079604], [-0.26979432245125595, 0.5089046855932197], [0.2689909604028622, 0.062291740419608055], [-0.03750204279017377, -0.4356992032497095], [-0.2358116312651587, -0.04046414526423847], [0.5981527441629592, 0.05531321483016026], [-0.012165089857199218, 0.06588962263773424], [0.4389905519676919, -0.06728364685947563], [0.11084355337073548, 0.25319511194342803], [-0.5793819012397818, -0.037829653326645396], [-0.4363453276478363, 0.34253313441222577]]",density,black,,,N011,visual,6,[],"['1', '2', '3', '4']",1,2023.2.3,harveyvisual,2.1,[],8,0.75,
0,pause,0.4,None,None,None,0,125,125,125,,,,,,,,,,,,,N011,visual,6,[],"['1', '2', '3', '4']",1,2023.2.3,harveyvisual,2.1,[],8,0.75,
20,dot,0.3,['dot'],['density'],black,0,126,126,126,,,46.500218868255615,46.21619009971619,46.51618504524231,dot,"[0.06, 0.08, 0.08, 0.06, 0.1, 0.1, 0.06, 0.1, 0.08, 0.08, 0.08, 0.1, 0.1, 0.06, 0.06, 0.1, 0.1, 0.08, 0.06, 0.1]","[[0.4453607097308899, -0.2637368959588058], [-0.3743324438455644, -0.3837791700864473], [-0.06822433824330343, -0.5774588737612666], [0.4552456489710571, 0.3369326257787854], [-0.17697561165374842, -0.28169159298583496], [0.5269145435206996, -0.006075467236946963], [-0.5559948464833644, -0.022122767242624186], [0.18459180644556905, 0.421980390514318], [0.0973664315778533, -0.4209810726349891], [0.3552373924634239, 0.13691905732838627], [-0.30559943288203856, 0.4870230494196348], [-0.29007266621608113, 0.21442886663398997], [-0.03506027717516125, 0.12164172068208778], [-0.014886841262371497, 0.5365099409773278], [-0.3675729054151883, 0.02672149948181607], [0.2618791206528297, -0.17696546294096643], [-0.35491675574970705, -0.18341281984714236], [-0.5566696058995264, 0.22234904038952572], [0.3174164809725497, -0.513131772647124], [-0.011853616226977226, -0.06987680838558796]]",density,black,,,N011,visual,6,[],"['1', '2', '3', '4']",1,2023.2.3,harveyvisual,2.1,[],8,0.75,
0,pause,0.4,None,None,None,0,127,127,127,,,,,,,,,,,,,N011,visual,6,[],"['1', '2', '3', '4']",1,2023.2.3,harveyvisual,2.1,[],8,0.75,
20,dot,0.3,['dot'],['density'],black,0,128,128,128,,,47.20022392272949,46.91618299484253,47.216166973114014,dot,"[0.08, 0.08, 0.06, 0.06, 0.1, 0.1, 0.08, 0.08, 0.06, 0.06, 0.1, 0.06, 0.1, 0.08, 0.08, 0.1, 0.08, 0.08, 0.08, 0.1]","[[-0.21133300626495655, 0.09461135894408934], [-0.39883491820913297, -0.09440362769954519], [0.19800935925932794, -0.0648999992171907], [0.02625591886522749, 0.4545587968311492], [0.4332109993437484, -0.15299155894691924], [0.5262578834418586, 0.03311700282045005], [0.315138934375077, 0.4575352574870267], [0.18664337239293294, 0.26822233157393294], [0.06536295466740527, -0.37726771695234174], [0.49598633204539466, 0.258578975009623], [-0.28203938228084985, -0.3722017544455326], [-0.5098815994291606, 0.08182912492274658], [0.1912255363826787, -0.5221570291964409], [-0.3409359075685922, 0.4912778916227962], [0.042906359437830055, 0.0897842560767732], [-0.10422061462413557, -0.5755960387407935], [-0.19209527501872303, -0.15079042315853186], [-0.2181500851996372, 0.29208364866451797], [0.3386090047940896, -0.3544310969215046], [-0.4915268702917809, 0.3102891940767094]]",density,black,,,N011,visual,6,[],"['1', '2', '3', '4']",1,2023.2.3,harveyvisual,2.1,[],8,0.75,
0,pause,0.4,None,None,None,0,129,129,129,,,,,,,,,,,,,N011,visual,6,[],"['1', '2', '3', '4']",1,2023.2.3,harveyvisual,2.1,[],8,0.75,
20,dot,0.3,['dot'],['density'],black,0,130,130,130,,,47.900229930877686,47.616162061691284,47.916136026382446,dot,"[0.08, 0.08, 0.1, 0.08, 0.1, 0.06, 0.08, 0.1, 0.1, 0.08, 0.08, 0.1, 0.1, 0.06, 0.1, 0.1, 0.06, 0.1, 0.06, 0.06]","[[0.2355469419084648, -0.2177532464056921], [-0.1574063975243204, 0.36006374237669014], [0.37096518199106343, -0.023868709810345223], [0.4998252274027791, 0.13437662417234297], [-0.21712126701241485, -0.44845602596296424], [-0.5426902197626593, 0.05796904058191893], [-0.3128244424561637, 0.4867143315112582], [-0.015102486688586492, -0.05232411999349729], [0.1528176716557169, -0.5207674323770742], [0.17998237603461043, 0.2935738938253145], [0.6014671873668261, -0.06334227095565129], [-0.2553900855080339, 0.12524370233811455], [0.14157320880902102, 0.061293751487829784], [0.3734605636612083, -0.38408998128384975], [0.3602318161522289, 0.44100613311514947], [-0.3521069789366876, -0.22333147311184154], [-0.5585634375360499, -0.13518647877286655], [0.05847241371530787, 0.5096625650510503], [-0.3857236066484978, 0.26653924832881165], [-0.1706660007328435, -0.16562345160446523]]",density,black,,,N011,visual,6,[],"['1', '2', '3', '4']",1,2023.2.3,harveyvisual,2.1,[],8,0.75,
0,pause,0.4,None,None,None,0,131,131,131,,,,,,,,,,,,,N011,visual,6,[],"['1', '2', '3', '4']",1,2023.2.3,harveyvisual,2.1,[],8,0.75,
20,dot,0.3,['dot'],['density'],black,0,132,132,132,,,48.60021090507507,48.31602191925049,48.615988969802856,dot,"[0.08, 0.1, 0.08, 0.1, 0.08, 0.08, 0.1, 0.1, 0.06, 0.1, 0.06, 0.06, 0.08, 0.1, 0.1, 0.1, 0.1, 0.06, 0.06, 0.06]","[[-0.22357748315062398, 0.009418254103715218], [0.3974214333398606, 0.045375890997366], [0.5039411433389133, 0.2255611336102365], [-0.438735284304135, -0.17426392902060778], [-0.19412778912275552, -0.2877438760436404], [0.20851003686934555, 0.31770526895966156], [-0.21075620144811352, 0.5362559529228302], [-0.08559064760850832, -0.44612142502033103], [0.45139259807023147, -0.36549151293506216], [-0.13876057928026297, 0.3602719874815705], [-0.34401477700643524, 0.3483055269811568], [0.09250821799521358, -0.3362951104694305], [0.6022528596141893, -0.0063211203691622975], [-0.4719412180538535, 0.053339194046396754], [0.05923866139226053, 0.5776595694745812], [0.2698704003074174, -0.0972841766874501], [0.03501005069591978, 0.09745032808489018], [0.019498614881464316, -0.09251382929876195], [-0.4154480098205279, -0.42850783124183567], [0.24415409586869274, -0.5292448862700351]]",density,black,,,N011,visual,6,[],"['1', '2', '3', '4']",1,2023.2.3,harveyvisual,2.1,[],8,0.75,
0,pause,0.4,None,None,None,0,133,133,133,,,,,,,,,,,,,N011,visual,6,[],"['1', '2', '3', '4']",1,2023.2.3,harveyvisual,2.1,[],8,0.75,
20,dot,0.3,['dot'],['density'],black,0,134,134,134,,,49.30022692680359,49.01611399650574,49.31611108779907,dot,"[0.1, 0.08, 0.1, 0.06, 0.08, 0.06, 0.1, 0.1, 0.1, 0.08, 0.08, 0.08, 0.06, 0.06, 0.1, 0.08, 0.06, 0.08, 0.1, 0.06]","[[0.4818994815887393, 0.34074893710422816], [0.5159612448838168, -0.18456631208600202], [0.28657640650693983, -0.3543487708278197], [0.09189641790298952, -0.31811093594142187], [-0.5504432894539318, 0.12764831787542313], [-0.28129375216380686, 0.48713721432157864], [-0.5146483649030383, -0.2770061911639781], [-0.2495695944841712, 0.08733449072231203], [-0.18463990524239565, -0.2089444156264475], [0.5313324729357595, 0.14647890423995347], [0.12316227054675555, -0.5336781614111142], [0.12220296775034545, 0.2069897559733479], [-0.19846937585466357, 0.30231753328945266], [0.25737299852173967, -0.031001423039352716], [0.19576978299029335, 0.4043180583099616], [-0.46931949727713357, 0.31806772226083924], [-0.33042416888893167, -0.5033106616804219], [-0.10040705033954767, -0.38768389313527724], [-0.37062962506994396, -0.08216647848444958], [-0.08838343648404912, 0.5426396540403902]]",density,black,,,N011,visual,6,[],"['1', '2', '3', '4']",1,2023.2.3,harveyvisual,2.1,[],8,0.75,
0,pause,0.4,None,None,None,0,135,135,135,,,,,,,,,,,,,N011,visual,6,[],"['1', '2', '3', '4']",1,2023.2.3,harveyvisual,2.1,[],8,0.75,
20,dot,0.3,['dot'],['density'],white,0,136,136,136,,,50.00020790100098,49.715977907180786,50.0159649848938,dot,"[0.08, 0.08, 0.1, 0.08, 0.08, 0.1, 0.08, 0.08, 0.06, 0.08, 0.06, 0.06, 0.06, 0.08, 0.06, 0.08, 0.08, 0.06, 0.08, 0.06]","[[-0.4700500928857676, -0.24146171830351695], [-0.464428553142606, 0.026470249550968494], [-0.46595127031141836, 0.3832519262218257], [0.1618234038523202, -0.5289209161206789], [0.3538013749389892, -0.2670857945287167], [-0.10810915085082712, 0.40759477705389713], [-0.022598739606287332, -0.5732457234619138], [0.18345765866160169, -0.16156917720449798], [0.2501316840658415, 0.04000392927977692], [0.033688067479153094, 0.09722649097765601], [-0.25023490134106957, -0.028874676230976615], [0.5395450111070547, 0.11245469455072493], [0.5979749209960065, -0.08037035062498317], [-0.06393369359413115, -0.1745562441379398], [0.3379775723313033, 0.2833722859528941], [-0.28790153160981985, -0.3551010995184041], [-0.047055564970906794, -0.3664577799913583], [0.37125921844071363, -0.4684622725817413], [-0.27841279053152684, 0.27053756343020874], [0.2531745869620078, 0.5223450086338084]]",density,white,,,N011,visual,6,[],"['1', '2', '3', '4']",1,2023.2.3,harveyvisual,2.1,[],8,0.75,
0,pause,0.4,None,None,None,0,137,137,137,,,,,,,,,,,1,50.15204691886902,N011,visual,6,[],"['1', '2', '3', '4']",1,2023.2.3,harveyvisual,2.1,[],8,0.75,
20,dot,0.3,['dot'],['density'],black,0,138,138,138,,,50.70021605491638,50.41591000556946,50.71590209007263,dot,"[0.06, 0.06, 0.1, 0.08, 0.06, 0.06, 0.06, 0.1, 0.06, 0.06, 0.06, 0.06, 0.1, 0.06, 0.08, 0.1, 0.08, 0.08, 0.1, 0.08]","[[-0.42361258686361136, 0.052156930996710316], [0.46126467376022806, 0.3784646061271033], [-0.17818036333433063, -0.27404090546801124], [0.006958326714676111, -0.2020650388339496], [-0.5943243078487752, -0.09579449698497933], [-0.07125150348679687, 0.26633601413569385], [0.3633823207746212, 0.21450550083929892], [-0.3434882180098354, 0.45529694486355676], [0.26319837115620803, -0.3332106832128476], [0.5602198816223621, -0.024633810816327012], [0.1107480399185854, 0.471392377338439], [0.35031042649578514, -0.12046545602884012], [-0.4939186528106312, 0.3003371924858402], [0.5137028087961065, -0.2573416625165962], [-0.13765645753596423, 0.5159575523538623], [-0.06806065253940985, 0.050253471037223774], [0.1679166145426103, -0.011840340235075741], [-0.04900949922482445, -0.4747013663007672], [-0.37461663288339386, -0.21057821299088025], [0.15264891171451267, -0.5332869854281186]]",density,black,,,N011,visual,6,[],"['1', '2', '3', '4']",1,2023.2.3,harveyvisual,2.1,[],8,0.75,
0,pause,0.4,None,None,None,0,139,139,139,,,,,,,,,,,,,N011,visual,6,[],"['1', '2', '3', '4']",1,2023.2.3,harveyvisual,2.1,[],8,0.75,
20,dot,0.3,['dot'],['density'],black,0,140,140,140,,,51.40023398399353,51.11592698097229,51.41591191291809,dot,"[0.08, 0.06, 0.06, 0.08, 0.1, 0.08, 0.06, 0.06, 0.06, 0.06, 0.06, 0.1, 0.1, 0.06, 0.1, 0.06, 0.08, 0.1, 0.08, 0.08]","[[0.34206992604782804, -0.08765893333986302], [-0.09455603795538026, -0.3391653413315293], [-0.5112601944002014, -0.24429134266703526], [-0.453565441610539, 0.30376754379240917], [-0.3554188253499243, -0.12459547645432406], [0.07300335656634116, 0.041986598357363625], [0.3273965747061719, -0.3814938827634846], [0.2306609752181662, 0.44831032806604876], [0.05874032130751394, -0.47081012102533987], [0.10114342212174443, -0.24652315857250712], [-0.04223271501345849, 0.45957284896087947], [0.5331137280442059, -0.09209180890289845], [0.2998027898152764, 0.1278441694386474], [-0.5910133236193197, 0.04678103863348704], [-0.2737253479557429, -0.4996663815712662], [-0.1962039995487136, 0.0010919466843944958], [-0.19554429015164593, 0.23549346771712143], [0.507771783366347, 0.31262500437195645], [0.5112202653174799, 0.10992966055221243], [-0.40130251638960013, 0.07904044288605011]]",density,black,,,N011,visual,6,[],"['1', '2', '3', '4']",1,2023.2.3,harveyvisual,2.1,[],8,0.75,
0,pause,0.4,None,None,None,0,141,141,141,,,,,,,,,,,,,N011,visual,6,[],"['1', '2', '3', '4']",1,2023.2.3,harveyvisual,2.1,[],8,0.75,
20,dot,0.3,['dot'],['density'],white,0,142,142,142,,,52.10023498535156,51.81588792800903,52.11590003967285,dot,"[0.08, 0.1, 0.08, 0.08, 0.06, 0.06, 0.08, 0.1, 0.1, 0.08, 0.1, 0.1, 0.06, 0.06, 0.1, 0.06, 0.08, 0.08, 0.1, 0.06]","[[-0.2842151773353308, 0.1400749105379312], [0.4952582442182417, 0.16517845850913465], [-0.5669789828630543, -0.0789908695007796], [-0.4822745572507694, 0.35549880585546484], [0.14785384356365472, -0.12711314008468816], [0.15596391439170543, 0.10476816560626223], [-0.20471272439497035, -0.5019421435460758], [-0.5886610567229973, 0.13104394697626742], [-0.06494751250332009, 0.5401416966295106], [0.4041451673673625, -0.4453819253957801], [-0.007740764420344326, -0.3424108298003693], [-0.04778915131338923, -0.09299619583862062], [-0.2308256237913045, -0.3079830109423122], [0.14702595131687324, 0.36201109393533426], [0.5834522327155897, -0.09894990293049051], [0.40367580486026255, 0.41580862986953687], [0.4051410907539291, -0.18084573115283825], [-0.43174885052165546, -0.3571954061809223], [0.2525888440070685, -0.31507436447400156], [-0.188198335317186, 0.31529393120117666]]",density,white,,,N011,visual,6,[],"['1', '2', '3', '4']",1,2023.2.3,harveyvisual,2.1,[],8,0.75,
0,pause,0.4,None,None,None,0,143,143,143,,,,,,,,,,,1,52.26931190490723,N011,visual,6,[],"['1', '2', '3', '4']",1,2023.2.3,harveyvisual,2.1,[],8,0.75,
20,dot,0.3,['dot'],['density'],black,0,144,144,144,,,52.80020809173584,52.51591086387634,52.815922021865845,dot,"[0.06, 0.08, 0.06, 0.08, 0.08, 0.08, 0.06, 0.1, 0.08, 0.06, 0.08, 0.08, 0.1, 0.08, 0.1, 0.08, 0.08, 0.08, 0.08, 0.06]","[[-0.43248535961708995, -0.24140319876156766], [0.5415385784518246, -0.15390293945285827], [0.5262602476916011, 0.14397083865261923], [0.1405756395424237, 0.23945024805546378], [-0.30021500519728955, 0.18378626323094227], [0.3801740997572014, 0.30491328064439216], [0.18609712874530593, 0.44052584498009273], [-0.03107771578187213, -0.5332381665065855], [0.1701660787856768, -0.03107340657390356], [-0.25481503643825526, -0.46486577733046397], [0.3392472863061239, -0.12704181601266606], [-0.5913183901708969, 0.028495492236542325], [-0.5045061867057566, 0.29649093075533256], [-0.2226345937571556, -0.12951714838608352], [-0.10244174474974999, 0.42411988011025614], [-0.1220288872583416, 0.10324901489785787], [0.09018680325073059, -0.2837621377727132], [0.2737735806801156, -0.5015341097261559], [0.0016352361520208802, 0.5932899332755611], [0.33396770015793376, 0.11465456863256385]]",density,black,,,N011,visual,6,[],"['1', '2', '3', '4']",1,2023.2.3,harveyvisual,2.1,[],8,0.75,
0,pause,0.4,None,None,None,0,145,145,145,,,,,,,,,,,,,N011,visual,6,[],"['1', '2', '3', '4']",1,2023.2.3,harveyvisual,2.1,[],8,0.75,
20,dot,0.3,['dot'],['density'],black,0,146,146,146,,,53.50023102760315,53.215916872024536,53.51585793495178,dot,"[0.1, 0.1, 0.1, 0.08, 0.1, 0.06, 0.1, 0.06, 0.1, 0.1, 0.06, 0.06, 0.1, 0.08, 0.06, 0.08, 0.08, 0.06, 0.06, 0.06]","[[-0.35915846424250625, 0.3822841501457287], [-0.4131193500967084, 0.1131798182505413], [-0.2089853327409526, -0.3598435689861006], [0.5630374986830414, 0.05714703362388596], [0.36897236940651146, -0.21436879921794327], [-0.21618969214022227, 0.22870617921256775], [-0.08376154192271024, -0.157862579929004], [0.16537680161053225, 0.26086880338363283], [0.07986242851157932, 0.049733050641209475], [0.1339722463286136, 0.5078579581774092], [0.3380564304547339, 0.055791265181336036], [0.13424681187538412, -0.4311803162439934], [-0.47500762444631905, -0.32982844356272695], [0.44771751554075523, 0.33593691205870235], [-0.21559953431284118, 0.004857836572404239], [-0.04150955531284184, -0.5514286982668458], [-0.5632853589650333, -0.13552453036181678], [-0.18517265128792038, 0.4639350366918008], [0.12097791286115445, -0.2293621742622694], [0.45775926281703494, -0.3836126230507097]]",density,black,,,N011,visual,6,[],"['1', '2', '3', '4']",1,2023.2.3,harveyvisual,2.1,[],8,0.75,
0,pause,0.4,None,None,None,0,147,147,147,,,,,,,,,,,,,N011,visual,6,[],"['1', '2', '3', '4']",1,2023.2.3,harveyvisual,2.1,[],8,0.75,
20,dot,0.3,['dot'],['density'],black,0,148,148,148,,,54.2002329826355,53.91590189933777,54.21588587760925,dot,"[0.1, 0.08, 0.1, 0.1, 0.06, 0.1, 0.1, 0.1, 0.1, 0.1, 0.06, 0.06, 0.08, 0.08, 0.06, 0.1, 0.08, 0.08, 0.06, 0.08]","[[-0.2862437030143417, 0.41701649429632826], [0.36560897778019585, -0.45495664614571013], [-0.11532922831907405, 0.11873840560044513], [-0.5897515531364617, 0.06290034924290266], [0.11854279826298264, -0.5125643620136633], [-0.4117600649091555, 0.26673065326417056], [-0.42489859802659, -0.3997878324975108], [0.211453641585287, -0.22494016777022885], [0.482367967569321, -0.23621439068407815], [0.005703068214363949, -0.35125651609385655], [0.4872103667870996, 0.005561276246739855], [-0.07406297905987425, 0.3722943225161315], [0.45100114807986846, 0.2537068115967155], [-0.27694981600203233, -0.27115738247547433], [0.33268959910929585, 0.4792785766906581], [-0.049828749199562705, 0.5863155962115658], [0.24545828222091437, 0.035732337452612395], [-0.37613778576029566, 0.004892097210279389], [-0.4863836909083221, -0.18739734741645056], [-0.2055367590081701, -0.0938053839233649]]",density,black,,,N011,visual,6,[],"['1', '2', '3', '4']",1,2023.2.3,harveyvisual,2.1,[],8,0.75,
0,pause,0.4,None,None,None,0,149,149,149,,,,,,,,,,,,,N011,visual,6,[],"['1', '2', '3', '4']",1,2023.2.3,harveyvisual,2.1,[],8,0.75,
20,dot,0.3,['dot'],['density'],black,0,150,150,150,,,54.90021991729736,54.61598205566406,54.915958881378174,dot,"[0.06, 0.1, 0.08, 0.06, 0.1, 0.1, 0.1, 0.06, 0.06, 0.06, 0.1, 0.08, 0.06, 0.1, 0.1, 0.06, 0.1, 0.06, 0.08, 0.08]","[[0.2152814702010687, -0.03199172153884877], [0.4846965472553727, 0.028612774214086478], [-0.5659280918857323, -0.07338851136240807], [-0.4577153948587741, 0.28834562648163414], [-0.3772637997865418, -0.2738265386766966], [0.1940200688001792, 0.4764066503954859], [0.09945408645398235, -0.3784606242551796], [0.03083140364483261, 0.5853561180638264], [-0.33303531003086845, 0.0087465843321749], [0.4973270841916332, 0.31079083667798807], [-0.2659976673084912, 0.24105341094238864], [0.42424614840474006, -0.16939028452802768], [0.018640139754707463, 0.09155640138258492], [0.4158749092574462, -0.3955240807825273], [0.061571322319878274, -0.1797439440299431], [-0.1672530847402917, -0.3235313257976827], [-0.05473002247715364, -0.5662707360169225], [-0.21488591733768042, 0.4989627570612245], [-0.3274297132655319, -0.5036013471727053], [0.29950423693942463, 0.306977331950389]]",density,black,,,N011,visual,6,[],"['1', '2', '3', '4']",1,2023.2.3,harveyvisual,2.1,[],8,0.75,
0,pause,0.4,None,None,None,0,151,151,151,,,,,,,,,,,,,N011,visual,6,[],"['1', '2', '3', '4']",1,2023.2.3,harveyvisual,2.1,[],8,0.75,
20,dot,0.3,['dot'],['density'],black,0,152,152,152,,,55.60024404525757,55.31579899787903,55.61594104766846,dot,"[0.08, 0.08, 0.1, 0.06, 0.1, 0.08, 0.08, 0.1, 0.1, 0.08, 0.06, 0.1, 0.08, 0.08, 0.08, 0.06, 0.06, 0.08, 0.06, 0.08]","[[-0.5329410596812452, -0.09178603084354092], [-0.2904362352649257, -0.09508457782948532], [0.21980781657258186, 0.3875101574000429], [0.49237548423091415, -0.12787913239513296], [-0.32345110662448445, 0.5107211224063641], [-0.524649684731906, 0.25764679601036505], [0.09907162521205848, -0.3787768123574403], [0.2572115103305862, -0.24493289615560898], [0.4461832673747971, 0.2226837873776692], [-0.4126073420919169, -0.41188994601723633], [-0.033794154190822545, -0.09036529444648533], [0.5985453310436527, 0.08386192885715826], [0.2223982280943283, -0.008245725839289952], [0.4375263051424426, -0.3654408305875399], [-0.24796641017859572, 0.29365522970310265], [-0.1725071115970644, -0.3745366561469299], [-0.10492053992962802, 0.5763050308819501], [0.02624771092522249, 0.35895404677634235], [0.012214339466339985, 0.14367111395845977], [0.11305638713668797, 0.5922827908436192]]",density,black,,,N011,visual,6,[],"['1', '2', '3', '4']",1,2023.2.3,harveyvisual,2.1,[],8,0.75,
0,pause,0.4,None,None,None,0,153,153,153,,,,,,,,,,,,,N011,visual,6,[],"['1', '2', '3', '4']",1,2023.2.3,harveyvisual,2.1,[],8,0.75,
20,dot,0.3,['dot'],['density'],white,0,154,154,154,,,56.30022406578064,56.01594591140747,56.3157958984375,dot,"[0.06, 0.06, 0.1, 0.08, 0.06, 0.06, 0.1, 0.1, 0.08, 0.08, 0.08, 0.08, 0.06, 0.1, 0.06, 0.08, 0.08, 0.1, 0.06, 0.1]","[[0.06625591511315732, -0.18069810154132138], [-0.09974701041790512, 0.5953477813023169], [-0.5460902675328922, -0.19838371126511162], [0.05415799689602763, 0.25150051679185736], [-0.3918686034819767, 0.2511606899117071], [0.03554376656503244, 0.054746494725096295], [0.48708084965934206, 0.00945230855165019], [-0.13621829870179286, -0.26423248654746656], [0.3663012196817391, 0.33493648869130127], [0.27731318596344323, 0.09291987264202883], [0.5323588150668971, -0.2738753609400473], [-0.18907280355241157, 0.053708236177950175], [-0.21527823216646996, -0.48018487301804924], [-0.3475267281412463, -0.2525921981079349], [0.06319954413926654, -0.5797156342592359], [0.12471775347249092, 0.5720145805947355], [-0.5777836992539369, 0.15895576346283546], [0.3319003777261347, -0.27468134732512306], [-0.4120589685850029, -0.03045224982624295], [-0.1997308113607681, 0.39424593867494717]]",density,white,,,N011,visual,6,[],"['1', '2', '3', '4']",1,2023.2.3,harveyvisual,2.1,[],8,0.75,
0,pause,0.4,None,None,None,0,155,155,155,,,,,,,,,,,1,56.39908194541931,N011,visual,6,[],"['1', '2', '3', '4']",1,2023.2.3,harveyvisual,2.1,[],8,0.75,
9,dot,0.3,['dot'],['density'],black,0,156,156,156,,,57.0002338886261,56.715933084487915,57.01580190658569,dot,"[0.08, 0.08, 0.1, 0.06, 0.1, 0.1, 0.1, 0.08, 0.08]","[[-0.5242180236495622, 0.2097960018926228], [-0.2671382220306689, 0.3003190330968159], [-0.06183693718886379, 0.22592490829479475], [-0.2001015593906042, -0.14641750634996328], [-0.09246193223873551, 0.43765994221656135], [-0.29330373087767303, 0.05285487614136386], [0.007094383220706952, 0.008748553761596398], [0.1465325421295601, 0.294910430799518], [0.04425292235957525, -0.2230758375085622]]",density,black,,,N011,visual,6,[],"['1', '2', '3', '4']",1,2023.2.3,harveyvisual,2.1,[],8,0.75,
0,pause,0.4,None,None,None,0,157,157,157,,,,,,,,,,,,,N011,visual,6,[],"['1', '2', '3', '4']",1,2023.2.3,harveyvisual,2.1,[],8,0.75,
9,dot,0.3,['dot'],['density'],black,0,158,158,158,,,57.70021986961365,57.41576290130615,57.7159059047699,dot,"[0.08, 0.08, 0.08, 0.1, 0.08, 0.1, 0.1, 0.08, 0.06]","[[0.23250081832313607, -0.03448075506690146], [0.3034476098774822, 0.1830296703973891], [-0.18904104685434053, 0.18833284185042862], [0.2553794676357457, 0.5314352583170906], [0.16363099535363254, 0.3461022642192175], [-0.0841935017478271, 0.3664174397160571], [-0.26748786402911323, -0.05736109653727262], [0.043842773669028334, 0.577246673499167], [0.02102957219118283, 0.0979254794926055]]",density,black,,,N011,visual,6,[],"['1', '2', '3', '4']",1,2023.2.3,harveyvisual,2.1,[],8,0.75,
0,pause,0.4,None,None,None,0,159,159,159,,,,,,,,,,,,,N011,visual,6,[],"['1', '2', '3', '4']",1,2023.2.3,harveyvisual,2.1,[],8,0.75,
9,dot,0.3,['dot'],['density'],black,0,160,160,160,,,58.40023398399353,58.115906953811646,58.4157600402832,dot,"[0.06, 0.08, 0.08, 0.08, 0.1, 0.08, 0.08, 0.06, 0.1]","[[0.019793807854907846, -0.43234396454466956], [-0.19026732246162045, -0.30921043426246514], [0.04019268118281429, 0.04496242893187172], [-0.3995051790572048, -0.35321755636659735], [-0.3855517065125252, -0.10705750392277943], [0.08372722599267078, -0.1679482296571974], [0.2622756688563642, -0.3928589043728353], [-0.14305193053609555, -0.047108980659819465], [-0.27076529918092873, 0.10825753519043561]]",density,black,,,N011,visual,6,[],"['1', '2', '3', '4']",1,2023.2.3,harveyvisual,2.1,[],8,0.75,
0,pause,0.4,None,None,None,0,161,161,161,,,,,,,,,,,,,N011,visual,6,[],"['1', '2', '3', '4']",1,2023.2.3,harveyvisual,2.1,[],8,0.75,
9,dot,0.3,['dot'],['density'],black,0,162,162,162,,,59.10022592544556,58.81572508811951,59.11571407318115,dot,"[0.08, 0.08, 0.06, 0.08, 0.06, 0.08, 0.08, 0.06, 0.06]","[[-0.15654783233563613, 0.5456880468186037], [-0.24757731968740795, 0.34117179271889175], [0.237608115185398, 0.5379153628426676], [0.0469559873873498, 0.0609843963705915], [0.17872629641391088, 0.30721368784738284], [-0.014663874177430473, 0.385293302856951], [-0.1034840675008618, 0.1993866575147459], [0.37552485507684036, 0.26074226948317425], [-0.1631567374159006, -0.0021534685146951615]]",density,black,,,N011,visual,6,[],"['1', '2', '3', '4']",1,2023.2.3,harveyvisual,2.1,[],8,0.75,
0,pause,0.4,None,None,None,0,163,163,163,,,,,,,,,,,,,N011,visual,6,[],"['1', '2', '3', '4']",1,2023.2.3,harveyvisual,2.1,[],8,0.75,
9,dot,0.3,['dot'],['density'],white,0,164,164,164,,,59.80023503303528,59.51575708389282,59.815722942352295,dot,"[0.06, 0.1, 0.1, 0.1, 0.1, 0.06, 0.06, 0.06, 0.06]","[[0.11766436913102363, -0.04327704920019282], [0.17973489876850246, -0.2957558932143311], [0.4322853556796634, 0.1292829237047714], [-0.0348924626991882, -0.2091692004054023], [0.511593351462966, -0.2715393032181878], [0.39631341359825684, -0.10388811790353111], [0.1759041025424718, 0.35783279634564974], [-0.11077337801993212, 0.08002505665429639], [0.1915495233696259, 0.15329463501335125]]",density,white,,,N011,visual,6,[],"['1', '2', '3', '4']",1,2023.2.3,harveyvisual,2.1,[],8,0.75,
0,pause,0.4,None,None,None,0,165,165,165,,,,,,,,,,,1,59.93324899673462,N011,visual,6,[],"['1', '2', '3', '4']",1,2023.2.3,harveyvisual,2.1,[],8,0.75,
9,dot,0.3,['dot'],['density'],black,0,166,166,166,,,60.50023293495178,60.21571397781372,60.515695095062256,dot,"[0.08, 0.06, 0.08, 0.08, 0.08, 0.1, 0.08, 0.06, 0.1]","[[0.019793807854907846, -0.43234396454466956], [-0.19026732246162045, -0.30921043426246514], [0.04019268118281429, 0.04496242893187172], [-0.3995051790572048, -0.35321755636659735], [-0.3855517065125252, -0.10705750392277943], [0.08372722599267078, -0.1679482296571974], [0.2622756688563642, -0.3928589043728353], [-0.14305193053609555, -0.047108980659819465], [-0.27076529918092873, 0.10825753519043561]]",density,black,,,N011,visual,6,[],"['1', '2', '3', '4']",1,2023.2.3,harveyvisual,2.1,[],8,0.75,
0,pause,0.4,None,None,None,0,167,167,167,,,,,,,,,,,,,N011,visual,6,[],"['1', '2', '3', '4']",1,2023.2.3,harveyvisual,2.1,[],8,0.75,
8,dot,0.3,['dot'],['density'],black,0,168,168,168,,,61.20020890235901,60.915704011917114,61.21565508842468,dot,"[0.06, 0.1, 0.08, 0.06, 0.08, 0.06, 0.1, 0.1]","[[-0.3290570048964025, 0.45712517183014534], [-0.12351728740192595, 0.19722326774196852], [-0.44617383739254307, -0.0315435053038489], [0.05824565693526591, 0.08769012542188236], [-0.4904255353169048, 0.31423420558286136], [-0.32491150822629034, 0.16696319418744587], [-0.12614658653380179, 0.4043789036591275], [0.10044097339982726, 0.3130264767685494]]",density,black,,,N011,visual,6,[],"['1', '2', '3', '4']",1,2023.2.3,harveyvisual,2.1,[],8,0.75,
0,pause,0.4,None,None,None,0,169,169,169,,,,,,,,,,,,,N011,visual,6,[],"['1', '2', '3', '4']",1,2023.2.3,harveyvisual,2.1,[],8,0.75,
8,dot,0.3,['dot'],['density'],black,0,170,170,170,,,61.90021586418152,61.6156120300293,61.91563391685486,dot,"[0.06, 0.1, 0.08, 0.1, 0.06, 0.06, 0.1, 0.08]","[[0.1740819983727909, -0.16863019829442621], [0.14644114519141543, -0.4524198896657212], [0.0024885361438939093, 0.023531574910491997], [-0.23717340943857948, -0.31112918658627675], [-0.11311749148073028, -0.46867866316561874], [-0.17928248077090506, -0.060241557052319365], [-0.03957999532622772, -0.24759906754331504], [-0.4644327601918011, -0.3627803331480915]]",density,black,,,N011,visual,6,[],"['1', '2', '3', '4']",1,2023.2.3,harveyvisual,2.1,[],8,0.75,
0,pause,0.4,None,None,None,0,171,171,171,,,,,,,,,,,,,N011,visual,6,[],"['1', '2', '3', '4']",1,2023.2.3,harveyvisual,2.1,[],8,0.75,
8,dot,0.3,['dot'],['density'],black,0,172,172,172,,,62.600208044052124,62.31565809249878,62.61564803123474,dot,"[0.06, 0.08, 0.1, 0.06, 0.1, 0.08, 0.1, 0.06]","[[-0.2395708272612018, -0.3613018167456044], [-0.39529086986423073, -0.13116056396528103], [0.016143118738118, -0.3000453801144436], [-0.10247857353615338, 0.12176090555598315], [0.11784264820349834, -0.12422453235794288], [-0.1468533202112338, -0.18280007972172757], [-0.31504288856899026, 0.06147683711297207], [0.2614313121475242, -0.33215718180641224]]",density,black,,,N011,visual,6,[],"['1', '2', '3', '4']",1,2023.2.3,harveyvisual,2.1,[],8,0.75,
0,pause,0.4,None,None,None,0,173,173,173,,,,,,,,,,,,,N011,visual,6,[],"['1', '2', '3', '4']",1,2023.2.3,harveyvisual,2.1,[],8,0.75,
8,dot,0.3,['dot'],['density'],white,0,174,174,174,,,63.30021405220032,63.015745878219604,63.31560397148132,dot,"[0.08, 0.08, 0.06, 0.08, 0.1, 0.1, 0.06, 0.06]","[[-0.2395708272612018, -0.3613018167456044], [-0.39529086986423073, -0.13116056396528103], [0.016143118738118, -0.3000453801144436], [-0.10247857353615338, 0.12176090555598315], [0.11784264820349834, -0.12422453235794288], [-0.1468533202112338, -0.18280007972172757], [-0.31504288856899026, 0.06147683711297207], [0.2614313121475242, -0.33215718180641224]]",density,white,,,N011,visual,6,[],"['1', '2', '3', '4']",1,2023.2.3,harveyvisual,2.1,[],8,0.75,
0,pause,0.4,None,None,None,0,175,175,175,,,,,,,,,,,1,63.37885594367981,N011,visual,6,[],"['1', '2', '3', '4']",1,2023.2.3,harveyvisual,2.1,[],8,0.75,
8,dot,0.3,['dot'],['density'],black,0,176,176,176,,,64.00021600723267,63.715736865997314,64.0157539844513,dot,"[0.08, 0.1, 0.08, 0.1, 0.08, 0.08, 0.1, 0.06]","[[-0.16499387414028463, -0.418455346753131], [0.031011941373623824, -0.006148034068666969], [-0.4150712424924157, -0.28668557629476243], [-0.199054958380199, -0.21375968732837633], [-0.4870789535587041, 0.00515905815181239], [-0.198479811208303, 0.006815000109153054], [-0.3273741662815474, 0.19008037141614484], [0.04340096687518584, -0.25044408321713213]]",density,black,,,N011,visual,6,[],"['1', '2', '3', '4']",1,2023.2.3,harveyvisual,2.1,[],8,0.75,
0,pause,0.4,None,None,None,0,177,177,177,,,,,,,,,,,,,N011,visual,6,[],"['1', '2', '3', '4']",1,2023.2.3,harveyvisual,2.1,[],8,0.75,
8,dot,0.3,['dot'],['density'],black,0,178,178,178,,,64.70022487640381,64.41578006744385,64.7157928943634,dot,"[0.1, 0.06, 0.08, 0.08, 0.08, 0.1, 0.1, 0.1]","[[-0.25621621658373334, -0.516505587173681], [-0.1662036889407214, -0.08514196380588028], [-0.18387329975925823, -0.32724781719236296], [0.018951322384734254, -0.28276580262079387], [-0.4257935961758009, -0.11165978892152287], [-0.38337046113926315, -0.34678862335127664], [0.08447884857343574, -0.4920123821830729], [0.02561025798733424, 0.0007844895199748298]]",density,black,,,N011,visual,6,[],"['1', '2', '3', '4']",1,2023.2.3,harveyvisual,2.1,[],8,0.75,
0,pause,0.4,None,None,None,0,179,179,179,,,,,,,,,,,,,N011,visual,6,[],"['1', '2', '3', '4']",1,2023.2.3,harveyvisual,2.1,[],8,0.75,
7,dot,0.3,['dot'],['density'],black,0,180,180,180,,,65.40023398399353,65.11557197570801,65.41556191444397,dot,"[0.06, 0.1, 0.06, 0.06, 0.08, 0.06, 0.08]","[[-0.3423230189937584, -0.41219609722212536], [-0.1182323968952694, -0.35552357509158045], [-0.4111032443031386, -0.006313161275750597], [-0.5095560862941229, -0.2529410328503813], [-0.2588176969072235, -0.18091026219072012], [-0.0026253510642934245, -0.12197054074907589], [-0.16586784627322051, 0.0941069694468023]]",density,black,,,N011,visual,6,[],"['1', '2', '3', '4']",1,2023.2.3,harveyvisual,2.1,[],8,0.75,
0,pause,0.4,None,None,None,0,181,181,181,,,,,,,,,,,,,N011,visual,6,[],"['1', '2', '3', '4']",1,2023.2.3,harveyvisual,2.1,[],8,0.75,
7,dot,0.3,['dot'],['density'],black,0,182,182,182,,,66.10022807121277,65.81575298309326,66.1157898902893,dot,"[0.1, 0.08, 0.06, 0.1, 0.06, 0.08, 0.1]","[[-0.4069355390488937, 0.37207368581823036], [-0.24593577727054447, 0.19917396778247878], [-0.42360727833657225, -0.08003411738888748], [-0.22269992972584096, -0.007913174381400552], [-0.5458110461780458, 0.2006057762678532], [-0.12767295506375728, 0.3689678629588407], [-0.26313434255033313, 0.5223746060296944]]",density,black,,,N011,visual,6,[],"['1', '2', '3', '4']",1,2023.2.3,harveyvisual,2.1,[],8,0.75,
0,pause,0.4,None,None,None,0,183,183,183,,,,,,,,,,,,,N011,visual,6,[],"['1', '2', '3', '4']",1,2023.2.3,harveyvisual,2.1,[],8,0.75,
7,dot,0.3,['dot'],['density'],black,0,184,184,184,,,66.80023097991943,66.51565504074097,66.81547808647156,dot,"[0.06, 0.08, 0.1, 0.06, 0.1, 0.08, 0.08]","[[-0.4069355390488937, 0.37207368581823036], [-0.24593577727054447, 0.19917396778247878], [-0.42360727833657225, -0.08003411738888748], [-0.22269992972584096, -0.007913174381400552], [-0.5458110461780458, 0.2006057762678532], [-0.12767295506375728, 0.3689678629588407], [-0.26313434255033313, 0.5223746060296944]]",density,black,,,N011,visual,6,[],"['1', '2', '3', '4']",1,2023.2.3,harveyvisual,2.1,[],8,0.75,
0,pause,0.4,None,None,None,0,185,185,185,,,,,,,,,,,,,N011,visual,6,[],"['1', '2', '3', '4']",1,2023.2.3,harveyvisual,2.1,[],8,0.75,
7,dot,0.3,['dot'],['density'],black,0,186,186,186,,,67.5002110004425,67.2154610157013,67.51550102233887,dot,"[0.08, 0.06, 0.06, 0.06, 0.08, 0.1, 0.1]","[[-0.0840690222646118, 0.326581156863932], [0.2873095043411744, 0.40733497502034743], [0.3312644566818162, -0.06338498518608723], [-0.0506181805300269, 0.10889297565070959], [0.1236891467835978, 0.25045991881734525], [0.122473450616654, -0.061936092255746894], [0.3019459967494134, 0.15241064997072415]]",density,black,,,N011,visual,6,[],"['1', '2', '3', '4']",1,2023.2.3,harveyvisual,2.1,[],8,0.75,
0,pause,0.4,None,None,None,0,187,187,187,,,,,,,,,,,,,N011,visual,6,[],"['1', '2', '3', '4']",1,2023.2.3,harveyvisual,2.1,[],8,0.75,
7,dot,0.3,['dot'],['density'],black,0,188,188,188,,,68.20023393630981,67.91545796394348,68.21546006202698,dot,"[0.06, 0.1, 0.08, 0.08, 0.1, 0.06, 0.1]","[[0.12902113605384963, -0.35167066519854956], [0.3838909825822851, -0.05572740120406059], [-0.02857767273637445, 0.1549795872955612], [0.19333287999408408, 0.10698923431715611], [-0.08146847087507005, -0.06064403559207536], [0.18020694687254563, -0.15550905334431223], [-0.07225335190945896, -0.28606481362007624]]",density,black,,,N011,visual,6,[],"['1', '2', '3', '4']",1,2023.2.3,harveyvisual,2.1,[],8,0.75,
0,pause,0.4,None,None,None,0,189,189,189,,,,,,,,,,,,,N011,visual,6,[],"['1', '2', '3', '4']",1,2023.2.3,harveyvisual,2.1,[],8,0.75,
7,dot,0.3,['dot'],['density'],black,0,190,190,190,,,68.90022587776184,68.61543488502502,68.91548609733582,dot,"[0.1, 0.06, 0.08, 0.08, 0.06, 0.08, 0.08]","[[0.43636558899465056, -0.019888822856555858], [0.3422654810486562, -0.28596623187093184], [0.19265053263460555, -0.4439876245838232], [0.13726272111749335, -0.2453614523272762], [0.002381890354708078, -0.04768315945896726], [0.5336827108411983, -0.21507725682246784], [0.22437755209563529, -0.002563521851875305]]",density,black,,,N011,visual,6,[],"['1', '2', '3', '4']",1,2023.2.3,harveyvisual,2.1,[],8,0.75,
0,pause,0.4,None,None,None,0,191,191,191,,,,,,,,,,,,,N011,visual,6,[],"['1', '2', '3', '4']",1,2023.2.3,harveyvisual,2.1,[],8,0.75,
6,dot,0.3,['dot'],['density'],black,0,192,192,192,,,69.60022401809692,69.3154559135437,69.61546087265015,dot,"[0.06, 0.08, 0.1, 0.06, 0.06, 0.1]","[[0.1382403832049451, 0.0462086450304607], [-0.07534018949214154, -0.3274433807795599], [0.3332171610134826, -0.14895102818546319], [0.22614943412716124, -0.3322834867125916], [-0.0756450994425101, -0.005640117700353421], [0.0938048843888254, -0.16909843217532775]]",density,black,,,N011,visual,6,[],"['1', '2', '3', '4']",1,2023.2.3,harveyvisual,2.1,[],8,0.75,
0,pause,0.4,None,None,None,0,193,193,193,,,,,,,,,,,,,N011,visual,6,[],"['1', '2', '3', '4']",1,2023.2.3,harveyvisual,2.1,[],8,0.75,
6,dot,0.3,['dot'],['density'],black,0,194,194,194,,,70.30023002624512,70.0154218673706,70.31542086601257,dot,"[0.1, 0.1, 0.06, 0.1, 0.06, 0.08]","[[-0.36954580940820725, 0.05815165478813925], [-0.28534481837461456, -0.12375618373579561], [-0.26428406214372846, 0.28010711109252995], [-0.5657182147315603, -0.11096589427743007], [-0.1492704575467133, 0.06899119969773035], [-0.5584105255039638, 0.13196562846102936]]",density,black,,,N011,visual,6,[],"['1', '2', '3', '4']",1,2023.2.3,harveyvisual,2.1,[],8,0.75,
0,pause,0.4,None,None,None,0,195,195,195,,,,,,,,,,,,,N011,visual,6,[],"['1', '2', '3', '4']",1,2023.2.3,harveyvisual,2.1,[],8,0.75,
6,dot,0.3,['dot'],['density'],black,0,196,196,196,,,71.00021290779114,70.71543788909912,71.01542401313782,dot,"[0.06, 0.1, 0.06, 0.08, 0.1, 0.1]","[[-0.31609589870198396, -0.31007670116123803], [-0.4478311917512715, 0.10082722748193511], [-0.2864981571692688, -0.05140390439239721], [-0.09675803094031296, -0.12021517342888931], [-0.4941273593136662, -0.13098935533792763], [-0.1300426850498692, 0.1160403058404222]]",density,black,,,N011,visual,6,[],"['1', '2', '3', '4']",1,2023.2.3,harveyvisual,2.1,[],8,0.75,
0,pause,0.4,None,None,None,0,197,197,197,,,,,,,,,,,,,N011,visual,6,[],"['1', '2', '3', '4']",1,2023.2.3,harveyvisual,2.1,[],8,0.75,
6,dot,0.3,['dot'],['density'],black,0,198,198,198,,,71.70021104812622,71.41554403305054,71.71553897857666,dot,"[0.06, 0.06, 0.06, 0.06, 0.06, 0.08]","[[0.26568550625605564, -0.48823100126060537], [0.030589778490880962, -0.34307155488476027], [0.2920158589989485, -0.005481777194348812], [0.4969139129819881, -0.3034402107212153], [0.2924968692334099, -0.2393606426967254], [0.09404279540557291, -0.1505005030192783]]",density,black,,,N011,visual,6,[],"['1', '2', '3', '4']",1,2023.2.3,harveyvisual,2.1,[],8,0.75,
0,pause,0.4,None,None,None,0,199,199,199,,,,,,,,,,,,,N011,visual,6,[],"['1', '2', '3', '4']",1,2023.2.3,harveyvisual,2.1,[],8,0.75,
6,dot,0.3,['dot'],['density'],black,0,200,200,200,,,72.40022993087769,72.11550998687744,72.41550707817078,dot,"[0.08, 0.1, 0.06, 0.1, 0.1, 0.08]","[[-0.12151555870586603, -0.4812968000001843], [0.16790488833295267, -0.2471088416996458], [0.27214716196035416, -0.49820278546509117], [-0.038147587524033764, -0.29309333197091036], [0.014949188681413147, -0.08915939926713055], [0.06798063624072649, -0.5852336971646088]]",density,black,,,N011,visual,6,[],"['1', '2', '3', '4']",1,2023.2.3,harveyvisual,2.1,[],8,0.75,
0,pause,0.4,None,None,None,0,201,201,201,,,,,,,,,,,,,N011,visual,6,[],"['1', '2', '3', '4']",1,2023.2.3,harveyvisual,2.1,[],8,0.75,
6,dot,0.3,['dot'],['density'],white,0,202,202,202,,,73.10023593902588,72.81549286842346,73.11548209190369,dot,"[0.08, 0.1, 0.08, 0.06, 0.1, 0.06]","[[0.1982846419110591, -0.5292804859653952], [-0.09533153174900855, -0.5647367288422243], [-0.1659446600366624, -0.36958438178462333], [0.23572970018209544, -0.2476946313124468], [-0.023160452264027947, -0.17140847685647978], [0.035419311136148636, -0.3737635646361638]]",density,white,,,N011,visual,6,[],"['1', '2', '3', '4']",1,2023.2.3,harveyvisual,2.1,[],8,0.75,
0,pause,0.4,None,None,None,0,203,203,203,,,,,,,,,,,1,73.2679009437561,N011,visual,6,[],"['1', '2', '3', '4']",1,2023.2.3,harveyvisual,2.1,[],8,0.75,
5,dot,0.3,['dot'],['density'],black,0,204,204,204,,,73.80022287368774,73.51547193527222,73.81542992591858,dot,"[0.08, 0.08, 0.08, 0.08, 0.08]","[[0.45108699871130137, 0.12052648913612102], [0.3120839015871755, -0.055344110322042436], [0.5361186937318446, -0.08608482415671545], [0.24926945818158194, 0.15209517992691748], [0.3855135356736719, -0.25840400127360613]]",density,black,,,N011,visual,6,[],"['1', '2', '3', '4']",1,2023.2.3,harveyvisual,2.1,[],8,0.75,
0,pause,0.4,None,None,None,0,205,205,205,,,,,,,,,,,,,N011,visual,6,[],"['1', '2', '3', '4']",1,2023.2.3,harveyvisual,2.1,[],8,0.75,
5,dot,0.3,['dot'],['density'],black,0,206,206,206,,,74.50023007392883,74.21529293060303,74.51534008979797,dot,"[0.08, 0.06, 0.06, 0.06, 0.1]","[[-0.10197385386246118, 0.24760023034087644], [-0.014646448823952617, 0.47519555304773536], [-0.21360058910662874, 0.441350445979826], [-0.3878570731713836, 0.20534708698022924], [-0.24187982362067023, 0.06730525069120082]]",density,black,,,N011,visual,6,[],"['1', '2', '3', '4']",1,2023.2.3,harveyvisual,2.1,[],8,0.75,
0,pause,0.4,None,None,None,0,207,207,207,,,,,,,,,,,,,N011,visual,6,[],"['1', '2', '3', '4']",1,2023.2.3,harveyvisual,2.1,[],8,0.75,
5,dot,0.3,['dot'],['density'],white,0,208,208,208,,,75.20023107528687,74.91535902023315,75.2152669429779,dot,"[0.08, 0.1, 0.08, 0.08, 0.08]","[[-0.16893136043895146, -0.20127892763881453], [-0.5727216740452047, -0.07682091551650742], [-0.343702592036276, -0.060533526953518955], [-0.5038383983260774, 0.15268268748871192], [-0.379488354443274, -0.2704310218069364]]",density,white,,,N011,visual,6,[],"['1', '2', '3', '4']",1,2023.2.3,harveyvisual,2.1,[],8,0.75,
0,pause,0.4,None,None,None,0,209,209,209,,,,,,,,,,,1,75.34414196014404,N011,visual,6,[],"['1', '2', '3', '4']",1,2023.2.3,harveyvisual,2.1,[],8,0.75,
5,dot,0.3,['dot'],['density'],black,0,210,210,210,,,75.90023803710938,75.61525988578796,75.91527199745178,dot,"[0.06, 0.1, 0.1, 0.08, 0.1]","[[0.26736814946294957, 0.039639821311179], [0.3007085492035367, 0.3262250213434343], [0.4353907115448318, -0.11778011175670104], [0.4521497692138949, 0.1289853794543976], [0.1485908728023605, -0.12275462689891227]]",density,black,,,N011,visual,6,[],"['1', '2', '3', '4']",1,2023.2.3,harveyvisual,2.1,[],8,0.75,
0,pause,0.4,None,None,None,0,211,211,211,,,,,,,,,,,,,N011,visual,6,[],"['1', '2', '3', '4']",1,2023.2.3,harveyvisual,2.1,[],8,0.75,
5,dot,0.3,['dot'],['density'],black,0,212,212,212,,,76.60020995140076,76.31524896621704,76.61523199081421,dot,"[0.1, 0.06, 0.08, 0.08, 0.1]","[[-0.26965218803342234, -0.06061691990321757], [-0.44412238708790114, -0.1605793459593267], [-0.2738608688716076, -0.33598391440877745], [-0.06160694910013377, -0.19463283807086704], [-0.16469008497891707, 0.13324638745272324]]",density,black,,,N011,visual,6,[],"['1', '2', '3', '4']",1,2023.2.3,harveyvisual,2.1,[],8,0.75,
0,pause,0.4,None,None,None,0,213,213,213,,,,,,,,,,,,,N011,visual,6,[],"['1', '2', '3', '4']",1,2023.2.3,harveyvisual,2.1,[],8,0.75,
5,dot,0.3,['dot'],['density'],black,0,214,214,214,,,77.3002359867096,77.01523089408875,77.3152060508728,dot,"[0.06, 0.06, 0.06, 0.1, 0.06]","[[0.45108699871130137, 0.12052648913612102], [0.3120839015871755, -0.055344110322042436], [0.5361186937318446, -0.08608482415671545], [0.24926945818158194, 0.15209517992691748], [0.3855135356736719, -0.25840400127360613]]",density,black,,,N011,visual,6,[],"['1', '2', '3', '4']",1,2023.2.3,harveyvisual,2.1,[],8,0.75,
0,pause,0.4,None,None,None,0,215,215,215,,,,,,,,,,,,,N011,visual,6,[],"['1', '2', '3', '4']",1,2023.2.3,harveyvisual,2.1,[],8,0.75,
4,dot,0.3,['dot'],['density'],black,0,216,216,216,,,78.00021696090698,77.71519804000854,78.01518702507019,dot,"[0.1, 0.06, 0.06, 0.08]","[[-0.24231220575667195, -0.22966258239168486], [-0.5136420973432148, -0.13696856920477488], [-0.4300726721285167, 0.13088957628356482], [-0.3148289313469241, -0.03851715211982174]]",density,black,,,N011,visual,6,[],"['1', '2', '3', '4']",1,2023.2.3,harveyvisual,2.1,[],8,0.75,
0,pause,0.4,None,None,None,0,217,217,217,,,,,,,,,,,,,N011,visual,6,[],"['1', '2', '3', '4']",1,2023.2.3,harveyvisual,2.1,[],8,0.75,
4,dot,0.3,['dot'],['density'],black,0,218,218,218,,,78.70022487640381,78.41517806053162,78.71516990661621,dot,"[0.1, 0.08, 0.06, 0.08]","[[-0.5133923796685119, -0.13567638448558317], [-0.3102378593599109, -0.17790160316510653], [-0.5338837235738882, 0.07316730980410076], [-0.255286731521037, 0.022123457211080083]]",density,black,,,N011,visual,6,[],"['1', '2', '3', '4']",1,2023.2.3,harveyvisual,2.1,[],8,0.75,
0,pause,0.4,None,None,None,0,219,219,219,,,,,,,,,,,,,N011,visual,6,[],"['1', '2', '3', '4']",1,2023.2.3,harveyvisual,2.1,[],8,0.75,
4,dot,0.3,['dot'],['density'],white,0,220,220,220,,,79.4002320766449,79.1151659488678,79.41627287864685,dot,"[0.08, 0.08, 0.08, 0.06]","[[-0.24231220575667195, -0.22966258239168486], [-0.5136420973432148, -0.13696856920477488], [-0.4300726721285167, 0.13088957628356482], [-0.3148289313469241, -0.03851715211982174]]",density,white,,,N011,visual,6,[],"['1', '2', '3', '4']",1,2023.2.3,harveyvisual,2.1,[],8,0.75,
0,pause,0.4,None,None,None,0,221,221,221,,,,,,,,,,,1,79.4886589050293,N011,visual,6,[],"['1', '2', '3', '4']",1,2023.2.3,harveyvisual,2.1,[],8,0.75,
4,dot,0.3,['dot'],['density'],black,0,222,222,222,,,80.10024094581604,79.8151490688324,80.1151978969574,dot,"[0.06, 0.1, 0.08, 0.06]","[[-0.43942495523079517, -0.22401056498097033], [-0.009260832099230759, -0.1633376679159051], [-0.21598309108097546, -0.10172603009605206], [-0.2278206133413005, -0.33154874685782076]]",density,black,,,N011,visual,6,[],"['1', '2', '3', '4']",1,2023.2.3,harveyvisual,2.1,[],8,0.75,
0,pause,0.4,None,None,None,0,223,223,223,,,,,,,,,,,,,N011,visual,6,[],"['1', '2', '3', '4']",1,2023.2.3,harveyvisual,2.1,[],8,0.75,
4,dot,0.3,['dot'],['density'],black,0,224,224,224,,,80.800213098526,80.5152199268341,80.81520509719849,dot,"[0.06, 0.1, 0.08, 0.06]","[[-0.4771446773377139, 0.25157103962592786], [-0.4259846000875058, -0.15982147080050188], [-0.5514119563937664, 0.017569371675289724], [-0.3400083930451492, 0.09263869595453958]]",density,black,,,N011,visual,6,[],"['1', '2', '3', '4']",1,2023.2.3,harveyvisual,2.1,[],8,0.75,
0,pause,0.4,None,None,None,0,225,225,225,,,,,,,,,,,,,N011,visual,6,[],"['1', '2', '3', '4']",1,2023.2.3,harveyvisual,2.1,[],8,0.75,
4,dot,0.3,['dot'],['density'],black,0,226,226,226,,,81.50022101402283,81.21513390541077,81.51510787010193,dot,"[0.1, 0.08, 0.1, 0.1]","[[-0.4771446773377139, 0.25157103962592786], [-0.4259846000875058, -0.15982147080050188], [-0.5514119563937664, 0.017569371675289724], [-0.3400083930451492, 0.09263869595453958]]",density,black,,,N011,visual,6,[],"['1', '2', '3', '4']",1,2023.2.3,harveyvisual,2.1,[],8,0.75,
0,pause,0.4,None,None,None,0,227,227,227,,,,,,,,,,,,,N011,visual,6,[],"['1', '2', '3', '4']",1,2023.2.3,harveyvisual,2.1,[],8,0.75,
3,dot,0.3,['dot'],['density'],black,0,228,228,228,,,82.20023393630981,81.9150960445404,82.21513199806213,dot,"[0.06, 0.1, 0.08]","[[0.2768253388883432, 0.03346297355107007], [0.11287187477499526, -0.09417797505773098], [0.09003622344097514, 0.12370024427926096]]",density,black,,,N011,visual,6,[],"['1', '2', '3', '4']",1,2023.2.3,harveyvisual,2.1,[],8,0.75,
0,pause,0.4,None,None,None,0,229,229,229,,,,,,,,,,,,,N011,visual,6,[],"['1', '2', '3', '4']",1,2023.2.3,harveyvisual,2.1,[],8,0.75,
3,dot,0.3,['dot'],['density'],black,0,230,230,230,,,82.90021800994873,82.61517906188965,82.91506600379944,dot,"[0.06, 0.08, 0.08]","[[0.11213305146232053, -0.07893917948794166], [0.05639720131197772, -0.2966044022377523], [-0.1031859716129837, -0.13437008874356654]]",density,black,,,N011,visual,6,[],"['1', '2', '3', '4']",1,2023.2.3,harveyvisual,2.1,[],8,0.75,
0,pause,0.4,None,None,None,0,231,231,231,,,,,,,,,,,,,N011,visual,6,[],"['1', '2', '3', '4']",1,2023.2.3,harveyvisual,2.1,[],8,0.75,
3,dot,0.3,['dot'],['density'],black,0,232,232,232,,,83.60021591186523,83.31514596939087,83.61513590812683,dot,"[0.06, 0.08, 0.1]","[[0.5383732683216915, 0.24050044654635605], [0.337973319445641, 0.36292363064724675], [0.3422154310588786, 0.14570949010333048]]",density,black,,,N011,visual,6,[],"['1', '2', '3', '4']",1,2023.2.3,harveyvisual,2.1,[],8,0.75,
0,pause,0.4,None,None,None,0,233,233,233,,,,,,,,,,,,,N011,visual,6,[],"['1', '2', '3', '4']",1,2023.2.3,harveyvisual,2.1,[],8,0.75,
3,dot,0.3,['dot'],['density'],black,0,234,234,234,,,84.30024099349976,84.01503300666809,84.31503105163574,dot,"[0.08, 0.1, 0.08]","[[0.3835821938049364, -0.20766469641190155], [0.321707527308891, -0.4175939354614905], [0.1897943789354585, -0.2642367600490923]]",density,black,,,N011,visual,6,[],"['1', '2', '3', '4']",1,2023.2.3,harveyvisual,2.1,[],8,0.75,
0,pause,0.4,None,None,None,0,235,235,235,,,,,,,,,,,,,N011,visual,6,[],"['1', '2', '3', '4']",1,2023.2.3,harveyvisual,2.1,[],8,0.75,
3,dot,0.3,['dot'],['density'],black,0,236,236,236,,,85.00023794174194,84.71499991416931,85.01499795913696,dot,"[0.08, 0.08, 0.08]","[[0.07700183490032705, -0.35627018624379625], [-0.11838355721398923, -0.41989981358322065], [0.04553884901650391, -0.5822363694770394]]",density,black,,,N011,visual,6,[],"['1', '2', '3', '4']",1,2023.2.3,harveyvisual,2.1,[],8,0.75,
0,pause,0.4,None,None,None,0,237,237,237,,,,,,,,,,,,,N011,visual,6,[],"['1', '2', '3', '4']",1,2023.2.3,harveyvisual,2.1,[],8,0.75,
3,dot,0.3,['dot'],['density'],black,0,238,238,238,,,85.70022797584534,85.4149808883667,85.71514296531677,dot,"[0.06, 0.06, 0.06]","[[-0.3082868261871679, -0.3137599619928766], [-0.14816041357862977, -0.19371393562593295], [-0.35304767783039576, -0.10610354059871957]]",density,black,,,N011,visual,6,[],"['1', '2', '3', '4']",1,2023.2.3,harveyvisual,2.1,[],8,0.75,
0,pause,0.4,None,None,None,0,239,239,239,,,,,,,,,,,,,N011,visual,6,[],"['1', '2', '3', '4']",1,2023.2.3,harveyvisual,2.1,[],8,0.75,
2,dot,0.3,['dot'],['density'],black,0,240,240,240,,,86.4002480506897,86.11502289772034,86.41495609283447,dot,"[0.06, 0.08]","[[0.2713647219188039, -0.029235290058335472], [0.46697437826705046, 0.014145112521712659]]",density,black,,,N011,visual,6,[],"['1', '2', '3', '4']",1,2023.2.3,harveyvisual,2.1,[],8,0.75,
0,pause,0.4,None,None,None,0,241,241,241,,,,,,,,,,,,,N011,visual,6,[],"['1', '2', '3', '4']",1,2023.2.3,harveyvisual,2.1,[],8,0.75,
2,dot,0.3,['dot'],['density'],black,0,242,242,242,,,87.10021996498108,86.81496000289917,87.1149389743805,dot,"[0.1, 0.1]","[[-0.2277318593301165, -0.35289300204507235], [-0.09400723608355734, -0.20388512549033708]]",density,black,,,N011,visual,6,[],"['1', '2', '3', '4']",1,2023.2.3,harveyvisual,2.1,[],8,0.75,
0,pause,0.4,None,None,None,0,243,243,243,,,,,,,,,,,,,N011,visual,6,[],"['1', '2', '3', '4']",1,2023.2.3,harveyvisual,2.1,[],8,0.75,
2,dot,0.3,['dot'],['density'],black,0,244,244,244,,,87.80024003982544,87.51493287086487,87.81497097015381,dot,"[0.08, 0.1]","[[0.29932439847351855, -0.2783039550742582], [0.14276117392638485, -0.15345139110726028]]",density,black,,,N011,visual,6,[],"['1', '2', '3', '4']",1,2023.2.3,harveyvisual,2.1,[],8,0.75,
0,pause,0.4,None,None,None,0,245,245,245,,,,,,,,,,,,,N011,visual,6,[],"['1', '2', '3', '4']",1,2023.2.3,harveyvisual,2.1,[],8,0.75,
2,dot,0.3,['dot'],['density'],black,0,246,246,246,,,88.50021696090698,88.2149109840393,88.514976978302,dot,"[0.06, 0.08]","[[0.45098141687762733, -0.20237638590572143], [0.5433504117931098, -0.02475258047346216]]",density,black,,,N011,visual,6,[],"['1', '2', '3', '4']",1,2023.2.3,harveyvisual,2.1,[],8,0.75,
0,pause,0.4,None,None,None,0,247,247,247,,,,,,,,,,,,,N011,visual,6,[],"['1', '2', '3', '4']",1,2023.2.3,harveyvisual,2.1,[],8,0.75,
2,dot,0.3,['dot'],['density'],black,0,248,248,248,,,89.2002329826355,88.91493487358093,89.21492004394531,dot,"[0.06, 0.08]","[[-0.40295961353468523, -0.33947470962363085], [-0.23663605411983973, -0.22749761394439932]]",density,black,,,N011,visual,6,[],"['1', '2', '3', '4']",1,2023.2.3,harveyvisual,2.1,[],8,0.75,
0,pause,0.4,None,None,None,0,249,249,249,,,,,,,,,,,,,N011,visual,6,[],"['1', '2', '3', '4']",1,2023.2.3,harveyvisual,2.1,[],8,0.75,
2,dot,0.3,['dot'],['density'],black,0,250,250,250,,,89.90023589134216,89.61489200592041,89.91489386558533,dot,"[0.08, 0.06]","[[0.21195259569903124, -0.4986433684978455], [0.023877440871594643, -0.42921284787985464]]",density,black,,,N011,visual,6,[],"['1', '2', '3', '4']",1,2023.2.3,harveyvisual,2.1,[],8,0.75,
0,pause,0.4,None,None,None,0,251,251,251,,,,,,,,,,,,,N011,visual,6,[],"['1', '2', '3', '4']",1,2023.2.3,harveyvisual,2.1,[],8,0.75,
1,dot,0.3,['dot'],['density'],black,0,252,252,252,,,90.6002140045166,90.31488704681396,90.6148910522461,dot,[0.08],"[-0.48958603946102763, 0.32731293615049173]",density,black,,,N011,visual,6,[],"['1', '2', '3', '4']",1,2023.2.3,harveyvisual,2.1,[],8,0.75,
0,pause,0.4,None,None,None,0,253,253,253,,,,,,,,,,,,,N011,visual,6,[],"['1', '2', '3', '4']",1,2023.2.3,harveyvisual,2.1,[],8,0.75,
1,dot,0.3,['dot'],['density'],black,0,254,254,254,,,91.30022501945496,91.01487994194031,91.31482601165771,dot,[0.06],"[0.25023401086931774, -0.3984124620602511]",density,black,,,N011,visual,6,[],"['1', '2', '3', '4']",1,2023.2.3,harveyvisual,2.1,[],8,0.75,
0,pause,0.4,None,None,None,0,255,255,255,,,,,,,,,,,,,N011,visual,6,[],"['1', '2', '3', '4']",1,2023.2.3,harveyvisual,2.1,[],8,0.75,
1,dot,0.3,['dot'],['density'],black,0,256,256,256,,,92.00024104118347,91.71489095687866,92.01488590240479,dot,[0.06],"[0.00661777001411412, 0.39634766145863237]",density,black,,,N011,visual,6,[],"['1', '2', '3', '4']",1,2023.2.3,harveyvisual,2.1,[],8,0.75,
0,pause,0.4,None,None,None,0,257,257,257,,,,,,,,,,,,,N011,visual,6,[],"['1', '2', '3', '4']",1,2023.2.3,harveyvisual,2.1,[],8,0.75,
1,dot,0.3,['dot'],['density'],black,0,258,258,258,,,92.70023989677429,92.41478490829468,92.71502089500427,dot,[0.08],"[0.39967490259390637, -0.2576437183111264]",density,black,,,N011,visual,6,[],"['1', '2', '3', '4']",1,2023.2.3,harveyvisual,2.1,[],8,0.75,
0,pause,0.4,None,None,None,0,259,259,259,,,,,,,,,,,,,N011,visual,6,[],"['1', '2', '3', '4']",1,2023.2.3,harveyvisual,2.1,[],8,0.75,
1,dot,0.3,['dot'],['density'],black,0,260,260,260,,,93.40022492408752,93.11503195762634,93.41503190994263,dot,[0.06],"[0.19623115665255414, 0.1676894875529279]",density,black,,,N011,visual,6,[],"['1', '2', '3', '4']",1,2023.2.3,harveyvisual,2.1,[],8,0.75,
0,pause,0.4,None,None,None,0,261,261,261,,,,,,,,,,,,,N011,visual,6,[],"['1', '2', '3', '4']",1,2023.2.3,harveyvisual,2.1,[],8,0.75,
1,dot,0.3,['dot'],['density'],black,0,262,262,262,,,94.10022807121277,93.81501388549805,94.11503887176514,dot,[0.1],"[-0.4519365434524677, 0.22287683068434597]",density,black,,,N011,visual,6,[],"['1', '2', '3', '4']",1,2023.2.3,harveyvisual,2.1,[],8,0.75,
0,pause,0.4,None,None,None,0,263,263,263,,,,,,,,,,,,,N011,visual,6,[],"['1', '2', '3', '4']",1,2023.2.3,harveyvisual,2.1,[],8,0.75,
20,dot,0.3,['dot'],['density'],black,0,264,264,264,,,94.80023407936096,94.51474690437317,94.81480288505554,dot,"[0.1, 0.1, 0.08, 0.06, 0.08, 0.1, 0.1, 0.1, 0.06, 0.1, 0.1, 0.06, 0.1, 0.1, 0.1, 0.08, 0.1, 0.1, 0.08, 0.06]","[[0.48878507324716847, 0.01490959668786801], [-0.22981410217191411, -0.2865021070519143], [0.004877114537920613, 0.21252654704536567], [-0.24691649641623808, -0.09710771926643441], [0.24490936155090393, 0.4610886764507883], [0.5638273090153078, 0.19035423516986374], [-0.49235619917574547, -0.34953546192074425], [-0.47846591541422256, 0.04298826632953889], [0.15518562261527646, 0.019918466184198236], [-0.4339629051544439, 0.4106382267882376], [0.22740900210436876, -0.19122362952166394], [0.10159408736507636, -0.3702904305517357], [-0.14169985188058082, -0.5569413381031331], [-0.06414962478619102, -0.0023510394956326452], [-0.22373804636568445, 0.49237873059592197], [0.4241120949704874, 0.3829733437608392], [0.37228893151241993, -0.40251878023475673], [-0.2215549061612171, 0.266933753309023], [-0.5640882478918882, -0.16179634217219394], [0.06518795895333762, 0.4000317548461342]]",density,black,,,N011,visual,6,[],"['1', '2', '3', '4']",1,2023.2.3,harveyvisual,2.1,[],8,0.75,
0,pause,0.4,None,None,None,0,265,265,265,,,,,,,,,,,,,N011,visual,6,[],"['1', '2', '3', '4']",1,2023.2.3,harveyvisual,2.1,[],8,0.75,
20,dot,0.3,['dot'],['density'],white,0,266,266,266,,,95.50021505355835,95.21472597122192,95.51472806930542,dot,"[0.1, 0.06, 0.1, 0.06, 0.1, 0.1, 0.06, 0.06, 0.1, 0.1, 0.1, 0.08, 0.1, 0.1, 0.06, 0.08, 0.08, 0.08, 0.1, 0.06]","[[0.3315078282361227, 0.38148220763955154], [0.37752917867162683, -0.44448594450198947], [-0.31231098012966824, 0.5051004844919229], [0.48154606691374, -0.20871186203344247], [0.45848122013538084, 0.09919008813540908], [-0.40054332310660756, 0.08396536725329101], [-0.3440358859643861, 0.2904917452526918], [0.014197361752718796, 0.07825846746297083], [-0.006988964104527762, -0.2698625528455022], [0.05321453546423183, 0.4852472222151586], [-0.31945274618713376, -0.11134190541096123], [0.22080538749673817, 0.10014127468905343], [-0.42479002102016006, -0.3867674402499104], [0.6020588860267831, -0.05922992130606762], [-0.5202178752316063, -0.21027994928956378], [-0.14717439823410117, -0.43006746132447493], [0.09254029329905178, -0.5092428431662959], [-0.1219207336964111, 0.30568823523088584], [0.14131302184579053, -0.11638450162311414], [-0.12178713978264466, 0.5912776809141467]]",density,white,,,N011,visual,6,[],"['1', '2', '3', '4']",1,2023.2.3,harveyvisual,2.1,[],8,0.75,
0,pause,0.4,None,None,None,0,267,267,267,,,,,,,,,,,1,95.61862897872925,N011,visual,6,[],"['1', '2', '3', '4']",1,2023.2.3,harveyvisual,2.1,[],8,0.75,
