num,mod,duration,shape,ll_cond,colors,.thisRepN,.thisTrialN,.thisN,.thisIndex,thisRow.t,notes,raw_global_time,t_start,t_stop,shapes,size,pos,cond,color,button,RT,participant,session,starting_run,left button (match/odd),right button (non-match/even),samples_per_block,psychopy version,expName,offset,audio,number_runs,radius,
1,dot,0.3,['dot'],['density'],black,0,0,0,0,,,2.40021014213562,2.110436201095581,2.4103710651397705,dot,[0.1],"[0.01430498756481247, 0.36429701967127975]",density,black,,,N011,visual,1,[],"['1', '2', '3', '4']",1,2023.2.3,harveyvisual,2.1,[],8,0.75,
0,pause,0.4,None,None,None,0,1,1,1,,,,,,,,,,,,,N011,visual,1,[],"['1', '2', '3', '4']",1,2023.2.3,harveyvisual,2.1,[],8,0.75,
1,dot,0.3,['dot'],['density'],black,0,2,2,2,,,3.100206136703491,2.810373067855835,3.110960006713867,dot,[0.1],"[0.21839164384074103, 0.06179923858190914]",density,black,,,N011,visual,1,[],"['1', '2', '3', '4']",1,2023.2.3,harveyvisual,2.1,[],8,0.75,
0,pause,0.4,None,None,None,0,3,3,3,,,,,,,,,,,,,N011,visual,1,[],"['1', '2', '3', '4']",1,2023.2.3,harveyvisual,2.1,[],8,0.75,
1,dot,0.3,['dot'],['density'],black,0,4,4,4,,,3.800201177597046,3.510958194732666,3.810955047607422,dot,[0.1],"[0.01430498756481247, 0.36429701967127975]",density,black,,,N011,visual,1,[],"['1', '2', '3', '4']",1,2023.2.3,harveyvisual,2.1,[],8,0.75,
0,pause,0.4,None,None,None,0,5,5,5,,,,,,,,,,,,,N011,visual,1,[],"['1', '2', '3', '4']",1,2023.2.3,harveyvisual,2.1,[],8,0.75,
1,dot,0.3,['dot'],['density'],black,0,6,6,6,,,4.500193119049072,4.211028099060059,4.510921001434326,dot,[0.1],"[0.4230572171255965, 0.15564154118015242]",density,black,,,N011,visual,1,[],"['1', '2', '3', '4']",1,2023.2.3,harveyvisual,2.1,[],8,0.75,
0,pause,0.4,None,None,None,0,7,7,7,,,,,,,,,,,,,N011,visual,1,[],"['1', '2', '3', '4']",1,2023.2.3,harveyvisual,2.1,[],8,0.75,
1,dot,0.3,['dot'],['density'],black,0,8,8,8,,,5.20021915435791,4.910948038101196,5.2109270095825195,dot,[0.08],"[-0.30422713965878023, 0.0739284850406325]",density,black,,,N011,visual,1,[],"['1', '2', '3', '4']",1,2023.2.3,harveyvisual,2.1,[],8,0.75,
0,pause,0.4,None,None,None,0,9,9,9,,,,,,,,,,,,,N011,visual,1,[],"['1', '2', '3', '4']",1,2023.2.3,harveyvisual,2.1,[],8,0.75,
1,dot,0.3,['dot'],['density'],black,0,10,10,10,,,5.900209188461304,5.610901117324829,5.913122177124023,dot,[0.1],"[0.5668064281626585, -0.020013277593342628]",density,black,,,N011,visual,1,[],"['1', '2', '3', '4']",1,2023.2.3,harveyvisual,2.1,[],8,0.75,
0,pause,0.4,None,None,None,0,11,11,11,,,,,,,,,,,,,N011,visual,1,[],"['1', '2', '3', '4']",1,2023.2.3,harveyvisual,2.1,[],8,0.75,
2,dot,0.3,['dot'],['density'],black,0,12,12,12,,,6.600203037261963,6.313116073608398,6.613105058670044,dot,"[0.1, 0.06]","[[-0.2277318593301165, -0.35289300204507235], [-0.09400723608355734, -0.20388512549033708]]",density,black,,,N011,visual,1,[],"['1', '2', '3', '4']",1,2023.2.3,harveyvisual,2.1,[],8,0.75,
0,pause,0.4,None,None,None,0,13,13,13,,,,,,,,,,,,,N011,visual,1,[],"['1', '2', '3', '4']",1,2023.2.3,harveyvisual,2.1,[],8,0.75,
2,dot,0.3,['dot'],['density'],black,0,14,14,14,,,7.300212144851685,7.013104200363159,7.313072204589844,dot,"[0.1, 0.06]","[[0.038501021189721846, -0.3380528513692932], [0.2360793696083702, -0.306423538752856]]",density,black,,,N011,visual,1,[],"['1', '2', '3', '4']",1,2023.2.3,harveyvisual,2.1,[],8,0.75,
0,pause,0.4,None,None,None,0,15,15,15,,,,,,,,,,,,,N011,visual,1,[],"['1', '2', '3', '4']",1,2023.2.3,harveyvisual,2.1,[],8,0.75,
2,dot,0.3,['dot'],['density'],black,0,16,16,16,,,8.000203132629395,7.713068008422852,8.01303219795227,dot,"[0.1, 0.08]","[[0.24818458179829028, -0.5230613829255512], [0.05315527151035717, -0.47711981276458415]]",density,black,,,N011,visual,1,[],"['1', '2', '3', '4']",1,2023.2.3,harveyvisual,2.1,[],8,0.75,
0,pause,0.4,None,None,None,0,17,17,17,,,,,,,,,,,,,N011,visual,1,[],"['1', '2', '3', '4']",1,2023.2.3,harveyvisual,2.1,[],8,0.75,
2,dot,0.3,['dot'],['density'],white,0,18,18,18,,,8.70020318031311,8.413042068481445,8.71302604675293,dot,"[0.1, 0.1]","[[-0.19482721327365293, -0.5079820576301489], [-0.36119809377872014, -0.396546877814361]]",density,white,,,N011,visual,1,[],"['1', '2', '3', '4']",1,2023.2.3,harveyvisual,2.1,[],8,0.75,
0,pause,0.4,None,None,None,0,19,19,19,,,,,,,,,,,1,8.857757091522217,N011,visual,1,[],"['1', '2', '3', '4']",1,2023.2.3,harveyvisual,2.1,[],8,0.75,
2,dot,0.3,['dot'],['density'],black,0,20,20,20,,,9.400200128555298,9.113016128540039,9.413026094436646,dot,"[0.06, 0.08]","[[0.1734117655345296, 0.46860731914486053], [-0.01847566562869785, 0.52581935004857]]",density,black,,,N011,visual,1,[],"['1', '2', '3', '4']",1,2023.2.3,harveyvisual,2.1,[],8,0.75,
0,pause,0.4,None,None,None,0,21,21,21,,,,,,,,,,,,,N011,visual,1,[],"['1', '2', '3', '4']",1,2023.2.3,harveyvisual,2.1,[],8,0.75,
2,dot,0.3,['dot'],['density'],black,0,22,22,22,,,10.100218057632446,9.81300401687622,10.112995147705078,dot,"[0.06, 0.06]","[[0.17083311991776792, -0.05558111512160733], [0.1461049568064877, -0.25438559320493304]]",density,black,,,N011,visual,1,[],"['1', '2', '3', '4']",1,2023.2.3,harveyvisual,2.1,[],8,0.75,
0,pause,0.4,None,None,None,0,23,23,23,,,,,,,,,,,,,N011,visual,1,[],"['1', '2', '3', '4']",1,2023.2.3,harveyvisual,2.1,[],8,0.75,
3,dot,0.3,['dot'],['density'],black,0,24,24,24,,,10.800198078155518,10.51301097869873,10.812985181808472,dot,"[0.06, 0.06, 0.1]","[[0.2768253388883432, 0.03346297355107007], [0.11287187477499526, -0.09417797505773098], [0.09003622344097514, 0.12370024427926096]]",density,black,,,N011,visual,1,[],"['1', '2', '3', '4']",1,2023.2.3,harveyvisual,2.1,[],8,0.75,
0,pause,0.4,None,None,None,0,25,25,25,,,,,,,,,,,,,N011,visual,1,[],"['1', '2', '3', '4']",1,2023.2.3,harveyvisual,2.1,[],8,0.75,
3,dot,0.3,['dot'],['density'],white,0,26,26,26,,,11.500195026397705,11.21295714378357,11.512952089309692,dot,"[0.06, 0.1, 0.08]","[[0.1555504186016049, 0.15532406847092056], [-0.0680535881648269, 0.26220909641571793], [0.08533315121688807, 0.39122308779032533]]",density,white,,,N011,visual,1,[],"['1', '2', '3', '4']",1,2023.2.3,harveyvisual,2.1,[],8,0.75,
0,pause,0.4,None,None,None,0,27,27,27,,,,,,,,,,,1,11.67009711265564,N011,visual,1,[],"['1', '2', '3', '4']",1,2023.2.3,harveyvisual,2.1,[],8,0.75,
3,dot,0.3,['dot'],['density'],black,0,28,28,28,,,12.200199127197266,11.912930011749268,12.212927103042603,dot,"[0.08, 0.08, 0.1]","[[0.03752440580708033, 0.5298990797186869], [-0.14535247226304113, 0.44143535861080874], [0.07857889528852925, 0.30774558950641073]]",density,black,,,N011,visual,1,[],"['1', '2', '3', '4']",1,2023.2.3,harveyvisual,2.1,[],8,0.75,
0,pause,0.4,None,None,None,0,29,29,29,,,,,,,,,,,,,N011,visual,1,[],"['1', '2', '3', '4']",1,2023.2.3,harveyvisual,2.1,[],8,0.75,
3,dot,0.3,['dot'],['density'],black,0,30,30,30,,,12.900205135345459,12.612918138504028,12.912909984588623,dot,"[0.1, 0.08, 0.08]","[[0.2768253388883432, 0.03346297355107007], [0.11287187477499526, -0.09417797505773098], [0.09003622344097514, 0.12370024427926096]]",density,black,,,N011,visual,1,[],"['1', '2', '3', '4']",1,2023.2.3,harveyvisual,2.1,[],8,0.75,
0,pause,0.4,None,None,None,0,31,31,31,,,,,,,,,,,,,N011,visual,1,[],"['1', '2', '3', '4']",1,2023.2.3,harveyvisual,2.1,[],8,0.75,
3,dot,0.3,['dot'],['density'],black,0,32,32,32,,,13.600220203399658,13.312911987304688,13.612915992736816,dot,"[0.08, 0.06, 0.08]","[[0.13574725429899362, -0.5423283227425341], [-0.036793286563257144, -0.3768814925557267], [0.16175487704753985, -0.3348017255345844]]",density,black,,,N011,visual,1,[],"['1', '2', '3', '4']",1,2023.2.3,harveyvisual,2.1,[],8,0.75,
0,pause,0.4,None,None,None,0,33,33,33,,,,,,,,,,,,,N011,visual,1,[],"['1', '2', '3', '4']",1,2023.2.3,harveyvisual,2.1,[],8,0.75,
3,dot,0.3,['dot'],['density'],black,0,34,34,34,,,14.300211191177368,14.01289701461792,14.312880039215088,dot,"[0.1, 0.1, 0.1]","[[0.2768253388883432, 0.03346297355107007], [0.11287187477499526, -0.09417797505773098], [0.09003622344097514, 0.12370024427926096]]",density,black,,,N011,visual,1,[],"['1', '2', '3', '4']",1,2023.2.3,harveyvisual,2.1,[],8,0.75,
0,pause,0.4,None,None,None,0,35,35,35,,,,,,,,,,,,,N011,visual,1,[],"['1', '2', '3', '4']",1,2023.2.3,harveyvisual,2.1,[],8,0.75,
4,dot,0.3,['dot'],['density'],black,0,36,36,36,,,15.000211000442505,14.712879180908203,15.012855052947998,dot,"[0.06, 0.1, 0.06, 0.1]","[[-0.46485289602757673, 0.3603628353310837], [-0.30733625211232357, 0.21626236973196436], [-0.38991578213366157, 0.024479253410336757], [-0.570234662048439, 0.14093512067028166]]",density,black,,,N011,visual,1,[],"['1', '2', '3', '4']",1,2023.2.3,harveyvisual,2.1,[],8,0.75,
0,pause,0.4,None,None,None,0,37,37,37,,,,,,,,,,,,,N011,visual,1,[],"['1', '2', '3', '4']",1,2023.2.3,harveyvisual,2.1,[],8,0.75,
4,dot,0.3,['dot'],['density'],white,0,38,38,38,,,15.700216054916382,15.412862062454224,15.712857007980347,dot,"[0.08, 0.1, 0.1, 0.06]","[[0.06019618102804278, 0.17823994931545822], [-0.1876584465411705, -0.07971170835358893], [0.026807447441335588, -0.04038633305360204], [-0.17818728785032123, 0.12753763641901858]]",density,white,,,N011,visual,1,[],"['1', '2', '3', '4']",1,2023.2.3,harveyvisual,2.1,[],8,0.75,
0,pause,0.4,None,None,None,0,39,39,39,,,,,,,,,,,1,15.837564945220947,N011,visual,1,[],"['1', '2', '3', '4']",1,2023.2.3,harveyvisual,2.1,[],8,0.75,
4,dot,0.3,['dot'],['density'],black,0,40,40,40,,,16.400207042694092,16.112791061401367,16.41284704208374,dot,"[0.08, 0.1, 0.1, 0.1]","[[-0.1807894278345534, -0.050693892368996955], [-0.03778933673514029, -0.29773510453537966], [0.0747201162679791, -0.1287424711559737], [-0.02241484737224569, 0.07404475448468936]]",density,black,,,N011,visual,1,[],"['1', '2', '3', '4']",1,2023.2.3,harveyvisual,2.1,[],8,0.75,
0,pause,0.4,None,None,None,0,41,41,41,,,,,,,,,,,,,N011,visual,1,[],"['1', '2', '3', '4']",1,2023.2.3,harveyvisual,2.1,[],8,0.75,
4,dot,0.3,['dot'],['density'],black,0,42,42,42,,,17.10020899772644,16.81282901763916,17.112805128097534,dot,"[0.1, 0.08, 0.1, 0.08]","[[0.06081986304483943, 0.35358512719402324], [0.4232304195196481, 0.14579533924648716], [0.12419639750553536, 0.133833625718984], [0.26609561976711055, 0.2970795792082364]]",density,black,,,N011,visual,1,[],"['1', '2', '3', '4']",1,2023.2.3,harveyvisual,2.1,[],8,0.75,
0,pause,0.4,None,None,None,0,43,43,43,,,,,,,,,,,,,N011,visual,1,[],"['1', '2', '3', '4']",1,2023.2.3,harveyvisual,2.1,[],8,0.75,
4,dot,0.3,['dot'],['density'],black,0,44,44,44,,,17.80020308494568,17.512775182724,17.81278419494629,dot,"[0.08, 0.08, 0.06, 0.1]","[[0.2472118047986834, -0.10298318101898082], [0.5832669122255578, -0.0503561045998346], [0.411076479450662, -0.2641061246578253], [0.42907679660555237, 0.09101913809416001]]",density,black,,,N011,visual,1,[],"['1', '2', '3', '4']",1,2023.2.3,harveyvisual,2.1,[],8,0.75,
0,pause,0.4,None,None,None,0,45,45,45,,,,,,,,,,,,,N011,visual,1,[],"['1', '2', '3', '4']",1,2023.2.3,harveyvisual,2.1,[],8,0.75,
4,dot,0.3,['dot'],['density'],black,0,46,46,46,,,18.50022315979004,18.212899208068848,18.512754201889038,dot,"[0.08, 0.1, 0.06, 0.08]","[[0.28769160010247724, 0.4706884012140322], [0.03735362687931127, 0.4645781312677133], [0.33102019499247487, 0.1847810932959147], [0.1685132699603264, 0.30497059043407926]]",density,black,,,N011,visual,1,[],"['1', '2', '3', '4']",1,2023.2.3,harveyvisual,2.1,[],8,0.75,
0,pause,0.4,None,None,None,0,47,47,47,,,,,,,,,,,,,N011,visual,1,[],"['1', '2', '3', '4']",1,2023.2.3,harveyvisual,2.1,[],8,0.75,
5,dot,0.3,['dot'],['density'],black,0,48,48,48,,,19.200200080871582,18.912877082824707,19.212764978408813,dot,"[0.1, 0.08, 0.06, 0.08, 0.06]","[[-0.11834215492801986, 0.412508379109845], [0.31881799646300274, 0.30859303438359803], [-0.06368743078099719, 0.10105058071702504], [0.1133485112468387, 0.46262203184429457], [0.11957051434631445, 0.24197418837926052]]",density,black,,,N011,visual,1,[],"['1', '2', '3', '4']",1,2023.2.3,harveyvisual,2.1,[],8,0.75,
0,pause,0.4,None,None,None,0,49,49,49,,,,,,,,,,,,,N011,visual,1,[],"['1', '2', '3', '4']",1,2023.2.3,harveyvisual,2.1,[],8,0.75,
5,dot,0.3,['dot'],['density'],black,0,50,50,50,,,19.900216102600098,19.612749099731445,19.91284704208374,dot,"[0.1, 0.1, 0.08, 0.1, 0.08]","[[0.029171133319913545, -0.11913068329317353], [-0.2981845944788078, -0.46624640290839614], [-0.1844599491613969, -0.04126455345730423], [-0.2900988597239497, -0.2493716418714862], [-0.0791391532727178, -0.3057260733699829]]",density,black,,,N011,visual,1,[],"['1', '2', '3', '4']",1,2023.2.3,harveyvisual,2.1,[],8,0.75,
0,pause,0.4,None,None,None,0,51,51,51,,,,,,,,,,,,,N011,visual,1,[],"['1', '2', '3', '4']",1,2023.2.3,harveyvisual,2.1,[],8,0.75,
5,dot,0.3,['dot'],['density'],black,0,52,52,52,,,20.600203037261963,20.312844038009644,20.6128351688385,dot,"[0.06, 0.1, 0.06, 0.08, 0.08]","[[-0.13250041589442924, 0.4634743177333449], [-0.03625216126902591, 0.28212032656479163], [0.10864293512180892, 0.5244886061775208], [-0.2806491611955352, 0.29160063440784684], [-0.17458602784440078, 0.11997474961663163]]",density,black,,,N011,visual,1,[],"['1', '2', '3', '4']",1,2023.2.3,harveyvisual,2.1,[],8,0.75,
0,pause,0.4,None,None,None,0,53,53,53,,,,,,,,,,,,,N011,visual,1,[],"['1', '2', '3', '4']",1,2023.2.3,harveyvisual,2.1,[],8,0.75,
5,dot,0.3,['dot'],['density'],black,0,54,54,54,,,21.300207138061523,21.012816190719604,21.312708139419556,dot,"[0.08, 0.1, 0.06, 0.1, 0.06]","[[0.11182935554897071, 0.3084500478813638], [0.20284409002608467, 0.5199666233992849], [0.31882748915707354, 0.1252782162051447], [0.39083404861423326, 0.3494221689807338], [0.1196046891632849, 0.10173499350566408]]",density,black,,,N011,visual,1,[],"['1', '2', '3', '4']",1,2023.2.3,harveyvisual,2.1,[],8,0.75,
0,pause,0.4,None,None,None,0,55,55,55,,,,,,,,,,,,,N011,visual,1,[],"['1', '2', '3', '4']",1,2023.2.3,harveyvisual,2.1,[],8,0.75,
5,dot,0.3,['dot'],['density'],black,0,56,56,56,,,22.000200986862183,21.712783098220825,22.012824058532715,dot,"[0.06, 0.06, 0.1, 0.06, 0.08]","[[0.2447541601906441, 0.3086669061463178], [0.2085849672204031, -0.04267428248465989], [0.44393754570968663, -0.061602228714441105], [0.027125763574429876, 0.05764502161176834], [0.36879828001487897, 0.1310025380577708]]",density,black,,,N011,visual,1,[],"['1', '2', '3', '4']",1,2023.2.3,harveyvisual,2.1,[],8,0.75,
0,pause,0.4,None,None,None,0,57,57,57,,,,,,,,,,,,,N011,visual,1,[],"['1', '2', '3', '4']",1,2023.2.3,harveyvisual,2.1,[],8,0.75,
5,dot,0.3,['dot'],['density'],black,0,58,58,58,,,22.700212001800537,22.41277503967285,22.71280813217163,dot,"[0.1, 0.06, 0.1, 0.1, 0.08]","[[0.2947939438731228, -0.23060267152592065], [-0.16069394766121817, -0.3416383267983795], [0.17571447256805817, -0.04795497140357211], [-0.06398416024856234, -0.043165972544212804], [0.046845399773749824, -0.2436216536023896]]",density,black,,,N011,visual,1,[],"['1', '2', '3', '4']",1,2023.2.3,harveyvisual,2.1,[],8,0.75,
0,pause,0.4,None,None,None,0,59,59,59,,,,,,,,,,,,,N011,visual,1,[],"['1', '2', '3', '4']",1,2023.2.3,harveyvisual,2.1,[],8,0.75,
6,dot,0.3,['dot'],['density'],black,0,60,60,60,,,23.400200128555298,23.112802028656006,23.412739992141724,dot,"[0.1, 0.06, 0.08, 0.06, 0.08, 0.06]","[[-0.4836161913484198, -0.3187453071493452], [-0.26471688047626735, -0.2860523134109648], [-0.41762950244179403, 0.08668289631298715], [-0.3878484475239729, -0.1200129628316565], [-0.19654931186518254, -0.017200237521102193], [-0.07523945320955261, -0.19429752312200124]]",density,black,,,N011,visual,1,[],"['1', '2', '3', '4']",1,2023.2.3,harveyvisual,2.1,[],8,0.75,
0,pause,0.4,None,None,None,0,61,61,61,,,,,,,,,,,,,N011,visual,1,[],"['1', '2', '3', '4']",1,2023.2.3,harveyvisual,2.1,[],8,0.75,
6,dot,0.3,['dot'],['density'],white,0,62,62,62,,,24.100210189819336,23.81271505355835,24.11261010169983,dot,"[0.08, 0.08, 0.1, 0.06, 0.1, 0.06]","[[0.404576257273406, 0.0700140295133255], [0.16236872381874318, -0.0021128728600973284], [0.5529541989122894, -0.15659614737169442], [0.13702497511457395, -0.2589057080071786], [0.36740063964394665, -0.3636528069500345], [0.3132750905084481, -0.159771579268986]]",density,white,,,N011,visual,1,[],"['1', '2', '3', '4']",1,2023.2.3,harveyvisual,2.1,[],8,0.75,
0,pause,0.4,None,None,None,0,63,63,63,,,,,,,,,,,1,24.3135929107666,N011,visual,1,[],"['1', '2', '3', '4']",1,2023.2.3,harveyvisual,2.1,[],8,0.75,
6,dot,0.3,['dot'],['density'],black,0,64,64,64,,,24.800222158432007,24.51259207725525,24.812583208084106,dot,"[0.06, 0.1, 0.06, 0.08, 0.08, 0.06]","[[-0.5416753121247185, 0.020803147184574915], [-0.3232269173664433, -0.07161231053200118], [-0.3008479376061402, -0.286480119217458], [-0.22299540496279888, 0.12470258063391813], [-0.10776740766186912, -0.19554033341247495], [-0.5165544979209102, -0.21376225914528924]]",density,black,,,N011,visual,1,[],"['1', '2', '3', '4']",1,2023.2.3,harveyvisual,2.1,[],8,0.75,
0,pause,0.4,None,None,None,0,65,65,65,,,,,,,,,,,,,N011,visual,1,[],"['1', '2', '3', '4']",1,2023.2.3,harveyvisual,2.1,[],8,0.75,
6,dot,0.3,['dot'],['density'],black,0,66,66,66,,,25.500203132629395,25.212573051452637,25.512595176696777,dot,"[0.1, 0.06, 0.08, 0.1, 0.08, 0.08]","[[0.1982846419110591, -0.5292804859653952], [-0.09533153174900855, -0.5647367288422243], [-0.1659446600366624, -0.36958438178462333], [0.23572970018209544, -0.2476946313124468], [-0.023160452264027947, -0.17140847685647978], [0.035419311136148636, -0.3737635646361638]]",density,black,,,N011,visual,1,[],"['1', '2', '3', '4']",1,2023.2.3,harveyvisual,2.1,[],8,0.75,
0,pause,0.4,None,None,None,0,67,67,67,,,,,,,,,,,,,N011,visual,1,[],"['1', '2', '3', '4']",1,2023.2.3,harveyvisual,2.1,[],8,0.75,
6,dot,0.3,['dot'],['density'],black,0,68,68,68,,,26.20021915435791,25.912589073181152,26.212582111358643,dot,"[0.08, 0.06, 0.1, 0.06, 0.08, 0.1]","[[0.404576257273406, 0.0700140295133255], [0.16236872381874318, -0.0021128728600973284], [0.5529541989122894, -0.15659614737169442], [0.13702497511457395, -0.2589057080071786], [0.36740063964394665, -0.3636528069500345], [0.3132750905084481, -0.159771579268986]]",density,black,,,N011,visual,1,[],"['1', '2', '3', '4']",1,2023.2.3,harveyvisual,2.1,[],8,0.75,
0,pause,0.4,None,None,None,0,69,69,69,,,,,,,,,,,,,N011,visual,1,[],"['1', '2', '3', '4']",1,2023.2.3,harveyvisual,2.1,[],8,0.75,
6,dot,0.3,['dot'],['density'],black,0,70,70,70,,,26.90020513534546,26.61256217956543,26.91255211830139,dot,"[0.06, 0.06, 0.06, 0.08, 0.06, 0.08]","[[-0.25199583264674774, 0.1645076628059283], [-0.30980015185235615, -0.30059811601219943], [-0.3416104032120793, -0.08609002542292095], [-0.44539923421558947, 0.10453038353258776], [-0.10444623085343022, 0.0009067836503606603], [-0.5495015018291214, -0.1770200348029928]]",density,black,,,N011,visual,1,[],"['1', '2', '3', '4']",1,2023.2.3,harveyvisual,2.1,[],8,0.75,
0,pause,0.4,None,None,None,0,71,71,71,,,,,,,,,,,,,N011,visual,1,[],"['1', '2', '3', '4']",1,2023.2.3,harveyvisual,2.1,[],8,0.75,
7,dot,0.3,['dot'],['density'],black,0,72,72,72,,,27.600219011306763,27.3125422000885,27.61253809928894,dot,"[0.1, 0.1, 0.1, 0.08, 0.06, 0.1, 0.06]","[[-0.3423230189937584, -0.41219609722212536], [-0.1182323968952694, -0.35552357509158045], [-0.4111032443031386, -0.006313161275750597], [-0.5095560862941229, -0.2529410328503813], [-0.2588176969072235, -0.18091026219072012], [-0.0026253510642934245, -0.12197054074907589], [-0.16586784627322051, 0.0941069694468023]]",density,black,,,N011,visual,1,[],"['1', '2', '3', '4']",1,2023.2.3,harveyvisual,2.1,[],8,0.75,
0,pause,0.4,None,None,None,0,73,73,73,,,,,,,,,,,,,N011,visual,1,[],"['1', '2', '3', '4']",1,2023.2.3,harveyvisual,2.1,[],8,0.75,
7,dot,0.3,['dot'],['density'],black,0,74,74,74,,,28.30020308494568,28.01253604888916,28.312519073486328,dot,"[0.08, 0.08, 0.1, 0.06, 0.08, 0.06, 0.08]","[[-0.23022292756182125, -0.05768485575552839], [-0.3970021412728509, -0.1722837668104814], [-0.2989980436724142, -0.5015189566068301], [-0.1887121522124618, -0.3052937986494308], [-0.001193606839323686, -0.45187687349833133], [-0.45251418858811787, -0.367940027934103], [0.11213422846620591, -0.19711986939188722]]",density,black,,,N011,visual,1,[],"['1', '2', '3', '4']",1,2023.2.3,harveyvisual,2.1,[],8,0.75,
0,pause,0.4,None,None,None,0,75,75,75,,,,,,,,,,,,,N011,visual,1,[],"['1', '2', '3', '4']",1,2023.2.3,harveyvisual,2.1,[],8,0.75,
7,dot,0.3,['dot'],['density'],black,0,76,76,76,,,29.000200033187866,28.712507009506226,29.01249408721924,dot,"[0.08, 0.06, 0.06, 0.1, 0.1, 0.1, 0.08]","[[0.3899189512010899, -0.40728696153528776], [0.20392863561369634, -0.3305625840210526], [0.31626985815109576, 0.13567824844623666], [0.5017338684339655, -0.028549680114735937], [0.11648855723187378, -0.1078833072829627], [0.07041138378868489, 0.08730219371944997], [0.32910598476010167, -0.13660711058181768]]",density,black,,,N011,visual,1,[],"['1', '2', '3', '4']",1,2023.2.3,harveyvisual,2.1,[],8,0.75,
0,pause,0.4,None,None,None,0,77,77,77,,,,,,,,,,,,,N011,visual,1,[],"['1', '2', '3', '4']",1,2023.2.3,harveyvisual,2.1,[],8,0.75,
7,dot,0.3,['dot'],['density'],black,0,78,78,78,,,29.70022201538086,29.412504196166992,29.712478160858154,dot,"[0.08, 0.06, 0.08, 0.1, 0.1, 0.08, 0.08]","[[-0.08751196138777266, -0.40239331021683095], [-0.1389983634140625, -0.1821537091642013], [-0.5212097088452917, -0.15879536445288125], [-0.24197016774290594, 0.025691971861017886], [-0.324083892787021, -0.3083678109532634], [0.06465625853811506, -0.19815494036826437], [-0.2569867334647868, -0.5155038850209747]]",density,black,,,N011,visual,1,[],"['1', '2', '3', '4']",1,2023.2.3,harveyvisual,2.1,[],8,0.75,
0,pause,0.4,None,None,None,0,79,79,79,,,,,,,,,,,,,N011,visual,1,[],"['1', '2', '3', '4']",1,2023.2.3,harveyvisual,2.1,[],8,0.75,
7,dot,0.3,['dot'],['density'],white,0,80,80,80,,,30.40021800994873,30.11248016357422,30.41247010231018,dot,"[0.08, 0.06, 0.1, 0.06, 0.08, 0.1, 0.08]","[[0.27964692832129656, -0.15500474148311624], [0.48019533028943556, 0.09933774746227163], [0.08203545767143021, 0.28019381302663365], [0.05572057582720619, -0.1426303369841539], [0.31711281236335803, 0.2944831276535668], [-0.041479771322150735, 0.11885700406191958], [0.21045310206912196, 0.07075003364957701]]",density,white,,,N011,visual,1,[],"['1', '2', '3', '4']",1,2023.2.3,harveyvisual,2.1,[],8,0.75,
0,pause,0.4,None,None,None,0,81,81,81,,,,,,,,,,,1,30.628417015075684,N011,visual,1,[],"['1', '2', '3', '4']",1,2023.2.3,harveyvisual,2.1,[],8,0.75,
7,dot,0.3,['dot'],['density'],black,0,82,82,82,,,31.100200176239014,30.812451124191284,31.112433195114136,dot,"[0.08, 0.08, 0.08, 0.08, 0.06, 0.06, 0.06]","[[0.3899189512010899, -0.40728696153528776], [0.20392863561369634, -0.3305625840210526], [0.31626985815109576, 0.13567824844623666], [0.5017338684339655, -0.028549680114735937], [0.11648855723187378, -0.1078833072829627], [0.07041138378868489, 0.08730219371944997], [0.32910598476010167, -0.13660711058181768]]",density,black,,,N011,visual,1,[],"['1', '2', '3', '4']",1,2023.2.3,harveyvisual,2.1,[],8,0.75,
0,pause,0.4,None,None,None,0,83,83,83,,,,,,,,,,,,,N011,visual,1,[],"['1', '2', '3', '4']",1,2023.2.3,harveyvisual,2.1,[],8,0.75,
8,dot,0.3,['dot'],['density'],black,0,84,84,84,,,31.800212144851685,31.51239514350891,31.812414169311523,dot,"[0.1, 0.08, 0.1, 0.06, 0.1, 0.08, 0.08, 0.06]","[[-0.3167478768396544, -0.2124469325344782], [0.11150510454677101, -0.25361932254341324], [0.17657050060311263, -0.496926349220185], [0.20833757931744315, -0.0002320808252021913], [-0.0015234955214533466, 0.034722119540356526], [-0.10690598217119997, -0.19846612199298916], [0.32498422138424443, -0.23444872628509345], [-0.054741640541526956, -0.4230750989992696]]",density,black,,,N011,visual,1,[],"['1', '2', '3', '4']",1,2023.2.3,harveyvisual,2.1,[],8,0.75,
0,pause,0.4,None,None,None,0,85,85,85,,,,,,,,,,,,,N011,visual,1,[],"['1', '2', '3', '4']",1,2023.2.3,harveyvisual,2.1,[],8,0.75,
8,dot,0.3,['dot'],['density'],black,0,86,86,86,,,32.500200033187866,32.21241617202759,32.51239204406738,dot,"[0.08, 0.08, 0.1, 0.1, 0.1, 0.06, 0.06, 0.1]","[[-0.4462313073918426, 0.10595449025715867], [0.022923871415176152, 0.06290918987699953], [-0.12461589820496316, 0.4830175517012745], [-0.29730306390741434, 0.2752084497958106], [-0.2195410516364439, 0.056871795648565045], [0.008916049516666445, 0.2907399105306955], [-0.08256048209355603, -0.11638226771844133], [-0.4106304257826301, -0.09222594144079917]]",density,black,,,N011,visual,1,[],"['1', '2', '3', '4']",1,2023.2.3,harveyvisual,2.1,[],8,0.75,
0,pause,0.4,None,None,None,0,87,87,87,,,,,,,,,,,,,N011,visual,1,[],"['1', '2', '3', '4']",1,2023.2.3,harveyvisual,2.1,[],8,0.75,
8,dot,0.3,['dot'],['density'],black,0,88,88,88,,,33.20022201538086,32.91239309310913,33.21233916282654,dot,"[0.08, 0.06, 0.1, 0.06, 0.1, 0.08, 0.1, 0.08]","[[0.12411109391386341, -0.5343823995123961], [-0.21238427398525783, -0.3197389486612228], [-0.06551876445787266, 0.032183079599910736], [0.22034046694826517, 0.05676208929132721], [0.31747551588691986, -0.13046885784073625], [0.01834943727978222, -0.34316474661021057], [0.10776215616131694, -0.12386070969881222], [-0.2386971922539417, -0.09256206635527232]]",density,black,,,N011,visual,1,[],"['1', '2', '3', '4']",1,2023.2.3,harveyvisual,2.1,[],8,0.75,
0,pause,0.4,None,None,None,0,89,89,89,,,,,,,,,,,,,N011,visual,1,[],"['1', '2', '3', '4']",1,2023.2.3,harveyvisual,2.1,[],8,0.75,
8,dot,0.3,['dot'],['density'],black,0,90,90,90,,,33.90020704269409,33.61237120628357,33.912363052368164,dot,"[0.06, 0.08, 0.08, 0.1, 0.08, 0.1, 0.08, 0.08]","[[0.2695774744445919, -0.006239189610034271], [0.562582848369008, 0.10338967896652898], [0.24075709842543627, 0.2415297589697605], [0.16944247952526825, 0.43473569867318385], [0.009973801462114143, 0.2622623098226203], [0.4378981685404615, 0.30984992123658367], [0.345623627049791, -0.19390063473497438], [0.01218861403819752, 6.35764658527089e-05]]",density,black,,,N011,visual,1,[],"['1', '2', '3', '4']",1,2023.2.3,harveyvisual,2.1,[],8,0.75,
0,pause,0.4,None,None,None,0,91,91,91,,,,,,,,,,,,,N011,visual,1,[],"['1', '2', '3', '4']",1,2023.2.3,harveyvisual,2.1,[],8,0.75,
8,dot,0.3,['dot'],['density'],white,0,92,92,92,,,34.60022020339966,34.312361001968384,34.612343072891235,dot,"[0.06, 0.08, 0.1, 0.1, 0.08, 0.1, 0.1, 0.06]","[[0.17295790489511154, -0.46037743866749825], [0.1416591427765588, 0.05421051799673566], [0.21994266958916148, -0.13656690113679631], [0.3639906379971415, 0.0627265571221228], [0.015481321741344221, -0.13916897583717935], [0.440802488837635, -0.2883976186876931], [0.5157567705321767, -0.08800602901884749], [0.24768837887357187, 0.24424825162618136]]",density,white,,,N011,visual,1,[],"['1', '2', '3', '4']",1,2023.2.3,harveyvisual,2.1,[],8,0.75,
0,pause,0.4,None,None,None,0,93,93,93,,,,,,,,,,,1,34.67595100402832,N011,visual,1,[],"['1', '2', '3', '4']",1,2023.2.3,harveyvisual,2.1,[],8,0.75,
8,dot,0.3,['dot'],['density'],black,0,94,94,94,,,35.300217151641846,35.012479066848755,35.31244897842407,dot,"[0.08, 0.06, 0.1, 0.1, 0.08, 0.1, 0.08, 0.1]","[[0.32983457944800887, -0.09988122376634187], [0.002544499336209532, 0.05447162498302279], [0.49322357980250997, 0.04173156098678792], [0.3398992085464782, -0.3241559212022164], [0.12656458423521935, -0.36323236959635974], [0.5072737450674915, -0.19500703868861743], [0.06482113683766944, -0.1422911224505784], [0.25865538318477954, 0.20042726536108785]]",density,black,,,N011,visual,1,[],"['1', '2', '3', '4']",1,2023.2.3,harveyvisual,2.1,[],8,0.75,
0,pause,0.4,None,None,None,0,95,95,95,,,,,,,,,,,,,N011,visual,1,[],"['1', '2', '3', '4']",1,2023.2.3,harveyvisual,2.1,[],8,0.75,
9,dot,0.3,['dot'],['density'],black,0,96,96,96,,,36.00020098686218,35.712449073791504,36.01244115829468,dot,"[0.06, 0.06, 0.06, 0.08, 0.1, 0.06, 0.1, 0.1, 0.08]","[[-0.03971785412685378, -0.013307253576883936], [-0.1795931736998084, 0.3973594317450326], [-0.3834375522639881, 0.20263766925149762], [-0.17272229141218848, -0.19949677387464254], [-0.5360333538572699, -0.009032368777402771], [-0.28286279854376034, -0.008232758075431683], [0.17411699897949384, -0.08382665075843401], [-0.16068367208365952, 0.1786486522774764], [0.029814794500374706, 0.34001547930781484]]",density,black,,,N011,visual,1,[],"['1', '2', '3', '4']",1,2023.2.3,harveyvisual,2.1,[],8,0.75,
0,pause,0.4,None,None,None,0,97,97,97,,,,,,,,,,,,,N011,visual,1,[],"['1', '2', '3', '4']",1,2023.2.3,harveyvisual,2.1,[],8,0.75,
9,dot,0.3,['dot'],['density'],black,0,98,98,98,,,36.70021414756775,36.41243505477905,36.712414026260376,dot,"[0.1, 0.08, 0.1, 0.06, 0.06, 0.08, 0.08, 0.06, 0.06]","[[0.34043128493099817, 0.2271075800100716], [0.2702764120171402, -0.10456749967376819], [-0.1274635928921129, -0.04210317806044915], [-0.03460273614387521, 0.1795356259369138], [0.14470969472881007, 0.3391925298523705], [0.06761060508642219, 0.0060094309834155335], [0.5117869412029185, -0.12050585585317111], [0.07404675892906432, -0.22660478390602867], [0.35723900661310204, -0.3185591288757]]",density,black,,,N011,visual,1,[],"['1', '2', '3', '4']",1,2023.2.3,harveyvisual,2.1,[],8,0.75,
0,pause,0.4,None,None,None,0,99,99,99,,,,,,,,,,,,,N011,visual,1,[],"['1', '2', '3', '4']",1,2023.2.3,harveyvisual,2.1,[],8,0.75,
9,dot,0.3,['dot'],['density'],white,0,100,100,100,,,37.400206089019775,37.11241102218628,37.41240119934082,dot,"[0.1, 0.1, 0.1, 0.1, 0.06, 0.06, 0.1, 0.08, 0.1]","[[0.5176022259896301, 0.07013652950073157], [0.29073914382076843, 0.49095716113391286], [0.25755010907869064, 0.10321661572421419], [0.11549350267606502, 0.37871636325142816], [-0.040248060121338324, 0.07603447111469516], [0.35733910828644905, -0.07238149579930037], [0.09184169877402729, -0.10424630849328012], [-0.10934901156313583, -0.14911132891814113], [0.4158094160330474, 0.26019999263529187]]",density,white,,,N011,visual,1,[],"['1', '2', '3', '4']",1,2023.2.3,harveyvisual,2.1,[],8,0.75,
0,pause,0.4,None,None,None,0,101,101,101,,,,,,,,,,,1,37.46441602706909,N011,visual,1,[],"['1', '2', '3', '4']",1,2023.2.3,harveyvisual,2.1,[],8,0.75,
9,dot,0.3,['dot'],['density'],black,0,102,102,102,,,38.10021710395813,37.81240105628967,38.11223602294922,dot,"[0.08, 0.06, 0.06, 0.08, 0.1, 0.06, 0.08, 0.1, 0.06]","[[0.17250841666444466, -0.5173949811024123], [-0.03744062107829021, -0.3895067986023326], [0.30010350549611725, -0.35742528465303014], [0.33064876224298684, -0.08057424749072183], [-0.16743636965090838, -0.09291053242622109], [0.1226827020066543, -0.24711763375004436], [0.047527772487498496, -0.037432207059122605], [0.20928928941955194, 0.09999474740890861], [-0.30040876562534896, -0.42726910911839744]]",density,black,,,N011,visual,1,[],"['1', '2', '3', '4']",1,2023.2.3,harveyvisual,2.1,[],8,0.75,
0,pause,0.4,None,None,None,0,103,103,103,,,,,,,,,,,,,N011,visual,1,[],"['1', '2', '3', '4']",1,2023.2.3,harveyvisual,2.1,[],8,0.75,
9,dot,0.3,['dot'],['density'],black,0,104,104,104,,,38.80021119117737,38.512243032455444,38.81221914291382,dot,"[0.08, 0.1, 0.08, 0.08, 0.08, 0.08, 0.08, 0.1, 0.06]","[[-0.01550530976013749, -0.4685693709261764], [-0.18673980358629047, -0.03677939788938074], [-0.492500386343057, -0.31631588298646995], [-0.31211872613566405, -0.49615226168915794], [-0.29213402726227655, -0.2779210730957987], [-0.48141959868665407, -0.11483975315711048], [0.2805727548720413, -0.20550850813502752], [-0.0662162642732561, -0.2200496541038322], [0.06776853683421198, -0.046300179137656175]]",density,black,,,N011,visual,1,[],"['1', '2', '3', '4']",1,2023.2.3,harveyvisual,2.1,[],8,0.75,
0,pause,0.4,None,None,None,0,105,105,105,,,,,,,,,,,,,N011,visual,1,[],"['1', '2', '3', '4']",1,2023.2.3,harveyvisual,2.1,[],8,0.75,
9,dot,0.3,['dot'],['density'],black,0,106,106,106,,,39.50021815299988,39.212223052978516,39.512181997299194,dot,"[0.06, 0.1, 0.06, 0.1, 0.06, 0.08, 0.1, 0.06, 0.06]","[[-0.13146557112902973, 0.14116723461389186], [0.2951467361821443, -0.02824752732805288], [0.19428532799116477, -0.23589609671221848], [-0.28731157875063357, -0.1506919145754202], [-0.013954936164563217, -0.2914313940092583], [0.05437169614590384, 0.05057158482376688], [-0.11710547218270359, -0.5628603002908775], [-0.3181416531292253, -0.36750682532956547], [-0.10064922490671671, -0.07835054634105423]]",density,black,,,N011,visual,1,[],"['1', '2', '3', '4']",1,2023.2.3,harveyvisual,2.1,[],8,0.75,
0,pause,0.4,None,None,None,0,107,107,107,,,,,,,,,,,,,N011,visual,1,[],"['1', '2', '3', '4']",1,2023.2.3,harveyvisual,2.1,[],8,0.75,
20,dot,0.3,['dot'],['density'],black,0,108,108,108,,,40.200206995010376,39.91219711303711,40.21218919754028,dot,"[0.06, 0.06, 0.1, 0.1, 0.06, 0.1, 0.06, 0.1, 0.06, 0.1, 0.06, 0.06, 0.08, 0.08, 0.1, 0.1, 0.1, 0.06, 0.08, 0.1]","[[0.4601079810892491, -0.3124501519694847], [0.39255721326226645, 0.24096684609984415], [0.058300276094700676, -0.1028183958399162], [-0.41524582149195755, -0.1868823132671089], [-0.004284946601156414, 0.22283374868945216], [0.21662177091951407, -0.30629594333229193], [-0.3164167713908611, 0.03470137351827096], [0.19563968760096673, 0.38851129551442976], [-0.29299366036949853, 0.31448050723988397], [-0.40555612674958713, -0.4232981870973742], [-0.14017710056417998, 0.47066238505213254], [-0.13531948001703487, -0.10211687302221495], [0.08065901260955477, -0.5752163006183928], [0.5361823643525104, 0.07244218966657218], [-0.1772154739573253, -0.5093330312547453], [0.312438642768484, 0.018225779043079315], [-0.5956581036025477, -0.013157550342441274], [-0.4823510107836149, 0.33489409708787576], [0.005930424289736447, -0.2998866727771409], [0.07697120762630427, 0.5782847705131323]]",density,black,,,N011,visual,1,[],"['1', '2', '3', '4']",1,2023.2.3,harveyvisual,2.1,[],8,0.75,
0,pause,0.4,None,None,None,0,109,109,109,,,,,,,,,,,,,N011,visual,1,[],"['1', '2', '3', '4']",1,2023.2.3,harveyvisual,2.1,[],8,0.75,
20,dot,0.3,['dot'],['density'],black,0,110,110,110,,,40.900217056274414,40.61218619346619,40.91216206550598,dot,"[0.1, 0.06, 0.1, 0.06, 0.06, 0.1, 0.1, 0.06, 0.08, 0.1, 0.06, 0.1, 0.08, 0.08, 0.1, 0.1, 0.1, 0.06, 0.1, 0.1]","[[0.2362328525757792, 0.1125590326986422], [0.11342991984205952, -0.2317460461514823], [-0.37820451088794604, 0.21905243790637224], [-0.2272012521924593, -0.00017927876426981904], [-0.20574681078918794, 0.45329669539504613], [0.582366613920963, 0.04682319283434927], [-0.35318113688520186, -0.28564257314080044], [0.35557554151817383, -0.48442635748187884], [0.019644450476417052, 0.2555324052610033], [-0.5438922590634996, -0.050831479137056684], [0.3745985811613063, -0.06806488010809586], [-0.13454529999917375, -0.3575903356691409], [0.5260787337103853, 0.2526394138909859], [0.010949472343897093, -0.4805662180624405], [0.5584066906377142, -0.21663405646993333], [0.1999484706839717, 0.47802266129074467], [-0.10853730019485663, -0.16790558448752796], [-0.038431014294808, 0.03324427686517839], [-0.003296539581879143, 0.5724534876608834], [-0.17676711660449096, 0.20532620347705632]]",density,black,,,N011,visual,1,[],"['1', '2', '3', '4']",1,2023.2.3,harveyvisual,2.1,[],8,0.75,
0,pause,0.4,None,None,None,0,111,111,111,,,,,,,,,,,,,N011,visual,1,[],"['1', '2', '3', '4']",1,2023.2.3,harveyvisual,2.1,[],8,0.75,
20,dot,0.3,['dot'],['density'],black,0,112,112,112,,,41.60022711753845,41.312129974365234,41.61215400695801,dot,"[0.08, 0.08, 0.08, 0.1, 0.08, 0.1, 0.08, 0.08, 0.08, 0.1, 0.06, 0.1, 0.06, 0.1, 0.06, 0.06, 0.1, 0.1, 0.08, 0.08]","[[0.39202972078726983, -0.18661353271800152], [-0.5023279400543407, 0.29351950779043967], [0.5325503712173986, 0.23300896225511802], [-0.40212192201294106, 0.08777969803953206], [-0.5035469038870936, -0.10007980348711151], [-0.07660660324862223, 0.18883455107567082], [-0.02147573144304893, -0.5015654959124402], [0.25874197905580854, 0.11910271824582463], [0.2908263518518628, 0.4799962605819186], [-0.09500447965813374, -0.158725067505326], [-0.3040301484604968, 0.5199733153202236], [-0.37617780736753126, -0.2553494887599652], [0.10436783585310361, 0.35622773015181364], [0.56883474369499, -0.09479171227241767], [0.3809872460397523, -0.39906351973645354], [0.1321670797669482, -0.3236871244984999], [0.09683890714486387, 0.5495048103677361], [-0.10591523458737745, 0.49210290705874893], [0.05439164174169242, 0.009133691479173311], [-0.214448508527865, -0.45080480064293604]]",density,black,,,N011,visual,1,[],"['1', '2', '3', '4']",1,2023.2.3,harveyvisual,2.1,[],8,0.75,
0,pause,0.4,None,None,None,0,113,113,113,,,,,,,,,,,,,N011,visual,1,[],"['1', '2', '3', '4']",1,2023.2.3,harveyvisual,2.1,[],8,0.75,
20,dot,0.3,['dot'],['density'],black,0,114,114,114,,,42.30019998550415,42.0121431350708,42.312129974365234,dot,"[0.08, 0.1, 0.06, 0.1, 0.06, 0.06, 0.08, 0.08, 0.08, 0.1, 0.08, 0.1, 0.06, 0.06, 0.06, 0.08, 0.08, 0.08, 0.1, 0.1]","[[0.4633787786036331, 0.003953351586159837], [-0.5333289262381068, -0.10783787107088841], [0.20232286501377572, -0.2595190836743183], [-0.458322899649114, 0.2959775712623275], [-0.2532625637399512, -0.13535465241354416], [-0.06384690282602334, -0.5201512808250148], [0.33400793847828114, 0.179972715350041], [0.38831416015306075, 0.4345354335514848], [0.5510545376681227, -0.21802392547332683], [-0.314087299590952, -0.3640496705554732], [0.09617931273764446, -0.011838776639826687], [-0.25881929707659845, 0.4486465109551333], [0.3763289444943121, -0.4080372656774752], [0.1345349121013596, 0.2766952457937508], [0.12573638077095206, -0.524299296924588], [-0.05790414607945993, 0.5080914815506689], [0.20450453019369763, 0.5659492149748808], [-0.5721620664561662, 0.10359985286360499], [-0.10131023780650095, 0.038706472938222936], [-0.3167853392740444, 0.14312357704646372]]",density,black,,,N011,visual,1,[],"['1', '2', '3', '4']",1,2023.2.3,harveyvisual,2.1,[],8,0.75,
0,pause,0.4,None,None,None,0,115,115,115,,,,,,,,,,,,,N011,visual,1,[],"['1', '2', '3', '4']",1,2023.2.3,harveyvisual,2.1,[],8,0.75,
20,dot,0.3,['dot'],['density'],black,0,116,116,116,,,43.00021409988403,42.71212315559387,43.01209497451782,dot,"[0.08, 0.1, 0.06, 0.1, 0.08, 0.1, 0.1, 0.1, 0.06, 0.06, 0.06, 0.06, 0.06, 0.1, 0.08, 0.1, 0.08, 0.1, 0.08, 0.08]","[[0.502715048804948, 0.14615082313219818], [0.11290955484445908, 0.4852955137922098], [-0.5202430780854338, -0.3077455408971154], [0.31475210590832636, -0.3604796960010566], [0.2872148101958625, 0.03895937958827722], [-0.014727159265625733, -0.5554337112637363], [-0.4216934797505326, 0.01933393498863778], [-0.031579441061188374, -0.24830475975431593], [-0.35412807405093943, -0.21067524291142037], [-0.1827635582039283, -0.3873094489268914], [0.4291965230452862, -0.14911914676955518], [-0.439367924151955, 0.23133270895015667], [0.37351958050791445, 0.3070204920698644], [-0.09125984040410906, 0.2993351008601739], [0.11180769700982263, 0.19705186829779653], [-0.016936763643216612, -0.015996134260973793], [0.17919505440176375, -0.4930383392910458], [-0.3434043060881421, 0.42792444706836896], [0.191881847485042, -0.14028288949099488], [-0.37217731009672517, -0.4705873346161599]]",density,black,,,N011,visual,1,[],"['1', '2', '3', '4']",1,2023.2.3,harveyvisual,2.1,[],8,0.75,
0,pause,0.4,None,None,None,0,117,117,117,,,,,,,,,,,,,N011,visual,1,[],"['1', '2', '3', '4']",1,2023.2.3,harveyvisual,2.1,[],8,0.75,
20,dot,0.3,['dot'],['density'],black,0,118,118,118,,,43.70021319389343,43.41207218170166,43.712186098098755,dot,"[0.08, 0.06, 0.1, 0.06, 0.06, 0.06, 0.08, 0.06, 0.1, 0.1, 0.06, 0.06, 0.06, 0.1, 0.06, 0.08, 0.06, 0.1, 0.06, 0.06]","[[-0.3746370909731036, -0.11418588901913401], [0.4290459318382852, 0.19149946096528075], [-0.5684073015827593, 0.05939523015581949], [0.030723189417442898, 0.15638935296253886], [0.31070754012089064, -0.08827933245258696], [-0.5483742376053555, -0.22120855176105958], [-0.011818388623666465, -0.0529170563421123], [-0.05949405910533845, 0.530767654969532], [-0.18646276775495796, 0.16874294278701651], [0.3032935807632836, -0.47409633447985045], [0.44160449059232876, 0.3961800139203999], [0.09912158176714547, -0.3690783160158743], [-0.5087164602219137, 0.2924452414367143], [0.5424468691337648, 0.028505659362097424], [0.22465751633947872, 0.21327632278857467], [0.5687855338490276, -0.19934537573394234], [-0.19952028066765498, -0.3748860665109377], [-0.3030055381972167, 0.4945787222486808], [-0.3907798746838898, -0.38479064213749264], [0.19873128777104987, 0.4651118228154004]]",density,black,,,N011,visual,1,[],"['1', '2', '3', '4']",1,2023.2.3,harveyvisual,2.1,[],8,0.75,
0,pause,0.4,None,None,None,0,119,119,119,,,,,,,,,,,,,N011,visual,1,[],"['1', '2', '3', '4']",1,2023.2.3,harveyvisual,2.1,[],8,0.75,
20,dot,0.3,['dot'],['density'],black,0,120,120,120,,,44.400217056274414,44.11218309402466,44.41215419769287,dot,"[0.08, 0.08, 0.06, 0.1, 0.08, 0.08, 0.1, 0.06, 0.08, 0.06, 0.1, 0.08, 0.08, 0.06, 0.1, 0.08, 0.08, 0.1, 0.1, 0.1]","[[-0.505863245795838, -0.11550805904819833], [0.10846324506191318, 0.4374410940330453], [-0.3416818222825724, 0.3554424426921077], [-0.15182275407224882, 0.26757582357256504], [0.41735420684653846, 0.35305646115792316], [-0.60128923494249, 0.052294234040537665], [-0.2970342863778201, -0.47738367232698753], [0.24370942082544655, 0.20121039879004277], [0.5215293285292063, -0.13406506223464618], [0.1391517263930857, -0.20050286263164968], [-0.4128646065836993, 0.16762943295193627], [-0.04575982891240138, -0.4932019193551905], [0.21759201472941425, -0.4632083140472608], [0.09957138532138632, 0.053004926958950094], [-0.10629739354073398, 0.5700233350314545], [-0.09758483123547457, -0.18757562310751524], [0.41571982981858013, 0.0674374363806029], [-0.2977851802011443, -0.07215550813921257], [0.3260496202670585, -0.12565290417223907], [-0.43241204931408794, -0.3229560680456901]]",density,black,,,N011,visual,1,[],"['1', '2', '3', '4']",1,2023.2.3,harveyvisual,2.1,[],8,0.75,
0,pause,0.4,None,None,None,0,121,121,121,,,,,,,,,,,,,N011,visual,1,[],"['1', '2', '3', '4']",1,2023.2.3,harveyvisual,2.1,[],8,0.75,
20,dot,0.3,['dot'],['density'],black,0,122,122,122,,,45.10021114349365,44.8121600151062,45.112152099609375,dot,"[0.1, 0.06, 0.1, 0.08, 0.08, 0.1, 0.1, 0.08, 0.08, 0.1, 0.1, 0.1, 0.06, 0.08, 0.06, 0.1, 0.06, 0.08, 0.06, 0.1]","[[-0.4409442058479277, -0.36449018871532135], [-0.36424310231136636, 0.16788880491263958], [-0.08948479176779811, 0.466613373345134], [-0.5385031727766645, -0.011223643191125343], [0.42712960321390925, -0.3913317583096979], [-0.1710341801106452, -0.3921173173730472], [-0.005567606347465226, 0.06196589748003822], [0.16910984894033754, 0.20345875079723252], [0.5457550097857203, 0.24350577443648957], [0.33121294247421973, -0.18905232585092197], [0.026947128456366043, -0.5224055838114778], [-0.28730520503646084, -0.12897301876722672], [0.12210268226205212, 0.4635926028378764], [0.5337025738854119, -0.11046286642342948], [0.3622865688478324, 0.04840089347686788], [-0.5432278303107839, 0.2301933902854208], [-0.31192325592869846, 0.4248685266410237], [-0.18937606614543012, 0.24196878613791495], [0.027941183923763546, -0.32688134152664455], [0.12495756170394712, -0.08333208437401274]]",density,black,,,N011,visual,1,[],"['1', '2', '3', '4']",1,2023.2.3,harveyvisual,2.1,[],8,0.75,
0,pause,0.4,None,None,None,0,123,123,123,,,,,,,,,,,,,N011,visual,1,[],"['1', '2', '3', '4']",1,2023.2.3,harveyvisual,2.1,[],8,0.75,
20,dot,0.3,['dot'],['density'],black,0,124,124,124,,,45.800220012664795,45.512025117874146,45.81200408935547,dot,"[0.06, 0.08, 0.08, 0.06, 0.1, 0.1, 0.08, 0.1, 0.08, 0.1, 0.06, 0.06, 0.06, 0.06, 0.08, 0.08, 0.08, 0.08, 0.08, 0.08]","[[-0.2928492718381931, 0.05006159270962751], [0.33221626759455125, 0.02430524281080937], [0.42081836352755164, 0.24720338113836726], [0.005903404280571012, 0.5324140899704766], [0.601187328886818, 0.025555363087167604], [0.5211693408734505, -0.3071114445112735], [0.3350389180547074, -0.18751022590712269], [0.10472626611701874, -0.01128291515337787], [-0.15401685336444926, -0.3718582832263098], [0.038193180937783566, -0.21000370860256057], [-0.5228679588859491, -0.17280769176496463], [0.3175398755047356, -0.4334372841587105], [-0.37269917468051905, -0.45150403006752976], [-0.05435484983922101, 0.09626087949841045], [-0.2647826202001717, -0.14682698277312972], [-0.1476414286768697, -0.5818068655715063], [-0.48125867992956795, 0.23106564280279768], [0.13828463977209704, 0.2768619769801208], [-0.2199605645243255, 0.38386023517147116], [0.34280753868111546, 0.46297838825192883]]",density,black,,,N011,visual,1,[],"['1', '2', '3', '4']",1,2023.2.3,harveyvisual,2.1,[],8,0.75,
0,pause,0.4,None,None,None,0,125,125,125,,,,,,,,,,,,,N011,visual,1,[],"['1', '2', '3', '4']",1,2023.2.3,harveyvisual,2.1,[],8,0.75,
20,dot,0.3,['dot'],['density'],black,0,126,126,126,,,46.500205993652344,46.21217107772827,46.51212811470032,dot,"[0.1, 0.06, 0.1, 0.08, 0.06, 0.08, 0.08, 0.08, 0.1, 0.06, 0.06, 0.06, 0.08, 0.1, 0.06, 0.06, 0.08, 0.06, 0.1, 0.1]","[[-0.34306955469913103, 0.13859890108368134], [-0.4014601865209664, -0.3237586914298693], [0.052520983161990054, 0.28420843174201804], [-0.46057521190512823, -0.06353998144658402], [-0.06879067886452217, -0.40311233919585665], [0.576928630795171, -0.024462552334406862], [0.011533996226738008, -0.008083932778424452], [-0.5591920455158584, 0.18831946202643116], [0.47052369820245576, 0.19778312055238234], [0.36450217029702403, -0.19754976643839678], [0.4031291574992656, 0.3969249901515393], [0.25349641869112605, -0.42523523424612203], [-0.4454598344735581, 0.3720366113990623], [0.08811880028876384, 0.5450603455947605], [-0.186450567358178, 0.5225300192917881], [-0.23223220997980404, -0.015739106542776216], [0.10709870623164275, -0.21451657069453917], [0.30842751824520476, 0.02278275022278542], [0.0011649905410391348, -0.5899328404668998], [0.27159059329373125, 0.24527948214334394]]",density,black,,,N011,visual,1,[],"['1', '2', '3', '4']",1,2023.2.3,harveyvisual,2.1,[],8,0.75,
0,pause,0.4,None,None,None,0,127,127,127,,,,,,,,,,,,,N011,visual,1,[],"['1', '2', '3', '4']",1,2023.2.3,harveyvisual,2.1,[],8,0.75,
20,dot,0.3,['dot'],['density'],black,0,128,128,128,,,47.20020914077759,46.91198921203613,47.21210598945618,dot,"[0.1, 0.1, 0.08, 0.1, 0.08, 0.06, 0.06, 0.1, 0.08, 0.1, 0.1, 0.08, 0.08, 0.08, 0.1, 0.06, 0.08, 0.1, 0.08, 0.06]","[[-0.02276595268378434, -0.30767148291468704], [-0.08086268888560932, -0.05183465163695944], [-0.5952035830277904, -0.09629064240125683], [0.11853548514764012, 0.16580079541400716], [0.21481141993550423, 0.5619896261679326], [0.5867094926979627, -0.06222222313655974], [0.39224140106873684, -0.35962341129799164], [-0.2435783704059018, 0.29615309301434756], [-0.3602235723477012, -0.15157430553051776], [-0.11412210142479196, 0.1431514401785543], [0.567103382465712, 0.19330257046443433], [-0.26131639144738966, -0.4983634865774529], [-0.09731364936076725, 0.5923040680983966], [0.4495968387382473, 0.3830447263223888], [0.03343897309551225, 0.429505984479324], [-0.482752618326814, 0.12968194397662447], [0.3810647160786498, -0.0713518476924293], [0.2110546159662131, -0.253457684671221], [0.1174670929573367, -0.04094306882185095], [0.1397745699862023, -0.5555429283411392]]",density,black,,,N011,visual,1,[],"['1', '2', '3', '4']",1,2023.2.3,harveyvisual,2.1,[],8,0.75,
0,pause,0.4,None,None,None,0,129,129,129,,,,,,,,,,,,,N011,visual,1,[],"['1', '2', '3', '4']",1,2023.2.3,harveyvisual,2.1,[],8,0.75,
20,dot,0.3,['dot'],['density'],white,0,130,130,130,,,47.90020704269409,47.612088203430176,47.912075996398926,dot,"[0.1, 0.06, 0.1, 0.08, 0.08, 0.06, 0.08, 0.06, 0.06, 0.06, 0.1, 0.08, 0.1, 0.08, 0.06, 0.1, 0.06, 0.1, 0.1, 0.08]","[[-0.036404852471687676, 0.10739697131021309], [-0.25234872226353383, 0.2068353899342792], [0.46212720320961365, 0.331553928296976], [0.2339746445737544, 0.32379967576310775], [0.17530118871610623, -0.4722917574047586], [-0.06084689092371798, -0.28692496174627624], [-0.3899398502648709, -0.38712021958989595], [-0.46337637489262107, 0.1816721262730686], [0.46105235957747126, -0.2083920994349223], [0.13221581472457777, 0.5814082264342088], [-0.1288526582463494, 0.5626795172645583], [-0.4731665691909598, -0.08629492141110845], [0.5863689382808798, -0.04149828345109863], [0.2069851541909825, 0.11063034017050721], [-0.006156433063246869, 0.29583662245533415], [0.07265403155841665, -0.12117938219013058], [-0.3911610848251463, 0.4238213684425146], [0.3665799003104173, -0.011440261793782658], [0.36332267790850414, -0.4247727369063793], [0.21996757038968973, -0.2501284749981263]]",density,white,,,N011,visual,1,[],"['1', '2', '3', '4']",1,2023.2.3,harveyvisual,2.1,[],8,0.75,
0,pause,0.4,None,None,None,0,131,131,131,,,,,,,,,,,1,47.958820104599,N011,visual,1,[],"['1', '2', '3', '4']",1,2023.2.3,harveyvisual,2.1,[],8,0.75,
20,dot,0.3,['dot'],['density'],black,0,132,132,132,,,48.6002151966095,48.31207609176636,48.61205315589905,dot,"[0.08, 0.06, 0.06, 0.08, 0.08, 0.08, 0.06, 0.08, 0.06, 0.06, 0.08, 0.1, 0.06, 0.06, 0.06, 0.06, 0.06, 0.1, 0.06, 0.08]","[[-0.1666939780359346, 0.11331862563714001], [0.2814212337380251, -0.36382352925343114], [-0.4143301704659977, 0.4343135079605375], [-0.4411971073739981, -0.35243054454377365], [0.2784749449315812, 0.3391854590227469], [0.5544015288399774, -0.12005551296222484], [0.5836785858546113, 0.09086656414054733], [0.05327965440024873, 0.05045395697496624], [-0.5951292936308942, 0.010866799228882076], [-0.1679413592754317, -0.5086647913324767], [0.019038665698753787, 0.3281765276637123], [0.39721514029616534, 0.12783226843606094], [-0.055101930913913466, -0.12365609214072804], [0.23987874192301717, -0.0051452213562547255], [0.053208240389170824, -0.2945743523834631], [-0.5404999852436756, 0.2545380715386858], [0.19663057358214364, -0.5467459859680946], [-0.1193176816425543, 0.5301594043113488], [-0.2530495097407306, -0.18234797051900897], [0.48100518847962237, -0.3157833919218321]]",density,black,,,N011,visual,1,[],"['1', '2', '3', '4']",1,2023.2.3,harveyvisual,2.1,[],8,0.75,
0,pause,0.4,None,None,None,0,133,133,133,,,,,,,,,,,,,N011,visual,1,[],"['1', '2', '3', '4']",1,2023.2.3,harveyvisual,2.1,[],8,0.75,
20,dot,0.3,['dot'],['density'],white,0,134,134,134,,,49.30020999908447,49.012054204940796,49.3120551109314,dot,"[0.06, 0.1, 0.06, 0.06, 0.08, 0.08, 0.08, 0.06, 0.08, 0.1, 0.1, 0.08, 0.06, 0.1, 0.1, 0.08, 0.06, 0.1, 0.1, 0.1]","[[-0.4020353702598577, 0.34664083124735695], [-0.4340402572871508, -0.27452881830697823], [0.546635440330283, 0.04107982304246327], [0.33191392142227727, -0.07349480978998618], [-0.1982964027661442, 0.040199787737012826], [0.07087004674698483, -0.09176617704963541], [-0.27845956803489547, -0.4252792568005656], [0.27565906132473894, 0.26412003814104446], [0.17625617810051608, -0.5644020081247556], [0.2954610055196264, -0.3385477143591118], [0.21981319903787466, 0.5537722976988423], [-0.09502052845457432, -0.26411252193484785], [0.4386468649237333, 0.3775251807094111], [-0.21054162227084405, 0.3739226827285702], [-0.5718180711407431, -0.07706025888410306], [-0.5623622883301406, 0.16644586666856195], [0.007596188212607435, 0.09442400166421239], [0.05182049073998618, 0.41641966171269973], [-0.4037278171073453, 0.015519100102995509], [0.07639669088787049, -0.3710611074284713]]",density,white,,,N011,visual,1,[],"['1', '2', '3', '4']",1,2023.2.3,harveyvisual,2.1,[],8,0.75,
0,pause,0.4,None,None,None,0,135,135,135,,,,,,,,,,,1,49.4248321056366,N011,visual,1,[],"['1', '2', '3', '4']",1,2023.2.3,harveyvisual,2.1,[],8,0.75,
20,dot,0.3,['dot'],['density'],black,0,136,136,136,,,50.00022220611572,49.71203804016113,50.01202201843262,dot,"[0.1, 0.1, 0.08, 0.06, 0.1, 0.1, 0.08, 0.08, 0.08, 0.06, 0.1, 0.08, 0.08, 0.1, 0.06, 0.06, 0.08, 0.1, 0.06, 0.08]","[[0.31058725198172954, -0.46055229850737117], [-0.4256329557809031, 0.2613854103298659], [0.28708836252686065, 0.3306754426041183], [-0.1722768282779399, 0.0008645657140270435], [0.03537582354164659, 0.012452547855932194], [0.5029694627060702, 0.12237949637417478], [-0.11749368931004828, -0.33693526345580727], [-0.5810590546350909, 0.13927497490585525], [-0.2873305180171469, 0.4916352613711168], [0.15700412761367233, 0.5650771515865227], [0.024160449605955647, -0.19217050138836494], [-0.43789525095476844, -0.37330054044332744], [0.36116925691533686, -0.24309815498905835], [-0.41600683398228244, -0.11659342144382384], [-0.11804860678048296, 0.2625142243837666], [-0.004970071645458929, -0.602944193430508], [0.5727463669557084, -0.07942914128731612], [0.2678792567282233, -0.06156087429767998], [0.077757239324589, 0.2453232507469567], [0.10442917136047136, -0.44692594273238173]]",density,black,,,N011,visual,1,[],"['1', '2', '3', '4']",1,2023.2.3,harveyvisual,2.1,[],8,0.75,
0,pause,0.4,None,None,None,0,137,137,137,,,,,,,,,,,,,N011,visual,1,[],"['1', '2', '3', '4']",1,2023.2.3,harveyvisual,2.1,[],8,0.75,
20,dot,0.3,['dot'],['density'],black,0,138,138,138,,,50.700201988220215,50.41184401512146,50.71183800697327,dot,"[0.1, 0.1, 0.06, 0.06, 0.1, 0.06, 0.06, 0.1, 0.06, 0.08, 0.08, 0.06, 0.06, 0.06, 0.06, 0.06, 0.08, 0.1, 0.06, 0.08]","[[-0.3420396567354866, -0.35379124953573454], [-0.012470658417444658, 0.5549578360276792], [0.3598289557164792, -0.4475345525984092], [-0.48122885710996843, -0.10416107835498051], [0.37964081243988423, 0.03538614099488563], [0.4552340030113803, -0.15690562744329842], [-0.24352709501166686, -0.5170474340696518], [-0.32300727905939397, 0.1131618298302528], [-0.20133605390259385, -0.17611714094685976], [0.5972550330832694, 0.09275454884122362], [0.11355990994917353, -0.561266809019851], [-0.26454248749672205, 0.5164160469620138], [-0.41929294295620145, 0.29982122606357914], [0.4209000613277244, 0.27942239796232726], [-0.015111311100783897, -0.3950585761755938], [0.3230574190436304, 0.4603079294590777], [0.07638902148952631, 0.04710183312773619], [-0.14899070800689457, 0.017753937093301198], [0.11957810644170419, -0.17583602708515206], [-0.09696771160889472, 0.3221341619519802]]",density,black,,,N011,visual,1,[],"['1', '2', '3', '4']",1,2023.2.3,harveyvisual,2.1,[],8,0.75,
0,pause,0.4,None,None,None,0,139,139,139,,,,,,,,,,,,,N011,visual,1,[],"['1', '2', '3', '4']",1,2023.2.3,harveyvisual,2.1,[],8,0.75,
20,dot,0.3,['dot'],['density'],black,0,140,140,140,,,51.40022015571594,51.111828088760376,51.411803007125854,dot,"[0.1, 0.1, 0.06, 0.06, 0.06, 0.1, 0.08, 0.08, 0.08, 0.06, 0.1, 0.1, 0.1, 0.06, 0.06, 0.08, 0.06, 0.06, 0.1, 0.06]","[[0.5391257895278246, -0.21033404273911888], [-0.2413188746103661, -0.12952713843420732], [0.22802636668032072, -0.5584294566543948], [-0.5095049805409904, 0.20206239378952018], [-0.6045563976501381, 0.001088305823422741], [0.40105893859662756, -0.34077666462652023], [-0.18201757612805175, 0.10813549239813947], [0.24430468001553485, -0.05156114785864441], [0.5159339540772366, 0.051169379466147136], [-0.515255080401793, -0.2809025158148976], [0.1794684050988512, 0.4080436362497617], [-0.22413799077648822, 0.5237750891585323], [-0.03786850576294787, 0.3553343570181202], [0.05828521206952153, -0.195657619283092], [0.42056590981765674, 0.3449394180753969], [-0.22830946618101983, 0.31565345330397854], [0.019533131467185827, 0.5570440991428753], [0.11293536309012497, 0.10674028011648085], [-0.3541251452961956, -0.4026878076090544], [-0.10698739091637016, -0.37834827773451696]]",density,black,,,N011,visual,1,[],"['1', '2', '3', '4']",1,2023.2.3,harveyvisual,2.1,[],8,0.75,
0,pause,0.4,None,None,None,0,141,141,141,,,,,,,,,,,,,N011,visual,1,[],"['1', '2', '3', '4']",1,2023.2.3,harveyvisual,2.1,[],8,0.75,
20,dot,0.3,['dot'],['density'],black,0,142,142,142,,,52.10021114349365,51.81181001663208,52.111802101135254,dot,"[0.06, 0.06, 0.08, 0.06, 0.1, 0.06, 0.06, 0.06, 0.06, 0.1, 0.1, 0.1, 0.08, 0.08, 0.06, 0.08, 0.1, 0.08, 0.06, 0.06]","[[-0.22827596957197177, -0.2463516021328055], [-0.29998771552140246, 0.497518492108045], [0.4431309242599194, 0.08304088014103655], [0.14801346289948347, 0.39327728314793897], [0.5437313054819127, -0.20964849039197042], [0.4728040184853258, 0.35587220851753243], [-0.42512392897746865, 0.1162690745388626], [-0.402763947496798, -0.37810432184725273], [-0.3281636139054271, 0.308358076266801], [-0.6046941269101266, 0.026138874344468602], [0.006636202973270722, -0.5452533831198505], [0.10455404927693623, -0.018221339488079913], [-0.01905547274967112, -0.29821379439655316], [0.023747443788862177, 0.23655006860532513], [0.3046095713849508, -0.13860573483425903], [-0.2393833259036593, -0.5238087040920292], [-0.040042880073062115, 0.5897466391945009], [0.32613769223310884, -0.3346434865845618], [-0.13679540582585498, 0.1331031234475225], [0.22394241164885487, -0.5533901888193942]]",density,black,,,N011,visual,1,[],"['1', '2', '3', '4']",1,2023.2.3,harveyvisual,2.1,[],8,0.75,
0,pause,0.4,None,None,None,0,143,143,143,,,,,,,,,,,,,N011,visual,1,[],"['1', '2', '3', '4']",1,2023.2.3,harveyvisual,2.1,[],8,0.75,
20,dot,0.3,['dot'],['density'],black,0,144,144,144,,,52.80020308494568,52.511784076690674,52.81183910369873,dot,"[0.08, 0.08, 0.1, 0.08, 0.06, 0.06, 0.1, 0.08, 0.06, 0.06, 0.06, 0.08, 0.1, 0.06, 0.06, 0.06, 0.06, 0.1, 0.08, 0.08]","[[-0.3709517119917791, 0.46782121320588355], [0.12725943387861827, 0.4924899515179699], [0.13798888844045865, -0.3576287212673212], [0.3169581668901468, 0.4930102074701931], [-0.10749288613906166, -0.4876089837373153], [0.2647626214325961, -0.13733687790929416], [-0.20708006778709737, 0.0013573519023484248], [-0.4955520550436704, 0.18270270712112918], [-0.5963100639385672, -0.009567237914968621], [-0.17641243779003435, 0.569932726252901], [0.2811071731369452, 0.06932150810436033], [-0.13819235213782266, -0.2532103412274785], [0.04358734670288911, 0.21566083282562465], [-0.4480534956552187, -0.16729616805297678], [-0.21889407460992805, 0.20338683206298858], [0.53096332354266, 0.15542160567140179], [0.4560116289609225, -0.22192347053510608], [-0.011860228382716165, 0.013386209609510091], [0.41387315833456595, 0.32613724102388875], [0.5552646105279767, -0.04262170182501984]]",density,black,,,N011,visual,1,[],"['1', '2', '3', '4']",1,2023.2.3,harveyvisual,2.1,[],8,0.75,
0,pause,0.4,None,None,None,0,145,145,145,,,,,,,,,,,,,N011,visual,1,[],"['1', '2', '3', '4']",1,2023.2.3,harveyvisual,2.1,[],8,0.75,
20,dot,0.3,['dot'],['density'],black,0,146,146,146,,,53.50021314620972,53.21178317070007,53.51182413101196,dot,"[0.1, 0.08, 0.06, 0.06, 0.06, 0.1, 0.1, 0.06, 0.06, 0.08, 0.08, 0.06, 0.1, 0.1, 0.08, 0.1, 0.06, 0.06, 0.1, 0.1]","[[0.4141522853379679, -0.37049744907827786], [0.5008686817454756, 0.11598325066090726], [-0.15412818125581307, -0.44210610820741675], [-0.11278900998762775, 0.14719102790590832], [0.2000389702403147, 0.3628482627968934], [-0.45121994108380986, -0.0678994087237274], [0.43137078562889564, 0.3030164281058557], [-0.04725182531562522, 0.45807067097438814], [0.5529187160031138, -0.07513621485191257], [-0.2639840204973112, 0.442401830273061], [0.036225016026713575, -0.3947570344117064], [0.1921051499847637, 0.011829842331964047], [-0.015260254596604517, -0.15007982184505386], [-0.2660488533350269, -0.23757686684170382], [-0.5188257486247576, 0.24942755270839995], [0.09420042032490017, 0.5866346821619117], [-0.5944304690134343, 0.07250257364665533], [0.2427727133938219, -0.526161441644198], [-0.45922029241777923, -0.3606874403638874], [0.2530904677117103, -0.26066929289057844]]",density,black,,,N011,visual,1,[],"['1', '2', '3', '4']",1,2023.2.3,harveyvisual,2.1,[],8,0.75,
0,pause,0.4,None,None,None,0,147,147,147,,,,,,,,,,,,,N011,visual,1,[],"['1', '2', '3', '4']",1,2023.2.3,harveyvisual,2.1,[],8,0.75,
20,dot,0.3,['dot'],['density'],black,0,148,148,148,,,54.20020604133606,53.91175317764282,54.21175718307495,dot,"[0.08, 0.06, 0.1, 0.1, 0.06, 0.1, 0.08, 0.1, 0.1, 0.06, 0.1, 0.06, 0.06, 0.08, 0.08, 0.1, 0.08, 0.08, 0.08, 0.08]","[[0.5245200826919506, -0.2868069715775519], [-0.4605396991085978, 0.3677020531017197], [0.08006156499329842, 0.3181438376775896], [-0.39190840665947285, -0.11296340580396252], [0.1685215924109229, 0.12433901887000576], [-0.290099353027221, 0.061738560771198436], [0.4684038823369322, 0.15701500348802205], [0.478696224352415, -0.09246228255027877], [-0.48471572157595516, 0.1591975734097259], [-0.059244295421998605, -0.4593210405247552], [-0.10247351022018025, 0.5420539658371246], [0.10564252226136162, 0.5838019391706049], [-0.1837707615622578, -0.1927758076432372], [-0.5926390217215582, -0.09651099306313565], [0.32393124966406783, -0.2757292431444335], [-0.17507598167712518, 0.3080385899763187], [-0.342642554052319, -0.48020240607059017], [0.3762279931212775, 0.33952035905000216], [0.3073307492658891, -0.5082506986647997], [0.05370806677124851, -0.18142921256653755]]",density,black,,,N011,visual,1,[],"['1', '2', '3', '4']",1,2023.2.3,harveyvisual,2.1,[],8,0.75,
0,pause,0.4,None,None,None,0,149,149,149,,,,,,,,,,,,,N011,visual,1,[],"['1', '2', '3', '4']",1,2023.2.3,harveyvisual,2.1,[],8,0.75,
20,dot,0.3,['dot'],['density'],black,0,150,150,150,,,54.90020418167114,54.61175513267517,54.91178107261658,dot,"[0.1, 0.08, 0.06, 0.1, 0.06, 0.08, 0.06, 0.1, 0.1, 0.08, 0.08, 0.08, 0.1, 0.08, 0.08, 0.08, 0.08, 0.06, 0.1, 0.1]","[[0.42977193899986255, -0.30798971661612906], [-0.19538589769080622, 0.05201155459541329], [0.04032759790267981, -0.3363451006889884], [-0.46772040195906933, -0.19763670008540835], [-0.00069557681971677, 0.5416098623546348], [0.28580015613561105, -0.4585722155349217], [0.11914112932394438, -0.1367779548269939], [-0.0014883640813833088, 0.06812563882520284], [-0.5032697247165554, 0.08344597503656065], [0.47508926449302835, -0.09572450280467537], [0.5309477499027438, 0.10177307998945417], [0.31912321588483084, 0.05999601082451267], [-0.016752066908475305, -0.6030919766601937], [0.22695153042484395, 0.24531805676893803], [-0.16730118509213493, 0.321065825834439], [-0.2027126070936024, -0.5536593600125866], [-0.47205880055345995, 0.30217800392929384], [0.28996232416784473, 0.4332310227981091], [-0.3720582319028819, -0.4627558557065508], [-0.25465579400482463, 0.4945332823346742]]",density,black,,,N011,visual,1,[],"['1', '2', '3', '4']",1,2023.2.3,harveyvisual,2.1,[],8,0.75,
0,pause,0.4,None,None,None,0,151,151,151,,,,,,,,,,,,,N011,visual,1,[],"['1', '2', '3', '4']",1,2023.2.3,harveyvisual,2.1,[],8,0.75,
20,dot,0.3,['dot'],['density'],black,0,152,152,152,,,55.600224018096924,55.31179118156433,55.611701011657715,dot,"[0.06, 0.08, 0.1, 0.08, 0.06, 0.08, 0.06, 0.08, 0.1, 0.08, 0.1, 0.1, 0.08, 0.1, 0.06, 0.08, 0.1, 0.06, 0.06, 0.1]","[[-0.23613117081758134, -0.13335623585093725], [-0.32266637641209084, 0.30244615197269153], [0.21063544894169728, -0.0785751144132456], [-0.09250607882791662, -0.4429663532490802], [-0.3586438651479664, 0.08261086284091568], [-0.14579690820274743, 0.4241918954506678], [0.0923890070781459, 0.5672737400373014], [-0.5903683084856427, -0.07936549517477587], [0.5212440031859901, 0.08490552939750234], [0.16352493367625764, -0.33224691281096136], [0.44304867798894343, -0.10057268336607494], [-0.28169371226845075, -0.4535817825005388], [0.49357743425055467, -0.3125981434851295], [0.41094434083234066, 0.3651624599636308], [-0.05123682440453958, -0.23246755288293092], [0.07347807910204318, 0.34419562593527864], [-0.37705528928381615, -0.27436715594581673], [0.09911038044651843, -0.5905595666708755], [-0.030065256175520028, 0.17125611789965545], [0.31074015390766563, 0.12456135674388691]]",density,black,,,N011,visual,1,[],"['1', '2', '3', '4']",1,2023.2.3,harveyvisual,2.1,[],8,0.75,
0,pause,0.4,None,None,None,0,153,153,153,,,,,,,,,,,,,N011,visual,1,[],"['1', '2', '3', '4']",1,2023.2.3,harveyvisual,2.1,[],8,0.75,
20,dot,0.3,['dot'],['density'],black,0,154,154,154,,,56.30022716522217,56.01169300079346,56.311681032180786,dot,"[0.08, 0.08, 0.08, 0.1, 0.08, 0.1, 0.08, 0.06, 0.06, 0.08, 0.1, 0.08, 0.06, 0.08, 0.08, 0.08, 0.06, 0.06, 0.08, 0.08]","[[0.5654284225947556, 0.11589289227682306], [-0.5524945818990495, -0.14421261316426692], [0.04761426604224617, -0.07539308410988965], [-0.34715575593086273, -0.13680167889921863], [-0.14841671330725514, 0.16627319318809164], [0.4687345505652677, -0.07634838557178125], [-0.46255430712101464, 0.3400976481988617], [0.06975406955878138, 0.6007930685643974], [-0.4108043943361868, 0.1209260882358561], [-0.05354591399606401, -0.5283534768425746], [-0.14051652871575415, 0.5407585140078066], [0.4940791184696066, 0.29589828545873803], [0.13072324762196097, 0.27822757874262993], [0.30001477812770294, 0.057972847540459393], [-0.22929483553793778, -0.3148609314984012], [0.21793234918381943, -0.5531341961517124], [-0.4231264683283705, -0.4031883093865956], [0.40533551669712053, -0.3642668054203447], [0.3295272909392082, 0.5012979774311135], [0.13149344371808924, -0.3210801134051079]]",density,black,,,N011,visual,1,[],"['1', '2', '3', '4']",1,2023.2.3,harveyvisual,2.1,[],8,0.75,
0,pause,0.4,None,None,None,0,155,155,155,,,,,,,,,,,,,N011,visual,1,[],"['1', '2', '3', '4']",1,2023.2.3,harveyvisual,2.1,[],8,0.75,
9,dot,0.3,['dot'],['density'],black,0,156,156,156,,,57.0002121925354,56.71170616149902,57.01165199279785,dot,"[0.06, 0.08, 0.06, 0.06, 0.06, 0.06, 0.1, 0.1, 0.06]","[[0.30047334598257713, -0.32583448447642216], [0.4997394081452916, 0.05175273655880906], [0.13646797290608587, 0.02221883094322858], [0.11448241016544139, -0.2117191838414046], [0.417500260412479, 0.2413963184479076], [0.19152536325099656, 0.23172406522327998], [0.5046802385722475, -0.28323005758562664], [-0.037891296982194685, 0.14714919272112825], [0.3292067348064443, -0.0657181274468392]]",density,black,,,N011,visual,1,[],"['1', '2', '3', '4']",1,2023.2.3,harveyvisual,2.1,[],8,0.75,
0,pause,0.4,None,None,None,0,157,157,157,,,,,,,,,,,,,N011,visual,1,[],"['1', '2', '3', '4']",1,2023.2.3,harveyvisual,2.1,[],8,0.75,
9,dot,0.3,['dot'],['density'],black,0,158,158,158,,,57.70022702217102,57.41172003746033,57.71169114112854,dot,"[0.08, 0.06, 0.08, 0.1, 0.08, 0.06, 0.08, 0.08, 0.08]","[[-0.25982930089867384, 0.41046177320377714], [0.2391912210628672, 0.4152301159030731], [-0.011899047454085643, 0.5103750441914148], [0.15826907621474634, 0.20577518054892585], [-0.29033424199965224, 0.2058356795488901], [-0.056026696670660174, 0.08152775180209879], [-0.32571421803823364, -0.002973879155612714], [0.39820859476685, 0.29236875228581105], [-0.06367065787951752, 0.28966088639372295]]",density,black,,,N011,visual,1,[],"['1', '2', '3', '4']",1,2023.2.3,harveyvisual,2.1,[],8,0.75,
0,pause,0.4,None,None,None,0,159,159,159,,,,,,,,,,,,,N011,visual,1,[],"['1', '2', '3', '4']",1,2023.2.3,harveyvisual,2.1,[],8,0.75,
9,dot,0.3,['dot'],['density'],black,0,160,160,160,,,58.40020418167114,58.11172008514404,58.41163420677185,dot,"[0.1, 0.1, 0.08, 0.1, 0.1, 0.08, 0.08, 0.08, 0.1]","[[0.23250081832313607, -0.03448075506690146], [0.3034476098774822, 0.1830296703973891], [-0.18904104685434053, 0.18833284185042862], [0.2553794676357457, 0.5314352583170906], [0.16363099535363254, 0.3461022642192175], [-0.0841935017478271, 0.3664174397160571], [-0.26748786402911323, -0.05736109653727262], [0.043842773669028334, 0.577246673499167], [0.02102957219118283, 0.0979254794926055]]",density,black,,,N011,visual,1,[],"['1', '2', '3', '4']",1,2023.2.3,harveyvisual,2.1,[],8,0.75,
0,pause,0.4,None,None,None,0,161,161,161,,,,,,,,,,,,,N011,visual,1,[],"['1', '2', '3', '4']",1,2023.2.3,harveyvisual,2.1,[],8,0.75,
9,dot,0.3,['dot'],['density'],black,0,162,162,162,,,59.100224018096924,58.81166100502014,59.11166501045227,dot,"[0.06, 0.08, 0.06, 0.06, 0.1, 0.06, 0.08, 0.1, 0.06]","[[0.08305850914464513, -0.5442468290176591], [0.035628337695759515, -0.10623885656661826], [-0.40455734034313895, -0.4103448572564978], [-0.27695520492017833, -0.22921059622728732], [-0.0679181879583315, -0.31282249044743377], [0.15394835823740735, -0.27999833282003045], [0.36545074601266236, -0.2024769979494575], [-0.18616414474285772, -0.004612976462616847], [-0.15152437179077458, -0.5570863580044498]]",density,black,,,N011,visual,1,[],"['1', '2', '3', '4']",1,2023.2.3,harveyvisual,2.1,[],8,0.75,
0,pause,0.4,None,None,None,0,163,163,163,,,,,,,,,,,,,N011,visual,1,[],"['1', '2', '3', '4']",1,2023.2.3,harveyvisual,2.1,[],8,0.75,
9,dot,0.3,['dot'],['density'],black,0,164,164,164,,,59.800212144851685,59.511614084243774,59.81180500984192,dot,"[0.1, 0.08, 0.1, 0.06, 0.1, 0.06, 0.08, 0.1, 0.06]","[[0.5176022259896301, 0.07013652950073157], [0.29073914382076843, 0.49095716113391286], [0.25755010907869064, 0.10321661572421419], [0.11549350267606502, 0.37871636325142816], [-0.040248060121338324, 0.07603447111469516], [0.35733910828644905, -0.07238149579930037], [0.09184169877402729, -0.10424630849328012], [-0.10934901156313583, -0.14911132891814113], [0.4158094160330474, 0.26019999263529187]]",density,black,,,N011,visual,1,[],"['1', '2', '3', '4']",1,2023.2.3,harveyvisual,2.1,[],8,0.75,
0,pause,0.4,None,None,None,0,165,165,165,,,,,,,,,,,,,N011,visual,1,[],"['1', '2', '3', '4']",1,2023.2.3,harveyvisual,2.1,[],8,0.75,
9,dot,0.3,['dot'],['density'],black,0,166,166,166,,,60.50023007392883,60.21161508560181,60.511630058288574,dot,"[0.1, 0.08, 0.06, 0.06, 0.1, 0.08, 0.06, 0.06, 0.08]","[[0.22829877875946783, -0.39640994854570016], [0.3366371496270161, 0.05839125036393789], [-0.11436045239834208, -0.12024221759915668], [-0.02100147820737577, -0.3824026009196371], [0.08479146627654295, 0.024089629435920912], [0.16206374850784472, -0.16075841177209507], [0.38495438842944835, -0.24810596019115372], [-0.23418047716532614, 0.09565997955556291], [0.2111996426858246, 0.23215637940447356]]",density,black,,,N011,visual,1,[],"['1', '2', '3', '4']",1,2023.2.3,harveyvisual,2.1,[],8,0.75,
0,pause,0.4,None,None,None,0,167,167,167,,,,,,,,,,,,,N011,visual,1,[],"['1', '2', '3', '4']",1,2023.2.3,harveyvisual,2.1,[],8,0.75,
8,dot,0.3,['dot'],['density'],black,0,168,168,168,,,61.20022916793823,60.911782026290894,61.21163606643677,dot,"[0.08, 0.08, 0.1, 0.1, 0.08, 0.1, 0.06, 0.1]","[[0.3129921899656287, 0.2226642157048143], [0.41298599633021416, -0.001766323215076977], [0.013785601627645026, 0.39275307090924344], [-0.009407606244017683, 0.02333367620517349], [0.20163499737495916, -0.08731087547331118], [0.31235423233837933, 0.42762820752661124], [0.10705959187470679, 0.21318577255187057], [-0.13233007013452783, 0.20605257250075132]]",density,black,,,N011,visual,1,[],"['1', '2', '3', '4']",1,2023.2.3,harveyvisual,2.1,[],8,0.75,
0,pause,0.4,None,None,None,0,169,169,169,,,,,,,,,,,,,N011,visual,1,[],"['1', '2', '3', '4']",1,2023.2.3,harveyvisual,2.1,[],8,0.75,
8,dot,0.3,['dot'],['density'],black,0,170,170,170,,,61.900219202041626,61.61161398887634,61.91180205345154,dot,"[0.06, 0.08, 0.06, 0.08, 0.08, 0.06, 0.06, 0.06]","[[0.12411109391386341, -0.5343823995123961], [-0.21238427398525783, -0.3197389486612228], [-0.06551876445787266, 0.032183079599910736], [0.22034046694826517, 0.05676208929132721], [0.31747551588691986, -0.13046885784073625], [0.01834943727978222, -0.34316474661021057], [0.10776215616131694, -0.12386070969881222], [-0.2386971922539417, -0.09256206635527232]]",density,black,,,N011,visual,1,[],"['1', '2', '3', '4']",1,2023.2.3,harveyvisual,2.1,[],8,0.75,
0,pause,0.4,None,None,None,0,171,171,171,,,,,,,,,,,,,N011,visual,1,[],"['1', '2', '3', '4']",1,2023.2.3,harveyvisual,2.1,[],8,0.75,
8,dot,0.3,['dot'],['density'],black,0,172,172,172,,,62.600210189819336,62.31179714202881,62.6115779876709,dot,"[0.1, 0.1, 0.08, 0.1, 0.08, 0.08, 0.08, 0.08]","[[-0.2395708272612018, -0.3613018167456044], [-0.39529086986423073, -0.13116056396528103], [0.016143118738118, -0.3000453801144436], [-0.10247857353615338, 0.12176090555598315], [0.11784264820349834, -0.12422453235794288], [-0.1468533202112338, -0.18280007972172757], [-0.31504288856899026, 0.06147683711297207], [0.2614313121475242, -0.33215718180641224]]",density,black,,,N011,visual,1,[],"['1', '2', '3', '4']",1,2023.2.3,harveyvisual,2.1,[],8,0.75,
0,pause,0.4,None,None,None,0,173,173,173,,,,,,,,,,,,,N011,visual,1,[],"['1', '2', '3', '4']",1,2023.2.3,harveyvisual,2.1,[],8,0.75,
8,dot,0.3,['dot'],['density'],black,0,174,174,174,,,63.3002290725708,63.01152801513672,63.31151103973389,dot,"[0.1, 0.06, 0.1, 0.08, 0.06, 0.06, 0.08, 0.08]","[[-0.4639556696772753, 0.10472599959088454], [-0.22970357876872852, 0.24758381400794424], [-0.060094057158436125, -0.14613975383200573], [-0.022569829209962654, 0.2677975872319761], [-0.3077859326170116, -0.10488986274105515], [-0.16040535020917, 0.031608708128470005], [-0.5175577931920246, -0.20517812764611504], [0.1194024413118107, 0.007837779916585986]]",density,black,,,N011,visual,1,[],"['1', '2', '3', '4']",1,2023.2.3,harveyvisual,2.1,[],8,0.75,
0,pause,0.4,None,None,None,0,175,175,175,,,,,,,,,,,,,N011,visual,1,[],"['1', '2', '3', '4']",1,2023.2.3,harveyvisual,2.1,[],8,0.75,
8,dot,0.3,['dot'],['density'],black,0,176,176,176,,,64.00020503997803,63.71147918701172,64.01163220405579,dot,"[0.08, 0.1, 0.1, 0.06, 0.1, 0.1, 0.08, 0.08]","[[0.5011924336457421, -0.024432440978935197], [0.2806328112604475, -0.04317330297599672], [0.4832514634589159, 0.31109822070486504], [0.16408111659662816, 0.42847901077729456], [0.23688927214560462, 0.23559820796421724], [0.07772697954394367, 0.06196890701796274], [0.10192126774068293, -0.18867749580812243], [-0.012619648351882298, 0.24997239668137242]]",density,black,,,N011,visual,1,[],"['1', '2', '3', '4']",1,2023.2.3,harveyvisual,2.1,[],8,0.75,
0,pause,0.4,None,None,None,0,177,177,177,,,,,,,,,,,,,N011,visual,1,[],"['1', '2', '3', '4']",1,2023.2.3,harveyvisual,2.1,[],8,0.75,
8,dot,0.3,['dot'],['density'],white,0,178,178,178,,,64.70022702217102,64.41163420677185,64.71162009239197,dot,"[0.08, 0.06, 0.08, 0.1, 0.06, 0.06, 0.06, 0.08]","[[-0.30918623351354413, -0.2762980118811315], [0.03442122464869854, -0.32944299641312663], [0.20656618624830034, -0.4515266663928406], [0.20458815773351877, -0.002924552385479317], [-0.054765695239429084, -0.14491701700869716], [-0.0008776159608741382, 0.05441634750414142], [0.19975410704164612, -0.21252729673777132], [-0.19330391669800595, 0.14377227853430027]]",density,white,,,N011,visual,1,[],"['1', '2', '3', '4']",1,2023.2.3,harveyvisual,2.1,[],8,0.75,
0,pause,0.4,None,None,None,0,179,179,179,,,,,,,,,,,1,64.82361698150635,N011,visual,1,[],"['1', '2', '3', '4']",1,2023.2.3,harveyvisual,2.1,[],8,0.75,
7,dot,0.3,['dot'],['density'],black,0,180,180,180,,,65.40022420883179,65.11161708831787,65.41160011291504,dot,"[0.06, 0.1, 0.06, 0.06, 0.08, 0.1, 0.06]","[[-0.27882252076513336, 0.33055409005240166], [-0.4957633793454142, -0.06140876275196145], [-0.0066404743852866415, -0.09326226909207957], [-0.0437417051997281, 0.24568157295930956], [-0.4653499650939929, 0.1386387143322748], [-0.23664853702636232, 0.07695828400639043], [-0.2650254833014284, -0.12289079349875774]]",density,black,,,N011,visual,1,[],"['1', '2', '3', '4']",1,2023.2.3,harveyvisual,2.1,[],8,0.75,
0,pause,0.4,None,None,None,0,181,181,181,,,,,,,,,,,,,N011,visual,1,[],"['1', '2', '3', '4']",1,2023.2.3,harveyvisual,2.1,[],8,0.75,
7,dot,0.3,['dot'],['density'],white,0,182,182,182,,,66.10021805763245,65.8115861415863,66.1114649772644,dot,"[0.06, 0.08, 0.1, 0.1, 0.08, 0.08, 0.1]","[[-0.27819289690075527, 0.2483046813246476], [-0.5592260237138849, -0.07980801324287977], [-0.026637344717372308, -0.10521889364121585], [-0.16909952645659185, 0.05101222878256789], [-0.21868546305501066, -0.16482274839932262], [-0.3689572500107929, 0.03738969849335829], [-0.49227831811218986, 0.2063327632277477]]",density,white,,,N011,visual,1,[],"['1', '2', '3', '4']",1,2023.2.3,harveyvisual,2.1,[],8,0.75,
0,pause,0.4,None,None,None,0,183,183,183,,,,,,,,,,,1,66.2647910118103,N011,visual,1,[],"['1', '2', '3', '4']",1,2023.2.3,harveyvisual,2.1,[],8,0.75,
7,dot,0.3,['dot'],['density'],black,0,184,184,184,,,66.80020904541016,66.51143503189087,66.81156897544861,dot,"[0.08, 0.06, 0.06, 0.06, 0.08, 0.1, 0.08]","[[0.14162553822338392, 0.3850374027840034], [0.14862566890709045, -0.11120959689479885], [0.39332636479883865, 0.3869926518090174], [0.40462455387813373, -0.12110830933676162], [0.23143806607869288, 0.12402376181071403], [0.031443448417621304, 0.15083815177969048], [0.4360523150463376, 0.1818515773867412]]",density,black,,,N011,visual,1,[],"['1', '2', '3', '4']",1,2023.2.3,harveyvisual,2.1,[],8,0.75,
0,pause,0.4,None,None,None,0,185,185,185,,,,,,,,,,,,,N011,visual,1,[],"['1', '2', '3', '4']",1,2023.2.3,harveyvisual,2.1,[],8,0.75,
7,dot,0.3,['dot'],['density'],black,0,186,186,186,,,67.50021505355835,67.21157002449036,67.51156902313232,dot,"[0.1, 0.1, 0.1, 0.06, 0.06, 0.08, 0.06]","[[0.19245168201499255, -0.1876960705048169], [-0.3381443552002159, -0.23329338142126996], [-0.10497405195571721, -0.20200038512761503], [-0.19215049966389516, -0.01485034356210763], [-0.14804808022624072, 0.20187381879058183], [0.049390412829639754, -0.0077734514623590935], [0.08212821656350888, 0.19234027401595055]]",density,black,,,N011,visual,1,[],"['1', '2', '3', '4']",1,2023.2.3,harveyvisual,2.1,[],8,0.75,
0,pause,0.4,None,None,None,0,187,187,187,,,,,,,,,,,,,N011,visual,1,[],"['1', '2', '3', '4']",1,2023.2.3,harveyvisual,2.1,[],8,0.75,
7,dot,0.3,['dot'],['density'],black,0,188,188,188,,,68.20022010803223,67.91156101226807,68.21153020858765,dot,"[0.1, 0.06, 0.08, 0.1, 0.06, 0.08, 0.06]","[[-0.2314520007693297, 0.33838000150240727], [-0.18132207761103206, 0.5552670473927488], [0.017458222085991553, 0.32213086183097556], [0.10538257653630445, 0.5364165263315271], [-0.32661765694444117, 0.13553859080651098], [0.2001110614088519, 0.2352342526365964], [-0.07707990285528175, 0.1388757586163816]]",density,black,,,N011,visual,1,[],"['1', '2', '3', '4']",1,2023.2.3,harveyvisual,2.1,[],8,0.75,
0,pause,0.4,None,None,None,0,189,189,189,,,,,,,,,,,,,N011,visual,1,[],"['1', '2', '3', '4']",1,2023.2.3,harveyvisual,2.1,[],8,0.75,
7,dot,0.3,['dot'],['density'],black,0,190,190,190,,,68.90022706985474,68.61143398284912,68.91152119636536,dot,"[0.1, 0.06, 0.08, 0.08, 0.08, 0.08, 0.06]","[[0.23608374802607182, -0.42864299173344095], [-0.09209027036414452, -0.12416238309953632], [0.2788105912293623, 0.0033410667889120396], [0.04539289310230788, 0.08875296613859053], [0.036272769320452085, -0.32980830156280494], [-0.23317126701056543, -0.2895908304292693], [0.15392952834370008, -0.16140965755482034]]",density,black,,,N011,visual,1,[],"['1', '2', '3', '4']",1,2023.2.3,harveyvisual,2.1,[],8,0.75,
0,pause,0.4,None,None,None,0,191,191,191,,,,,,,,,,,,,N011,visual,1,[],"['1', '2', '3', '4']",1,2023.2.3,harveyvisual,2.1,[],8,0.75,
6,dot,0.3,['dot'],['density'],black,0,192,192,192,,,69.60022521018982,69.31153416633606,69.61152720451355,dot,"[0.1, 0.08, 0.08, 0.1, 0.1, 0.1]","[[-0.2094991805307552, 0.08302354111181451], [0.09557258300728075, 0.3458622669714129], [0.22056408800171526, -0.017094369341425636], [0.026601936584830878, 0.1297564650757722], [-0.11681768564656844, 0.2726391152528644], [-0.03570146891163527, -0.09222923444939024]]",density,black,,,N011,visual,1,[],"['1', '2', '3', '4']",1,2023.2.3,harveyvisual,2.1,[],8,0.75,
0,pause,0.4,None,None,None,0,193,193,193,,,,,,,,,,,,,N011,visual,1,[],"['1', '2', '3', '4']",1,2023.2.3,harveyvisual,2.1,[],8,0.75,
6,dot,0.3,['dot'],['density'],black,0,194,194,194,,,70.30021405220032,70.01152515411377,70.31152105331421,dot,"[0.08, 0.06, 0.1, 0.1, 0.08, 0.06]","[[0.23625405956766557, 0.3892633732772463], [0.11760889656980711, -0.0038201085241890706], [0.42882153754783053, 0.07157264481568941], [0.22360409458703237, 0.16865996735680294], [-0.08582952339030024, 0.051003002567710905], [-0.0010028139275050567, 0.23222523166366787]]",density,black,,,N011,visual,1,[],"['1', '2', '3', '4']",1,2023.2.3,harveyvisual,2.1,[],8,0.75,
0,pause,0.4,None,None,None,0,195,195,195,,,,,,,,,,,,,N011,visual,1,[],"['1', '2', '3', '4']",1,2023.2.3,harveyvisual,2.1,[],8,0.75,
6,dot,0.3,['dot'],['density'],black,0,196,196,196,,,71.00022220611572,70.7113561630249,71.01128101348877,dot,"[0.06, 0.08, 0.08, 0.1, 0.06, 0.06]","[[-0.25052904509636076, -0.46440103658729176], [-0.12772535636451293, 0.010821502090106766], [-0.031043743050516784, -0.3649555915866845], [-0.3754529733759062, -0.18839395716731677], [0.07378414788444272, -0.15062955699655364], [-0.17220243018048728, -0.20498996683935267]]",density,black,,,N011,visual,1,[],"['1', '2', '3', '4']",1,2023.2.3,harveyvisual,2.1,[],8,0.75,
0,pause,0.4,None,None,None,0,197,197,197,,,,,,,,,,,,,N011,visual,1,[],"['1', '2', '3', '4']",1,2023.2.3,harveyvisual,2.1,[],8,0.75,
6,dot,0.3,['dot'],['density'],black,0,198,198,198,,,71.70020318031311,71.41126298904419,71.71124505996704,dot,"[0.08, 0.1, 0.1, 0.1, 0.06, 0.1]","[[-0.4836161913484198, -0.3187453071493452], [-0.26471688047626735, -0.2860523134109648], [-0.41762950244179403, 0.08668289631298715], [-0.3878484475239729, -0.1200129628316565], [-0.19654931186518254, -0.017200237521102193], [-0.07523945320955261, -0.19429752312200124]]",density,black,,,N011,visual,1,[],"['1', '2', '3', '4']",1,2023.2.3,harveyvisual,2.1,[],8,0.75,
0,pause,0.4,None,None,None,0,199,199,199,,,,,,,,,,,,,N011,visual,1,[],"['1', '2', '3', '4']",1,2023.2.3,harveyvisual,2.1,[],8,0.75,
6,dot,0.3,['dot'],['density'],black,0,200,200,200,,,72.40022802352905,72.11125111579895,72.41126799583435,dot,"[0.08, 0.06, 0.06, 0.06, 0.06, 0.08]","[[0.3299424372810393, 0.4114780133894161], [0.051944887288218326, -0.03233758374135307], [0.4337222981537534, -0.07578498258626121], [0.10477943773033714, 0.1703675017914044], [0.3400878522727408, 0.20016066552806494], [0.2510029109880425, 0.01747244452819591]]",density,black,,,N011,visual,1,[],"['1', '2', '3', '4']",1,2023.2.3,harveyvisual,2.1,[],8,0.75,
0,pause,0.4,None,None,None,0,201,201,201,,,,,,,,,,,,,N011,visual,1,[],"['1', '2', '3', '4']",1,2023.2.3,harveyvisual,2.1,[],8,0.75,
6,dot,0.3,['dot'],['density'],black,0,202,202,202,,,73.10022521018982,72.81133604049683,73.11123418807983,dot,"[0.1, 0.08, 0.06, 0.1, 0.06, 0.1]","[[-0.4130096743352808, -0.09152271377164663], [-0.19778223104980006, -0.03862987845790588], [-0.5782793278508197, 0.04067119283421001], [-0.2942915267906656, -0.3673297053134895], [-0.33560074172492643, 0.119885218799542], [-0.5263932498355091, -0.25924495598585295]]",density,black,,,N011,visual,1,[],"['1', '2', '3', '4']",1,2023.2.3,harveyvisual,2.1,[],8,0.75,
0,pause,0.4,None,None,None,0,203,203,203,,,,,,,,,,,,,N011,visual,1,[],"['1', '2', '3', '4']",1,2023.2.3,harveyvisual,2.1,[],8,0.75,
5,dot,0.3,['dot'],['density'],black,0,204,204,204,,,73.80022811889648,73.51122307777405,73.8111960887909,dot,"[0.06, 0.06, 0.1, 0.1, 0.1]","[[0.21791283729510122, -0.3451859720731072], [0.5246150578842218, -0.1749209719782184], [0.23417080448362212, 0.06149420791510773], [0.21628546435715315, -0.14179681516434317], [0.46094971099473236, 0.03541120369123469]]",density,black,,,N011,visual,1,[],"['1', '2', '3', '4']",1,2023.2.3,harveyvisual,2.1,[],8,0.75,
0,pause,0.4,None,None,None,0,205,205,205,,,,,,,,,,,,,N011,visual,1,[],"['1', '2', '3', '4']",1,2023.2.3,harveyvisual,2.1,[],8,0.75,
5,dot,0.3,['dot'],['density'],black,0,206,206,206,,,74.5002281665802,74.21120500564575,74.5111870765686,dot,"[0.1, 0.08, 0.06, 0.08, 0.06]","[[0.2947939438731228, -0.23060267152592065], [-0.16069394766121817, -0.3416383267983795], [0.17571447256805817, -0.04795497140357211], [-0.06398416024856234, -0.043165972544212804], [0.046845399773749824, -0.2436216536023896]]",density,black,,,N011,visual,1,[],"['1', '2', '3', '4']",1,2023.2.3,harveyvisual,2.1,[],8,0.75,
0,pause,0.4,None,None,None,0,207,207,207,,,,,,,,,,,,,N011,visual,1,[],"['1', '2', '3', '4']",1,2023.2.3,harveyvisual,2.1,[],8,0.75,
5,dot,0.3,['dot'],['density'],black,0,208,208,208,,,75.20022320747375,74.91123914718628,75.21124410629272,dot,"[0.06, 0.06, 0.06, 0.1, 0.06]","[[0.4409169755572007, 0.017856988789309493], [0.10933872532765951, -0.20637645515835812], [0.27728831588229885, 0.198954967346464], [0.3100556643305453, -0.16532657838491105], [0.11148968869271939, 0.006469487304542018]]",density,black,,,N011,visual,1,[],"['1', '2', '3', '4']",1,2023.2.3,harveyvisual,2.1,[],8,0.75,
0,pause,0.4,None,None,None,0,209,209,209,,,,,,,,,,,,,N011,visual,1,[],"['1', '2', '3', '4']",1,2023.2.3,harveyvisual,2.1,[],8,0.75,
5,dot,0.3,['dot'],['density'],white,0,210,210,210,,,75.90022706985474,75.61125206947327,75.91115117073059,dot,"[0.1, 0.1, 0.06, 0.1, 0.1]","[[0.2075830250205083, 0.5448960418430373], [0.010600229768786232, 0.45420498888786176], [-0.10187712889758427, 0.28364076042242115], [0.1691377395635631, 0.293820614486451], [-0.2596336492265815, 0.40815120909286945]]",density,white,,,N011,visual,1,[],"['1', '2', '3', '4']",1,2023.2.3,harveyvisual,2.1,[],8,0.75,
0,pause,0.4,None,None,None,0,211,211,211,,,,,,,,,,,1,76.03197407722473,N011,visual,1,[],"['1', '2', '3', '4']",1,2023.2.3,harveyvisual,2.1,[],8,0.75,
5,dot,0.3,['dot'],['density'],black,0,212,212,212,,,76.6002151966095,76.31115007400513,76.61114501953125,dot,"[0.06, 0.06, 0.1, 0.08, 0.06]","[[-0.0036269740154891753, 0.5431219823242713], [-0.2646325594942043, 0.5073179604697073], [-0.41902475937036154, 0.37311436690984484], [-0.007163214206743488, 0.2887893175302695], [-0.2156098228659233, 0.2684642371109035]]",density,black,,,N011,visual,1,[],"['1', '2', '3', '4']",1,2023.2.3,harveyvisual,2.1,[],8,0.75,
0,pause,0.4,None,None,None,0,213,213,213,,,,,,,,,,,,,N011,visual,1,[],"['1', '2', '3', '4']",1,2023.2.3,harveyvisual,2.1,[],8,0.75,
5,dot,0.3,['dot'],['density'],black,0,214,214,214,,,77.30021810531616,77.01113700866699,77.31111598014832,dot,"[0.08, 0.1, 0.08, 0.08, 0.08]","[[0.05896558140131438, -0.5342250951568444], [0.41924064092593105, -0.38742881471212404], [0.0789485457987589, -0.15857793529431863], [0.19859038409043042, -0.3300393182504279], [-0.04229804568701367, -0.31959008629620334]]",density,black,,,N011,visual,1,[],"['1', '2', '3', '4']",1,2023.2.3,harveyvisual,2.1,[],8,0.75,
0,pause,0.4,None,None,None,0,215,215,215,,,,,,,,,,,,,N011,visual,1,[],"['1', '2', '3', '4']",1,2023.2.3,harveyvisual,2.1,[],8,0.75,
4,dot,0.3,['dot'],['density'],black,0,216,216,216,,,78.00022602081299,77.71111011505127,78.0110731124878,dot,"[0.08, 0.08, 0.1, 0.1]","[[0.0015408600658227804, 0.35051751062746694], [-0.20674122870780898, 0.3211588031025307], [-0.08430622538187964, 0.13383917563087117], [0.1780252705082131, 0.19175915241248492]]",density,black,,,N011,visual,1,[],"['1', '2', '3', '4']",1,2023.2.3,harveyvisual,2.1,[],8,0.75,
0,pause,0.4,None,None,None,0,217,217,217,,,,,,,,,,,,,N011,visual,1,[],"['1', '2', '3', '4']",1,2023.2.3,harveyvisual,2.1,[],8,0.75,
4,dot,0.3,['dot'],['density'],black,0,218,218,218,,,78.70022320747375,78.41109704971313,78.71107816696167,dot,"[0.08, 0.06, 0.1, 0.08]","[[-0.041173875632770134, -0.46498671258652186], [-0.2993670243960792, -0.1306311282158324], [-0.23343206187288035, -0.39905635110522214], [-0.1242366033797093, -0.2299834244258363]]",density,black,,,N011,visual,1,[],"['1', '2', '3', '4']",1,2023.2.3,harveyvisual,2.1,[],8,0.75,
0,pause,0.4,None,None,None,0,219,219,219,,,,,,,,,,,,,N011,visual,1,[],"['1', '2', '3', '4']",1,2023.2.3,harveyvisual,2.1,[],8,0.75,
4,dot,0.3,['dot'],['density'],black,0,220,220,220,,,79.4002320766449,79.11115217208862,79.41108798980713,dot,"[0.06, 0.1, 0.08, 0.1]","[[0.06241226843583792, -0.3147100539198924], [0.2553405417111816, -0.24584579293690137], [0.0027514156828475403, -0.09786489187307437], [0.1660279615748852, 0.026007470517245626]]",density,black,,,N011,visual,1,[],"['1', '2', '3', '4']",1,2023.2.3,harveyvisual,2.1,[],8,0.75,
0,pause,0.4,None,None,None,0,221,221,221,,,,,,,,,,,,,N011,visual,1,[],"['1', '2', '3', '4']",1,2023.2.3,harveyvisual,2.1,[],8,0.75,
4,dot,0.3,['dot'],['density'],black,0,222,222,222,,,80.10022020339966,79.81103301048279,80.11102509498596,dot,"[0.1, 0.1, 0.1, 0.1]","[[0.28769160010247724, 0.4706884012140322], [0.03735362687931127, 0.4645781312677133], [0.33102019499247487, 0.1847810932959147], [0.1685132699603264, 0.30497059043407926]]",density,black,,,N011,visual,1,[],"['1', '2', '3', '4']",1,2023.2.3,harveyvisual,2.1,[],8,0.75,
0,pause,0.4,None,None,None,0,223,223,223,,,,,,,,,,,,,N011,visual,1,[],"['1', '2', '3', '4']",1,2023.2.3,harveyvisual,2.1,[],8,0.75,
4,dot,0.3,['dot'],['density'],black,0,224,224,224,,,80.80023407936096,80.51100707054138,80.81100010871887,dot,"[0.08, 0.06, 0.06, 0.1]","[[0.2472118047986834, -0.10298318101898082], [0.5832669122255578, -0.0503561045998346], [0.411076479450662, -0.2641061246578253], [0.42907679660555237, 0.09101913809416001]]",density,black,,,N011,visual,1,[],"['1', '2', '3', '4']",1,2023.2.3,harveyvisual,2.1,[],8,0.75,
0,pause,0.4,None,None,None,0,225,225,225,,,,,,,,,,,,,N011,visual,1,[],"['1', '2', '3', '4']",1,2023.2.3,harveyvisual,2.1,[],8,0.75,
4,dot,0.3,['dot'],['density'],black,0,226,226,226,,,81.50021719932556,81.21103000640869,81.51101803779602,dot,"[0.1, 0.06, 0.1, 0.06]","[[-0.34940937311115045, -0.11648702989399858], [-0.2695829051223266, -0.4589438614516443], [-0.4698604504367728, -0.3018413850444449], [-0.18849712946501163, -0.26902343222239633]]",density,black,,,N011,visual,1,[],"['1', '2', '3', '4']",1,2023.2.3,harveyvisual,2.1,[],8,0.75,
0,pause,0.4,None,None,None,0,227,227,227,,,,,,,,,,,,,N011,visual,1,[],"['1', '2', '3', '4']",1,2023.2.3,harveyvisual,2.1,[],8,0.75,
3,dot,0.3,['dot'],['density'],black,0,228,228,228,,,82.20022416114807,81.91253614425659,82.21102404594421,dot,"[0.08, 0.08, 0.08]","[[0.06695044750400271, -0.4036822973150869], [0.2898428615912539, -0.43752325319744867], [0.2484486434572057, -0.2241911098289173]]",density,black,,,N011,visual,1,[],"['1', '2', '3', '4']",1,2023.2.3,harveyvisual,2.1,[],8,0.75,
0,pause,0.4,None,None,None,0,229,229,229,,,,,,,,,,,,,N011,visual,1,[],"['1', '2', '3', '4']",1,2023.2.3,harveyvisual,2.1,[],8,0.75,
3,dot,0.3,['dot'],['density'],black,0,230,230,230,,,82.90022206306458,82.61105608940125,82.9110221862793,dot,"[0.08, 0.08, 0.1]","[[-0.36641147837046456, 0.28339849123565264], [-0.19108570342652328, 0.4628134959899303], [-0.16564092668537764, 0.24926372681875647]]",density,black,,,N011,visual,1,[],"['1', '2', '3', '4']",1,2023.2.3,harveyvisual,2.1,[],8,0.75,
0,pause,0.4,None,None,None,0,231,231,231,,,,,,,,,,,,,N011,visual,1,[],"['1', '2', '3', '4']",1,2023.2.3,harveyvisual,2.1,[],8,0.75,
3,dot,0.3,['dot'],['density'],black,0,232,232,232,,,83.60022401809692,83.31101608276367,83.61101603507996,dot,"[0.06, 0.06, 0.06]","[[0.026071599024748527, -0.32860913997604846], [-0.11834724389398482, -0.18584523127985947], [0.10068982493997472, -0.12518245043845455]]",density,black,,,N011,visual,1,[],"['1', '2', '3', '4']",1,2023.2.3,harveyvisual,2.1,[],8,0.75,
0,pause,0.4,None,None,None,0,233,233,233,,,,,,,,,,,,,N011,visual,1,[],"['1', '2', '3', '4']",1,2023.2.3,harveyvisual,2.1,[],8,0.75,
3,dot,0.3,['dot'],['density'],black,0,234,234,234,,,84.30023312568665,84.01098418235779,84.31097316741943,dot,"[0.06, 0.06, 0.1]","[[-0.32624451712468355, -0.43854848545497693], [-0.39409142490376414, -0.22516425170789148], [-0.152352104904091, -0.33204091051628687]]",density,black,,,N011,visual,1,[],"['1', '2', '3', '4']",1,2023.2.3,harveyvisual,2.1,[],8,0.75,
0,pause,0.4,None,None,None,0,235,235,235,,,,,,,,,,,,,N011,visual,1,[],"['1', '2', '3', '4']",1,2023.2.3,harveyvisual,2.1,[],8,0.75,
3,dot,0.3,['dot'],['density'],black,0,236,236,236,,,85.00022006034851,84.71101117134094,85.01095914840698,dot,"[0.08, 0.06, 0.1]","[[-0.476501853024302, 0.3110516410681161], [-0.26865065753742645, 0.4732574608261889], [-0.2772428868380306, 0.2516539537451065]]",density,black,,,N011,visual,1,[],"['1', '2', '3', '4']",1,2023.2.3,harveyvisual,2.1,[],8,0.75,
0,pause,0.4,None,None,None,0,237,237,237,,,,,,,,,,,,,N011,visual,1,[],"['1', '2', '3', '4']",1,2023.2.3,harveyvisual,2.1,[],8,0.75,
3,dot,0.3,['dot'],['density'],black,0,238,238,238,,,85.70022010803223,85.41113615036011,85.7111120223999,dot,"[0.1, 0.08, 0.06]","[[0.026071599024748527, -0.32860913997604846], [-0.11834724389398482, -0.18584523127985947], [0.10068982493997472, -0.12518245043845455]]",density,black,,,N011,visual,1,[],"['1', '2', '3', '4']",1,2023.2.3,harveyvisual,2.1,[],8,0.75,
0,pause,0.4,None,None,None,0,239,239,239,,,,,,,,,,,,,N011,visual,1,[],"['1', '2', '3', '4']",1,2023.2.3,harveyvisual,2.1,[],8,0.75,
2,dot,0.3,['dot'],['density'],black,0,240,240,240,,,86.40022802352905,86.1111330986023,86.41113805770874,dot,"[0.08, 0.08]","[[0.5590929928249944, 0.05901985638302875], [0.5065513741473344, -0.13409141480534237]]",density,black,,,N011,visual,1,[],"['1', '2', '3', '4']",1,2023.2.3,harveyvisual,2.1,[],8,0.75,
0,pause,0.4,None,None,None,0,241,241,241,,,,,,,,,,,,,N011,visual,1,[],"['1', '2', '3', '4']",1,2023.2.3,harveyvisual,2.1,[],8,0.75,
2,dot,0.3,['dot'],['density'],black,0,242,242,242,,,87.10022020339966,86.8111469745636,87.11098003387451,dot,"[0.1, 0.1]","[[0.11437717294043931, -0.408092871188616], [0.012734947149558614, -0.23578585574018435]]",density,black,,,N011,visual,1,[],"['1', '2', '3', '4']",1,2023.2.3,harveyvisual,2.1,[],8,0.75,
0,pause,0.4,None,None,None,0,243,243,243,,,,,,,,,,,,,N011,visual,1,[],"['1', '2', '3', '4']",1,2023.2.3,harveyvisual,2.1,[],8,0.75,
2,dot,0.3,['dot'],['density'],black,0,244,244,244,,,87.80020809173584,87.51103401184082,87.81102919578552,dot,"[0.08, 0.1]","[[-0.40295961353468523, -0.33947470962363085], [-0.23663605411983973, -0.22749761394439932]]",density,black,,,N011,visual,1,[],"['1', '2', '3', '4']",1,2023.2.3,harveyvisual,2.1,[],8,0.75,
0,pause,0.4,None,None,None,0,245,245,245,,,,,,,,,,,,,N011,visual,1,[],"['1', '2', '3', '4']",1,2023.2.3,harveyvisual,2.1,[],8,0.75,
2,dot,0.3,['dot'],['density'],black,0,246,246,246,,,88.50023603439331,88.21101117134094,88.51096510887146,dot,"[0.08, 0.1]","[[0.09481659993656301, 0.43631713998557026], [0.0662189159667295, 0.23745101446818795]]",density,black,,,N011,visual,1,[],"['1', '2', '3', '4']",1,2023.2.3,harveyvisual,2.1,[],8,0.75,
0,pause,0.4,None,None,None,0,247,247,247,,,,,,,,,,,,,N011,visual,1,[],"['1', '2', '3', '4']",1,2023.2.3,harveyvisual,2.1,[],8,0.75,
2,dot,0.3,['dot'],['density'],black,0,248,248,248,,,89.20022416114807,88.91085505485535,89.21081209182739,dot,"[0.1, 0.1]","[[0.038501021189721846, -0.3380528513692932], [0.2360793696083702, -0.306423538752856]]",density,black,,,N011,visual,1,[],"['1', '2', '3', '4']",1,2023.2.3,harveyvisual,2.1,[],8,0.75,
0,pause,0.4,None,None,None,0,249,249,249,,,,,,,,,,,,,N011,visual,1,[],"['1', '2', '3', '4']",1,2023.2.3,harveyvisual,2.1,[],8,0.75,
2,dot,0.3,['dot'],['density'],black,0,250,250,250,,,89.90022206306458,89.6108500957489,89.91100215911865,dot,"[0.08, 0.06]","[[-0.4579128382498026, -0.013317831223324628], [-0.28624676016543393, -0.11681778735554697]]",density,black,,,N011,visual,1,[],"['1', '2', '3', '4']",1,2023.2.3,harveyvisual,2.1,[],8,0.75,
0,pause,0.4,None,None,None,0,251,251,251,,,,,,,,,,,,,N011,visual,1,[],"['1', '2', '3', '4']",1,2023.2.3,harveyvisual,2.1,[],8,0.75,
1,dot,0.3,['dot'],['density'],black,0,252,252,252,,,90.6002311706543,90.31104111671448,90.61081600189209,dot,[0.08],"[0.25023401086931774, -0.3984124620602511]",density,black,,,N011,visual,1,[],"['1', '2', '3', '4']",1,2023.2.3,harveyvisual,2.1,[],8,0.75,
0,pause,0.4,None,None,None,0,253,253,253,,,,,,,,,,,,,N011,visual,1,[],"['1', '2', '3', '4']",1,2023.2.3,harveyvisual,2.1,[],8,0.75,
1,dot,0.3,['dot'],['density'],white,0,254,254,254,,,91.30021500587463,91.01104712486267,91.31081104278564,dot,[0.1],"[0.0038807231877187303, -0.2777732366953785]",density,white,,,N011,visual,1,[],"['1', '2', '3', '4']",1,2023.2.3,harveyvisual,2.1,[],8,0.75,
0,pause,0.4,None,None,None,0,255,255,255,,,,,,,,,,,1,91.43399906158447,N011,visual,1,[],"['1', '2', '3', '4']",1,2023.2.3,harveyvisual,2.1,[],8,0.75,
1,dot,0.3,['dot'],['density'],black,0,256,256,256,,,92.00022411346436,91.71077418327332,92.0107581615448,dot,[0.08],"[-0.4913090862596544, 0.31587628757091063]",density,black,,,N011,visual,1,[],"['1', '2', '3', '4']",1,2023.2.3,harveyvisual,2.1,[],8,0.75,
0,pause,0.4,None,None,None,0,257,257,257,,,,,,,,,,,,,N011,visual,1,[],"['1', '2', '3', '4']",1,2023.2.3,harveyvisual,2.1,[],8,0.75,
1,dot,0.3,['dot'],['density'],black,0,258,258,258,,,92.70021414756775,92.41075420379639,92.71073603630066,dot,[0.06],"[0.1049869166116724, 0.1335000464341748]",density,black,,,N011,visual,1,[],"['1', '2', '3', '4']",1,2023.2.3,harveyvisual,2.1,[],8,0.75,
0,pause,0.4,None,None,None,0,259,259,259,,,,,,,,,,,,,N011,visual,1,[],"['1', '2', '3', '4']",1,2023.2.3,harveyvisual,2.1,[],8,0.75,
1,dot,0.3,['dot'],['density'],black,0,260,260,260,,,93.40023398399353,93.11072301864624,93.41072607040405,dot,[0.06],"[0.2287398259034258, -0.3932960849464651]",density,black,,,N011,visual,1,[],"['1', '2', '3', '4']",1,2023.2.3,harveyvisual,2.1,[],8,0.75,
0,pause,0.4,None,None,None,0,261,261,261,,,,,,,,,,,,,N011,visual,1,[],"['1', '2', '3', '4']",1,2023.2.3,harveyvisual,2.1,[],8,0.75,
1,dot,0.3,['dot'],['density'],black,0,262,262,262,,,94.10021901130676,93.81071400642395,94.11069798469543,dot,[0.08],"[-0.045934412585722416, -0.12236734128406912]",density,black,,,N011,visual,1,[],"['1', '2', '3', '4']",1,2023.2.3,harveyvisual,2.1,[],8,0.75,
0,pause,0.4,None,None,None,0,263,263,263,,,,,,,,,,,,,N011,visual,1,[],"['1', '2', '3', '4']",1,2023.2.3,harveyvisual,2.1,[],8,0.75,
20,dot,0.3,['dot'],['density'],black,0,264,264,264,,,94.80021619796753,94.51071310043335,94.81068515777588,dot,"[0.1, 0.08, 0.06, 0.06, 0.08, 0.06, 0.06, 0.1, 0.06, 0.06, 0.1, 0.1, 0.08, 0.1, 0.08, 0.1, 0.1, 0.06, 0.1, 0.08]","[[0.575043719711256, -0.07824902507189284], [-0.23814599759644633, 0.27878463576329693], [-0.40432585593532894, -0.20022833830485665], [-0.4980775491178844, 0.016488704514672936], [0.3908582154188043, 0.3496292131316633], [0.0619814964253208, -0.31678799282932196], [-0.16235453536914524, -0.1197277442182883], [0.12908471522079124, -0.06238643105888364], [0.1741562931457753, 0.3695955235443211], [0.27487732289760414, -0.21916284644614398], [-0.14311381359018377, 0.5296560772624259], [0.24902448698115287, -0.4544042897310719], [-0.15555246351499213, 0.09450462395902348], [-0.416506511126902, -0.4187011978449727], [0.006633641746324748, -0.5911227868624993], [0.24283774145067705, 0.1778545588615389], [0.3476392118700167, -0.02149973924014964], [-0.447552128961862, 0.25914697140543425], [-0.20096380916456102, -0.3724938598268954], [-0.36834535996448425, 0.4731241191525132]]",density,black,,,N011,visual,1,[],"['1', '2', '3', '4']",1,2023.2.3,harveyvisual,2.1,[],8,0.75,
0,pause,0.4,None,None,None,0,265,265,265,,,,,,,,,,,,,N011,visual,1,[],"['1', '2', '3', '4']",1,2023.2.3,harveyvisual,2.1,[],8,0.75,
20,dot,0.3,['dot'],['density'],white,0,266,266,266,,,95.50023698806763,95.21065402030945,95.51067018508911,dot,"[0.08, 0.1, 0.08, 0.1, 0.06, 0.08, 0.08, 0.06, 0.06, 0.08, 0.06, 0.1, 0.1, 0.1, 0.06, 0.06, 0.08, 0.06, 0.08, 0.1]","[[0.21371036346548655, -0.05960808356164227], [0.5039107189225412, 0.11018099124795472], [0.45606440409583293, -0.21544107290704975], [0.2572210193421308, -0.2981954686592674], [-0.3305217020303126, 0.21503494843221016], [-0.3662135999647593, -0.3712376242426136], [-0.5819416694007392, -0.15937553824325132], [0.1755417904618256, -0.4758614017063202], [-0.15988951603249174, -0.03153831891893799], [0.18497748584445473, 0.44241597832838986], [-0.5711343272666953, 0.13543938117004187], [-0.12316121385026446, -0.36602793022773955], [-0.09078856376484445, 0.40421200575216776], [0.12442926723452774, 0.18448569677698612], [0.4196657837905343, 0.2831353521930477], [0.052278089713805986, -0.26609070686871905], [-0.20955025131130584, -0.5412157021684583], [-0.3789069906433812, -0.0682466380352369], [-0.10662352916985052, 0.5953262924675652], [0.42201976357575, -0.4085533831880554]]",density,white,,,N011,visual,1,[],"['1', '2', '3', '4']",1,2023.2.3,harveyvisual,2.1,[],8,0.75,
0,pause,0.4,None,None,None,0,267,267,267,,,,,,,,,,,1,95.60233998298645,N011,visual,1,[],"['1', '2', '3', '4']",1,2023.2.3,harveyvisual,2.1,[],8,0.75,
