num,mod,duration,shape,ll_cond,colors,.thisRepN,.thisTrialN,.thisN,.thisIndex,thisRow.t,notes,raw_global_time,t_start,t_stop,pos,fonts,size,button,RT,answer,participant,session,starting_run,left button (match/odd),right button (non-match/even),samples_per_block,psychopy version,expName,offset,audio,number_runs,radius,
1,digit,0.3,['dot'],['big_1'],black,0,0,0,0,,,2.4001989364624023,2.1119818687438965,2.4118919372558594,"[[0.0054540262177751875, 0.07431243346733282]]",['DejaVu Sans'],[0.9],,,,N004,digit,1,"['6', '7', '8', '9']","['1', '2', '3', '4']",1,2023.2.3,harveydigits,2.1,[],8,0.75,
0,pause,0.4,None,None,None,0,1,1,1,,,,,,,,,,,,N004,digit,1,"['6', '7', '8', '9']","['1', '2', '3', '4']",1,2023.2.3,harveydigits,2.1,[],8,0.75,
1,digit,0.3,['dot'],['big_1'],black,0,2,2,2,,,3.1002118587493896,2.8118929862976074,3.112433910369873,"[[-0.0425871469273327, -0.04726906410729054]]",['DejaVu Sans'],[0.9],,,,N004,digit,1,"['6', '7', '8', '9']","['1', '2', '3', '4']",1,2023.2.3,harveydigits,2.1,[],8,0.75,
0,pause,0.4,None,None,None,0,3,3,3,,,,,,,,,,,,N004,digit,1,"['6', '7', '8', '9']","['1', '2', '3', '4']",1,2023.2.3,harveydigits,2.1,[],8,0.75,
1,digit,0.3,['dot'],['big_1'],black,0,4,4,4,,,3.800220012664795,3.512450933456421,3.8124170303344727,"[[-0.13154378711481307, -0.04049561748868816]]",['DejaVu Sans'],[0.9],,,,N004,digit,1,"['6', '7', '8', '9']","['1', '2', '3', '4']",1,2023.2.3,harveydigits,2.1,[],8,0.75,
0,pause,0.4,None,None,None,0,5,5,5,,,,,,,,,,,,N004,digit,1,"['6', '7', '8', '9']","['1', '2', '3', '4']",1,2023.2.3,harveydigits,2.1,[],8,0.75,
1,digit,0.3,['dot'],['big_1'],black,0,6,6,6,,,4.500216960906982,4.2124269008636475,4.5123889446258545,"[[0.18934886216992733, 0.022492177665538446]]",['DejaVu Sans'],[0.9],,,,N004,digit,1,"['6', '7', '8', '9']","['1', '2', '3', '4']",1,2023.2.3,harveydigits,2.1,[],8,0.75,
0,pause,0.4,None,None,None,0,7,7,7,,,,,,,,,,,,N004,digit,1,"['6', '7', '8', '9']","['1', '2', '3', '4']",1,2023.2.3,harveydigits,2.1,[],8,0.75,
1,digit,0.3,['dot'],['big_1'],black,0,8,8,8,,,5.200223922729492,4.912397861480713,5.2123799324035645,"[[-0.016776045259814326, 0.11025147523720538]]",['DejaVu Sans'],[0.9],,,,N004,digit,1,"['6', '7', '8', '9']","['1', '2', '3', '4']",1,2023.2.3,harveydigits,2.1,[],8,0.75,
0,pause,0.4,None,None,None,0,9,9,9,,,,,,,,,,,,N004,digit,1,"['6', '7', '8', '9']","['1', '2', '3', '4']",1,2023.2.3,harveydigits,2.1,[],8,0.75,
1,digit,0.3,['dot'],['big_1'],black,0,10,10,10,,,5.900208950042725,5.614642858505249,5.914594888687134,"[[-0.13824825214004685, 0.0060029109411897374]]",['DejaVu Sans'],[0.9],,,,N004,digit,1,"['6', '7', '8', '9']","['1', '2', '3', '4']",1,2023.2.3,harveydigits,2.1,[],8,0.75,
0,pause,0.4,None,None,None,0,11,11,11,,,,,,,,,,,,N004,digit,1,"['6', '7', '8', '9']","['1', '2', '3', '4']",1,2023.2.3,harveydigits,2.1,[],8,0.75,
2,digit,0.3,['dot'],['big_1'],black,0,12,12,12,,,6.600221872329712,6.314612865447998,6.614610910415649,"[[-0.13462450986523347, -0.11015273761143089]]",['DejaVu Sans'],[0.9],,,,N004,digit,1,"['6', '7', '8', '9']","['1', '2', '3', '4']",1,2023.2.3,harveydigits,2.1,[],8,0.75,
0,pause,0.4,None,None,None,0,13,13,13,,,,,,,,,,,,N004,digit,1,"['6', '7', '8', '9']","['1', '2', '3', '4']",1,2023.2.3,harveydigits,2.1,[],8,0.75,
2,digit,0.3,['dot'],['big_1'],black,0,14,14,14,,,7.3002190589904785,7.014569997787476,7.3147149085998535,"[[-0.097881845870929, 0.05017643062029345]]",['DejaVu Sans'],[0.9],,,,N004,digit,1,"['6', '7', '8', '9']","['1', '2', '3', '4']",1,2023.2.3,harveydigits,2.1,[],8,0.75,
0,pause,0.4,None,None,None,0,15,15,15,,,,,,,,,,,,N004,digit,1,"['6', '7', '8', '9']","['1', '2', '3', '4']",1,2023.2.3,harveydigits,2.1,[],8,0.75,
2,digit,0.3,['dot'],['big_1'],black,0,16,16,16,,,8.000201940536499,7.7147040367126465,8.014713048934937,"[[-0.1767691363101099, -0.09177961871528563]]",['DejaVu Sans'],[0.9],,,,N004,digit,1,"['6', '7', '8', '9']","['1', '2', '3', '4']",1,2023.2.3,harveydigits,2.1,[],8,0.75,
0,pause,0.4,None,None,None,0,17,17,17,,,,,,,,,,,,N004,digit,1,"['6', '7', '8', '9']","['1', '2', '3', '4']",1,2023.2.3,harveydigits,2.1,[],8,0.75,
2,digit,0.3,['dot'],['big_1'],black,0,18,18,18,,,8.700202941894531,8.414665937423706,8.714683055877686,"[[-0.17754683045499342, 0.054607818483620674]]",['DejaVu Sans'],[0.9],,,,N004,digit,1,"['6', '7', '8', '9']","['1', '2', '3', '4']",1,2023.2.3,harveydigits,2.1,[],8,0.75,
0,pause,0.4,None,None,None,0,19,19,19,,,,,,,,,,,,N004,digit,1,"['6', '7', '8', '9']","['1', '2', '3', '4']",1,2023.2.3,harveydigits,2.1,[],8,0.75,
2,digit,0.3,['dot'],['big_1'],black,0,20,20,20,,,9.40020203590393,9.114691019058228,9.414491891860962,"[[-0.11371776029458881, -0.13972235990229637]]",['DejaVu Sans'],[0.9],,,,N004,digit,1,"['6', '7', '8', '9']","['1', '2', '3', '4']",1,2023.2.3,harveydigits,2.1,[],8,0.75,
0,pause,0.4,None,None,None,0,21,21,21,,,,,,,,,,,,N004,digit,1,"['6', '7', '8', '9']","['1', '2', '3', '4']",1,2023.2.3,harveydigits,2.1,[],8,0.75,
2,digit,0.3,['dot'],['big_1'],black,0,22,22,22,,,10.100213050842285,9.814640045166016,10.114521980285645,"[[0.15445281575135664, -0.049874642492685015]]",['DejaVu Sans'],[0.9],,,,N004,digit,1,"['6', '7', '8', '9']","['1', '2', '3', '4']",1,2023.2.3,harveydigits,2.1,[],8,0.75,
0,pause,0.4,None,None,None,0,23,23,23,,,,,,,,,,,,N004,digit,1,"['6', '7', '8', '9']","['1', '2', '3', '4']",1,2023.2.3,harveydigits,2.1,[],8,0.75,
3,digit,0.3,['dot'],['big_1'],black,0,24,24,24,,,10.800215005874634,10.514616966247559,10.814630031585693,"[[0.12293013922632076, 0.03974447191032604]]",['DejaVu Sans'],[0.9],,,,N004,digit,1,"['6', '7', '8', '9']","['1', '2', '3', '4']",1,2023.2.3,harveydigits,2.1,[],8,0.75,
0,pause,0.4,None,None,None,0,25,25,25,,,,,,,,,,,,N004,digit,1,"['6', '7', '8', '9']","['1', '2', '3', '4']",1,2023.2.3,harveydigits,2.1,[],8,0.75,
3,digit,0.3,['dot'],['big_1'],black,0,26,26,26,,,11.500218868255615,11.214505910873413,11.514445066452026,"[[0.1736875135332777, -0.0032750616433267488]]",['DejaVu Sans'],[0.9],,,,N004,digit,1,"['6', '7', '8', '9']","['1', '2', '3', '4']",1,2023.2.3,harveydigits,2.1,[],8,0.75,
0,pause,0.4,None,None,None,0,27,27,27,,,,,,,,,,,,N004,digit,1,"['6', '7', '8', '9']","['1', '2', '3', '4']",1,2023.2.3,harveydigits,2.1,[],8,0.75,
3,digit,0.3,['dot'],['big_1'],black,0,28,28,28,,,12.200217962265015,11.914428949356079,12.214415073394775,"[[-0.022385710129020048, -0.19716852805859209]]",['DejaVu Sans'],[0.9],,,,N004,digit,1,"['6', '7', '8', '9']","['1', '2', '3', '4']",1,2023.2.3,harveydigits,2.1,[],8,0.75,
0,pause,0.4,None,None,None,0,29,29,29,,,,,,,,,,,,N004,digit,1,"['6', '7', '8', '9']","['1', '2', '3', '4']",1,2023.2.3,harveydigits,2.1,[],8,0.75,
3,digit,0.3,['dot'],['big_1'],black,0,30,30,30,,,12.900213956832886,12.614511013031006,12.914423942565918,"[[0.16147419431171942, 0.008540943492675784]]",['DejaVu Sans'],[0.9],,,,N004,digit,1,"['6', '7', '8', '9']","['1', '2', '3', '4']",1,2023.2.3,harveydigits,2.1,[],8,0.75,
0,pause,0.4,None,None,None,0,31,31,31,,,,,,,,,,,,N004,digit,1,"['6', '7', '8', '9']","['1', '2', '3', '4']",1,2023.2.3,harveydigits,2.1,[],8,0.75,
3,digit,0.3,['dot'],['big_1'],black,0,32,32,32,,,13.60020899772644,13.314409017562866,13.614507913589478,"[[-0.002375480797223245, 0.16594535150920944]]",['DejaVu Sans'],[0.9],,,,N004,digit,1,"['6', '7', '8', '9']","['1', '2', '3', '4']",1,2023.2.3,harveydigits,2.1,[],8,0.75,
0,pause,0.4,None,None,None,0,33,33,33,,,,,,,,,,,,N004,digit,1,"['6', '7', '8', '9']","['1', '2', '3', '4']",1,2023.2.3,harveydigits,2.1,[],8,0.75,
3,digit,0.3,['dot'],['big_1'],black,0,34,34,34,,,14.300221920013428,14.014388084411621,14.31433892250061,"[[0.16676825482930027, -0.019482877463219236]]",['DejaVu Sans'],[0.9],,,,N004,digit,1,"['6', '7', '8', '9']","['1', '2', '3', '4']",1,2023.2.3,harveydigits,2.1,[],8,0.75,
0,pause,0.4,None,None,None,0,35,35,35,,,,,,,,,,,,N004,digit,1,"['6', '7', '8', '9']","['1', '2', '3', '4']",1,2023.2.3,harveydigits,2.1,[],8,0.75,
4,digit,0.3,['dot'],['big_1'],black,0,36,36,36,,,15.000227928161621,14.714348077774048,15.014333963394165,"[[-0.04610537185817787, 0.16890181867459153]]",['DejaVu Sans'],[0.9],,,,N004,digit,1,"['6', '7', '8', '9']","['1', '2', '3', '4']",1,2023.2.3,harveydigits,2.1,[],8,0.75,
0,pause,0.4,None,None,None,0,37,37,37,,,,,,,,,,,,N004,digit,1,"['6', '7', '8', '9']","['1', '2', '3', '4']",1,2023.2.3,harveydigits,2.1,[],8,0.75,
4,digit,0.3,['dot'],['big_1'],black,0,38,38,38,,,15.700217962265015,15.414377927780151,15.714357852935791,"[[0.19571515812629517, -0.017387652314075443]]",['DejaVu Sans'],[0.9],,,,N004,digit,1,"['6', '7', '8', '9']","['1', '2', '3', '4']",1,2023.2.3,harveydigits,2.1,[],8,0.75,
0,pause,0.4,None,None,None,0,39,39,39,,,,,,,,,,,,N004,digit,1,"['6', '7', '8', '9']","['1', '2', '3', '4']",1,2023.2.3,harveydigits,2.1,[],8,0.75,
4,digit,0.3,['dot'],['big_1'],black,0,40,40,40,,,16.400207042694092,16.114350080490112,16.41430687904358,"[[0.003850893526800764, 0.002277913360852174]]",['DejaVu Sans'],[0.9],,,,N004,digit,1,"['6', '7', '8', '9']","['1', '2', '3', '4']",1,2023.2.3,harveydigits,2.1,[],8,0.75,
0,pause,0.4,None,None,None,0,41,41,41,,,,,,,,,,,,N004,digit,1,"['6', '7', '8', '9']","['1', '2', '3', '4']",1,2023.2.3,harveydigits,2.1,[],8,0.75,
4,digit,0.3,['dot'],['big_1'],black,0,42,42,42,,,17.100220918655396,16.814301013946533,17.11429500579834,"[[-0.1575872319043433, -0.11980657527807513]]",['DejaVu Sans'],[0.9],,,,N004,digit,1,"['6', '7', '8', '9']","['1', '2', '3', '4']",1,2023.2.3,harveydigits,2.1,[],8,0.75,
0,pause,0.4,None,None,None,0,43,43,43,,,,,,,,,,,,N004,digit,1,"['6', '7', '8', '9']","['1', '2', '3', '4']",1,2023.2.3,harveydigits,2.1,[],8,0.75,
4,digit,0.3,['dot'],['big_1'],black,0,44,44,44,,,17.80021595954895,17.514291048049927,17.81427788734436,"[[-0.0974560383625135, 0.16488299352924232]]",['DejaVu Sans'],[0.9],,,,N004,digit,1,"['6', '7', '8', '9']","['1', '2', '3', '4']",1,2023.2.3,harveydigits,2.1,[],8,0.75,
0,pause,0.4,None,None,None,0,45,45,45,,,,,,,,,,,,N004,digit,1,"['6', '7', '8', '9']","['1', '2', '3', '4']",1,2023.2.3,harveydigits,2.1,[],8,0.75,
4,digit,0.3,['dot'],['big_1'],black,0,46,46,46,,,18.50021195411682,18.21426296234131,18.51426601409912,"[[0.12297906006057555, 0.01834145828303335]]",['DejaVu Sans'],[0.9],,,,N004,digit,1,"['6', '7', '8', '9']","['1', '2', '3', '4']",1,2023.2.3,harveydigits,2.1,[],8,0.75,
0,pause,0.4,None,None,None,0,47,47,47,,,,,,,,,,,,N004,digit,1,"['6', '7', '8', '9']","['1', '2', '3', '4']",1,2023.2.3,harveydigits,2.1,[],8,0.75,
5,digit,0.3,['dot'],['big_1'],black,0,48,48,48,,,19.200216054916382,18.914268016815186,19.214216947555542,"[[-0.1970350275719842, 0.02917372063685883]]",['DejaVu Sans'],[0.9],,,,N004,digit,1,"['6', '7', '8', '9']","['1', '2', '3', '4']",1,2023.2.3,harveydigits,2.1,[],8,0.75,
0,pause,0.4,None,None,None,0,49,49,49,,,,,,,,,,,,N004,digit,1,"['6', '7', '8', '9']","['1', '2', '3', '4']",1,2023.2.3,harveydigits,2.1,[],8,0.75,
5,digit,0.3,['dot'],['big_1'],black,0,50,50,50,,,19.900228023529053,19.614285945892334,19.914206981658936,"[[0.19500658250142486, 0.0013910092590755305]]",['DejaVu Sans'],[0.9],,,,N004,digit,1,"['6', '7', '8', '9']","['1', '2', '3', '4']",1,2023.2.3,harveydigits,2.1,[],8,0.75,
0,pause,0.4,None,None,None,0,51,51,51,,,,,,,,,,,,N004,digit,1,"['6', '7', '8', '9']","['1', '2', '3', '4']",1,2023.2.3,harveydigits,2.1,[],8,0.75,
5,digit,0.3,['dot'],['big_1'],black,0,52,52,52,,,20.6002299785614,20.314271926879883,20.61441707611084,"[[0.05397003154647481, -0.06171185932172232]]",['DejaVu Sans'],[0.9],,,,N004,digit,1,"['6', '7', '8', '9']","['1', '2', '3', '4']",1,2023.2.3,harveydigits,2.1,[],8,0.75,
0,pause,0.4,None,None,None,0,53,53,53,,,,,,,,,,,,N004,digit,1,"['6', '7', '8', '9']","['1', '2', '3', '4']",1,2023.2.3,harveydigits,2.1,[],8,0.75,
5,digit,0.3,['dot'],['big_1'],black,0,54,54,54,,,21.300221920013428,21.014424085617065,21.314419984817505,"[[-0.1514209367865523, -0.024151725077307395]]",['DejaVu Sans'],[0.9],,,,N004,digit,1,"['6', '7', '8', '9']","['1', '2', '3', '4']",1,2023.2.3,harveydigits,2.1,[],8,0.75,
0,pause,0.4,None,None,None,0,55,55,55,,,,,,,,,,,,N004,digit,1,"['6', '7', '8', '9']","['1', '2', '3', '4']",1,2023.2.3,harveydigits,2.1,[],8,0.75,
5,digit,0.3,['dot'],['big_1'],black,0,56,56,56,,,22.00021195411682,21.714344024658203,22.014330863952637,"[[0.09337927998203363, 0.05461999296359485]]",['DejaVu Sans'],[0.9],,,,N004,digit,1,"['6', '7', '8', '9']","['1', '2', '3', '4']",1,2023.2.3,harveydigits,2.1,[],8,0.75,
0,pause,0.4,None,None,None,0,57,57,57,,,,,,,,,,,,N004,digit,1,"['6', '7', '8', '9']","['1', '2', '3', '4']",1,2023.2.3,harveydigits,2.1,[],8,0.75,
5,digit,0.3,['dot'],['big_1'],black,0,58,58,58,,,22.700216054916382,22.414191007614136,22.71430802345276,"[[0.16214709345130693, -0.024034180751044645]]",['DejaVu Sans'],[0.9],,,,N004,digit,1,"['6', '7', '8', '9']","['1', '2', '3', '4']",1,2023.2.3,harveydigits,2.1,[],8,0.75,
0,pause,0.4,None,None,None,0,59,59,59,,,,,,,,,,,,N004,digit,1,"['6', '7', '8', '9']","['1', '2', '3', '4']",1,2023.2.3,harveydigits,2.1,[],8,0.75,
6,digit,0.3,['dot'],['big_1'],black,0,60,60,60,,,23.400207042694092,23.11419701576233,23.414146900177002,"[[-0.12128517533408498, -0.050672688527387474]]",['DejaVu Sans'],[0.9],,,,N004,digit,1,"['6', '7', '8', '9']","['1', '2', '3', '4']",1,2023.2.3,harveydigits,2.1,[],8,0.75,
0,pause,0.4,None,None,None,0,61,61,61,,,,,,,,,,,,N004,digit,1,"['6', '7', '8', '9']","['1', '2', '3', '4']",1,2023.2.3,harveydigits,2.1,[],8,0.75,
6,digit,0.3,['dot'],['big_1'],black,0,62,62,62,,,24.100202083587646,23.8142728805542,24.114264965057373,"[[0.18023923094354113, 0.0049055293128618255]]",['DejaVu Sans'],[0.9],,,,N004,digit,1,"['6', '7', '8', '9']","['1', '2', '3', '4']",1,2023.2.3,harveydigits,2.1,[],8,0.75,
0,pause,0.4,None,None,None,0,63,63,63,,,,,,,,,,,,N004,digit,1,"['6', '7', '8', '9']","['1', '2', '3', '4']",1,2023.2.3,harveydigits,2.1,[],8,0.75,
6,digit,0.3,['dot'],['big_1'],black,0,64,64,64,,,24.800209045410156,24.51426386833191,24.814121961593628,"[[-0.17936807876095007, 0.05272076858380087]]",['DejaVu Sans'],[0.9],,,,N004,digit,1,"['6', '7', '8', '9']","['1', '2', '3', '4']",1,2023.2.3,harveydigits,2.1,[],8,0.75,
0,pause,0.4,None,None,None,0,65,65,65,,,,,,,,,,,,N004,digit,1,"['6', '7', '8', '9']","['1', '2', '3', '4']",1,2023.2.3,harveydigits,2.1,[],8,0.75,
6,digit,0.3,['dot'],['big_1'],black,0,66,66,66,,,25.500216960906982,25.214151859283447,25.514122009277344,"[[-0.1961420109779592, -0.029021977875363363]]",['DejaVu Sans'],[0.9],,,,N004,digit,1,"['6', '7', '8', '9']","['1', '2', '3', '4']",1,2023.2.3,harveydigits,2.1,[],8,0.75,
0,pause,0.4,None,None,None,0,67,67,67,,,,,,,,,,,,N004,digit,1,"['6', '7', '8', '9']","['1', '2', '3', '4']",1,2023.2.3,harveydigits,2.1,[],8,0.75,
6,digit,0.3,['dot'],['big_1'],black,0,68,68,68,,,26.200214862823486,25.914074897766113,26.214056968688965,"[[0.02955949843162603, 0.1104510316781552]]",['DejaVu Sans'],[0.9],,,,N004,digit,1,"['6', '7', '8', '9']","['1', '2', '3', '4']",1,2023.2.3,harveydigits,2.1,[],8,0.75,
0,pause,0.4,None,None,None,0,69,69,69,,,,,,,,,,,,N004,digit,1,"['6', '7', '8', '9']","['1', '2', '3', '4']",1,2023.2.3,harveydigits,2.1,[],8,0.75,
6,digit,0.3,['dot'],['big_1'],black,0,70,70,70,,,26.90022587776184,26.614101886749268,26.914114952087402,"[[-0.027484275361512323, 0.028467039086796292]]",['DejaVu Sans'],[0.9],,,,N004,digit,1,"['6', '7', '8', '9']","['1', '2', '3', '4']",1,2023.2.3,harveydigits,2.1,[],8,0.75,
0,pause,0.4,None,None,None,0,71,71,71,,,,,,,,,,,,N004,digit,1,"['6', '7', '8', '9']","['1', '2', '3', '4']",1,2023.2.3,harveydigits,2.1,[],8,0.75,
7,digit,0.3,['dot'],['big_1'],black,0,72,72,72,,,27.60021185874939,27.314122915267944,27.61402702331543,"[[-0.19186412093423616, 0.03682092439428583]]",['DejaVu Sans'],[0.9],,,,N004,digit,1,"['6', '7', '8', '9']","['1', '2', '3', '4']",1,2023.2.3,harveydigits,2.1,[],8,0.75,
0,pause,0.4,None,None,None,0,73,73,73,,,,,,,,,,,,N004,digit,1,"['6', '7', '8', '9']","['1', '2', '3', '4']",1,2023.2.3,harveydigits,2.1,[],8,0.75,
7,digit,0.3,['dot'],['big_1'],black,0,74,74,74,,,28.30021905899048,28.014147996902466,28.314027070999146,"[[-0.0919637681430001, -0.06438427180416965]]",['DejaVu Sans'],[0.9],,,,N004,digit,1,"['6', '7', '8', '9']","['1', '2', '3', '4']",1,2023.2.3,harveydigits,2.1,[],8,0.75,
0,pause,0.4,None,None,None,0,75,75,75,,,,,,,,,,,,N004,digit,1,"['6', '7', '8', '9']","['1', '2', '3', '4']",1,2023.2.3,harveydigits,2.1,[],8,0.75,
7,digit,0.3,['dot'],['big_1'],black,0,76,76,76,,,29.000226974487305,28.714019060134888,29.013994932174683,"[[-0.1841294971084142, -0.06679540967843492]]",['DejaVu Sans'],[0.9],,,,N004,digit,1,"['6', '7', '8', '9']","['1', '2', '3', '4']",1,2023.2.3,harveydigits,2.1,[],8,0.75,
0,pause,0.4,None,None,None,0,77,77,77,,,,,,,,,,,,N004,digit,1,"['6', '7', '8', '9']","['1', '2', '3', '4']",1,2023.2.3,harveydigits,2.1,[],8,0.75,
7,digit,0.3,['dot'],['big_1'],black,0,78,78,78,,,29.700227975845337,29.413979053497314,29.713994026184082,"[[-0.18501138905602585, -0.04928796707462142]]",['DejaVu Sans'],[0.9],,,,N004,digit,1,"['6', '7', '8', '9']","['1', '2', '3', '4']",1,2023.2.3,harveydigits,2.1,[],8,0.75,
0,pause,0.4,None,None,None,0,79,79,79,,,,,,,,,,,,N004,digit,1,"['6', '7', '8', '9']","['1', '2', '3', '4']",1,2023.2.3,harveydigits,2.1,[],8,0.75,
7,digit,0.3,['dot'],['big_1'],black,0,80,80,80,,,30.400208950042725,30.113965034484863,30.413996934890747,"[[-0.14190786179285036, -0.13222943961595235]]",['DejaVu Sans'],[0.9],,,,N004,digit,1,"['6', '7', '8', '9']","['1', '2', '3', '4']",1,2023.2.3,harveydigits,2.1,[],8,0.75,
0,pause,0.4,None,None,None,0,81,81,81,,,,,,,,,,,,N004,digit,1,"['6', '7', '8', '9']","['1', '2', '3', '4']",1,2023.2.3,harveydigits,2.1,[],8,0.75,
7,digit,0.3,['dot'],['big_1'],black,0,82,82,82,,,31.100225925445557,30.813930988311768,31.113921880722046,"[[0.042523954087693744, 0.08226823766026631]]",['DejaVu Sans'],[0.9],,,,N004,digit,1,"['6', '7', '8', '9']","['1', '2', '3', '4']",1,2023.2.3,harveydigits,2.1,[],8,0.75,
0,pause,0.4,None,None,None,0,83,83,83,,,,,,,,,,,,N004,digit,1,"['6', '7', '8', '9']","['1', '2', '3', '4']",1,2023.2.3,harveydigits,2.1,[],8,0.75,
8,digit,0.3,['dot'],['big_1'],black,0,84,84,84,,,31.80022692680359,31.51394486427307,31.813910961151123,"[[-0.10099817519562242, 0.08844393446407678]]",['DejaVu Sans'],[0.9],,,,N004,digit,1,"['6', '7', '8', '9']","['1', '2', '3', '4']",1,2023.2.3,harveydigits,2.1,[],8,0.75,
0,pause,0.4,None,None,None,0,85,85,85,,,,,,,,,,,,N004,digit,1,"['6', '7', '8', '9']","['1', '2', '3', '4']",1,2023.2.3,harveydigits,2.1,[],8,0.75,
8,digit,0.3,['dot'],['big_1'],black,0,86,86,86,,,32.50022506713867,32.21389889717102,32.513890981674194,"[[0.06963081212583064, 0.1309276046674736]]",['DejaVu Sans'],[0.9],,,,N004,digit,1,"['6', '7', '8', '9']","['1', '2', '3', '4']",1,2023.2.3,harveydigits,2.1,[],8,0.75,
0,pause,0.4,None,None,None,0,87,87,87,,,,,,,,,,,,N004,digit,1,"['6', '7', '8', '9']","['1', '2', '3', '4']",1,2023.2.3,harveydigits,2.1,[],8,0.75,
8,digit,0.3,['dot'],['big_1'],black,0,88,88,88,,,33.200226068496704,32.91393208503723,33.21392107009888,"[[-0.043651383359472884, 0.03893949491554363]]",['DejaVu Sans'],[0.9],,,,N004,digit,1,"['6', '7', '8', '9']","['1', '2', '3', '4']",1,2023.2.3,harveydigits,2.1,[],8,0.75,
0,pause,0.4,None,None,None,0,89,89,89,,,,,,,,,,,,N004,digit,1,"['6', '7', '8', '9']","['1', '2', '3', '4']",1,2023.2.3,harveydigits,2.1,[],8,0.75,
8,digit,0.3,['dot'],['big_1'],black,0,90,90,90,,,33.90022897720337,33.61392092704773,33.91384696960449,"[[-0.08685693952086994, 0.133762384058496]]",['DejaVu Sans'],[0.9],,,,N004,digit,1,"['6', '7', '8', '9']","['1', '2', '3', '4']",1,2023.2.3,harveydigits,2.1,[],8,0.75,
0,pause,0.4,None,None,None,0,91,91,91,,,,,,,,,,,,N004,digit,1,"['6', '7', '8', '9']","['1', '2', '3', '4']",1,2023.2.3,harveydigits,2.1,[],8,0.75,
8,digit,0.3,['dot'],['big_1'],black,0,92,92,92,,,34.600208044052124,34.313863039016724,34.61385893821716,"[[-0.06878463960373193, -0.07122852321457314]]",['DejaVu Sans'],[0.9],,,,N004,digit,1,"['6', '7', '8', '9']","['1', '2', '3', '4']",1,2023.2.3,harveydigits,2.1,[],8,0.75,
0,pause,0.4,None,None,None,0,93,93,93,,,,,,,,,,,,N004,digit,1,"['6', '7', '8', '9']","['1', '2', '3', '4']",1,2023.2.3,harveydigits,2.1,[],8,0.75,
8,digit,0.3,['dot'],['big_1'],black,0,94,94,94,,,35.300232887268066,35.013843059539795,35.313827991485596,"[[-0.17345086012400282, -0.04263023591921303]]",['DejaVu Sans'],[0.9],,,,N004,digit,1,"['6', '7', '8', '9']","['1', '2', '3', '4']",1,2023.2.3,harveydigits,2.1,[],8,0.75,
0,pause,0.4,None,None,None,0,95,95,95,,,,,,,,,,,,N004,digit,1,"['6', '7', '8', '9']","['1', '2', '3', '4']",1,2023.2.3,harveydigits,2.1,[],8,0.75,
9,digit,0.3,['dot'],['big_1'],black,0,96,96,96,,,36.00020790100098,35.71381998062134,36.01380491256714,"[[-0.13959719408676763, 0.05855058798859375]]",['DejaVu Sans'],[0.9],,,,N004,digit,1,"['6', '7', '8', '9']","['1', '2', '3', '4']",1,2023.2.3,harveydigits,2.1,[],8,0.75,
0,pause,0.4,None,None,None,0,97,97,97,,,,,,,,,,,,N004,digit,1,"['6', '7', '8', '9']","['1', '2', '3', '4']",1,2023.2.3,harveydigits,2.1,[],8,0.75,
9,digit,0.3,['dot'],['big_1'],black,0,98,98,98,,,36.70021104812622,36.41384506225586,36.713841915130615,"[[-0.17179468652281268, 0.014588233030161588]]",['DejaVu Sans'],[0.9],,,,N004,digit,1,"['6', '7', '8', '9']","['1', '2', '3', '4']",1,2023.2.3,harveydigits,2.1,[],8,0.75,
0,pause,0.4,None,None,None,0,99,99,99,,,,,,,,,,,,N004,digit,1,"['6', '7', '8', '9']","['1', '2', '3', '4']",1,2023.2.3,harveydigits,2.1,[],8,0.75,
9,digit,0.3,['dot'],['big_1'],black,0,100,100,100,,,37.40021896362305,37.11378598213196,37.413766860961914,"[[-0.16729029531241538, 0.031270334815745385]]",['DejaVu Sans'],[0.9],,,,N004,digit,1,"['6', '7', '8', '9']","['1', '2', '3', '4']",1,2023.2.3,harveydigits,2.1,[],8,0.75,
0,pause,0.4,None,None,None,0,101,101,101,,,,,,,,,,,,N004,digit,1,"['6', '7', '8', '9']","['1', '2', '3', '4']",1,2023.2.3,harveydigits,2.1,[],8,0.75,
9,digit,0.3,['dot'],['big_1'],black,0,102,102,102,,,38.10022807121277,37.81377196311951,38.11381697654724,"[[-0.049385727784018646, -0.020456452949463633]]",['DejaVu Sans'],[0.9],,,,N004,digit,1,"['6', '7', '8', '9']","['1', '2', '3', '4']",1,2023.2.3,harveydigits,2.1,[],8,0.75,
0,pause,0.4,None,None,None,0,103,103,103,,,,,,,,,,,,N004,digit,1,"['6', '7', '8', '9']","['1', '2', '3', '4']",1,2023.2.3,harveydigits,2.1,[],8,0.75,
9,digit,0.3,['dot'],['big_1'],black,0,104,104,104,,,38.80021095275879,38.51382088661194,38.81383800506592,"[[0.1138868884732471, -0.10764104481199661]]",['DejaVu Sans'],[0.9],,,,N004,digit,1,"['6', '7', '8', '9']","['1', '2', '3', '4']",1,2023.2.3,harveydigits,2.1,[],8,0.75,
0,pause,0.4,None,None,None,0,105,105,105,,,,,,,,,,,,N004,digit,1,"['6', '7', '8', '9']","['1', '2', '3', '4']",1,2023.2.3,harveydigits,2.1,[],8,0.75,
9,digit,0.3,['dot'],['big_1'],black,0,106,106,106,,,39.50022006034851,39.213757038116455,39.51375389099121,"[[0.19270825031081498, -0.04466256772135956]]",['DejaVu Sans'],[0.9],,,,N004,digit,1,"['6', '7', '8', '9']","['1', '2', '3', '4']",1,2023.2.3,harveydigits,2.1,[],8,0.75,
0,pause,0.4,None,None,None,0,107,107,107,,,,,,,,,,,,N004,digit,1,"['6', '7', '8', '9']","['1', '2', '3', '4']",1,2023.2.3,harveydigits,2.1,[],8,0.75,
20,digit,0.3,['dot'],['big_1'],black,0,108,108,108,,,40.20023202896118,39.91386604309082,40.213703870773315,"[[0.1585438805950443, 0.07963644639802289]]",['DejaVu Sans'],[0.9],,,,N004,digit,1,"['6', '7', '8', '9']","['1', '2', '3', '4']",1,2023.2.3,harveydigits,2.1,[],8,0.75,
0,pause,0.4,None,None,None,0,109,109,109,,,,,,,,,,,,N004,digit,1,"['6', '7', '8', '9']","['1', '2', '3', '4']",1,2023.2.3,harveydigits,2.1,[],8,0.75,
20,digit,0.3,['dot'],['big_1'],black,0,110,110,110,,,40.90022587776184,40.61370086669922,40.913689851760864,"[[-0.10425886687206684, 0.07922367290915999]]",['DejaVu Sans'],[0.9],,,,N004,digit,1,"['6', '7', '8', '9']","['1', '2', '3', '4']",1,2023.2.3,harveydigits,2.1,[],8,0.75,
0,pause,0.4,None,None,None,0,111,111,111,,,,,,,,,,,,N004,digit,1,"['6', '7', '8', '9']","['1', '2', '3', '4']",1,2023.2.3,harveydigits,2.1,[],8,0.75,
20,digit,0.3,['dot'],['big_1'],black,0,112,112,112,,,41.60020899772644,41.31368803977966,41.61367392539978,"[[-0.043337581118994606, 0.14217802522066125]]",['DejaVu Sans'],[0.9],,,,N004,digit,1,"['6', '7', '8', '9']","['1', '2', '3', '4']",1,2023.2.3,harveydigits,2.1,[],8,0.75,
0,pause,0.4,None,None,None,0,113,113,113,,,,,,,,,,,,N004,digit,1,"['6', '7', '8', '9']","['1', '2', '3', '4']",1,2023.2.3,harveydigits,2.1,[],8,0.75,
20,digit,0.3,['dot'],['big_1'],black,0,114,114,114,,,42.300211906433105,42.01368999481201,42.313684940338135,"[[0.18188975238577684, -0.02187203422092819]]",['DejaVu Sans'],[0.9],,,,N004,digit,1,"['6', '7', '8', '9']","['1', '2', '3', '4']",1,2023.2.3,harveydigits,2.1,[],8,0.75,
0,pause,0.4,None,None,None,0,115,115,115,,,,,,,,,,,,N004,digit,1,"['6', '7', '8', '9']","['1', '2', '3', '4']",1,2023.2.3,harveydigits,2.1,[],8,0.75,
20,digit,0.3,['dot'],['big_1'],black,0,116,116,116,,,43.00022602081299,42.713716983795166,43.01363205909729,"[[0.0821762254771671, -0.11281706015116737]]",['DejaVu Sans'],[0.9],,,,N004,digit,1,"['6', '7', '8', '9']","['1', '2', '3', '4']",1,2023.2.3,harveydigits,2.1,[],8,0.75,
0,pause,0.4,None,None,None,0,117,117,117,,,,,,,,,,,,N004,digit,1,"['6', '7', '8', '9']","['1', '2', '3', '4']",1,2023.2.3,harveydigits,2.1,[],8,0.75,
20,digit,0.3,['dot'],['big_1'],black,0,118,118,118,,,43.70022988319397,43.41362285614014,43.71361804008484,"[[0.13588160302164978, 0.11098657227523512]]",['DejaVu Sans'],[0.9],,,,N004,digit,1,"['6', '7', '8', '9']","['1', '2', '3', '4']",1,2023.2.3,harveydigits,2.1,[],8,0.75,
0,pause,0.4,None,None,None,0,119,119,119,,,,,,,,,,,,N004,digit,1,"['6', '7', '8', '9']","['1', '2', '3', '4']",1,2023.2.3,harveydigits,2.1,[],8,0.75,
20,digit,0.3,['dot'],['big_1'],black,0,120,120,120,,,44.40021300315857,44.1136519908905,44.41368293762207,"[[0.10757368796985209, 0.019113696113237433]]",['DejaVu Sans'],[0.9],,,,N004,digit,1,"['6', '7', '8', '9']","['1', '2', '3', '4']",1,2023.2.3,harveydigits,2.1,[],8,0.75,
0,pause,0.4,None,None,None,0,121,121,121,,,,,,,,,,,,N004,digit,1,"['6', '7', '8', '9']","['1', '2', '3', '4']",1,2023.2.3,harveydigits,2.1,[],8,0.75,
20,digit,0.3,['dot'],['big_1'],black,0,122,122,122,,,45.100234031677246,44.813607931137085,45.113693952560425,"[[0.007416730526034587, -0.17007333840776373]]",['DejaVu Sans'],[0.9],,,,N004,digit,1,"['6', '7', '8', '9']","['1', '2', '3', '4']",1,2023.2.3,harveydigits,2.1,[],8,0.75,
0,pause,0.4,None,None,None,0,123,123,123,,,,,,,,,,,,N004,digit,1,"['6', '7', '8', '9']","['1', '2', '3', '4']",1,2023.2.3,harveydigits,2.1,[],8,0.75,
20,digit,0.3,['dot'],['big_1'],black,0,124,124,124,,,45.80021905899048,45.51357889175415,45.81356191635132,"[[0.04421173832353756, -0.13643816510590268]]",['DejaVu Sans'],[0.9],,,,N004,digit,1,"['6', '7', '8', '9']","['1', '2', '3', '4']",1,2023.2.3,harveydigits,2.1,[],8,0.75,
0,pause,0.4,None,None,None,0,125,125,125,,,,,,,,,,,,N004,digit,1,"['6', '7', '8', '9']","['1', '2', '3', '4']",1,2023.2.3,harveydigits,2.1,[],8,0.75,
20,digit,0.3,['dot'],['big_1'],black,0,126,126,126,,,46.50022506713867,46.21354603767395,46.51358389854431,"[[-0.1490405586428517, 0.12206541961246012]]",['DejaVu Sans'],[0.9],,,,N004,digit,1,"['6', '7', '8', '9']","['1', '2', '3', '4']",1,2023.2.3,harveydigits,2.1,[],8,0.75,
0,pause,0.4,None,None,None,0,127,127,127,,,,,,,,,,,,N004,digit,1,"['6', '7', '8', '9']","['1', '2', '3', '4']",1,2023.2.3,harveydigits,2.1,[],8,0.75,
20,digit,0.3,['dot'],['big_1'],black,0,128,128,128,,,47.20020794868469,46.91352701187134,47.21353602409363,"[[0.18809769140008878, 0.04885168065110104]]",['DejaVu Sans'],[0.9],,,,N004,digit,1,"['6', '7', '8', '9']","['1', '2', '3', '4']",1,2023.2.3,harveydigits,2.1,[],8,0.75,
0,pause,0.4,None,None,None,0,129,129,129,,,,,,,,,,,,N004,digit,1,"['6', '7', '8', '9']","['1', '2', '3', '4']",1,2023.2.3,harveydigits,2.1,[],8,0.75,
20,digit,0.3,['dot'],['big_1'],black,0,130,130,130,,,47.90021204948425,47.613523960113525,47.9135160446167,"[[-0.07092753881375449, 0.1817816757095902]]",['DejaVu Sans'],[0.9],,,,N004,digit,1,"['6', '7', '8', '9']","['1', '2', '3', '4']",1,2023.2.3,harveydigits,2.1,[],8,0.75,
0,pause,0.4,None,None,None,0,131,131,131,,,,,,,,,,,,N004,digit,1,"['6', '7', '8', '9']","['1', '2', '3', '4']",1,2023.2.3,harveydigits,2.1,[],8,0.75,
20,digit,0.3,['dot'],['big_1'],white,0,132,132,132,,,48.600224018096924,48.31352686882019,48.613520860672,"[[0.05303111180353212, -0.12921589627581626]]",['DejaVu Sans'],[0.9],,,,N004,digit,1,"['6', '7', '8', '9']","['1', '2', '3', '4']",1,2023.2.3,harveydigits,2.1,[],8,0.75,
0,pause,0.4,None,None,None,0,133,133,133,,,,,,,,,1,48.803714990615845,,N004,digit,1,"['6', '7', '8', '9']","['1', '2', '3', '4']",1,2023.2.3,harveydigits,2.1,[],8,0.75,
20,digit,0.3,['dot'],['big_1'],white,0,134,134,134,,,49.30021595954895,49.01350402832031,49.31349802017212,"[[-0.04248398297667996, 0.03383061262420142]]",['DejaVu Sans'],[0.9],,,,N004,digit,1,"['6', '7', '8', '9']","['1', '2', '3', '4']",1,2023.2.3,harveydigits,2.1,[],8,0.75,
0,pause,0.4,None,None,None,0,135,135,135,,,,,,,,,1,49.43378281593323,,N004,digit,1,"['6', '7', '8', '9']","['1', '2', '3', '4']",1,2023.2.3,harveydigits,2.1,[],8,0.75,
20,digit,0.3,['dot'],['big_1'],white,0,136,136,136,,,50.000213861465454,49.71346402168274,50.01343607902527,"[[-0.1945737221537766, -0.033596878707991364]]",['DejaVu Sans'],[0.9],,,,N004,digit,1,"['6', '7', '8', '9']","['1', '2', '3', '4']",1,2023.2.3,harveydigits,2.1,[],8,0.75,
0,pause,0.4,None,None,None,0,137,137,137,,,,,,,,,,,,N004,digit,1,"['6', '7', '8', '9']","['1', '2', '3', '4']",1,2023.2.3,harveydigits,2.1,[],8,0.75,
20,digit,0.3,['dot'],['big_1'],white,0,138,138,138,,,50.70022988319397,50.41343903541565,50.713435888290405,"[[0.04828652932910113, 0.1715891533860391]]",['DejaVu Sans'],[0.9],,,,N004,digit,1,"['6', '7', '8', '9']","['1', '2', '3', '4']",1,2023.2.3,harveydigits,2.1,[],8,0.75,
0,pause,0.4,None,None,None,0,139,139,139,,,,,,,,,,,,N004,digit,1,"['6', '7', '8', '9']","['1', '2', '3', '4']",1,2023.2.3,harveydigits,2.1,[],8,0.75,
20,digit,0.3,['dot'],['big_1'],white,0,140,140,140,,,51.40026092529297,51.11344504356384,51.41342806816101,"[[-0.12034456927269423, 0.12660696447403452]]",['DejaVu Sans'],[0.9],1,51.230066776275635,,N004,digit,1,"['6', '7', '8', '9']","['1', '2', '3', '4']",1,2023.2.3,harveydigits,2.1,[],8,0.75,
0,pause,0.4,None,None,None,0,141,141,141,,,,,,,,,,,,N004,digit,1,"['6', '7', '8', '9']","['1', '2', '3', '4']",1,2023.2.3,harveydigits,2.1,[],8,0.75,
20,digit,0.3,['dot'],['big_1'],white,0,142,142,142,,,52.100239992141724,51.813446044921875,52.11339807510376,"[[-0.04339561243376941, 0.18996707063129165]]",['DejaVu Sans'],[0.9],1,52.02013182640076,,N004,digit,1,"['6', '7', '8', '9']","['1', '2', '3', '4']",1,2023.2.3,harveydigits,2.1,[],8,0.75,
0,pause,0.4,None,None,None,0,143,143,143,,,,,,,,,,,,N004,digit,1,"['6', '7', '8', '9']","['1', '2', '3', '4']",1,2023.2.3,harveydigits,2.1,[],8,0.75,
20,digit,0.3,['dot'],['big_1'],black,0,144,144,144,,,52.800227880477905,52.513437032699585,52.81356501579285,"[[-0.06338105349118117, 0.11373355244475458]]",['DejaVu Sans'],[0.9],,,,N004,digit,1,"['6', '7', '8', '9']","['1', '2', '3', '4']",1,2023.2.3,harveydigits,2.1,[],8,0.75,
0,pause,0.4,None,None,None,0,145,145,145,,,,,,,,,,,,N004,digit,1,"['6', '7', '8', '9']","['1', '2', '3', '4']",1,2023.2.3,harveydigits,2.1,[],8,0.75,
20,digit,0.3,['dot'],['big_1'],black,0,146,146,146,,,53.50021004676819,53.21356701850891,53.51354002952576,"[[0.11900776707622798, -0.09110105138227959]]",['DejaVu Sans'],[0.9],,,,N004,digit,1,"['6', '7', '8', '9']","['1', '2', '3', '4']",1,2023.2.3,harveydigits,2.1,[],8,0.75,
0,pause,0.4,None,None,None,0,147,147,147,,,,,,,,,,,,N004,digit,1,"['6', '7', '8', '9']","['1', '2', '3', '4']",1,2023.2.3,harveydigits,2.1,[],8,0.75,
20,digit,0.3,['dot'],['big_1'],black,0,148,148,148,,,54.20022106170654,53.913508892059326,54.21349000930786,"[[0.1544174751380797, -0.10028477562498109]]",['DejaVu Sans'],[0.9],,,,N004,digit,1,"['6', '7', '8', '9']","['1', '2', '3', '4']",1,2023.2.3,harveydigits,2.1,[],8,0.75,
0,pause,0.4,None,None,None,0,149,149,149,,,,,,,,,,,,N004,digit,1,"['6', '7', '8', '9']","['1', '2', '3', '4']",1,2023.2.3,harveydigits,2.1,[],8,0.75,
20,digit,0.3,['dot'],['big_1'],black,0,150,150,150,,,54.900224924087524,54.61349701881409,54.91346597671509,"[[0.025930457167277016, 0.035636244945820295]]",['DejaVu Sans'],[0.9],,,,N004,digit,1,"['6', '7', '8', '9']","['1', '2', '3', '4']",1,2023.2.3,harveydigits,2.1,[],8,0.75,
0,pause,0.4,None,None,None,0,151,151,151,,,,,,,,,,,,N004,digit,1,"['6', '7', '8', '9']","['1', '2', '3', '4']",1,2023.2.3,harveydigits,2.1,[],8,0.75,
20,digit,0.3,['dot'],['big_1'],black,0,152,152,152,,,55.600213050842285,55.31336998939514,55.613450050354004,"[[0.14267721828234645, -0.11030797285513877]]",['DejaVu Sans'],[0.9],,,,N004,digit,1,"['6', '7', '8', '9']","['1', '2', '3', '4']",1,2023.2.3,harveydigits,2.1,[],8,0.75,
0,pause,0.4,None,None,None,0,153,153,153,,,,,,,,,,,,N004,digit,1,"['6', '7', '8', '9']","['1', '2', '3', '4']",1,2023.2.3,harveydigits,2.1,[],8,0.75,
20,digit,0.3,['dot'],['big_1'],black,0,154,154,154,,,56.30022692680359,56.01347994804382,56.3134400844574,"[[0.09993625167026152, -0.15617398838840268]]",['DejaVu Sans'],[0.9],,,,N004,digit,1,"['6', '7', '8', '9']","['1', '2', '3', '4']",1,2023.2.3,harveydigits,2.1,[],8,0.75,
0,pause,0.4,None,None,None,0,155,155,155,,,,,,,,,,,,N004,digit,1,"['6', '7', '8', '9']","['1', '2', '3', '4']",1,2023.2.3,harveydigits,2.1,[],8,0.75,
9,digit,0.3,['dot'],['big_1'],black,0,156,156,156,,,57.00022101402283,56.71342992782593,57.01345491409302,"[[0.08600938433147062, -0.07256806902016609]]",['DejaVu Sans'],[0.9],,,,N004,digit,1,"['6', '7', '8', '9']","['1', '2', '3', '4']",1,2023.2.3,harveydigits,2.1,[],8,0.75,
0,pause,0.4,None,None,None,0,157,157,157,,,,,,,,,,,,N004,digit,1,"['6', '7', '8', '9']","['1', '2', '3', '4']",1,2023.2.3,harveydigits,2.1,[],8,0.75,
9,digit,0.3,['dot'],['big_1'],black,0,158,158,158,,,57.70023989677429,57.41329908370972,57.71340608596802,"[[-0.18174397058136582, 0.0691974221010142]]",['DejaVu Sans'],[0.9],,,,N004,digit,1,"['6', '7', '8', '9']","['1', '2', '3', '4']",1,2023.2.3,harveydigits,2.1,[],8,0.75,
0,pause,0.4,None,None,None,0,159,159,159,,,,,,,,,,,,N004,digit,1,"['6', '7', '8', '9']","['1', '2', '3', '4']",1,2023.2.3,harveydigits,2.1,[],8,0.75,
9,digit,0.3,['dot'],['big_1'],black,0,160,160,160,,,58.400222063064575,58.113401889801025,58.413289070129395,"[[0.140642620515378, -0.1300849016464862]]",['DejaVu Sans'],[0.9],,,,N004,digit,1,"['6', '7', '8', '9']","['1', '2', '3', '4']",1,2023.2.3,harveydigits,2.1,[],8,0.75,
0,pause,0.4,None,None,None,0,161,161,161,,,,,,,,,,,,N004,digit,1,"['6', '7', '8', '9']","['1', '2', '3', '4']",1,2023.2.3,harveydigits,2.1,[],8,0.75,
9,digit,0.3,['dot'],['big_1'],black,0,162,162,162,,,59.100220918655396,58.81325006484985,59.11327290534973,"[[0.009854088049246201, 0.19316001789997106]]",['DejaVu Sans'],[0.9],,,,N004,digit,1,"['6', '7', '8', '9']","['1', '2', '3', '4']",1,2023.2.3,harveydigits,2.1,[],8,0.75,
0,pause,0.4,None,None,None,0,163,163,163,,,,,,,,,,,,N004,digit,1,"['6', '7', '8', '9']","['1', '2', '3', '4']",1,2023.2.3,harveydigits,2.1,[],8,0.75,
9,digit,0.3,['dot'],['big_1'],black,0,164,164,164,,,59.80023407936096,59.513258934020996,59.81339406967163,"[[0.11417860282603762, 0.08961408299157059]]",['DejaVu Sans'],[0.9],,,,N004,digit,1,"['6', '7', '8', '9']","['1', '2', '3', '4']",1,2023.2.3,harveydigits,2.1,[],8,0.75,
0,pause,0.4,None,None,None,0,165,165,165,,,,,,,,,,,,N004,digit,1,"['6', '7', '8', '9']","['1', '2', '3', '4']",1,2023.2.3,harveydigits,2.1,[],8,0.75,
9,digit,0.3,['dot'],['big_1'],black,0,166,166,166,,,60.5002179145813,60.2133469581604,60.513370990753174,"[[-0.1972952798149424, -0.028240595887549652]]",['DejaVu Sans'],[0.9],,,,N004,digit,1,"['6', '7', '8', '9']","['1', '2', '3', '4']",1,2023.2.3,harveydigits,2.1,[],8,0.75,
0,pause,0.4,None,None,None,0,167,167,167,,,,,,,,,,,,N004,digit,1,"['6', '7', '8', '9']","['1', '2', '3', '4']",1,2023.2.3,harveydigits,2.1,[],8,0.75,
8,digit,0.3,['dot'],['big_1'],black,0,168,168,168,,,61.20022988319397,60.913336992263794,61.213310956954956,"[[0.028501506282567812, 0.046032483115382106]]",['DejaVu Sans'],[0.9],,,,N004,digit,1,"['6', '7', '8', '9']","['1', '2', '3', '4']",1,2023.2.3,harveydigits,2.1,[],8,0.75,
0,pause,0.4,None,None,None,0,169,169,169,,,,,,,,,,,,N004,digit,1,"['6', '7', '8', '9']","['1', '2', '3', '4']",1,2023.2.3,harveydigits,2.1,[],8,0.75,
8,digit,0.3,['dot'],['big_1'],black,0,170,170,170,,,61.90022587776184,61.61332106590271,61.913341999053955,"[[0.14409646280723246, 0.1276225970330069]]",['DejaVu Sans'],[0.9],,,,N004,digit,1,"['6', '7', '8', '9']","['1', '2', '3', '4']",1,2023.2.3,harveydigits,2.1,[],8,0.75,
0,pause,0.4,None,None,None,0,171,171,171,,,,,,,,,,,,N004,digit,1,"['6', '7', '8', '9']","['1', '2', '3', '4']",1,2023.2.3,harveydigits,2.1,[],8,0.75,
8,digit,0.3,['dot'],['big_1'],black,0,172,172,172,,,62.60023808479309,62.313315868377686,62.613128900527954,"[[-0.16360704498066253, -0.10833478523626751]]",['DejaVu Sans'],[0.9],,,,N004,digit,1,"['6', '7', '8', '9']","['1', '2', '3', '4']",1,2023.2.3,harveydigits,2.1,[],8,0.75,
0,pause,0.4,None,None,None,0,173,173,173,,,,,,,,,,,,N004,digit,1,"['6', '7', '8', '9']","['1', '2', '3', '4']",1,2023.2.3,harveydigits,2.1,[],8,0.75,
8,digit,0.3,['dot'],['big_1'],black,0,174,174,174,,,63.300227880477905,63.013179063797,63.31310200691223,"[[-0.07390111549908143, 0.1171619013461932]]",['DejaVu Sans'],[0.9],,,,N004,digit,1,"['6', '7', '8', '9']","['1', '2', '3', '4']",1,2023.2.3,harveydigits,2.1,[],8,0.75,
0,pause,0.4,None,None,None,0,175,175,175,,,,,,,,,,,,N004,digit,1,"['6', '7', '8', '9']","['1', '2', '3', '4']",1,2023.2.3,harveydigits,2.1,[],8,0.75,
8,digit,0.3,['dot'],['big_1'],black,0,176,176,176,,,64.00021290779114,63.71309185028076,64.0130820274353,"[[-0.08918063078360947, 0.05556141042100071]]",['DejaVu Sans'],[0.9],,,,N004,digit,1,"['6', '7', '8', '9']","['1', '2', '3', '4']",1,2023.2.3,harveydigits,2.1,[],8,0.75,
0,pause,0.4,None,None,None,0,177,177,177,,,,,,,,,,,,N004,digit,1,"['6', '7', '8', '9']","['1', '2', '3', '4']",1,2023.2.3,harveydigits,2.1,[],8,0.75,
8,digit,0.3,['dot'],['big_1'],black,0,178,178,178,,,64.70023894309998,64.413076877594,64.71306204795837,"[[0.09827627635608846, -0.07519560741028898]]",['DejaVu Sans'],[0.9],,,,N004,digit,1,"['6', '7', '8', '9']","['1', '2', '3', '4']",1,2023.2.3,harveydigits,2.1,[],8,0.75,
0,pause,0.4,None,None,None,0,179,179,179,,,,,,,,,,,,N004,digit,1,"['6', '7', '8', '9']","['1', '2', '3', '4']",1,2023.2.3,harveydigits,2.1,[],8,0.75,
7,digit,0.3,['dot'],['big_1'],black,0,180,180,180,,,65.40021991729736,65.11305785179138,65.41305899620056,"[[0.004974494371611987, -0.008087316797136868]]",['DejaVu Sans'],[0.9],,,,N004,digit,1,"['6', '7', '8', '9']","['1', '2', '3', '4']",1,2023.2.3,harveydigits,2.1,[],8,0.75,
0,pause,0.4,None,None,None,0,181,181,181,,,,,,,,,,,,N004,digit,1,"['6', '7', '8', '9']","['1', '2', '3', '4']",1,2023.2.3,harveydigits,2.1,[],8,0.75,
7,digit,0.3,['dot'],['big_1'],black,0,182,182,182,,,66.10021090507507,65.81312203407288,66.1130759716034,"[[-0.15806074160551548, 0.07998797284170081]]",['DejaVu Sans'],[0.9],,,,N004,digit,1,"['6', '7', '8', '9']","['1', '2', '3', '4']",1,2023.2.3,harveydigits,2.1,[],8,0.75,
0,pause,0.4,None,None,None,0,183,183,183,,,,,,,,,,,,N004,digit,1,"['6', '7', '8', '9']","['1', '2', '3', '4']",1,2023.2.3,harveydigits,2.1,[],8,0.75,
7,digit,0.3,['dot'],['big_1'],black,0,184,184,184,,,66.80023694038391,66.5130820274353,66.8130099773407,"[[0.0071513645570770445, 0.0316358698788306]]",['DejaVu Sans'],[0.9],,,,N004,digit,1,"['6', '7', '8', '9']","['1', '2', '3', '4']",1,2023.2.3,harveydigits,2.1,[],8,0.75,
0,pause,0.4,None,None,None,0,185,185,185,,,,,,,,,,,,N004,digit,1,"['6', '7', '8', '9']","['1', '2', '3', '4']",1,2023.2.3,harveydigits,2.1,[],8,0.75,
7,digit,0.3,['dot'],['big_1'],black,0,186,186,186,,,67.50023198127747,67.21305394172668,67.5130500793457,"[[0.13253113607707692, -0.06236344155065823]]",['DejaVu Sans'],[0.9],,,,N004,digit,1,"['6', '7', '8', '9']","['1', '2', '3', '4']",1,2023.2.3,harveydigits,2.1,[],8,0.75,
0,pause,0.4,None,None,None,0,187,187,187,,,,,,,,,,,,N004,digit,1,"['6', '7', '8', '9']","['1', '2', '3', '4']",1,2023.2.3,harveydigits,2.1,[],8,0.75,
7,digit,0.3,['dot'],['big_1'],black,0,188,188,188,,,68.20021796226501,67.91305088996887,68.21305108070374,"[[-0.13117444270202583, 0.13384872904196893]]",['DejaVu Sans'],[0.9],,,,N004,digit,1,"['6', '7', '8', '9']","['1', '2', '3', '4']",1,2023.2.3,harveydigits,2.1,[],8,0.75,
0,pause,0.4,None,None,None,0,189,189,189,,,,,,,,,,,,N004,digit,1,"['6', '7', '8', '9']","['1', '2', '3', '4']",1,2023.2.3,harveydigits,2.1,[],8,0.75,
7,digit,0.3,['dot'],['big_1'],black,0,190,190,190,,,68.90021800994873,68.61303305625916,68.91314601898193,"[[0.043801781734974676, 0.023256786561788423]]",['DejaVu Sans'],[0.9],,,,N004,digit,1,"['6', '7', '8', '9']","['1', '2', '3', '4']",1,2023.2.3,harveydigits,2.1,[],8,0.75,
0,pause,0.4,None,None,None,0,191,191,191,,,,,,,,,,,,N004,digit,1,"['6', '7', '8', '9']","['1', '2', '3', '4']",1,2023.2.3,harveydigits,2.1,[],8,0.75,
6,digit,0.3,['dot'],['big_1'],black,0,192,192,192,,,69.60023903846741,69.31315493583679,69.6131420135498,"[[-0.11538137415495003, 0.10302844850129167]]",['DejaVu Sans'],[0.9],,,,N004,digit,1,"['6', '7', '8', '9']","['1', '2', '3', '4']",1,2023.2.3,harveydigits,2.1,[],8,0.75,
0,pause,0.4,None,None,None,0,193,193,193,,,,,,,,,,,,N004,digit,1,"['6', '7', '8', '9']","['1', '2', '3', '4']",1,2023.2.3,harveydigits,2.1,[],8,0.75,
6,digit,0.3,['dot'],['big_1'],black,0,194,194,194,,,70.3002119064331,70.0133650302887,70.31311106681824,"[[-0.08590287544105454, 0.004654659125646804]]",['DejaVu Sans'],[0.9],,,,N004,digit,1,"['6', '7', '8', '9']","['1', '2', '3', '4']",1,2023.2.3,harveydigits,2.1,[],8,0.75,
0,pause,0.4,None,None,None,0,195,195,195,,,,,,,,,,,,N004,digit,1,"['6', '7', '8', '9']","['1', '2', '3', '4']",1,2023.2.3,harveydigits,2.1,[],8,0.75,
6,digit,0.3,['dot'],['big_1'],black,0,196,196,196,,,71.00021290779114,70.71310687065125,71.01309895515442,"[[-0.06389800401363072, 0.1875504694165882]]",['DejaVu Sans'],[0.9],,,,N004,digit,1,"['6', '7', '8', '9']","['1', '2', '3', '4']",1,2023.2.3,harveydigits,2.1,[],8,0.75,
0,pause,0.4,None,None,None,0,197,197,197,,,,,,,,,,,,N004,digit,1,"['6', '7', '8', '9']","['1', '2', '3', '4']",1,2023.2.3,harveydigits,2.1,[],8,0.75,
6,digit,0.3,['dot'],['big_1'],black,0,198,198,198,,,71.70024704933167,71.413094997406,71.71309089660645,"[[0.04246577758650996, -0.16292431916900998]]",['DejaVu Sans'],[0.9],,,,N004,digit,1,"['6', '7', '8', '9']","['1', '2', '3', '4']",1,2023.2.3,harveydigits,2.1,[],8,0.75,
0,pause,0.4,None,None,None,0,199,199,199,,,,,,,,,,,,N004,digit,1,"['6', '7', '8', '9']","['1', '2', '3', '4']",1,2023.2.3,harveydigits,2.1,[],8,0.75,
6,digit,0.3,['dot'],['big_1'],black,0,200,200,200,,,72.4002149105072,72.11308288574219,72.41305804252625,"[[-0.028616841944817617, 0.013918247722718186]]",['DejaVu Sans'],[0.9],,,,N004,digit,1,"['6', '7', '8', '9']","['1', '2', '3', '4']",1,2023.2.3,harveydigits,2.1,[],8,0.75,
0,pause,0.4,None,None,None,0,201,201,201,,,,,,,,,,,,N004,digit,1,"['6', '7', '8', '9']","['1', '2', '3', '4']",1,2023.2.3,harveydigits,2.1,[],8,0.75,
6,digit,0.3,['dot'],['big_1'],black,0,202,202,202,,,73.10022807121277,72.81310391426086,73.11304688453674,"[[0.10479615287605484, 0.02179558846002619]]",['DejaVu Sans'],[0.9],,,,N004,digit,1,"['6', '7', '8', '9']","['1', '2', '3', '4']",1,2023.2.3,harveydigits,2.1,[],8,0.75,
0,pause,0.4,None,None,None,0,203,203,203,,,,,,,,,,,,N004,digit,1,"['6', '7', '8', '9']","['1', '2', '3', '4']",1,2023.2.3,harveydigits,2.1,[],8,0.75,
5,digit,0.3,['dot'],['big_1'],black,0,204,204,204,,,73.80021905899048,73.51305794715881,73.81305193901062,"[[-0.19208757561061673, 0.02531169992012422]]",['DejaVu Sans'],[0.9],,,,N004,digit,1,"['6', '7', '8', '9']","['1', '2', '3', '4']",1,2023.2.3,harveydigits,2.1,[],8,0.75,
0,pause,0.4,None,None,None,0,205,205,205,,,,,,,,,,,,N004,digit,1,"['6', '7', '8', '9']","['1', '2', '3', '4']",1,2023.2.3,harveydigits,2.1,[],8,0.75,
5,digit,0.3,['dot'],['big_1'],black,0,206,206,206,,,74.50022196769714,74.2130959033966,74.51305103302002,"[[-0.04926350996297421, 0.05606120169864634]]",['DejaVu Sans'],[0.9],,,,N004,digit,1,"['6', '7', '8', '9']","['1', '2', '3', '4']",1,2023.2.3,harveydigits,2.1,[],8,0.75,
0,pause,0.4,None,None,None,0,207,207,207,,,,,,,,,,,,N004,digit,1,"['6', '7', '8', '9']","['1', '2', '3', '4']",1,2023.2.3,harveydigits,2.1,[],8,0.75,
5,digit,0.3,['dot'],['big_1'],black,0,208,208,208,,,75.2002170085907,74.9128680229187,75.21285104751587,"[[-0.12379755782752365, -0.046931898179733283]]",['DejaVu Sans'],[0.9],,,,N004,digit,1,"['6', '7', '8', '9']","['1', '2', '3', '4']",1,2023.2.3,harveydigits,2.1,[],8,0.75,
0,pause,0.4,None,None,None,0,209,209,209,,,,,,,,,,,,N004,digit,1,"['6', '7', '8', '9']","['1', '2', '3', '4']",1,2023.2.3,harveydigits,2.1,[],8,0.75,
5,digit,0.3,['dot'],['big_1'],black,0,210,210,210,,,75.90023994445801,75.612802028656,75.9128348827362,"[[-0.08320424888543511, 0.17436460790362782]]",['DejaVu Sans'],[0.9],,,,N004,digit,1,"['6', '7', '8', '9']","['1', '2', '3', '4']",1,2023.2.3,harveydigits,2.1,[],8,0.75,
0,pause,0.4,None,None,None,0,211,211,211,,,,,,,,,,,,N004,digit,1,"['6', '7', '8', '9']","['1', '2', '3', '4']",1,2023.2.3,harveydigits,2.1,[],8,0.75,
5,digit,0.3,['dot'],['big_1'],black,0,212,212,212,,,76.60022592544556,76.31296586990356,76.61291885375977,"[[0.1943588063351999, -0.04365746718317348]]",['DejaVu Sans'],[0.9],,,,N004,digit,1,"['6', '7', '8', '9']","['1', '2', '3', '4']",1,2023.2.3,harveydigits,2.1,[],8,0.75,
0,pause,0.4,None,None,None,0,213,213,213,,,,,,,,,,,,N004,digit,1,"['6', '7', '8', '9']","['1', '2', '3', '4']",1,2023.2.3,harveydigits,2.1,[],8,0.75,
5,digit,0.3,['dot'],['big_1'],black,0,214,214,214,,,77.30021691322327,77.01299595832825,77.31294393539429,"[[0.08859963667295404, 0.027047210497332552]]",['DejaVu Sans'],[0.9],,,,N004,digit,1,"['6', '7', '8', '9']","['1', '2', '3', '4']",1,2023.2.3,harveydigits,2.1,[],8,0.75,
0,pause,0.4,None,None,None,0,215,215,215,,,,,,,,,,,,N004,digit,1,"['6', '7', '8', '9']","['1', '2', '3', '4']",1,2023.2.3,harveydigits,2.1,[],8,0.75,
4,digit,0.3,['dot'],['big_1'],white,0,216,216,216,,,78.00024199485779,77.71296787261963,78.01297688484192,"[[0.053948117044040095, 0.02788005784406966]]",['DejaVu Sans'],[0.9],,,,N004,digit,1,"['6', '7', '8', '9']","['1', '2', '3', '4']",1,2023.2.3,harveydigits,2.1,[],8,0.75,
0,pause,0.4,None,None,None,0,217,217,217,,,,,,,,,,,,N004,digit,1,"['6', '7', '8', '9']","['1', '2', '3', '4']",1,2023.2.3,harveydigits,2.1,[],8,0.75,
4,digit,0.3,['dot'],['big_1'],white,0,218,218,218,,,78.70027208328247,78.41295504570007,78.71298098564148,"[[0.1862879827703802, 0.010705020591538592]]",['DejaVu Sans'],[0.9],left,78.12052798271179,odd,N004,digit,1,"['6', '7', '8', '9']","['1', '2', '3', '4']",1,2023.2.3,harveydigits,2.1,[],8,0.75,
0,pause,0.4,None,None,None,0,219,219,219,,,,,,,,,,,,N004,digit,1,"['6', '7', '8', '9']","['1', '2', '3', '4']",1,2023.2.3,harveydigits,2.1,[],8,0.75,
4,digit,0.3,['dot'],['big_1'],white,0,220,220,220,,,79.40025186538696,79.11276197433472,79.41274690628052,"[[-0.10553053119269422, 0.009568207897021425]]",['DejaVu Sans'],[0.9],left,78.69540286064148,odd,N004,digit,1,"['6', '7', '8', '9']","['1', '2', '3', '4']",1,2023.2.3,harveydigits,2.1,[],8,0.75,
0,pause,0.4,None,None,None,0,221,221,221,,,,,,,,,,,,N004,digit,1,"['6', '7', '8', '9']","['1', '2', '3', '4']",1,2023.2.3,harveydigits,2.1,[],8,0.75,
4,digit,0.3,['dot'],['big_1'],white,0,222,222,222,,,80.10028100013733,79.81268286705017,80.11268901824951,"[[-0.016508030486902303, 0.03047123858881262]]",['DejaVu Sans'],[0.9],left,79.36846899986267,odd,N004,digit,1,"['6', '7', '8', '9']","['1', '2', '3', '4']",1,2023.2.3,harveydigits,2.1,[],8,0.75,
0,pause,0.4,None,None,None,0,223,223,223,,,,,,,,,,,,N004,digit,1,"['6', '7', '8', '9']","['1', '2', '3', '4']",1,2023.2.3,harveydigits,2.1,[],8,0.75,
4,digit,0.3,['dot'],['big_1'],white,0,224,224,224,,,80.8002450466156,80.51270294189453,80.81268095970154,"[[0.10050768000939489, -0.15463740741959245]]",['DejaVu Sans'],[0.9],left,80.62262988090515,odd,N004,digit,1,"['6', '7', '8', '9']","['1', '2', '3', '4']",1,2023.2.3,harveydigits,2.1,[],8,0.75,
0,pause,0.4,None,None,None,0,225,225,225,,,,,,,,,,,,N004,digit,1,"['6', '7', '8', '9']","['1', '2', '3', '4']",1,2023.2.3,harveydigits,2.1,[],8,0.75,
4,digit,0.3,['dot'],['big_1'],white,0,226,226,226,,,81.5002498626709,81.21264886856079,81.51263403892517,"[[-0.16254670176410974, 0.11125779273972951]]",['DejaVu Sans'],[0.9],left,81.28070783615112,odd,N004,digit,1,"['6', '7', '8', '9']","['1', '2', '3', '4']",1,2023.2.3,harveydigits,2.1,[],8,0.75,
0,pause,0.4,None,None,None,0,227,227,227,,,,,,,,,,,,N004,digit,1,"['6', '7', '8', '9']","['1', '2', '3', '4']",1,2023.2.3,harveydigits,2.1,[],8,0.75,
3,digit,0.3,['dot'],['big_1'],black,0,228,228,228,,,82.20022392272949,81.91266894340515,82.21264290809631,"[[-0.022723663882986855, -0.0005193437579703863]]",['DejaVu Sans'],[0.9],,,,N004,digit,1,"['6', '7', '8', '9']","['1', '2', '3', '4']",1,2023.2.3,harveydigits,2.1,[],8,0.75,
0,pause,0.4,None,None,None,0,229,229,229,,,,,,,,,,,,N004,digit,1,"['6', '7', '8', '9']","['1', '2', '3', '4']",1,2023.2.3,harveydigits,2.1,[],8,0.75,
3,digit,0.3,['dot'],['big_1'],black,0,230,230,230,,,82.90023994445801,82.6126458644867,82.91260194778442,"[[-0.0029353753691832574, 0.03396450353184813]]",['DejaVu Sans'],[0.9],,,,N004,digit,1,"['6', '7', '8', '9']","['1', '2', '3', '4']",1,2023.2.3,harveydigits,2.1,[],8,0.75,
0,pause,0.4,None,None,None,0,231,231,231,,,,,,,,,,,,N004,digit,1,"['6', '7', '8', '9']","['1', '2', '3', '4']",1,2023.2.3,harveydigits,2.1,[],8,0.75,
3,digit,0.3,['dot'],['big_1'],black,0,232,232,232,,,83.60023188591003,83.31259894371033,83.61258792877197,"[[0.10051354091775042, -0.11522253701455391]]",['DejaVu Sans'],[0.9],,,,N004,digit,1,"['6', '7', '8', '9']","['1', '2', '3', '4']",1,2023.2.3,harveydigits,2.1,[],8,0.75,
0,pause,0.4,None,None,None,0,233,233,233,,,,,,,,,,,,N004,digit,1,"['6', '7', '8', '9']","['1', '2', '3', '4']",1,2023.2.3,harveydigits,2.1,[],8,0.75,
3,digit,0.3,['dot'],['big_1'],black,0,234,234,234,,,84.30022597312927,84.01258206367493,84.31259298324585,"[[0.12344741834733872, 0.13422699701845678]]",['DejaVu Sans'],[0.9],,,,N004,digit,1,"['6', '7', '8', '9']","['1', '2', '3', '4']",1,2023.2.3,harveydigits,2.1,[],8,0.75,
0,pause,0.4,None,None,None,0,235,235,235,,,,,,,,,,,,N004,digit,1,"['6', '7', '8', '9']","['1', '2', '3', '4']",1,2023.2.3,harveydigits,2.1,[],8,0.75,
3,digit,0.3,['dot'],['big_1'],black,0,236,236,236,,,85.00023007392883,84.71260285377502,85.01253890991211,"[[0.0452470392232493, 0.07148912332708049]]",['DejaVu Sans'],[0.9],,,,N004,digit,1,"['6', '7', '8', '9']","['1', '2', '3', '4']",1,2023.2.3,harveydigits,2.1,[],8,0.75,
0,pause,0.4,None,None,None,0,237,237,237,,,,,,,,,,,,N004,digit,1,"['6', '7', '8', '9']","['1', '2', '3', '4']",1,2023.2.3,harveydigits,2.1,[],8,0.75,
3,digit,0.3,['dot'],['big_1'],black,0,238,238,238,,,85.70022296905518,85.41257905960083,85.71257996559143,"[[0.10943075952686457, 0.014464669705923694]]",['DejaVu Sans'],[0.9],,,,N004,digit,1,"['6', '7', '8', '9']","['1', '2', '3', '4']",1,2023.2.3,harveydigits,2.1,[],8,0.75,
0,pause,0.4,None,None,None,0,239,239,239,,,,,,,,,,,,N004,digit,1,"['6', '7', '8', '9']","['1', '2', '3', '4']",1,2023.2.3,harveydigits,2.1,[],8,0.75,
2,digit,0.3,['dot'],['big_1'],black,0,240,240,240,,,86.40024185180664,86.116131067276,86.41270804405212,"[[-0.03469210874527423, -0.12689567851952605]]",['DejaVu Sans'],[0.9],,,,N004,digit,1,"['6', '7', '8', '9']","['1', '2', '3', '4']",1,2023.2.3,harveydigits,2.1,[],8,0.75,
0,pause,0.4,None,None,None,0,241,241,241,,,,,,,,,,,,N004,digit,1,"['6', '7', '8', '9']","['1', '2', '3', '4']",1,2023.2.3,harveydigits,2.1,[],8,0.75,
2,digit,0.3,['dot'],['big_1'],black,0,242,242,242,,,87.10024285316467,86.81269907951355,87.1126959323883,"[[0.19535281822817888, 0.010250395388511108]]",['DejaVu Sans'],[0.9],,,,N004,digit,1,"['6', '7', '8', '9']","['1', '2', '3', '4']",1,2023.2.3,harveydigits,2.1,[],8,0.75,
0,pause,0.4,None,None,None,0,243,243,243,,,,,,,,,,,,N004,digit,1,"['6', '7', '8', '9']","['1', '2', '3', '4']",1,2023.2.3,harveydigits,2.1,[],8,0.75,
2,digit,0.3,['dot'],['big_1'],black,0,244,244,244,,,87.80021786689758,87.51263785362244,87.81264305114746,"[[0.05215188219848746, 0.071636668563124]]",['DejaVu Sans'],[0.9],,,,N004,digit,1,"['6', '7', '8', '9']","['1', '2', '3', '4']",1,2023.2.3,harveydigits,2.1,[],8,0.75,
0,pause,0.4,None,None,None,0,245,245,245,,,,,,,,,,,,N004,digit,1,"['6', '7', '8', '9']","['1', '2', '3', '4']",1,2023.2.3,harveydigits,2.1,[],8,0.75,
2,digit,0.3,['dot'],['big_1'],black,0,246,246,246,,,88.50023889541626,88.21266102790833,88.51261401176453,"[[0.05710284685715414, -0.06519096969284638]]",['DejaVu Sans'],[0.9],,,,N004,digit,1,"['6', '7', '8', '9']","['1', '2', '3', '4']",1,2023.2.3,harveydigits,2.1,[],8,0.75,
0,pause,0.4,None,None,None,0,247,247,247,,,,,,,,,,,,N004,digit,1,"['6', '7', '8', '9']","['1', '2', '3', '4']",1,2023.2.3,harveydigits,2.1,[],8,0.75,
2,digit,0.3,['dot'],['big_1'],black,0,248,248,248,,,89.20024394989014,88.91267395019531,89.21262907981873,"[[0.1929765218127494, 0.0181491707310754]]",['DejaVu Sans'],[0.9],,,,N004,digit,1,"['6', '7', '8', '9']","['1', '2', '3', '4']",1,2023.2.3,harveydigits,2.1,[],8,0.75,
0,pause,0.4,None,None,None,0,249,249,249,,,,,,,,,,,,N004,digit,1,"['6', '7', '8', '9']","['1', '2', '3', '4']",1,2023.2.3,harveydigits,2.1,[],8,0.75,
2,digit,0.3,['dot'],['big_1'],black,0,250,250,250,,,89.90022397041321,89.61263489723206,89.91261792182922,"[[-0.13148037567591894, 0.09403058571253597]]",['DejaVu Sans'],[0.9],,,,N004,digit,1,"['6', '7', '8', '9']","['1', '2', '3', '4']",1,2023.2.3,harveydigits,2.1,[],8,0.75,
0,pause,0.4,None,None,None,0,251,251,251,,,,,,,,,,,,N004,digit,1,"['6', '7', '8', '9']","['1', '2', '3', '4']",1,2023.2.3,harveydigits,2.1,[],8,0.75,
1,digit,0.3,['dot'],['big_1'],black,0,252,252,252,,,90.60023498535156,90.31261801719666,90.61258888244629,"[[-0.061617982851158964, -0.14952397855988347]]",['DejaVu Sans'],[0.9],,,,N004,digit,1,"['6', '7', '8', '9']","['1', '2', '3', '4']",1,2023.2.3,harveydigits,2.1,[],8,0.75,
0,pause,0.4,None,None,None,0,253,253,253,,,,,,,,,,,,N004,digit,1,"['6', '7', '8', '9']","['1', '2', '3', '4']",1,2023.2.3,harveydigits,2.1,[],8,0.75,
1,digit,0.3,['dot'],['big_1'],black,0,254,254,254,,,91.30024290084839,91.01257395744324,91.31254887580872,"[[-0.004970137677197645, 0.15120598935769436]]",['DejaVu Sans'],[0.9],,,,N004,digit,1,"['6', '7', '8', '9']","['1', '2', '3', '4']",1,2023.2.3,harveydigits,2.1,[],8,0.75,
0,pause,0.4,None,None,None,0,255,255,255,,,,,,,,,,,,N004,digit,1,"['6', '7', '8', '9']","['1', '2', '3', '4']",1,2023.2.3,harveydigits,2.1,[],8,0.75,
1,digit,0.3,['dot'],['big_1'],black,0,256,256,256,,,92.00023889541626,91.71253991127014,92.01241707801819,"[[-0.03961685273814361, 0.03830376405838004]]",['DejaVu Sans'],[0.9],,,,N004,digit,1,"['6', '7', '8', '9']","['1', '2', '3', '4']",1,2023.2.3,harveydigits,2.1,[],8,0.75,
0,pause,0.4,None,None,None,0,257,257,257,,,,,,,,,,,,N004,digit,1,"['6', '7', '8', '9']","['1', '2', '3', '4']",1,2023.2.3,harveydigits,2.1,[],8,0.75,
1,digit,0.3,['dot'],['big_1'],black,0,258,258,258,,,92.70023894309998,92.41242599487305,92.71239995956421,"[[0.06531679881746075, -0.09581623870874913]]",['DejaVu Sans'],[0.9],,,,N004,digit,1,"['6', '7', '8', '9']","['1', '2', '3', '4']",1,2023.2.3,harveydigits,2.1,[],8,0.75,
0,pause,0.4,None,None,None,0,259,259,259,,,,,,,,,,,,N004,digit,1,"['6', '7', '8', '9']","['1', '2', '3', '4']",1,2023.2.3,harveydigits,2.1,[],8,0.75,
1,digit,0.3,['dot'],['big_1'],black,0,260,260,260,,,93.40023398399353,93.11238193511963,93.41241788864136,"[[-0.19256259742977647, 0.04196884060206668]]",['DejaVu Sans'],[0.9],,,,N004,digit,1,"['6', '7', '8', '9']","['1', '2', '3', '4']",1,2023.2.3,harveydigits,2.1,[],8,0.75,
0,pause,0.4,None,None,None,0,261,261,261,,,,,,,,,,,,N004,digit,1,"['6', '7', '8', '9']","['1', '2', '3', '4']",1,2023.2.3,harveydigits,2.1,[],8,0.75,
1,digit,0.3,['dot'],['big_1'],black,0,262,262,262,,,94.10021805763245,93.81236505508423,94.11247301101685,"[[0.07063153354891857, -0.06653018313622382]]",['DejaVu Sans'],[0.9],,,,N004,digit,1,"['6', '7', '8', '9']","['1', '2', '3', '4']",1,2023.2.3,harveydigits,2.1,[],8,0.75,
0,pause,0.4,None,None,None,0,263,263,263,,,,,,,,,,,,N004,digit,1,"['6', '7', '8', '9']","['1', '2', '3', '4']",1,2023.2.3,harveydigits,2.1,[],8,0.75,
20,digit,0.3,['dot'],['big_1'],black,0,264,264,264,,,94.80023908615112,94.51245307922363,94.8124589920044,"[[0.06859729808810741, -0.05777234611760823]]",['DejaVu Sans'],[0.9],,,,N004,digit,1,"['6', '7', '8', '9']","['1', '2', '3', '4']",1,2023.2.3,harveydigits,2.1,[],8,0.75,
0,pause,0.4,None,None,None,0,265,265,265,,,,,,,,,,,,N004,digit,1,"['6', '7', '8', '9']","['1', '2', '3', '4']",1,2023.2.3,harveydigits,2.1,[],8,0.75,
20,digit,0.3,['dot'],['big_1'],black,0,266,266,266,,,95.50023102760315,95.21243691444397,95.51243996620178,"[[-0.1349024354633411, -0.008001992293448418]]",['DejaVu Sans'],[0.9],,,,N004,digit,1,"['6', '7', '8', '9']","['1', '2', '3', '4']",1,2023.2.3,harveydigits,2.1,[],8,0.75,
0,pause,0.4,None,None,None,0,267,267,267,,,,,,,,,,,,N004,digit,1,"['6', '7', '8', '9']","['1', '2', '3', '4']",1,2023.2.3,harveydigits,2.1,[],8,0.75,
20,digit,0.3,['dot'],['big_1'],black,0,268,268,268,,,96.20024394989014,95.91244196891785,96.21243500709534,"[[0.03207400101488575, -0.11757223778061184]]",['DejaVu Sans'],[0.9],,,,N004,digit,1,"['6', '7', '8', '9']","['1', '2', '3', '4']",1,2023.2.3,harveydigits,2.1,[],8,0.75,
0,pause,0.4,None,None,None,0,269,269,269,,,,,,,,,,,,N004,digit,1,"['6', '7', '8', '9']","['1', '2', '3', '4']",1,2023.2.3,harveydigits,2.1,[],8,0.75,
20,digit,0.3,['dot'],['big_1'],black,0,270,270,270,,,96.9002320766449,96.61241698265076,96.91230893135071,"[[0.0187999799962974, -0.01465580195346361]]",['DejaVu Sans'],[0.9],,,,N004,digit,1,"['6', '7', '8', '9']","['1', '2', '3', '4']",1,2023.2.3,harveydigits,2.1,[],8,0.75,
0,pause,0.4,None,None,None,0,271,271,271,,,,,,,,,,,,N004,digit,1,"['6', '7', '8', '9']","['1', '2', '3', '4']",1,2023.2.3,harveydigits,2.1,[],8,0.75,
20,digit,0.3,['dot'],['big_1'],black,0,272,272,272,,,97.6002368927002,97.31230902671814,97.61227989196777,"[[-0.06850791676854454, 0.08099932377474672]]",['DejaVu Sans'],[0.9],,,,N004,digit,1,"['6', '7', '8', '9']","['1', '2', '3', '4']",1,2023.2.3,harveydigits,2.1,[],8,0.75,
0,pause,0.4,None,None,None,0,273,273,273,,,,,,,,,,,,N004,digit,1,"['6', '7', '8', '9']","['1', '2', '3', '4']",1,2023.2.3,harveydigits,2.1,[],8,0.75,
20,digit,0.3,['dot'],['big_1'],black,0,274,274,274,,,98.30024290084839,98.01229190826416,98.3122398853302,"[[-0.07960871881377951, -0.1770922215982944]]",['DejaVu Sans'],[0.9],,,,N004,digit,1,"['6', '7', '8', '9']","['1', '2', '3', '4']",1,2023.2.3,harveydigits,2.1,[],8,0.75,
0,pause,0.4,None,None,None,0,275,275,275,,,,,,,,,,,,N004,digit,1,"['6', '7', '8', '9']","['1', '2', '3', '4']",1,2023.2.3,harveydigits,2.1,[],8,0.75,
20,digit,0.3,['dot'],['big_1'],black,0,276,276,276,,,99.0002338886261,98.71223902702332,99.0122139453888,"[[-0.04732693818848446, -0.02488967075757134]]",['DejaVu Sans'],[0.9],,,,N004,digit,1,"['6', '7', '8', '9']","['1', '2', '3', '4']",1,2023.2.3,harveydigits,2.1,[],8,0.75,
0,pause,0.4,None,None,None,0,277,277,277,,,,,,,,,,,,N004,digit,1,"['6', '7', '8', '9']","['1', '2', '3', '4']",1,2023.2.3,harveydigits,2.1,[],8,0.75,
20,digit,0.3,['dot'],['big_1'],black,0,278,278,278,,,99.70022988319397,99.41224193572998,99.7122130393982,"[[-0.0841884203468942, 0.047723963246396967]]",['DejaVu Sans'],[0.9],,,,N004,digit,1,"['6', '7', '8', '9']","['1', '2', '3', '4']",1,2023.2.3,harveydigits,2.1,[],8,0.75,
0,pause,0.4,None,None,None,0,279,279,279,,,,,,,,,,,,N004,digit,1,"['6', '7', '8', '9']","['1', '2', '3', '4']",1,2023.2.3,harveydigits,2.1,[],8,0.75,
20,digit,0.3,['dot'],['big_1'],black,0,280,280,280,,,100.40022993087769,100.11221194267273,100.41219305992126,"[[-0.0574645630039638, 0.1766623674381945]]",['DejaVu Sans'],[0.9],,,,N004,digit,1,"['6', '7', '8', '9']","['1', '2', '3', '4']",1,2023.2.3,harveydigits,2.1,[],8,0.75,
0,pause,0.4,None,None,None,0,281,281,281,,,,,,,,,,,,N004,digit,1,"['6', '7', '8', '9']","['1', '2', '3', '4']",1,2023.2.3,harveydigits,2.1,[],8,0.75,
20,digit,0.3,['dot'],['big_1'],black,0,282,282,282,,,101.10024690628052,100.81219100952148,101.11217188835144,"[[-0.04347650821309096, 0.13534901917097134]]",['DejaVu Sans'],[0.9],,,,N004,digit,1,"['6', '7', '8', '9']","['1', '2', '3', '4']",1,2023.2.3,harveydigits,2.1,[],8,0.75,
0,pause,0.4,None,None,None,0,283,283,283,,,,,,,,,,,,N004,digit,1,"['6', '7', '8', '9']","['1', '2', '3', '4']",1,2023.2.3,harveydigits,2.1,[],8,0.75,
20,digit,0.3,['dot'],['big_1'],black,0,284,284,284,,,101.80023288726807,101.51217603683472,101.81216287612915,"[[-0.040309256892261336, 0.05583024340672163]]",['DejaVu Sans'],[0.9],,,,N004,digit,1,"['6', '7', '8', '9']","['1', '2', '3', '4']",1,2023.2.3,harveydigits,2.1,[],8,0.75,
0,pause,0.4,None,None,None,0,285,285,285,,,,,,,,,,,,N004,digit,1,"['6', '7', '8', '9']","['1', '2', '3', '4']",1,2023.2.3,harveydigits,2.1,[],8,0.75,
20,digit,0.3,['dot'],['big_1'],black,0,286,286,286,,,102.50024008750916,102.2121798992157,102.51216697692871,"[[0.13858375070781018, 0.1357625331586066]]",['DejaVu Sans'],[0.9],,,,N004,digit,1,"['6', '7', '8', '9']","['1', '2', '3', '4']",1,2023.2.3,harveydigits,2.1,[],8,0.75,
0,pause,0.4,None,None,None,0,287,287,287,,,,,,,,,,,,N004,digit,1,"['6', '7', '8', '9']","['1', '2', '3', '4']",1,2023.2.3,harveydigits,2.1,[],8,0.75,
20,digit,0.3,['dot'],['big_1'],white,0,288,288,288,,,103.20022988319397,102.91215491294861,103.21213698387146,"[[0.14354955972899217, -0.12148764455624253]]",['DejaVu Sans'],[0.9],,,,N004,digit,1,"['6', '7', '8', '9']","['1', '2', '3', '4']",1,2023.2.3,harveydigits,2.1,[],8,0.75,
0,pause,0.4,None,None,None,0,289,289,289,,,,,,,,,1,103.26040887832642,,N004,digit,1,"['6', '7', '8', '9']","['1', '2', '3', '4']",1,2023.2.3,harveydigits,2.1,[],8,0.75,
20,digit,0.3,['dot'],['big_1'],white,0,290,290,290,,,103.9002799987793,103.61214804649353,103.91211485862732,"[[0.12177987572413704, -0.14313609335450225]]",['DejaVu Sans'],[0.9],1,103.791512966156,,N004,digit,1,"['6', '7', '8', '9']","['1', '2', '3', '4']",1,2023.2.3,harveydigits,2.1,[],8,0.75,
0,pause,0.4,None,None,None,0,291,291,291,,,,,,,,,,,,N004,digit,1,"['6', '7', '8', '9']","['1', '2', '3', '4']",1,2023.2.3,harveydigits,2.1,[],8,0.75,
20,digit,0.3,['dot'],['big_1'],white,0,292,292,292,,,104.60025191307068,104.3121349811554,104.6121039390564,"[[-0.08810664091773156, -0.16913440405073443]]",['DejaVu Sans'],[0.9],1,104.44657683372498,,N004,digit,1,"['6', '7', '8', '9']","['1', '2', '3', '4']",1,2023.2.3,harveydigits,2.1,[],8,0.75,
0,pause,0.4,None,None,None,0,293,293,293,,,,,,,,,,,,N004,digit,1,"['6', '7', '8', '9']","['1', '2', '3', '4']",1,2023.2.3,harveydigits,2.1,[],8,0.75,
20,digit,0.3,['dot'],['big_1'],white,0,294,294,294,,,105.30026602745056,105.01209807395935,105.3120698928833,"[[0.03245426617928268, -0.10931559991994647]]",['DejaVu Sans'],[0.9],1,105.09862184524536,,N004,digit,1,"['6', '7', '8', '9']","['1', '2', '3', '4']",1,2023.2.3,harveydigits,2.1,[],8,0.75,
0,pause,0.4,None,None,None,0,295,295,295,,,,,,,,,,,,N004,digit,1,"['6', '7', '8', '9']","['1', '2', '3', '4']",1,2023.2.3,harveydigits,2.1,[],8,0.75,
20,digit,0.3,['dot'],['big_1'],white,0,296,296,296,,,106.00025200843811,105.71206903457642,106.01204299926758,"[[-0.09718341303654915, 0.11973371198920241]]",['DejaVu Sans'],[0.9],1,105.71868681907654,,N004,digit,1,"['6', '7', '8', '9']","['1', '2', '3', '4']",1,2023.2.3,harveydigits,2.1,[],8,0.75,
0,pause,0.4,None,None,None,0,297,297,297,,,,,,,,,,,,N004,digit,1,"['6', '7', '8', '9']","['1', '2', '3', '4']",1,2023.2.3,harveydigits,2.1,[],8,0.75,
20,digit,0.3,['dot'],['big_1'],white,0,298,298,298,,,106.70026803016663,106.41203999519348,106.71201705932617,"[[0.08525899860769096, 0.06844992950633691]]",['DejaVu Sans'],[0.9],1,106.39977383613586,,N004,digit,1,"['6', '7', '8', '9']","['1', '2', '3', '4']",1,2023.2.3,harveydigits,2.1,[],8,0.75,
0,pause,0.4,None,None,None,0,299,299,299,,,,,,,,,,,,N004,digit,1,"['6', '7', '8', '9']","['1', '2', '3', '4']",1,2023.2.3,harveydigits,2.1,[],8,0.75,
20,digit,0.3,['dot'],['big_1'],black,0,300,300,300,,,107.40022397041321,107.11203408241272,107.41201591491699,"[[0.1760395404534784, -0.07480093437812557]]",['DejaVu Sans'],[0.9],,,,N004,digit,1,"['6', '7', '8', '9']","['1', '2', '3', '4']",1,2023.2.3,harveydigits,2.1,[],8,0.75,
0,pause,0.4,None,None,None,0,301,301,301,,,,,,,,,,,,N004,digit,1,"['6', '7', '8', '9']","['1', '2', '3', '4']",1,2023.2.3,harveydigits,2.1,[],8,0.75,
20,digit,0.3,['dot'],['big_1'],black,0,302,302,302,,,108.10023307800293,107.81202387809753,108.11220693588257,"[[0.11094927035709637, -0.1624146765533753]]",['DejaVu Sans'],[0.9],,,,N004,digit,1,"['6', '7', '8', '9']","['1', '2', '3', '4']",1,2023.2.3,harveydigits,2.1,[],8,0.75,
0,pause,0.4,None,None,None,0,303,303,303,,,,,,,,,,,,N004,digit,1,"['6', '7', '8', '9']","['1', '2', '3', '4']",1,2023.2.3,harveydigits,2.1,[],8,0.75,
20,digit,0.3,['dot'],['big_1'],black,0,304,304,304,,,108.80023908615112,108.51199197769165,108.81198000907898,"[[0.18117809261881904, -0.024144587559337703]]",['DejaVu Sans'],[0.9],,,,N004,digit,1,"['6', '7', '8', '9']","['1', '2', '3', '4']",1,2023.2.3,harveydigits,2.1,[],8,0.75,
0,pause,0.4,None,None,None,0,305,305,305,,,,,,,,,,,,N004,digit,1,"['6', '7', '8', '9']","['1', '2', '3', '4']",1,2023.2.3,harveydigits,2.1,[],8,0.75,
20,digit,0.3,['dot'],['big_1'],black,0,306,306,306,,,109.50022792816162,109.21197485923767,109.51194190979004,"[[0.038610327663817806, 0.18182473677043187]]",['DejaVu Sans'],[0.9],,,,N004,digit,1,"['6', '7', '8', '9']","['1', '2', '3', '4']",1,2023.2.3,harveydigits,2.1,[],8,0.75,
0,pause,0.4,None,None,None,0,307,307,307,,,,,,,,,,,,N004,digit,1,"['6', '7', '8', '9']","['1', '2', '3', '4']",1,2023.2.3,harveydigits,2.1,[],8,0.75,
20,digit,0.3,['dot'],['big_1'],black,0,308,308,308,,,110.20022487640381,109.91209697723389,110.2120668888092,"[[-0.17810635211939338, -0.06125881119159253]]",['DejaVu Sans'],[0.9],,,,N004,digit,1,"['6', '7', '8', '9']","['1', '2', '3', '4']",1,2023.2.3,harveydigits,2.1,[],8,0.75,
0,pause,0.4,None,None,None,0,309,309,309,,,,,,,,,,,,N004,digit,1,"['6', '7', '8', '9']","['1', '2', '3', '4']",1,2023.2.3,harveydigits,2.1,[],8,0.75,
20,digit,0.3,['dot'],['big_1'],black,0,310,310,310,,,110.90022087097168,110.61191201210022,110.91203904151917,"[[0.17150192208011675, 0.015953491492801966]]",['DejaVu Sans'],[0.9],,,,N004,digit,1,"['6', '7', '8', '9']","['1', '2', '3', '4']",1,2023.2.3,harveydigits,2.1,[],8,0.75,
0,pause,0.4,None,None,None,0,311,311,311,,,,,,,,,,,,N004,digit,1,"['6', '7', '8', '9']","['1', '2', '3', '4']",1,2023.2.3,harveydigits,2.1,[],8,0.75,
1,digit,0.3,['dot'],['small_1'],black,0,312,312,312,,,111.60023307800293,111.31204795837402,111.61201786994934,"[[-0.15543374806745047, -0.07484795898197505]]",['DejaVu Sans'],[0.6],,,,N004,digit,1,"['6', '7', '8', '9']","['1', '2', '3', '4']",1,2023.2.3,harveydigits,2.1,[],8,0.75,
0,pause,0.4,None,None,None,0,313,313,313,,,,,,,,,,,,N004,digit,1,"['6', '7', '8', '9']","['1', '2', '3', '4']",1,2023.2.3,harveydigits,2.1,[],8,0.75,
1,digit,0.3,['dot'],['small_1'],black,0,314,314,314,,,112.30024099349976,112.01189303398132,112.31201505661011,"[[-0.016742312416615723, 0.2753382823977933]]",['DejaVu Sans'],[0.6],,,,N004,digit,1,"['6', '7', '8', '9']","['1', '2', '3', '4']",1,2023.2.3,harveydigits,2.1,[],8,0.75,
0,pause,0.4,None,None,None,0,315,315,315,,,,,,,,,,,,N004,digit,1,"['6', '7', '8', '9']","['1', '2', '3', '4']",1,2023.2.3,harveydigits,2.1,[],8,0.75,
1,digit,0.3,['dot'],['small_1'],black,0,316,316,316,,,113.00022196769714,112.71190905570984,113.01185894012451,"[[0.22551862750655982, 0.042547993350903035]]",['DejaVu Sans'],[0.6],,,,N004,digit,1,"['6', '7', '8', '9']","['1', '2', '3', '4']",1,2023.2.3,harveydigits,2.1,[],8,0.75,
0,pause,0.4,None,None,None,0,317,317,317,,,,,,,,,,,,N004,digit,1,"['6', '7', '8', '9']","['1', '2', '3', '4']",1,2023.2.3,harveydigits,2.1,[],8,0.75,
1,digit,0.3,['dot'],['small_1'],black,0,318,318,318,,,113.70024991035461,113.41185903549194,113.7119688987732,"[[0.12074714226252414, 0.2110763511723906]]",['DejaVu Sans'],[0.6],,,,N004,digit,1,"['6', '7', '8', '9']","['1', '2', '3', '4']",1,2023.2.3,harveydigits,2.1,[],8,0.75,
0,pause,0.4,None,None,None,0,319,319,319,,,,,,,,,,,,N004,digit,1,"['6', '7', '8', '9']","['1', '2', '3', '4']",1,2023.2.3,harveydigits,2.1,[],8,0.75,
1,digit,0.3,['dot'],['small_1'],black,0,320,320,320,,,114.4002480506897,114.11187791824341,114.41186690330505,"[[0.03427202090417608, -0.0836861017961823]]",['DejaVu Sans'],[0.6],,,,N004,digit,1,"['6', '7', '8', '9']","['1', '2', '3', '4']",1,2023.2.3,harveydigits,2.1,[],8,0.75,
0,pause,0.4,None,None,None,0,321,321,321,,,,,,,,,,,,N004,digit,1,"['6', '7', '8', '9']","['1', '2', '3', '4']",1,2023.2.3,harveydigits,2.1,[],8,0.75,
1,digit,0.3,['dot'],['small_1'],black,0,322,322,322,,,115.10022592544556,114.81183099746704,115.11185002326965,"[[-0.20471605341830662, -0.07302742646055607]]",['DejaVu Sans'],[0.6],,,,N004,digit,1,"['6', '7', '8', '9']","['1', '2', '3', '4']",1,2023.2.3,harveydigits,2.1,[],8,0.75,
0,pause,0.4,None,None,None,0,323,323,323,,,,,,,,,,,,N004,digit,1,"['6', '7', '8', '9']","['1', '2', '3', '4']",1,2023.2.3,harveydigits,2.1,[],8,0.75,
2,digit,0.3,['dot'],['small_1'],black,0,324,324,324,,,115.80023789405823,115.51181197166443,115.81175994873047,"[[-0.08398320861842967, -0.2862655802926178]]",['DejaVu Sans'],[0.6],,,,N004,digit,1,"['6', '7', '8', '9']","['1', '2', '3', '4']",1,2023.2.3,harveydigits,2.1,[],8,0.75,
0,pause,0.4,None,None,None,0,325,325,325,,,,,,,,,,,,N004,digit,1,"['6', '7', '8', '9']","['1', '2', '3', '4']",1,2023.2.3,harveydigits,2.1,[],8,0.75,
2,digit,0.3,['dot'],['small_1'],black,0,326,326,326,,,116.50023603439331,116.21176195144653,116.5117518901825,"[[0.24555615756664528, 0.03294689117215743]]",['DejaVu Sans'],[0.6],,,,N004,digit,1,"['6', '7', '8', '9']","['1', '2', '3', '4']",1,2023.2.3,harveydigits,2.1,[],8,0.75,
0,pause,0.4,None,None,None,0,327,327,327,,,,,,,,,,,,N004,digit,1,"['6', '7', '8', '9']","['1', '2', '3', '4']",1,2023.2.3,harveydigits,2.1,[],8,0.75,
2,digit,0.3,['dot'],['small_1'],black,0,328,328,328,,,117.20022702217102,116.91180896759033,117.21181201934814,"[[0.12796304992786334, 0.021486771231825963]]",['DejaVu Sans'],[0.6],,,,N004,digit,1,"['6', '7', '8', '9']","['1', '2', '3', '4']",1,2023.2.3,harveydigits,2.1,[],8,0.75,
0,pause,0.4,None,None,None,0,329,329,329,,,,,,,,,,,,N004,digit,1,"['6', '7', '8', '9']","['1', '2', '3', '4']",1,2023.2.3,harveydigits,2.1,[],8,0.75,
2,digit,0.3,['dot'],['small_1'],black,0,330,330,330,,,117.90024590492249,117.61183094978333,117.9117980003357,"[[0.11416488718574047, 0.30969535896064043]]",['DejaVu Sans'],[0.6],,,,N004,digit,1,"['6', '7', '8', '9']","['1', '2', '3', '4']",1,2023.2.3,harveydigits,2.1,[],8,0.75,
0,pause,0.4,None,None,None,0,331,331,331,,,,,,,,,,,,N004,digit,1,"['6', '7', '8', '9']","['1', '2', '3', '4']",1,2023.2.3,harveydigits,2.1,[],8,0.75,
2,digit,0.3,['dot'],['small_1'],black,0,332,332,332,,,118.60023808479309,118.31174087524414,118.61173391342163,"[[0.34400184397005196, -0.05938509067860991]]",['DejaVu Sans'],[0.6],,,,N004,digit,1,"['6', '7', '8', '9']","['1', '2', '3', '4']",1,2023.2.3,harveydigits,2.1,[],8,0.75,
0,pause,0.4,None,None,None,0,333,333,333,,,,,,,,,,,,N004,digit,1,"['6', '7', '8', '9']","['1', '2', '3', '4']",1,2023.2.3,harveydigits,2.1,[],8,0.75,
2,digit,0.3,['dot'],['small_1'],black,0,334,334,334,,,119.3002438545227,119.01168489456177,119.31168603897095,"[[0.022439709545930386, -0.24758895847188755]]",['DejaVu Sans'],[0.6],,,,N004,digit,1,"['6', '7', '8', '9']","['1', '2', '3', '4']",1,2023.2.3,harveydigits,2.1,[],8,0.75,
0,pause,0.4,None,None,None,0,335,335,335,,,,,,,,,,,,N004,digit,1,"['6', '7', '8', '9']","['1', '2', '3', '4']",1,2023.2.3,harveydigits,2.1,[],8,0.75,
3,digit,0.3,['dot'],['small_1'],black,0,336,336,336,,,120.00022292137146,119.71167588233948,120.01169800758362,"[[0.09760547742347764, 0.3159075786987018]]",['DejaVu Sans'],[0.6],,,,N004,digit,1,"['6', '7', '8', '9']","['1', '2', '3', '4']",1,2023.2.3,harveydigits,2.1,[],8,0.75,
0,pause,0.4,None,None,None,0,337,337,337,,,,,,,,,,,,N004,digit,1,"['6', '7', '8', '9']","['1', '2', '3', '4']",1,2023.2.3,harveydigits,2.1,[],8,0.75,
3,digit,0.3,['dot'],['small_1'],black,0,338,338,338,,,120.70023488998413,120.41167187690735,120.71166491508484,"[[-0.11211019220711069, 0.1510345768704176]]",['DejaVu Sans'],[0.6],,,,N004,digit,1,"['6', '7', '8', '9']","['1', '2', '3', '4']",1,2023.2.3,harveydigits,2.1,[],8,0.75,
0,pause,0.4,None,None,None,0,339,339,339,,,,,,,,,,,,N004,digit,1,"['6', '7', '8', '9']","['1', '2', '3', '4']",1,2023.2.3,harveydigits,2.1,[],8,0.75,
3,digit,0.3,['dot'],['small_1'],black,0,340,340,340,,,121.40022587776184,121.11165595054626,121.41163802146912,"[[0.11232681850651888, 0.13525999626501772]]",['DejaVu Sans'],[0.6],,,,N004,digit,1,"['6', '7', '8', '9']","['1', '2', '3', '4']",1,2023.2.3,harveydigits,2.1,[],8,0.75,
0,pause,0.4,None,None,None,0,341,341,341,,,,,,,,,,,,N004,digit,1,"['6', '7', '8', '9']","['1', '2', '3', '4']",1,2023.2.3,harveydigits,2.1,[],8,0.75,
3,digit,0.3,['dot'],['small_1'],black,0,342,342,342,,,122.10023903846741,121.81161499023438,122.11162304878235,"[[-0.07921226689962618, 0.30335862424880783]]",['DejaVu Sans'],[0.6],,,,N004,digit,1,"['6', '7', '8', '9']","['1', '2', '3', '4']",1,2023.2.3,harveydigits,2.1,[],8,0.75,
0,pause,0.4,None,None,None,0,343,343,343,,,,,,,,,,,,N004,digit,1,"['6', '7', '8', '9']","['1', '2', '3', '4']",1,2023.2.3,harveydigits,2.1,[],8,0.75,
3,digit,0.3,['dot'],['small_1'],black,0,344,344,344,,,122.80022287368774,122.51161503791809,122.81163692474365,"[[0.19339841105265188, 0.2542495528116591]]",['DejaVu Sans'],[0.6],,,,N004,digit,1,"['6', '7', '8', '9']","['1', '2', '3', '4']",1,2023.2.3,harveydigits,2.1,[],8,0.75,
0,pause,0.4,None,None,None,0,345,345,345,,,,,,,,,,,,N004,digit,1,"['6', '7', '8', '9']","['1', '2', '3', '4']",1,2023.2.3,harveydigits,2.1,[],8,0.75,
3,digit,0.3,['dot'],['small_1'],black,0,346,346,346,,,123.50022792816162,123.21157598495483,123.51157402992249,"[[0.12325359657753576, 0.094825065966402]]",['DejaVu Sans'],[0.6],,,,N004,digit,1,"['6', '7', '8', '9']","['1', '2', '3', '4']",1,2023.2.3,harveydigits,2.1,[],8,0.75,
0,pause,0.4,None,None,None,0,347,347,347,,,,,,,,,,,,N004,digit,1,"['6', '7', '8', '9']","['1', '2', '3', '4']",1,2023.2.3,harveydigits,2.1,[],8,0.75,
4,digit,0.3,['dot'],['small_1'],black,0,348,348,348,,,124.20023894309998,123.91164207458496,124.21154999732971,"[[0.17654055731901885, 0.1719076089829305]]",['DejaVu Sans'],[0.6],,,,N004,digit,1,"['6', '7', '8', '9']","['1', '2', '3', '4']",1,2023.2.3,harveydigits,2.1,[],8,0.75,
0,pause,0.4,None,None,None,0,349,349,349,,,,,,,,,,,,N004,digit,1,"['6', '7', '8', '9']","['1', '2', '3', '4']",1,2023.2.3,harveydigits,2.1,[],8,0.75,
4,digit,0.3,['dot'],['small_1'],black,0,350,350,350,,,124.90024089813232,124.61154794692993,124.91161799430847,"[[-0.14080730133479258, 0.18730988550802558]]",['DejaVu Sans'],[0.6],,,,N004,digit,1,"['6', '7', '8', '9']","['1', '2', '3', '4']",1,2023.2.3,harveydigits,2.1,[],8,0.75,
0,pause,0.4,None,None,None,0,351,351,351,,,,,,,,,,,,N004,digit,1,"['6', '7', '8', '9']","['1', '2', '3', '4']",1,2023.2.3,harveydigits,2.1,[],8,0.75,
4,digit,0.3,['dot'],['small_1'],black,0,352,352,352,,,125.60023903846741,125.31153202056885,125.61150193214417,"[[0.2733852518981561, 0.00010652401052529958]]",['DejaVu Sans'],[0.6],,,,N004,digit,1,"['6', '7', '8', '9']","['1', '2', '3', '4']",1,2023.2.3,harveydigits,2.1,[],8,0.75,
0,pause,0.4,None,None,None,0,353,353,353,,,,,,,,,,,,N004,digit,1,"['6', '7', '8', '9']","['1', '2', '3', '4']",1,2023.2.3,harveydigits,2.1,[],8,0.75,
4,digit,0.3,['dot'],['small_1'],black,0,354,354,354,,,126.3002519607544,126.0115258693695,126.31156897544861,"[[-0.15278505056778857, -0.20399980864872028]]",['DejaVu Sans'],[0.6],,,,N004,digit,1,"['6', '7', '8', '9']","['1', '2', '3', '4']",1,2023.2.3,harveydigits,2.1,[],8,0.75,
0,pause,0.4,None,None,None,0,355,355,355,,,,,,,,,,,,N004,digit,1,"['6', '7', '8', '9']","['1', '2', '3', '4']",1,2023.2.3,harveydigits,2.1,[],8,0.75,
4,digit,0.3,['dot'],['small_1'],black,0,356,356,356,,,127.00023603439331,126.7114930152893,127.01166486740112,"[[0.03702537754320456, 0.2546440598991512]]",['DejaVu Sans'],[0.6],,,,N004,digit,1,"['6', '7', '8', '9']","['1', '2', '3', '4']",1,2023.2.3,harveydigits,2.1,[],8,0.75,
0,pause,0.4,None,None,None,0,357,357,357,,,,,,,,,,,,N004,digit,1,"['6', '7', '8', '9']","['1', '2', '3', '4']",1,2023.2.3,harveydigits,2.1,[],8,0.75,
4,digit,0.3,['dot'],['small_1'],black,0,358,358,358,,,127.7002329826355,127.4116940498352,127.71164798736572,"[[-0.07206847348468776, -0.3101038391852362]]",['DejaVu Sans'],[0.6],,,,N004,digit,1,"['6', '7', '8', '9']","['1', '2', '3', '4']",1,2023.2.3,harveydigits,2.1,[],8,0.75,
0,pause,0.4,None,None,None,0,359,359,359,,,,,,,,,,,,N004,digit,1,"['6', '7', '8', '9']","['1', '2', '3', '4']",1,2023.2.3,harveydigits,2.1,[],8,0.75,
5,digit,0.3,['dot'],['small_1'],black,0,360,360,360,,,128.40023398399353,128.11164903640747,128.41164302825928,"[[-0.2196711542504821, 0.03533297368397753]]",['DejaVu Sans'],[0.6],,,,N004,digit,1,"['6', '7', '8', '9']","['1', '2', '3', '4']",1,2023.2.3,harveydigits,2.1,[],8,0.75,
0,pause,0.4,None,None,None,0,361,361,361,,,,,,,,,,,,N004,digit,1,"['6', '7', '8', '9']","['1', '2', '3', '4']",1,2023.2.3,harveydigits,2.1,[],8,0.75,
5,digit,0.3,['dot'],['small_1'],black,0,362,362,362,,,129.10024404525757,128.81162190437317,129.1115939617157,"[[-0.25526309877721387, 0.21398756518989046]]",['DejaVu Sans'],[0.6],,,,N004,digit,1,"['6', '7', '8', '9']","['1', '2', '3', '4']",1,2023.2.3,harveydigits,2.1,[],8,0.75,
0,pause,0.4,None,None,None,0,363,363,363,,,,,,,,,,,,N004,digit,1,"['6', '7', '8', '9']","['1', '2', '3', '4']",1,2023.2.3,harveydigits,2.1,[],8,0.75,
5,digit,0.3,['dot'],['small_1'],black,0,364,364,364,,,129.8002269268036,129.51162195205688,129.81160402297974,"[[-0.16534371847486798, 0.0782553175987199]]",['DejaVu Sans'],[0.6],,,,N004,digit,1,"['6', '7', '8', '9']","['1', '2', '3', '4']",1,2023.2.3,harveydigits,2.1,[],8,0.75,
0,pause,0.4,None,None,None,0,365,365,365,,,,,,,,,,,,N004,digit,1,"['6', '7', '8', '9']","['1', '2', '3', '4']",1,2023.2.3,harveydigits,2.1,[],8,0.75,
5,digit,0.3,['dot'],['small_1'],black,0,366,366,366,,,130.50023293495178,130.2116289138794,130.51156306266785,"[[-0.0333030211171465, -0.021518501036231763]]",['DejaVu Sans'],[0.6],,,,N004,digit,1,"['6', '7', '8', '9']","['1', '2', '3', '4']",1,2023.2.3,harveydigits,2.1,[],8,0.75,
0,pause,0.4,None,None,None,0,367,367,367,,,,,,,,,,,,N004,digit,1,"['6', '7', '8', '9']","['1', '2', '3', '4']",1,2023.2.3,harveydigits,2.1,[],8,0.75,
5,digit,0.3,['dot'],['small_1'],black,0,368,368,368,,,131.20024394989014,130.91164088249207,131.21161007881165,"[[0.09276321076454769, -0.18252112959447814]]",['DejaVu Sans'],[0.6],,,,N004,digit,1,"['6', '7', '8', '9']","['1', '2', '3', '4']",1,2023.2.3,harveydigits,2.1,[],8,0.75,
0,pause,0.4,None,None,None,0,369,369,369,,,,,,,,,,,,N004,digit,1,"['6', '7', '8', '9']","['1', '2', '3', '4']",1,2023.2.3,harveydigits,2.1,[],8,0.75,
5,digit,0.3,['dot'],['small_1'],black,0,370,370,370,,,131.90023803710938,131.61163997650146,131.91156601905823,"[[-0.18763276251730784, 0.2943769559832096]]",['DejaVu Sans'],[0.6],,,,N004,digit,1,"['6', '7', '8', '9']","['1', '2', '3', '4']",1,2023.2.3,harveydigits,2.1,[],8,0.75,
0,pause,0.4,None,None,None,0,371,371,371,,,,,,,,,,,,N004,digit,1,"['6', '7', '8', '9']","['1', '2', '3', '4']",1,2023.2.3,harveydigits,2.1,[],8,0.75,
6,digit,0.3,['dot'],['small_1'],black,0,372,372,372,,,132.6002390384674,132.31165194511414,132.61157894134521,"[[-0.06807012315306105, -0.320738448134669]]",['DejaVu Sans'],[0.6],,,,N004,digit,1,"['6', '7', '8', '9']","['1', '2', '3', '4']",1,2023.2.3,harveydigits,2.1,[],8,0.75,
0,pause,0.4,None,None,None,0,373,373,373,,,,,,,,,,,,N004,digit,1,"['6', '7', '8', '9']","['1', '2', '3', '4']",1,2023.2.3,harveydigits,2.1,[],8,0.75,
6,digit,0.3,['dot'],['small_1'],black,0,374,374,374,,,133.30024790763855,133.01150107383728,133.3114719390869,"[[-0.07522957311651374, 0.25254322320742867]]",['DejaVu Sans'],[0.6],,,,N004,digit,1,"['6', '7', '8', '9']","['1', '2', '3', '4']",1,2023.2.3,harveydigits,2.1,[],8,0.75,
0,pause,0.4,None,None,None,0,375,375,375,,,,,,,,,,,,N004,digit,1,"['6', '7', '8', '9']","['1', '2', '3', '4']",1,2023.2.3,harveydigits,2.1,[],8,0.75,
6,digit,0.3,['dot'],['small_1'],black,0,376,376,376,,,134.00025606155396,133.7113540172577,134.01134705543518,"[[0.3360210275649119, -0.05877503802505665]]",['DejaVu Sans'],[0.6],,,,N004,digit,1,"['6', '7', '8', '9']","['1', '2', '3', '4']",1,2023.2.3,harveydigits,2.1,[],8,0.75,
0,pause,0.4,None,None,None,0,377,377,377,,,,,,,,,,,,N004,digit,1,"['6', '7', '8', '9']","['1', '2', '3', '4']",1,2023.2.3,harveydigits,2.1,[],8,0.75,
6,digit,0.3,['dot'],['small_1'],black,0,378,378,378,,,134.70025205612183,134.4113368988037,134.71133494377136,"[[-0.10808296791482841, 0.19953565999193956]]",['DejaVu Sans'],[0.6],,,,N004,digit,1,"['6', '7', '8', '9']","['1', '2', '3', '4']",1,2023.2.3,harveydigits,2.1,[],8,0.75,
0,pause,0.4,None,None,None,0,379,379,379,,,,,,,,,,,,N004,digit,1,"['6', '7', '8', '9']","['1', '2', '3', '4']",1,2023.2.3,harveydigits,2.1,[],8,0.75,
6,digit,0.3,['dot'],['small_1'],black,0,380,380,380,,,135.40025305747986,135.1113579273224,135.4112958908081,"[[0.15006432707628492, 0.03930393508959473]]",['DejaVu Sans'],[0.6],,,,N004,digit,1,"['6', '7', '8', '9']","['1', '2', '3', '4']",1,2023.2.3,harveydigits,2.1,[],8,0.75,
0,pause,0.4,None,None,None,0,381,381,381,,,,,,,,,,,,N004,digit,1,"['6', '7', '8', '9']","['1', '2', '3', '4']",1,2023.2.3,harveydigits,2.1,[],8,0.75,
6,digit,0.3,['dot'],['small_1'],black,0,382,382,382,,,136.10022592544556,135.81128096580505,136.11127400398254,"[[0.11673489135990078, 0.24876251557018303]]",['DejaVu Sans'],[0.6],,,,N004,digit,1,"['6', '7', '8', '9']","['1', '2', '3', '4']",1,2023.2.3,harveydigits,2.1,[],8,0.75,
0,pause,0.4,None,None,None,0,383,383,383,,,,,,,,,,,,N004,digit,1,"['6', '7', '8', '9']","['1', '2', '3', '4']",1,2023.2.3,harveydigits,2.1,[],8,0.75,
7,digit,0.3,['dot'],['small_1'],black,0,384,384,384,,,136.80023503303528,136.51128506660461,136.81147599220276,"[[0.2613140115634712, 0.19520510662173343]]",['DejaVu Sans'],[0.6],,,,N004,digit,1,"['6', '7', '8', '9']","['1', '2', '3', '4']",1,2023.2.3,harveydigits,2.1,[],8,0.75,
0,pause,0.4,None,None,None,0,385,385,385,,,,,,,,,,,,N004,digit,1,"['6', '7', '8', '9']","['1', '2', '3', '4']",1,2023.2.3,harveydigits,2.1,[],8,0.75,
7,digit,0.3,['dot'],['small_1'],black,0,386,386,386,,,137.50023293495178,137.21126103401184,137.51123189926147,"[[0.15844918859683654, 0.2048231544421491]]",['DejaVu Sans'],[0.6],,,,N004,digit,1,"['6', '7', '8', '9']","['1', '2', '3', '4']",1,2023.2.3,harveydigits,2.1,[],8,0.75,
0,pause,0.4,None,None,None,0,387,387,387,,,,,,,,,,,,N004,digit,1,"['6', '7', '8', '9']","['1', '2', '3', '4']",1,2023.2.3,harveydigits,2.1,[],8,0.75,
7,digit,0.3,['dot'],['small_1'],black,0,388,388,388,,,138.2002329826355,137.9112410545349,138.2112250328064,"[[0.3169922797904179, -0.035807366401490195]]",['DejaVu Sans'],[0.6],,,,N004,digit,1,"['6', '7', '8', '9']","['1', '2', '3', '4']",1,2023.2.3,harveydigits,2.1,[],8,0.75,
0,pause,0.4,None,None,None,0,389,389,389,,,,,,,,,,,,N004,digit,1,"['6', '7', '8', '9']","['1', '2', '3', '4']",1,2023.2.3,harveydigits,2.1,[],8,0.75,
7,digit,0.3,['dot'],['small_1'],black,0,390,390,390,,,138.9002320766449,138.61121106147766,138.91116499900818,"[[0.23044667993266166, -0.1407619099045581]]",['DejaVu Sans'],[0.6],,,,N004,digit,1,"['6', '7', '8', '9']","['1', '2', '3', '4']",1,2023.2.3,harveydigits,2.1,[],8,0.75,
0,pause,0.4,None,None,None,0,391,391,391,,,,,,,,,,,,N004,digit,1,"['6', '7', '8', '9']","['1', '2', '3', '4']",1,2023.2.3,harveydigits,2.1,[],8,0.75,
7,digit,0.3,['dot'],['small_1'],black,0,392,392,392,,,139.60024499893188,139.31115794181824,139.61115193367004,"[[0.21092040413314084, 0.1849037898178028]]",['DejaVu Sans'],[0.6],,,,N004,digit,1,"['6', '7', '8', '9']","['1', '2', '3', '4']",1,2023.2.3,harveydigits,2.1,[],8,0.75,
0,pause,0.4,None,None,None,0,393,393,393,,,,,,,,,,,,N004,digit,1,"['6', '7', '8', '9']","['1', '2', '3', '4']",1,2023.2.3,harveydigits,2.1,[],8,0.75,
7,digit,0.3,['dot'],['small_1'],black,0,394,394,394,,,140.3002278804779,140.01114988327026,140.31116104125977,"[[0.2103120324258022, -0.1882651144668388]]",['DejaVu Sans'],[0.6],,,,N004,digit,1,"['6', '7', '8', '9']","['1', '2', '3', '4']",1,2023.2.3,harveydigits,2.1,[],8,0.75,
0,pause,0.4,None,None,None,0,395,395,395,,,,,,,,,,,,N004,digit,1,"['6', '7', '8', '9']","['1', '2', '3', '4']",1,2023.2.3,harveydigits,2.1,[],8,0.75,
8,digit,0.3,['dot'],['small_1'],black,0,396,396,396,,,141.00023007392883,140.7111520767212,141.01112699508667,"[[0.09326435358330931, 0.21825776346347264]]",['DejaVu Sans'],[0.6],,,,N004,digit,1,"['6', '7', '8', '9']","['1', '2', '3', '4']",1,2023.2.3,harveydigits,2.1,[],8,0.75,
0,pause,0.4,None,None,None,0,397,397,397,,,,,,,,,,,,N004,digit,1,"['6', '7', '8', '9']","['1', '2', '3', '4']",1,2023.2.3,harveydigits,2.1,[],8,0.75,
8,digit,0.3,['dot'],['small_1'],black,0,398,398,398,,,141.70023488998413,141.411141872406,141.71112895011902,"[[0.2101596148054089, -0.2727714685286876]]",['DejaVu Sans'],[0.6],,,,N004,digit,1,"['6', '7', '8', '9']","['1', '2', '3', '4']",1,2023.2.3,harveydigits,2.1,[],8,0.75,
0,pause,0.4,None,None,None,0,399,399,399,,,,,,,,,,,,N004,digit,1,"['6', '7', '8', '9']","['1', '2', '3', '4']",1,2023.2.3,harveydigits,2.1,[],8,0.75,
8,digit,0.3,['dot'],['small_1'],black,0,400,400,400,,,142.40025687217712,142.11109590530396,142.41110396385193,"[[-0.14081166642066087, -0.2757528123200465]]",['DejaVu Sans'],[0.6],,,,N004,digit,1,"['6', '7', '8', '9']","['1', '2', '3', '4']",1,2023.2.3,harveydigits,2.1,[],8,0.75,
0,pause,0.4,None,None,None,0,401,401,401,,,,,,,,,,,,N004,digit,1,"['6', '7', '8', '9']","['1', '2', '3', '4']",1,2023.2.3,harveydigits,2.1,[],8,0.75,
8,digit,0.3,['dot'],['small_1'],black,0,402,402,402,,,143.1002299785614,142.81107306480408,143.11105394363403,"[[-0.20435219451255957, -0.025168921471189543]]",['DejaVu Sans'],[0.6],,,,N004,digit,1,"['6', '7', '8', '9']","['1', '2', '3', '4']",1,2023.2.3,harveydigits,2.1,[],8,0.75,
0,pause,0.4,None,None,None,0,403,403,403,,,,,,,,,,,,N004,digit,1,"['6', '7', '8', '9']","['1', '2', '3', '4']",1,2023.2.3,harveydigits,2.1,[],8,0.75,
8,digit,0.3,['dot'],['small_1'],black,0,404,404,404,,,143.8002290725708,143.51109099388123,143.81106901168823,"[[-0.0012102805144810769, 0.3057934223478914]]",['DejaVu Sans'],[0.6],,,,N004,digit,1,"['6', '7', '8', '9']","['1', '2', '3', '4']",1,2023.2.3,harveydigits,2.1,[],8,0.75,
0,pause,0.4,None,None,None,0,405,405,405,,,,,,,,,,,,N004,digit,1,"['6', '7', '8', '9']","['1', '2', '3', '4']",1,2023.2.3,harveydigits,2.1,[],8,0.75,
8,digit,0.3,['dot'],['small_1'],black,0,406,406,406,,,144.5002419948578,144.2110459804535,144.51105999946594,"[[0.0064016589738432605, 0.09899566671135107]]",['DejaVu Sans'],[0.6],,,,N004,digit,1,"['6', '7', '8', '9']","['1', '2', '3', '4']",1,2023.2.3,harveydigits,2.1,[],8,0.75,
0,pause,0.4,None,None,None,0,407,407,407,,,,,,,,,,,,N004,digit,1,"['6', '7', '8', '9']","['1', '2', '3', '4']",1,2023.2.3,harveydigits,2.1,[],8,0.75,
9,digit,0.3,['dot'],['small_1'],black,0,408,408,408,,,145.20023488998413,144.91104102134705,145.2110149860382,"[[0.0938684033710932, 0.24346715461805912]]",['DejaVu Sans'],[0.6],,,,N004,digit,1,"['6', '7', '8', '9']","['1', '2', '3', '4']",1,2023.2.3,harveydigits,2.1,[],8,0.75,
0,pause,0.4,None,None,None,0,409,409,409,,,,,,,,,,,,N004,digit,1,"['6', '7', '8', '9']","['1', '2', '3', '4']",1,2023.2.3,harveydigits,2.1,[],8,0.75,
9,digit,0.3,['dot'],['small_1'],black,0,410,410,410,,,145.90025901794434,145.61101603507996,145.91101098060608,"[[-0.26614374036255367, 0.004238735499902779]]",['DejaVu Sans'],[0.6],,,,N004,digit,1,"['6', '7', '8', '9']","['1', '2', '3', '4']",1,2023.2.3,harveydigits,2.1,[],8,0.75,
0,pause,0.4,None,None,None,0,411,411,411,,,,,,,,,,,,N004,digit,1,"['6', '7', '8', '9']","['1', '2', '3', '4']",1,2023.2.3,harveydigits,2.1,[],8,0.75,
9,digit,0.3,['dot'],['small_1'],black,0,412,412,412,,,146.60024094581604,146.31097888946533,146.61097288131714,"[[0.29483700531353674, -0.18695741641849709]]",['DejaVu Sans'],[0.6],,,,N004,digit,1,"['6', '7', '8', '9']","['1', '2', '3', '4']",1,2023.2.3,harveydigits,2.1,[],8,0.75,
0,pause,0.4,None,None,None,0,413,413,413,,,,,,,,,,,,N004,digit,1,"['6', '7', '8', '9']","['1', '2', '3', '4']",1,2023.2.3,harveydigits,2.1,[],8,0.75,
9,digit,0.3,['dot'],['small_1'],black,0,414,414,414,,,147.30025601387024,147.01098585128784,147.31098699569702,"[[-0.2085920456795668, 0.0707054810731591]]",['DejaVu Sans'],[0.6],,,,N004,digit,1,"['6', '7', '8', '9']","['1', '2', '3', '4']",1,2023.2.3,harveydigits,2.1,[],8,0.75,
0,pause,0.4,None,None,None,0,415,415,415,,,,,,,,,,,,N004,digit,1,"['6', '7', '8', '9']","['1', '2', '3', '4']",1,2023.2.3,harveydigits,2.1,[],8,0.75,
9,digit,0.3,['dot'],['small_1'],black,0,416,416,416,,,148.0002520084381,147.7111370563507,148.0109579563141,"[[0.006825853875177257, 0.3221240513690675]]",['DejaVu Sans'],[0.6],,,,N004,digit,1,"['6', '7', '8', '9']","['1', '2', '3', '4']",1,2023.2.3,harveydigits,2.1,[],8,0.75,
0,pause,0.4,None,None,None,0,417,417,417,,,,,,,,,,,,N004,digit,1,"['6', '7', '8', '9']","['1', '2', '3', '4']",1,2023.2.3,harveydigits,2.1,[],8,0.75,
9,digit,0.3,['dot'],['small_1'],black,0,418,418,418,,,148.70024299621582,148.41095900535583,148.71090388298035,"[[-0.21191367675856626, 0.03705591068020109]]",['DejaVu Sans'],[0.6],,,,N004,digit,1,"['6', '7', '8', '9']","['1', '2', '3', '4']",1,2023.2.3,harveydigits,2.1,[],8,0.75,
0,pause,0.4,None,None,None,0,419,419,419,,,,,,,,,,,,N004,digit,1,"['6', '7', '8', '9']","['1', '2', '3', '4']",1,2023.2.3,harveydigits,2.1,[],8,0.75,
20,digit,0.3,['dot'],['small_1'],black,0,420,420,420,,,149.4002468585968,149.11091208457947,149.4108898639679,"[[0.07788700902948714, 0.3144975188797232]]",['DejaVu Sans'],[0.6],,,,N004,digit,1,"['6', '7', '8', '9']","['1', '2', '3', '4']",1,2023.2.3,harveydigits,2.1,[],8,0.75,
0,pause,0.4,None,None,None,0,421,421,421,,,,,,,,,,,,N004,digit,1,"['6', '7', '8', '9']","['1', '2', '3', '4']",1,2023.2.3,harveydigits,2.1,[],8,0.75,
20,digit,0.3,['dot'],['small_1'],black,0,422,422,422,,,150.10023999214172,149.8108868598938,150.11088299751282,"[[0.022666892264568028, -0.20289290352058645]]",['DejaVu Sans'],[0.6],,,,N004,digit,1,"['6', '7', '8', '9']","['1', '2', '3', '4']",1,2023.2.3,harveydigits,2.1,[],8,0.75,
0,pause,0.4,None,None,None,0,423,423,423,,,,,,,,,,,,N004,digit,1,"['6', '7', '8', '9']","['1', '2', '3', '4']",1,2023.2.3,harveydigits,2.1,[],8,0.75,
20,digit,0.3,['dot'],['small_1'],black,0,424,424,424,,,150.8002610206604,150.51088404655457,150.81086492538452,"[[-0.08633944907078384, -0.10129175094880494]]",['DejaVu Sans'],[0.6],,,,N004,digit,1,"['6', '7', '8', '9']","['1', '2', '3', '4']",1,2023.2.3,harveydigits,2.1,[],8,0.75,
0,pause,0.4,None,None,None,0,425,425,425,,,,,,,,,,,,N004,digit,1,"['6', '7', '8', '9']","['1', '2', '3', '4']",1,2023.2.3,harveydigits,2.1,[],8,0.75,
20,digit,0.3,['dot'],['small_1'],black,0,426,426,426,,,151.50023198127747,151.21085596084595,151.51085591316223,"[[0.2805071616885454, 0.13208348919839663]]",['DejaVu Sans'],[0.6],,,,N004,digit,1,"['6', '7', '8', '9']","['1', '2', '3', '4']",1,2023.2.3,harveydigits,2.1,[],8,0.75,
0,pause,0.4,None,None,None,0,427,427,427,,,,,,,,,,,,N004,digit,1,"['6', '7', '8', '9']","['1', '2', '3', '4']",1,2023.2.3,harveydigits,2.1,[],8,0.75,
20,digit,0.3,['dot'],['small_1'],black,0,428,428,428,,,152.20024299621582,151.9108510017395,152.21083092689514,"[[-0.17051066296453735, 0.07795349157233572]]",['DejaVu Sans'],[0.6],,,,N004,digit,1,"['6', '7', '8', '9']","['1', '2', '3', '4']",1,2023.2.3,harveydigits,2.1,[],8,0.75,
0,pause,0.4,None,None,None,0,429,429,429,,,,,,,,,,,,N004,digit,1,"['6', '7', '8', '9']","['1', '2', '3', '4']",1,2023.2.3,harveydigits,2.1,[],8,0.75,
20,digit,0.3,['dot'],['small_1'],black,0,430,430,430,,,152.90024590492249,152.61083102226257,152.91080498695374,"[[0.12423874349033137, -0.21024610863556026]]",['DejaVu Sans'],[0.6],,,,N004,digit,1,"['6', '7', '8', '9']","['1', '2', '3', '4']",1,2023.2.3,harveydigits,2.1,[],8,0.75,
0,pause,0.4,None,None,None,0,431,431,431,,,,,,,,,,,,N004,digit,1,"['6', '7', '8', '9']","['1', '2', '3', '4']",1,2023.2.3,harveydigits,2.1,[],8,0.75,
20,digit,0.3,['dot'],['small_1'],black,0,432,432,432,,,153.60025191307068,153.31079506874084,153.6108000278473,"[[0.3198881580447691, -0.08840866908312354]]",['DejaVu Sans'],[0.6],,,,N004,digit,1,"['6', '7', '8', '9']","['1', '2', '3', '4']",1,2023.2.3,harveydigits,2.1,[],8,0.75,
0,pause,0.4,None,None,None,0,433,433,433,,,,,,,,,,,,N004,digit,1,"['6', '7', '8', '9']","['1', '2', '3', '4']",1,2023.2.3,harveydigits,2.1,[],8,0.75,
20,digit,0.3,['dot'],['small_1'],black,0,434,434,434,,,154.30025100708008,154.01085805892944,154.31082487106323,"[[0.21834246860769768, -0.06089392750694406]]",['DejaVu Sans'],[0.6],,,,N004,digit,1,"['6', '7', '8', '9']","['1', '2', '3', '4']",1,2023.2.3,harveydigits,2.1,[],8,0.75,
0,pause,0.4,None,None,None,0,435,435,435,,,,,,,,,,,,N004,digit,1,"['6', '7', '8', '9']","['1', '2', '3', '4']",1,2023.2.3,harveydigits,2.1,[],8,0.75,
20,digit,0.3,['dot'],['small_1'],black,0,436,436,436,,,155.0002419948578,154.7108190059662,155.01078391075134,"[[-0.2565582701976892, -0.07425837434805502]]",['DejaVu Sans'],[0.6],,,,N004,digit,1,"['6', '7', '8', '9']","['1', '2', '3', '4']",1,2023.2.3,harveydigits,2.1,[],8,0.75,
0,pause,0.4,None,None,None,0,437,437,437,,,,,,,,,,,,N004,digit,1,"['6', '7', '8', '9']","['1', '2', '3', '4']",1,2023.2.3,harveydigits,2.1,[],8,0.75,
20,digit,0.3,['dot'],['small_1'],black,0,438,438,438,,,155.70023894309998,155.4108259677887,155.71079897880554,"[[0.05895225664633419, 0.011984411638834902]]",['DejaVu Sans'],[0.6],,,,N004,digit,1,"['6', '7', '8', '9']","['1', '2', '3', '4']",1,2023.2.3,harveydigits,2.1,[],8,0.75,
0,pause,0.4,None,None,None,0,439,439,439,,,,,,,,,,,,N004,digit,1,"['6', '7', '8', '9']","['1', '2', '3', '4']",1,2023.2.3,harveydigits,2.1,[],8,0.75,
20,digit,0.3,['dot'],['small_1'],black,0,440,440,440,,,156.40024995803833,156.11076092720032,156.41088485717773,"[[-0.16917368395421678, 0.14113434067874076]]",['DejaVu Sans'],[0.6],,,,N004,digit,1,"['6', '7', '8', '9']","['1', '2', '3', '4']",1,2023.2.3,harveydigits,2.1,[],8,0.75,
0,pause,0.4,None,None,None,0,441,441,441,,,,,,,,,,,,N004,digit,1,"['6', '7', '8', '9']","['1', '2', '3', '4']",1,2023.2.3,harveydigits,2.1,[],8,0.75,
20,digit,0.3,['dot'],['small_1'],black,0,442,442,442,,,157.10026288032532,156.81075501441956,157.11085891723633,"[[0.03292622335225148, -0.11285146996723858]]",['DejaVu Sans'],[0.6],,,,N004,digit,1,"['6', '7', '8', '9']","['1', '2', '3', '4']",1,2023.2.3,harveydigits,2.1,[],8,0.75,
0,pause,0.4,None,None,None,0,443,443,443,,,,,,,,,,,,N004,digit,1,"['6', '7', '8', '9']","['1', '2', '3', '4']",1,2023.2.3,harveydigits,2.1,[],8,0.75,
20,digit,0.3,['dot'],['small_1'],black,0,444,444,444,,,157.80023503303528,157.51073098182678,157.81070804595947,"[[-0.21818383187809726, 0.2699275130291627]]",['DejaVu Sans'],[0.6],,,,N004,digit,1,"['6', '7', '8', '9']","['1', '2', '3', '4']",1,2023.2.3,harveydigits,2.1,[],8,0.75,
0,pause,0.4,None,None,None,0,445,445,445,,,,,,,,,,,,N004,digit,1,"['6', '7', '8', '9']","['1', '2', '3', '4']",1,2023.2.3,harveydigits,2.1,[],8,0.75,
20,digit,0.3,['dot'],['small_1'],black,0,446,446,446,,,158.50024700164795,158.21073293685913,158.51069903373718,"[[-0.3060751591853786, -0.10148529252532938]]",['DejaVu Sans'],[0.6],,,,N004,digit,1,"['6', '7', '8', '9']","['1', '2', '3', '4']",1,2023.2.3,harveydigits,2.1,[],8,0.75,
0,pause,0.4,None,None,None,0,447,447,447,,,,,,,,,,,,N004,digit,1,"['6', '7', '8', '9']","['1', '2', '3', '4']",1,2023.2.3,harveydigits,2.1,[],8,0.75,
20,digit,0.3,['dot'],['small_1'],black,0,448,448,448,,,159.20023798942566,158.91069197654724,159.21064591407776,"[[-0.34372583896171094, 0.038663331365682174]]",['DejaVu Sans'],[0.6],,,,N004,digit,1,"['6', '7', '8', '9']","['1', '2', '3', '4']",1,2023.2.3,harveydigits,2.1,[],8,0.75,
0,pause,0.4,None,None,None,0,449,449,449,,,,,,,,,,,,N004,digit,1,"['6', '7', '8', '9']","['1', '2', '3', '4']",1,2023.2.3,harveydigits,2.1,[],8,0.75,
20,digit,0.3,['dot'],['small_1'],black,0,450,450,450,,,159.900249004364,159.61072087287903,159.910630941391,"[[0.315443647612062, 0.10635185618524282]]",['DejaVu Sans'],[0.6],,,,N004,digit,1,"['6', '7', '8', '9']","['1', '2', '3', '4']",1,2023.2.3,harveydigits,2.1,[],8,0.75,
0,pause,0.4,None,None,None,0,451,451,451,,,,,,,,,,,,N004,digit,1,"['6', '7', '8', '9']","['1', '2', '3', '4']",1,2023.2.3,harveydigits,2.1,[],8,0.75,
20,digit,0.3,['dot'],['small_1'],black,0,452,452,452,,,160.60024404525757,160.31066799163818,160.6106059551239,"[[-0.289221266641813, -0.19224148258499832]]",['DejaVu Sans'],[0.6],,,,N004,digit,1,"['6', '7', '8', '9']","['1', '2', '3', '4']",1,2023.2.3,harveydigits,2.1,[],8,0.75,
0,pause,0.4,None,None,None,0,453,453,453,,,,,,,,,,,,N004,digit,1,"['6', '7', '8', '9']","['1', '2', '3', '4']",1,2023.2.3,harveydigits,2.1,[],8,0.75,
20,digit,0.3,['dot'],['small_1'],black,0,454,454,454,,,161.30023288726807,161.01067686080933,161.31066298484802,"[[0.04122473126312859, 0.005272882349311392]]",['DejaVu Sans'],[0.6],,,,N004,digit,1,"['6', '7', '8', '9']","['1', '2', '3', '4']",1,2023.2.3,harveydigits,2.1,[],8,0.75,
0,pause,0.4,None,None,None,0,455,455,455,,,,,,,,,,,,N004,digit,1,"['6', '7', '8', '9']","['1', '2', '3', '4']",1,2023.2.3,harveydigits,2.1,[],8,0.75,
20,digit,0.3,['dot'],['small_1'],black,0,456,456,456,,,162.00026202201843,161.71064496040344,162.0106439590454,"[[-0.21765415678653577, -0.17581335805205586]]",['DejaVu Sans'],[0.6],,,,N004,digit,1,"['6', '7', '8', '9']","['1', '2', '3', '4']",1,2023.2.3,harveydigits,2.1,[],8,0.75,
0,pause,0.4,None,None,None,0,457,457,457,,,,,,,,,,,,N004,digit,1,"['6', '7', '8', '9']","['1', '2', '3', '4']",1,2023.2.3,harveydigits,2.1,[],8,0.75,
20,digit,0.3,['dot'],['small_1'],black,0,458,458,458,,,162.7002408504486,162.41063404083252,162.71061491966248,"[[-0.13232496404841165, -0.2966684784049723]]",['DejaVu Sans'],[0.6],,,,N004,digit,1,"['6', '7', '8', '9']","['1', '2', '3', '4']",1,2023.2.3,harveydigits,2.1,[],8,0.75,
0,pause,0.4,None,None,None,0,459,459,459,,,,,,,,,,,,N004,digit,1,"['6', '7', '8', '9']","['1', '2', '3', '4']",1,2023.2.3,harveydigits,2.1,[],8,0.75,
20,digit,0.3,['dot'],['small_1'],black,0,460,460,460,,,163.40025305747986,163.11056089401245,163.4105360507965,"[[0.32108405816751884, 0.11844200956259468]]",['DejaVu Sans'],[0.6],,,,N004,digit,1,"['6', '7', '8', '9']","['1', '2', '3', '4']",1,2023.2.3,harveydigits,2.1,[],8,0.75,
0,pause,0.4,None,None,None,0,461,461,461,,,,,,,,,,,,N004,digit,1,"['6', '7', '8', '9']","['1', '2', '3', '4']",1,2023.2.3,harveydigits,2.1,[],8,0.75,
20,digit,0.3,['dot'],['small_1'],black,0,462,462,462,,,164.1002640724182,163.8105309009552,164.11058497428894,"[[-0.3049599543439296, -0.013398785427221949]]",['DejaVu Sans'],[0.6],,,,N004,digit,1,"['6', '7', '8', '9']","['1', '2', '3', '4']",1,2023.2.3,harveydigits,2.1,[],8,0.75,
0,pause,0.4,None,None,None,0,463,463,463,,,,,,,,,,,,N004,digit,1,"['6', '7', '8', '9']","['1', '2', '3', '4']",1,2023.2.3,harveydigits,2.1,[],8,0.75,
