num,mod,duration,shape,ll_cond,colors,.thisRepN,.thisTrialN,.thisN,.thisIndex,thisRow.t,notes,raw_global_time,t_start,t_stop,shapes,size,pos,cond,color,button,RT,participant,session,starting_run,left button (match/odd),right button (non-match/even),samples_per_block,psychopy version,expName,offset,audio,number_runs,radius,
1,dot,0.3,['dot'],['density'],black,0,0,0,0,,,2.400196075439453,2.107279062271118,2.4071879386901855,dot,[0.08],"[-0.31757534052014, 0.30709612076893067]",density,black,,,N012,visual,1,[],"['1', '2', '3', '4']",1,2023.2.3,harveyvisual,2.1,[],8,0.75,
0,pause,0.4,None,None,None,0,1,1,1,,,,,,,,,,,,,N012,visual,1,[],"['1', '2', '3', '4']",1,2023.2.3,harveyvisual,2.1,[],8,0.75,
1,dot,0.3,['dot'],['density'],black,0,2,2,2,,,3.100214958190918,2.807204008102417,3.1076440811157227,dot,[0.1],"[0.5163804524385218, 0.172353611070521]",density,black,,,N012,visual,1,[],"['1', '2', '3', '4']",1,2023.2.3,harveyvisual,2.1,[],8,0.75,
0,pause,0.4,None,None,None,0,3,3,3,,,,,,,,,,,,,N012,visual,1,[],"['1', '2', '3', '4']",1,2023.2.3,harveyvisual,2.1,[],8,0.75,
1,dot,0.3,['dot'],['density'],black,0,4,4,4,,,3.8001959323883057,3.507786989212036,3.8076679706573486,dot,[0.08],"[0.14557363600905707, -0.03994760510263185]",density,black,,,N012,visual,1,[],"['1', '2', '3', '4']",1,2023.2.3,harveyvisual,2.1,[],8,0.75,
0,pause,0.4,None,None,None,0,5,5,5,,,,,,,,,,,,,N012,visual,1,[],"['1', '2', '3', '4']",1,2023.2.3,harveyvisual,2.1,[],8,0.75,
1,dot,0.3,['dot'],['density'],black,0,6,6,6,,,4.500212907791138,4.207746982574463,4.507698059082031,dot,[0.08],"[0.0038807231877187303, -0.2777732366953785]",density,black,,,N012,visual,1,[],"['1', '2', '3', '4']",1,2023.2.3,harveyvisual,2.1,[],8,0.75,
0,pause,0.4,None,None,None,0,7,7,7,,,,,,,,,,,,,N012,visual,1,[],"['1', '2', '3', '4']",1,2023.2.3,harveyvisual,2.1,[],8,0.75,
1,dot,0.3,['dot'],['density'],black,0,8,8,8,,,5.2001988887786865,4.907617092132568,5.207666873931885,dot,[0.06],"[0.30758596680771827, -0.21275106234766314]",density,black,,,N012,visual,1,[],"['1', '2', '3', '4']",1,2023.2.3,harveyvisual,2.1,[],8,0.75,
0,pause,0.4,None,None,None,0,9,9,9,,,,,,,,,,,,,N012,visual,1,[],"['1', '2', '3', '4']",1,2023.2.3,harveyvisual,2.1,[],8,0.75,
1,dot,0.3,['dot'],['density'],black,0,10,10,10,,,5.900222063064575,5.607666969299316,5.909943103790283,dot,[0.1],"[-0.30422713965878023, 0.0739284850406325]",density,black,,,N012,visual,1,[],"['1', '2', '3', '4']",1,2023.2.3,harveyvisual,2.1,[],8,0.75,
0,pause,0.4,None,None,None,0,11,11,11,,,,,,,,,,,,,N012,visual,1,[],"['1', '2', '3', '4']",1,2023.2.3,harveyvisual,2.1,[],8,0.75,
2,dot,0.3,['dot'],['density'],black,0,12,12,12,,,6.600210905075073,6.3099329471588135,6.610034942626953,dot,"[0.1, 0.06]","[[0.4101371699595759, -0.046236245446824746], [0.42481245787877703, -0.24684889303111815]]",density,black,,,N012,visual,1,[],"['1', '2', '3', '4']",1,2023.2.3,harveyvisual,2.1,[],8,0.75,
0,pause,0.4,None,None,None,0,13,13,13,,,,,,,,,,,,,N012,visual,1,[],"['1', '2', '3', '4']",1,2023.2.3,harveyvisual,2.1,[],8,0.75,
2,dot,0.3,['dot'],['density'],black,0,14,14,14,,,7.300215005874634,7.009865999221802,7.30985689163208,dot,"[0.1, 0.08]","[[0.02987007740145294, 0.4330921892138179], [-0.1698845640653836, 0.4119973540264252]]",density,black,,,N012,visual,1,[],"['1', '2', '3', '4']",1,2023.2.3,harveyvisual,2.1,[],8,0.75,
0,pause,0.4,None,None,None,0,15,15,15,,,,,,,,,,,,,N012,visual,1,[],"['1', '2', '3', '4']",1,2023.2.3,harveyvisual,2.1,[],8,0.75,
2,dot,0.3,['dot'],['density'],white,0,16,16,16,,,8.000216007232666,7.709851026535034,8.009878873825073,dot,"[0.08, 0.1]","[[-0.19266755722762574, -0.036106715323925336], [-0.096675332858716, 0.13967695308521302]]",density,white,,,N012,visual,1,[],"['1', '2', '3', '4']",1,2023.2.3,harveyvisual,2.1,[],8,0.75,
0,pause,0.4,None,None,None,0,17,17,17,,,,,,,,,,,1,8.182355880737305,N012,visual,1,[],"['1', '2', '3', '4']",1,2023.2.3,harveyvisual,2.1,[],8,0.75,
2,dot,0.3,['dot'],['density'],black,0,18,18,18,,,8.700212955474854,8.409875869750977,8.709919929504395,dot,"[0.06, 0.1]","[[0.1652621768884792, -0.40183218801656556], [-0.03337249546828684, -0.4281924369736378]]",density,black,,,N012,visual,1,[],"['1', '2', '3', '4']",1,2023.2.3,harveyvisual,2.1,[],8,0.75,
0,pause,0.4,None,None,None,0,19,19,19,,,,,,,,,,,,,N012,visual,1,[],"['1', '2', '3', '4']",1,2023.2.3,harveyvisual,2.1,[],8,0.75,
2,dot,0.3,['dot'],['density'],black,0,20,20,20,,,9.400199890136719,9.109838008880615,9.409820079803467,dot,"[0.1, 0.1]","[[0.45098141687762733, -0.20237638590572143], [0.5433504117931098, -0.02475258047346216]]",density,black,,,N012,visual,1,[],"['1', '2', '3', '4']",1,2023.2.3,harveyvisual,2.1,[],8,0.75,
0,pause,0.4,None,None,None,0,21,21,21,,,,,,,,,,,,,N012,visual,1,[],"['1', '2', '3', '4']",1,2023.2.3,harveyvisual,2.1,[],8,0.75,
2,dot,0.3,['dot'],['density'],black,0,22,22,22,,,10.100203037261963,9.809845924377441,10.109813928604126,dot,"[0.1, 0.06]","[[0.02987007740145294, 0.4330921892138179], [-0.1698845640653836, 0.4119973540264252]]",density,black,,,N012,visual,1,[],"['1', '2', '3', '4']",1,2023.2.3,harveyvisual,2.1,[],8,0.75,
0,pause,0.4,None,None,None,0,23,23,23,,,,,,,,,,,,,N012,visual,1,[],"['1', '2', '3', '4']",1,2023.2.3,harveyvisual,2.1,[],8,0.75,
3,dot,0.3,['dot'],['density'],black,0,24,24,24,,,10.800221920013428,10.509805917739868,10.809765100479126,dot,"[0.1, 0.1, 0.06]","[[0.315495050057846, 0.10724904305018564], [0.5180852452909619, 0.013799590611742229], [0.3819545826159732, -0.1334380777916547]]",density,black,,,N012,visual,1,[],"['1', '2', '3', '4']",1,2023.2.3,harveyvisual,2.1,[],8,0.75,
0,pause,0.4,None,None,None,0,25,25,25,,,,,,,,,,,,,N012,visual,1,[],"['1', '2', '3', '4']",1,2023.2.3,harveyvisual,2.1,[],8,0.75,
3,dot,0.3,['dot'],['density'],white,0,26,26,26,,,11.500204086303711,11.209826946258545,11.509806871414185,dot,"[0.08, 0.1, 0.06]","[[0.35100391059830643, -0.4491085892346253], [0.13011513135189492, -0.5590284990295896], [0.16905753934955023, -0.35714526366544236]]",density,white,,,N012,visual,1,[],"['1', '2', '3', '4']",1,2023.2.3,harveyvisual,2.1,[],8,0.75,
0,pause,0.4,None,None,None,0,27,27,27,,,,,,,,,,,1,11.651737928390503,N012,visual,1,[],"['1', '2', '3', '4']",1,2023.2.3,harveyvisual,2.1,[],8,0.75,
3,dot,0.3,['dot'],['density'],white,0,28,28,28,,,12.200208902359009,11.909756898880005,12.209764957427979,dot,"[0.1, 0.08, 0.06]","[[0.2656832518280197, 0.0014864193765316018], [0.3503107158811183, -0.1826455867164705], [0.5188928509039705, -0.04177453376365527]]",density,white,,,N012,visual,1,[],"['1', '2', '3', '4']",1,2023.2.3,harveyvisual,2.1,[],8,0.75,
0,pause,0.4,None,None,None,0,29,29,29,,,,,,,,,,,1,12.330075979232788,N012,visual,1,[],"['1', '2', '3', '4']",1,2023.2.3,harveyvisual,2.1,[],8,0.75,
3,dot,0.3,['dot'],['density'],black,0,30,30,30,,,12.900219917297363,12.60975193977356,12.910012006759644,dot,"[0.1, 0.1, 0.06]","[[0.4290032298944087, 0.1407520187648592], [0.22848299553954127, 0.06362144779139585], [0.3595680574788582, -0.09433362503040832]]",density,black,,,N012,visual,1,[],"['1', '2', '3', '4']",1,2023.2.3,harveyvisual,2.1,[],8,0.75,
0,pause,0.4,None,None,None,0,31,31,31,,,,,,,,,,,,,N012,visual,1,[],"['1', '2', '3', '4']",1,2023.2.3,harveyvisual,2.1,[],8,0.75,
3,dot,0.3,['dot'],['density'],black,0,32,32,32,,,13.600199937820435,13.30974006652832,13.609716892242432,dot,"[0.06, 0.08, 0.08]","[[-0.10589639487257244, 0.35295021258352427], [0.12780035046084517, 0.3479378296372768], [0.013663645537612555, 0.51889388118174]]",density,black,,,N012,visual,1,[],"['1', '2', '3', '4']",1,2023.2.3,harveyvisual,2.1,[],8,0.75,
0,pause,0.4,None,None,None,0,33,33,33,,,,,,,,,,,,,N012,visual,1,[],"['1', '2', '3', '4']",1,2023.2.3,harveyvisual,2.1,[],8,0.75,
3,dot,0.3,['dot'],['density'],black,0,34,34,34,,,14.300204038619995,14.009702920913696,14.309694051742554,dot,"[0.06, 0.1, 0.1]","[[0.48628142840140876, 0.1515230430224543], [0.28796188866220057, 0.19625725416133796], [0.3371406364253883, -0.002661880310138811]]",density,black,,,N012,visual,1,[],"['1', '2', '3', '4']",1,2023.2.3,harveyvisual,2.1,[],8,0.75,
0,pause,0.4,None,None,None,0,35,35,35,,,,,,,,,,,,,N012,visual,1,[],"['1', '2', '3', '4']",1,2023.2.3,harveyvisual,2.1,[],8,0.75,
4,dot,0.3,['dot'],['density'],black,0,36,36,36,,,15.000212907791138,14.709683895111084,15.009742021560669,dot,"[0.1, 0.1, 0.06, 0.08]","[[0.0015408600658227804, 0.35051751062746694], [-0.20674122870780898, 0.3211588031025307], [-0.08430622538187964, 0.13383917563087117], [0.1780252705082131, 0.19175915241248492]]",density,black,,,N012,visual,1,[],"['1', '2', '3', '4']",1,2023.2.3,harveyvisual,2.1,[],8,0.75,
0,pause,0.4,None,None,None,0,37,37,37,,,,,,,,,,,,,N012,visual,1,[],"['1', '2', '3', '4']",1,2023.2.3,harveyvisual,2.1,[],8,0.75,
4,dot,0.3,['dot'],['density'],black,0,38,38,38,,,15.700222969055176,15.40968108177185,15.709656953811646,dot,"[0.1, 0.08, 0.1, 0.06]","[[0.1665887267295909, 0.08389582001604734], [0.4584359263982055, 0.26405512465689546], [0.4157764543415929, 0.03513878013061779], [0.2392225064082761, 0.29777239984320175]]",density,black,,,N012,visual,1,[],"['1', '2', '3', '4']",1,2023.2.3,harveyvisual,2.1,[],8,0.75,
0,pause,0.4,None,None,None,0,39,39,39,,,,,,,,,,,,,N012,visual,1,[],"['1', '2', '3', '4']",1,2023.2.3,harveyvisual,2.1,[],8,0.75,
4,dot,0.3,['dot'],['density'],black,0,40,40,40,,,16.40020990371704,16.109637022018433,16.409630060195923,dot,"[0.1, 0.1, 0.08, 0.06]","[[0.2541297109701026, -0.03410267595110144], [0.396116024817599, -0.19002287009394117], [0.4303711222235913, 0.2602585224666286], [0.4446461975978109, 0.027516111316963392]]",density,black,,,N012,visual,1,[],"['1', '2', '3', '4']",1,2023.2.3,harveyvisual,2.1,[],8,0.75,
0,pause,0.4,None,None,None,0,41,41,41,,,,,,,,,,,,,N012,visual,1,[],"['1', '2', '3', '4']",1,2023.2.3,harveyvisual,2.1,[],8,0.75,
4,dot,0.3,['dot'],['density'],black,0,42,42,42,,,17.100214958190918,16.809634923934937,17.109673023223877,dot,"[0.06, 0.1, 0.1, 0.08]","[[0.28769160010247724, 0.4706884012140322], [0.03735362687931127, 0.4645781312677133], [0.33102019499247487, 0.1847810932959147], [0.1685132699603264, 0.30497059043407926]]",density,black,,,N012,visual,1,[],"['1', '2', '3', '4']",1,2023.2.3,harveyvisual,2.1,[],8,0.75,
0,pause,0.4,None,None,None,0,43,43,43,,,,,,,,,,,,,N012,visual,1,[],"['1', '2', '3', '4']",1,2023.2.3,harveyvisual,2.1,[],8,0.75,
4,dot,0.3,['dot'],['density'],black,0,44,44,44,,,17.800221920013428,17.50965189933777,17.809594869613647,dot,"[0.1, 0.08, 0.06, 0.06]","[[0.37520814465037905, -0.4432880181017862], [0.4692830223283075, -0.19655799526205012], [0.3063896805601884, -0.036788685454167226], [0.2471196723673293, -0.2344474043623998]]",density,black,,,N012,visual,1,[],"['1', '2', '3', '4']",1,2023.2.3,harveyvisual,2.1,[],8,0.75,
0,pause,0.4,None,None,None,0,45,45,45,,,,,,,,,,,,,N012,visual,1,[],"['1', '2', '3', '4']",1,2023.2.3,harveyvisual,2.1,[],8,0.75,
4,dot,0.3,['dot'],['density'],black,0,46,46,46,,,18.50019907951355,18.209573984146118,18.509571075439453,dot,"[0.06, 0.08, 0.06, 0.06]","[[0.3225849294362846, -0.13157286681700714], [0.2615083713376798, -0.38790318245483907], [0.48399895238698887, -0.2981397300552969], [0.514252162939949, -0.043630752066028525]]",density,black,,,N012,visual,1,[],"['1', '2', '3', '4']",1,2023.2.3,harveyvisual,2.1,[],8,0.75,
0,pause,0.4,None,None,None,0,47,47,47,,,,,,,,,,,,,N012,visual,1,[],"['1', '2', '3', '4']",1,2023.2.3,harveyvisual,2.1,[],8,0.75,
5,dot,0.3,['dot'],['density'],black,0,48,48,48,,,19.20022487640381,18.90955901145935,19.20956301689148,dot,"[0.1, 0.1, 0.06, 0.08, 0.1]","[[-0.08538919239777085, -0.3767281323802813], [0.14382612128503536, -0.4947333592336123], [0.2503732289573559, -0.06783159190520484], [0.07777572498152553, -0.21879460077906046], [0.26544561712664855, -0.2975172507008621]]",density,black,,,N012,visual,1,[],"['1', '2', '3', '4']",1,2023.2.3,harveyvisual,2.1,[],8,0.75,
0,pause,0.4,None,None,None,0,49,49,49,,,,,,,,,,,,,N012,visual,1,[],"['1', '2', '3', '4']",1,2023.2.3,harveyvisual,2.1,[],8,0.75,
5,dot,0.3,['dot'],['density'],black,0,50,50,50,,,19.900213956832886,19.60960292816162,19.909586906433105,dot,"[0.1, 0.1, 0.1, 0.1, 0.06]","[[-0.16255238243643175, 0.17860987090823105], [-0.3708934258622909, -0.17994308192218272], [-0.3873401471382859, 0.23755408526324856], [-0.3082462149465763, 0.01808515368093923], [-0.09381294098683406, -0.04001219282613638]]",density,black,,,N012,visual,1,[],"['1', '2', '3', '4']",1,2023.2.3,harveyvisual,2.1,[],8,0.75,
0,pause,0.4,None,None,None,0,51,51,51,,,,,,,,,,,,,N012,visual,1,[],"['1', '2', '3', '4']",1,2023.2.3,harveyvisual,2.1,[],8,0.75,
5,dot,0.3,['dot'],['density'],black,0,52,52,52,,,20.600205898284912,20.309575080871582,20.609559059143066,dot,"[0.1, 0.1, 0.08, 0.1, 0.08]","[[-0.3593586909609717, -0.014123405231526708], [-0.016214713675271986, 0.25764317450247104], [-0.14180258575993823, 0.0328893580167688], [-0.4739301778776912, 0.15719809156630632], [-0.2718601341595813, 0.23222304362681612]]",density,black,,,N012,visual,1,[],"['1', '2', '3', '4']",1,2023.2.3,harveyvisual,2.1,[],8,0.75,
0,pause,0.4,None,None,None,0,53,53,53,,,,,,,,,,,,,N012,visual,1,[],"['1', '2', '3', '4']",1,2023.2.3,harveyvisual,2.1,[],8,0.75,
5,dot,0.3,['dot'],['density'],black,0,54,54,54,,,21.30022692680359,21.009577989578247,21.30952787399292,dot,"[0.06, 0.06, 0.08, 0.1, 0.1]","[[0.2075830250205083, 0.5448960418430373], [0.010600229768786232, 0.45420498888786176], [-0.10187712889758427, 0.28364076042242115], [0.1691377395635631, 0.293820614486451], [-0.2596336492265815, 0.40815120909286945]]",density,black,,,N012,visual,1,[],"['1', '2', '3', '4']",1,2023.2.3,harveyvisual,2.1,[],8,0.75,
0,pause,0.4,None,None,None,0,55,55,55,,,,,,,,,,,,,N012,visual,1,[],"['1', '2', '3', '4']",1,2023.2.3,harveyvisual,2.1,[],8,0.75,
5,dot,0.3,['dot'],['density'],white,0,56,56,56,,,22.000219106674194,21.709527015686035,22.00967288017273,dot,"[0.06, 0.06, 0.06, 0.08, 0.08]","[[0.33660852042816714, -0.448935078303268], [0.16237328695183198, -0.028906365321866932], [0.003149504206933677, -0.1844463225559013], [0.4065340125681681, -0.22407981263326276], [0.20027486954239768, -0.2346061295568129]]",density,white,,,N012,visual,1,[],"['1', '2', '3', '4']",1,2023.2.3,harveyvisual,2.1,[],8,0.75,
0,pause,0.4,None,None,None,0,57,57,57,,,,,,,,,,,1,22.187262058258057,N012,visual,1,[],"['1', '2', '3', '4']",1,2023.2.3,harveyvisual,2.1,[],8,0.75,
5,dot,0.3,['dot'],['density'],black,0,58,58,58,,,22.70021104812622,22.409538984298706,22.709475994110107,dot,"[0.06, 0.06, 0.1, 0.08, 0.08]","[[-0.16893136043895146, -0.20127892763881453], [-0.5727216740452047, -0.07682091551650742], [-0.343702592036276, -0.060533526953518955], [-0.5038383983260774, 0.15268268748871192], [-0.379488354443274, -0.2704310218069364]]",density,black,,,N012,visual,1,[],"['1', '2', '3', '4']",1,2023.2.3,harveyvisual,2.1,[],8,0.75,
0,pause,0.4,None,None,None,0,59,59,59,,,,,,,,,,,,,N012,visual,1,[],"['1', '2', '3', '4']",1,2023.2.3,harveyvisual,2.1,[],8,0.75,
6,dot,0.3,['dot'],['density'],black,0,60,60,60,,,23.400211095809937,23.109488010406494,23.409472942352295,dot,"[0.1, 0.06, 0.1, 0.06, 0.06, 0.06]","[[-0.4130096743352808, -0.09152271377164663], [-0.19778223104980006, -0.03862987845790588], [-0.5782793278508197, 0.04067119283421001], [-0.2942915267906656, -0.3673297053134895], [-0.33560074172492643, 0.119885218799542], [-0.5263932498355091, -0.25924495598585295]]",density,black,,,N012,visual,1,[],"['1', '2', '3', '4']",1,2023.2.3,harveyvisual,2.1,[],8,0.75,
0,pause,0.4,None,None,None,0,61,61,61,,,,,,,,,,,,,N012,visual,1,[],"['1', '2', '3', '4']",1,2023.2.3,harveyvisual,2.1,[],8,0.75,
6,dot,0.3,['dot'],['density'],black,0,62,62,62,,,24.100213050842285,23.809442043304443,24.109467029571533,dot,"[0.08, 0.1, 0.06, 0.06, 0.08, 0.08]","[[-0.4718675517483807, -0.080313523620691], [-0.31247550484642445, -0.23218356379105512], [-0.2575593735283343, 0.24158811959194182], [-0.2948669609652105, 0.017652028830845004], [-0.0883702388727292, 0.027494606567874856], [-0.45154527444290743, 0.17691331155056722]]",density,black,,,N012,visual,1,[],"['1', '2', '3', '4']",1,2023.2.3,harveyvisual,2.1,[],8,0.75,
0,pause,0.4,None,None,None,0,63,63,63,,,,,,,,,,,,,N012,visual,1,[],"['1', '2', '3', '4']",1,2023.2.3,harveyvisual,2.1,[],8,0.75,
6,dot,0.3,['dot'],['density'],black,0,64,64,64,,,24.80020809173584,24.509466886520386,24.809433937072754,dot,"[0.1, 0.1, 0.06, 0.06, 0.06, 0.06]","[[-0.2715212558254698, 0.2586056842756752], [-0.41011716394998093, -0.23288273174477314], [-0.4259032553852052, 0.02963770343160952], [-0.037696467485790364, -0.07921729390734374], [-0.19058944014171011, 0.07565381115733183], [-0.22931220879523878, -0.14417898787482208]]",density,black,,,N012,visual,1,[],"['1', '2', '3', '4']",1,2023.2.3,harveyvisual,2.1,[],8,0.75,
0,pause,0.4,None,None,None,0,65,65,65,,,,,,,,,,,,,N012,visual,1,[],"['1', '2', '3', '4']",1,2023.2.3,harveyvisual,2.1,[],8,0.75,
6,dot,0.3,['dot'],['density'],black,0,66,66,66,,,25.500205039978027,25.209436893463135,25.50955891609192,dot,"[0.06, 0.1, 0.1, 0.08, 0.08, 0.08]","[[0.01776890784276672, 0.3448500499300058], [-0.18238616215991446, 0.4840889924469993], [-0.2129582374372363, 0.07157874559070018], [-0.41549008775918617, 0.14353268657608398], [0.019487844458329944, 0.1389587799501653], [-0.21004805074000235, 0.2837936954907191]]",density,black,,,N012,visual,1,[],"['1', '2', '3', '4']",1,2023.2.3,harveyvisual,2.1,[],8,0.75,
0,pause,0.4,None,None,None,0,67,67,67,,,,,,,,,,,,,N012,visual,1,[],"['1', '2', '3', '4']",1,2023.2.3,harveyvisual,2.1,[],8,0.75,
6,dot,0.3,['dot'],['density'],black,0,68,68,68,,,26.200217962265015,25.90955901145935,26.209434032440186,dot,"[0.08, 0.1, 0.06, 0.1, 0.08, 0.06]","[[-0.2715212558254698, 0.2586056842756752], [-0.41011716394998093, -0.23288273174477314], [-0.4259032553852052, 0.02963770343160952], [-0.037696467485790364, -0.07921729390734374], [-0.19058944014171011, 0.07565381115733183], [-0.22931220879523878, -0.14417898787482208]]",density,black,,,N012,visual,1,[],"['1', '2', '3', '4']",1,2023.2.3,harveyvisual,2.1,[],8,0.75,
0,pause,0.4,None,None,None,0,69,69,69,,,,,,,,,,,,,N012,visual,1,[],"['1', '2', '3', '4']",1,2023.2.3,harveyvisual,2.1,[],8,0.75,
6,dot,0.3,['dot'],['density'],black,0,70,70,70,,,26.900216102600098,26.609410047531128,26.909374952316284,dot,"[0.1, 0.08, 0.06, 0.08, 0.08, 0.1]","[[-0.5416753121247185, 0.020803147184574915], [-0.3232269173664433, -0.07161231053200118], [-0.3008479376061402, -0.286480119217458], [-0.22299540496279888, 0.12470258063391813], [-0.10776740766186912, -0.19554033341247495], [-0.5165544979209102, -0.21376225914528924]]",density,black,,,N012,visual,1,[],"['1', '2', '3', '4']",1,2023.2.3,harveyvisual,2.1,[],8,0.75,
0,pause,0.4,None,None,None,0,71,71,71,,,,,,,,,,,,,N012,visual,1,[],"['1', '2', '3', '4']",1,2023.2.3,harveyvisual,2.1,[],8,0.75,
7,dot,0.3,['dot'],['density'],black,0,72,72,72,,,27.600215911865234,27.309348106384277,27.60938787460327,dot,"[0.06, 0.08, 0.08, 0.06, 0.06, 0.08, 0.1]","[[-0.03978284138183809, -0.43963729991580147], [0.2770736023028816, -0.4460091285183096], [0.4264240077257641, -0.26124456405115876], [0.04351789842027954, -0.004572294527936195], [0.08491707485555088, -0.26540219852266356], [0.2274622265833728, -0.10044916879814345], [0.4232844185721205, -0.050742783717769746]]",density,black,,,N012,visual,1,[],"['1', '2', '3', '4']",1,2023.2.3,harveyvisual,2.1,[],8,0.75,
0,pause,0.4,None,None,None,0,73,73,73,,,,,,,,,,,,,N012,visual,1,[],"['1', '2', '3', '4']",1,2023.2.3,harveyvisual,2.1,[],8,0.75,
7,dot,0.3,['dot'],['density'],black,0,74,74,74,,,28.300218105316162,28.009347915649414,28.309314966201782,dot,"[0.08, 0.08, 0.1, 0.1, 0.08, 0.1, 0.06]","[[-0.0015444251822213466, 0.17452400993182896], [-0.3864233363803332, 0.3856338194384884], [-0.45841970572989144, 0.11901701190004808], [-0.23552014845846486, 0.11986313412455778], [-0.06694767956243396, -0.029831379541550785], [-0.3576154478026905, -0.11072010138878656], [-0.17113735677840214, 0.37123035181888253]]",density,black,,,N012,visual,1,[],"['1', '2', '3', '4']",1,2023.2.3,harveyvisual,2.1,[],8,0.75,
0,pause,0.4,None,None,None,0,75,75,75,,,,,,,,,,,,,N012,visual,1,[],"['1', '2', '3', '4']",1,2023.2.3,harveyvisual,2.1,[],8,0.75,
7,dot,0.3,['dot'],['density'],black,0,76,76,76,,,29.00020408630371,28.709484100341797,29.009464025497437,dot,"[0.08, 0.06, 0.1, 0.06, 0.06, 0.08, 0.08]","[[0.21536278937261513, -0.01733091677764761], [-0.08931035591216824, -0.05246349631749078], [0.21870610454298933, 0.21067491250041093], [-0.1587576617113587, 0.26068369883413384], [0.04623079518225047, 0.4568527369480977], [0.022942391481424712, 0.13939122930077608], [-0.27674911739568203, 0.09730719745121558]]",density,black,,,N012,visual,1,[],"['1', '2', '3', '4']",1,2023.2.3,harveyvisual,2.1,[],8,0.75,
0,pause,0.4,None,None,None,0,77,77,77,,,,,,,,,,,,,N012,visual,1,[],"['1', '2', '3', '4']",1,2023.2.3,harveyvisual,2.1,[],8,0.75,
7,dot,0.3,['dot'],['density'],black,0,78,78,78,,,29.700221061706543,29.4094660282135,29.709296941757202,dot,"[0.06, 0.06, 0.06, 0.08, 0.1, 0.06, 0.1]","[[0.373835093542847, 0.13553027784675922], [0.025265531087721685, -0.15487691700731251], [0.38086488534306906, -0.0720131222026176], [0.4315741710459581, -0.28075472739566504], [0.18097069018870113, 0.01647246612045595], [0.1962900518120967, -0.2624101628120604], [0.08955660480178401, 0.2127528718980948]]",density,black,,,N012,visual,1,[],"['1', '2', '3', '4']",1,2023.2.3,harveyvisual,2.1,[],8,0.75,
0,pause,0.4,None,None,None,0,79,79,79,,,,,,,,,,,,,N012,visual,1,[],"['1', '2', '3', '4']",1,2023.2.3,harveyvisual,2.1,[],8,0.75,
7,dot,0.3,['dot'],['density'],black,0,80,80,80,,,30.400227069854736,30.109275102615356,30.409290075302124,dot,"[0.06, 0.08, 0.1, 0.1, 0.06, 0.1, 0.08]","[[0.3899189512010899, -0.40728696153528776], [0.20392863561369634, -0.3305625840210526], [0.31626985815109576, 0.13567824844623666], [0.5017338684339655, -0.028549680114735937], [0.11648855723187378, -0.1078833072829627], [0.07041138378868489, 0.08730219371944997], [0.32910598476010167, -0.13660711058181768]]",density,black,,,N012,visual,1,[],"['1', '2', '3', '4']",1,2023.2.3,harveyvisual,2.1,[],8,0.75,
0,pause,0.4,None,None,None,0,81,81,81,,,,,,,,,,,,,N012,visual,1,[],"['1', '2', '3', '4']",1,2023.2.3,harveyvisual,2.1,[],8,0.75,
7,dot,0.3,['dot'],['density'],black,0,82,82,82,,,31.10020899772644,30.809262990951538,31.10924196243286,dot,"[0.08, 0.06, 0.1, 0.1, 0.08, 0.06, 0.1]","[[-0.23895008888738212, 0.05027357720500052], [0.04847041368780161, 0.3376116924566045], [0.007425979130163878, -0.07582657330311053], [-0.16109724709992976, 0.33554312732420544], [-0.17199436159673825, -0.1887904434853683], [0.1858169564317131, 0.14031933770952934], [-0.038655615351801086, 0.15226176997737048]]",density,black,,,N012,visual,1,[],"['1', '2', '3', '4']",1,2023.2.3,harveyvisual,2.1,[],8,0.75,
0,pause,0.4,None,None,None,0,83,83,83,,,,,,,,,,,,,N012,visual,1,[],"['1', '2', '3', '4']",1,2023.2.3,harveyvisual,2.1,[],8,0.75,
8,dot,0.3,['dot'],['density'],black,0,84,84,84,,,31.80022692680359,31.50923490524292,31.80922794342041,dot,"[0.06, 0.08, 0.08, 0.08, 0.08, 0.06, 0.1, 0.06]","[[0.4694715163891994, 0.13329625263481096], [0.14358160208090395, 0.35167434699812705], [0.41559735975202405, 0.3690190921299561], [-0.041805684447173724, 0.4315913723966695], [-0.04993254304034498, 0.2285123563850015], [0.25337459258073897, 0.16365346604105616], [0.18476510797087844, 0.5481483313560797], [0.14868800337579569, -0.10349430855878591]]",density,black,,,N012,visual,1,[],"['1', '2', '3', '4']",1,2023.2.3,harveyvisual,2.1,[],8,0.75,
0,pause,0.4,None,None,None,0,85,85,85,,,,,,,,,,,,,N012,visual,1,[],"['1', '2', '3', '4']",1,2023.2.3,harveyvisual,2.1,[],8,0.75,
8,dot,0.3,['dot'],['density'],black,0,86,86,86,,,32.50022602081299,32.20939898490906,32.50937604904175,dot,"[0.06, 0.06, 0.08, 0.06, 0.06, 0.1, 0.08, 0.1]","[[0.5011924336457421, -0.024432440978935197], [0.2806328112604475, -0.04317330297599672], [0.4832514634589159, 0.31109822070486504], [0.16408111659662816, 0.42847901077729456], [0.23688927214560462, 0.23559820796421724], [0.07772697954394367, 0.06196890701796274], [0.10192126774068293, -0.18867749580812243], [-0.012619648351882298, 0.24997239668137242]]",density,black,,,N012,visual,1,[],"['1', '2', '3', '4']",1,2023.2.3,harveyvisual,2.1,[],8,0.75,
0,pause,0.4,None,None,None,0,87,87,87,,,,,,,,,,,,,N012,visual,1,[],"['1', '2', '3', '4']",1,2023.2.3,harveyvisual,2.1,[],8,0.75,
8,dot,0.3,['dot'],['density'],black,0,88,88,88,,,33.20022988319397,32.90936899185181,33.209341049194336,dot,"[0.08, 0.1, 0.06, 0.1, 0.08, 0.06, 0.08, 0.08]","[[-0.30918623351354413, -0.2762980118811315], [0.03442122464869854, -0.32944299641312663], [0.20656618624830034, -0.4515266663928406], [0.20458815773351877, -0.002924552385479317], [-0.054765695239429084, -0.14491701700869716], [-0.0008776159608741382, 0.05441634750414142], [0.19975410704164612, -0.21252729673777132], [-0.19330391669800595, 0.14377227853430027]]",density,black,,,N012,visual,1,[],"['1', '2', '3', '4']",1,2023.2.3,harveyvisual,2.1,[],8,0.75,
0,pause,0.4,None,None,None,0,89,89,89,,,,,,,,,,,,,N012,visual,1,[],"['1', '2', '3', '4']",1,2023.2.3,harveyvisual,2.1,[],8,0.75,
8,dot,0.3,['dot'],['density'],black,0,90,90,90,,,33.900222063064575,33.60919809341431,33.9091739654541,dot,"[0.1, 0.06, 0.06, 0.1, 0.1, 0.08, 0.08, 0.1]","[[-0.3265204970111284, 0.22652760434067618], [0.11129643684023392, 0.07926950251467085], [0.07893474341784651, 0.4315681374945237], [-0.2000017914838315, -0.08445279674287073], [-0.29956068591909263, 0.4664910923320479], [-0.09828291121522204, 0.1483319570086381], [0.07400994184747142, -0.11883630301138211], [-0.12650192453358844, 0.35264367728062257]]",density,black,,,N012,visual,1,[],"['1', '2', '3', '4']",1,2023.2.3,harveyvisual,2.1,[],8,0.75,
0,pause,0.4,None,None,None,0,91,91,91,,,,,,,,,,,,,N012,visual,1,[],"['1', '2', '3', '4']",1,2023.2.3,harveyvisual,2.1,[],8,0.75,
8,dot,0.3,['dot'],['density'],black,0,92,92,92,,,34.60021209716797,34.30918097496033,34.60917401313782,dot,"[0.08, 0.08, 0.06, 0.06, 0.1, 0.1, 0.1, 0.06]","[[0.29210958841889567, 0.026991922891258572], [0.03093533645276146, 0.3258936230244337], [-0.13014708308220477, 0.20110385145229231], [0.463805327987396, 0.2670013362689149], [0.17887675575806267, 0.48912385903522404], [0.2495142025194702, 0.28253247413027655], [0.03200252102949923, -0.1932501096446728], [0.04457092617056691, 0.07668709382136672]]",density,black,,,N012,visual,1,[],"['1', '2', '3', '4']",1,2023.2.3,harveyvisual,2.1,[],8,0.75,
0,pause,0.4,None,None,None,0,93,93,93,,,,,,,,,,,,,N012,visual,1,[],"['1', '2', '3', '4']",1,2023.2.3,harveyvisual,2.1,[],8,0.75,
8,dot,0.3,['dot'],['density'],black,0,94,94,94,,,35.30020999908447,35.00917100906372,35.3091459274292,dot,"[0.06, 0.08, 0.06, 0.08, 0.06, 0.1, 0.1, 0.1]","[[-0.16499387414028463, -0.418455346753131], [0.031011941373623824, -0.006148034068666969], [-0.4150712424924157, -0.28668557629476243], [-0.199054958380199, -0.21375968732837633], [-0.4870789535587041, 0.00515905815181239], [-0.198479811208303, 0.006815000109153054], [-0.3273741662815474, 0.19008037141614484], [0.04340096687518584, -0.25044408321713213]]",density,black,,,N012,visual,1,[],"['1', '2', '3', '4']",1,2023.2.3,harveyvisual,2.1,[],8,0.75,
0,pause,0.4,None,None,None,0,95,95,95,,,,,,,,,,,,,N012,visual,1,[],"['1', '2', '3', '4']",1,2023.2.3,harveyvisual,2.1,[],8,0.75,
9,dot,0.3,['dot'],['density'],black,0,96,96,96,,,36.000205993652344,35.70913887023926,36.009124994277954,dot,"[0.08, 0.06, 0.08, 0.08, 0.1, 0.1, 0.1, 0.06, 0.06]","[[0.23250081832313607, -0.03448075506690146], [0.3034476098774822, 0.1830296703973891], [-0.18904104685434053, 0.18833284185042862], [0.2553794676357457, 0.5314352583170906], [0.16363099535363254, 0.3461022642192175], [-0.0841935017478271, 0.3664174397160571], [-0.26748786402911323, -0.05736109653727262], [0.043842773669028334, 0.577246673499167], [0.02102957219118283, 0.0979254794926055]]",density,black,,,N012,visual,1,[],"['1', '2', '3', '4']",1,2023.2.3,harveyvisual,2.1,[],8,0.75,
0,pause,0.4,None,None,None,0,97,97,97,,,,,,,,,,,,,N012,visual,1,[],"['1', '2', '3', '4']",1,2023.2.3,harveyvisual,2.1,[],8,0.75,
9,dot,0.3,['dot'],['density'],white,0,98,98,98,,,36.70022988319397,36.409136056900024,36.70917201042175,dot,"[0.1, 0.1, 0.06, 0.08, 0.1, 0.1, 0.1, 0.06, 0.06]","[[-0.25982930089867384, 0.41046177320377714], [0.2391912210628672, 0.4152301159030731], [-0.011899047454085643, 0.5103750441914148], [0.15826907621474634, 0.20577518054892585], [-0.29033424199965224, 0.2058356795488901], [-0.056026696670660174, 0.08152775180209879], [-0.32571421803823364, -0.002973879155612714], [0.39820859476685, 0.29236875228581105], [-0.06367065787951752, 0.28966088639372295]]",density,white,,,N012,visual,1,[],"['1', '2', '3', '4']",1,2023.2.3,harveyvisual,2.1,[],8,0.75,
0,pause,0.4,None,None,None,0,99,99,99,,,,,,,,,,,,,N012,visual,1,[],"['1', '2', '3', '4']",1,2023.2.3,harveyvisual,2.1,[],8,0.75,
9,dot,0.3,['dot'],['density'],black,0,100,100,100,,,37.40021300315857,37.109134912490845,37.409116983413696,dot,"[0.1, 0.08, 0.08, 0.06, 0.08, 0.1, 0.06, 0.06, 0.1]","[[-0.01550530976013749, -0.4685693709261764], [-0.18673980358629047, -0.03677939788938074], [-0.492500386343057, -0.31631588298646995], [-0.31211872613566405, -0.49615226168915794], [-0.29213402726227655, -0.2779210730957987], [-0.48141959868665407, -0.11483975315711048], [0.2805727548720413, -0.20550850813502752], [-0.0662162642732561, -0.2200496541038322], [0.06776853683421198, -0.046300179137656175]]",density,black,,,N012,visual,1,[],"['1', '2', '3', '4']",1,2023.2.3,harveyvisual,2.1,[],8,0.75,
0,pause,0.4,None,None,None,0,101,101,101,,,,,,,,,,,,,N012,visual,1,[],"['1', '2', '3', '4']",1,2023.2.3,harveyvisual,2.1,[],8,0.75,
9,dot,0.3,['dot'],['density'],black,0,102,102,102,,,38.10021996498108,37.80911302566528,38.10906791687012,dot,"[0.08, 0.1, 0.1, 0.1, 0.08, 0.1, 0.06, 0.08, 0.06]","[[-0.5242180236495622, 0.2097960018926228], [-0.2671382220306689, 0.3003190330968159], [-0.06183693718886379, 0.22592490829479475], [-0.2001015593906042, -0.14641750634996328], [-0.09246193223873551, 0.43765994221656135], [-0.29330373087767303, 0.05285487614136386], [0.007094383220706952, 0.008748553761596398], [0.1465325421295601, 0.294910430799518], [0.04425292235957525, -0.2230758375085622]]",density,black,,,N012,visual,1,[],"['1', '2', '3', '4']",1,2023.2.3,harveyvisual,2.1,[],8,0.75,
0,pause,0.4,None,None,None,0,103,103,103,,,,,,,,,,,,,N012,visual,1,[],"['1', '2', '3', '4']",1,2023.2.3,harveyvisual,2.1,[],8,0.75,
9,dot,0.3,['dot'],['density'],black,0,104,104,104,,,38.800222873687744,38.50921988487244,38.80919790267944,dot,"[0.1, 0.06, 0.08, 0.08, 0.08, 0.1, 0.06, 0.08, 0.1]","[[0.005765111513037631, -0.143111035787845], [-0.396275933094447, -0.3321437400526764], [0.037546025436095476, -0.5612590109297682], [-0.23561619682408028, -0.19372599185683617], [-0.24582953746203298, -0.47553838121684505], [-0.07047609790874906, -0.3562711323606942], [-0.09403038697424164, 0.06164574472317626], [0.13577280496850042, -0.3868547356250126], [0.15608206217807025, 0.06264253907795621]]",density,black,,,N012,visual,1,[],"['1', '2', '3', '4']",1,2023.2.3,harveyvisual,2.1,[],8,0.75,
0,pause,0.4,None,None,None,0,105,105,105,,,,,,,,,,,,,N012,visual,1,[],"['1', '2', '3', '4']",1,2023.2.3,harveyvisual,2.1,[],8,0.75,
9,dot,0.3,['dot'],['density'],black,0,106,106,106,,,39.50021696090698,39.2092080116272,39.50906300544739,dot,"[0.1, 0.08, 0.06, 0.1, 0.08, 0.06, 0.06, 0.08, 0.08]","[[-0.05049485011715354, 0.3013521193238899], [0.15354596755057998, 0.36785015051376163], [0.22995749783639982, 0.07309138415424772], [0.13460311710395165, -0.18603378415368982], [0.33097739113381164, -0.13822260855557728], [-0.16464148731134703, 0.07190493829483618], [0.521154897315396, -0.007803673430992942], [0.02684304494395013, 0.0018704401699241912], [-0.15545279255173522, -0.15329938800760382]]",density,black,,,N012,visual,1,[],"['1', '2', '3', '4']",1,2023.2.3,harveyvisual,2.1,[],8,0.75,
0,pause,0.4,None,None,None,0,107,107,107,,,,,,,,,,,,,N012,visual,1,[],"['1', '2', '3', '4']",1,2023.2.3,harveyvisual,2.1,[],8,0.75,
20,dot,0.3,['dot'],['density'],black,0,108,108,108,,,40.2002170085907,39.925755977630615,40.20904493331909,dot,"[0.06, 0.06, 0.08, 0.06, 0.1, 0.06, 0.06, 0.1, 0.1, 0.06, 0.06, 0.06, 0.06, 0.1, 0.08, 0.1, 0.1, 0.08, 0.06, 0.08]","[[0.5758290208763507, -0.025042610237683893], [0.484204422780368, 0.31360760062245324], [-0.4903949968234503, -0.1351849209398195], [-0.3528125837156604, -0.2752182955971523], [-0.0644223159097026, 0.25946737610976023], [-0.4190693298149136, 0.35179811545667294], [0.23363516611445434, -0.2519705407080847], [-0.10864352551370887, 0.46352136527061616], [0.3874454500373906, -0.09234863104086649], [-0.3117482929350963, -0.04883764359990317], [0.007317309139415751, -0.4377406264642001], [-0.5825731996972514, 0.031921402236502305], [0.20409059768042315, 0.3002484516722711], [0.21231874647808313, -0.5386170758292452], [-0.04293927109858231, -0.2125392137949214], [0.41147115453424454, -0.3326764968743978], [0.16606161654220541, 0.027577759602727347], [0.38259273528699433, 0.15191680718608358], [-0.26484784322507754, -0.5135993738566339], [-0.2987021194050559, 0.18332734195589662]]",density,black,,,N012,visual,1,[],"['1', '2', '3', '4']",1,2023.2.3,harveyvisual,2.1,[],8,0.75,
0,pause,0.4,None,None,None,0,109,109,109,,,,,,,,,,,,,N012,visual,1,[],"['1', '2', '3', '4']",1,2023.2.3,harveyvisual,2.1,[],8,0.75,
20,dot,0.3,['dot'],['density'],white,0,110,110,110,,,40.90020799636841,40.625771045684814,40.909018993377686,dot,"[0.08, 0.06, 0.06, 0.08, 0.08, 0.06, 0.06, 0.06, 0.08, 0.06, 0.06, 0.08, 0.08, 0.1, 0.08, 0.08, 0.06, 0.06, 0.08, 0.08]","[[-0.4416260809264948, 0.3693104684311858], [-0.4867060518125216, -0.14489335346434112], [0.007217396901572748, 0.3840128121932207], [0.29050670569934045, 0.04109443120833589], [0.5300985019566643, 0.026979047947745416], [-0.1959579038495513, 0.4459488529269511], [-0.29598923989127307, 0.13752602113286927], [0.4240509004170717, -0.3769101515094479], [0.23356649702222432, -0.33045428249083353], [0.14156237703472008, 0.5430346435463008], [-0.5891031998368084, 0.11569344923940575], [0.4059208756347207, 0.31226681971435966], [-0.2687710795894209, -0.36261905654159315], [0.11279190191231847, 0.12007238288070876], [0.12829199969626126, -0.5756718675908415], [-0.0022595088416952347, -0.3282722189433834], [-0.0926495616819949, 0.011424289930786258], [0.47110198564236605, -0.19008248977367173], [-0.21831773915191804, -0.16744655344031406], [0.09476647459143872, -0.09675543915264928]]",density,white,,,N012,visual,1,[],"['1', '2', '3', '4']",1,2023.2.3,harveyvisual,2.1,[],8,0.75,
0,pause,0.4,None,None,None,0,111,111,111,,,,,,,,,,,,,N012,visual,1,[],"['1', '2', '3', '4']",1,2023.2.3,harveyvisual,2.1,[],8,0.75,
20,dot,0.3,['dot'],['density'],black,0,112,112,112,,,41.60021901130676,41.325687885284424,41.60897397994995,dot,"[0.1, 0.1, 0.06, 0.06, 0.08, 0.06, 0.1, 0.1, 0.06, 0.1, 0.1, 0.08, 0.1, 0.1, 0.1, 0.1, 0.1, 0.08, 0.08, 0.1]","[[0.03569367429263981, -0.14851550082650056], [0.49881971424493543, -0.04160305155722843], [-0.2761573556101813, 0.3328637885653517], [0.07487278770201711, 0.44836697175707974], [-0.2999487803839217, -0.3588049233472014], [-0.1441811826599103, 0.4830799438643043], [0.2803114628901151, 0.27385681991403965], [0.06492522374503618, -0.6013080895559029], [0.41516840214031936, -0.3039566191140776], [-0.5889585359799976, 0.01313790288142122], [-0.4872409840628993, -0.27778086109886996], [-0.08838986298056883, 0.12287663180022612], [0.3014534510907081, 0.46575415092155026], [0.24469228237313534, -0.14098997496755883], [0.571632721160979, 0.14009636958210128], [0.10548033780635391, 0.09265521419311196], [-0.43627502032409926, 0.1716528359554919], [0.02398325890110653, -0.38801670365257945], [-0.1945500533238505, -0.15040174625098518], [0.29033240453828335, -0.4592876218406309]]",density,black,,,N012,visual,1,[],"['1', '2', '3', '4']",1,2023.2.3,harveyvisual,2.1,[],8,0.75,
0,pause,0.4,None,None,None,0,113,113,113,,,,,,,,,,,,,N012,visual,1,[],"['1', '2', '3', '4']",1,2023.2.3,harveyvisual,2.1,[],8,0.75,
20,dot,0.3,['dot'],['density'],black,0,114,114,114,,,42.300215005874634,42.02567005157471,42.30912899971008,dot,"[0.06, 0.08, 0.06, 0.1, 0.1, 0.08, 0.06, 0.1, 0.1, 0.08, 0.1, 0.08, 0.06, 0.08, 0.08, 0.06, 0.08, 0.08, 0.08, 0.06]","[[-0.5387497022072638, 0.09683485935071068], [0.3579224563901867, -0.47797171158069895], [-0.276974693214306, 0.18198554389346544], [-0.006206398974235694, 0.4917791468867748], [-0.2793625018791391, 0.37978078246819735], [0.36287936370863605, -0.23842261256276348], [0.24052843665306534, 0.14966473257311452], [0.03525391535247402, -0.06407506655951944], [0.16943055016803132, -0.30685218634707345], [0.5598161758597274, 0.028175614262362203], [-0.23655503290976998, -0.38968766406061794], [-0.509143495373232, -0.21258932953981702], [-0.28094569836146477, -0.18163440694725208], [0.049443677595075175, 0.2715466963792089], [0.029134827058416857, -0.46962326223387785], [0.5540176713352473, -0.17103691276088698], [0.2883012924613555, 0.43341550050283373], [0.4864322267778173, 0.30151808273130565], [0.2767789591942742, -0.05315114949270128], [-0.08857527650258568, 0.12403716485244687]]",density,black,,,N012,visual,1,[],"['1', '2', '3', '4']",1,2023.2.3,harveyvisual,2.1,[],8,0.75,
0,pause,0.4,None,None,None,0,115,115,115,,,,,,,,,,,,,N012,visual,1,[],"['1', '2', '3', '4']",1,2023.2.3,harveyvisual,2.1,[],8,0.75,
20,dot,0.3,['dot'],['density'],black,0,116,116,116,,,43.000219106674194,42.72565293312073,43.00897192955017,dot,"[0.1, 0.08, 0.06, 0.1, 0.08, 0.06, 0.06, 0.06, 0.06, 0.06, 0.06, 0.08, 0.06, 0.06, 0.08, 0.1, 0.08, 0.1, 0.1, 0.08]","[[0.36931263445327245, 0.37748070560716984], [-0.294710669648212, 0.06392877707875011], [-0.014894437223748613, -0.1029258848182758], [0.1708339657811081, 0.2759091881890626], [0.16523412410469474, 0.5599844226402022], [-0.17984163802321712, 0.24004941178243544], [-0.1431150313228472, -0.4618660378324856], [0.4766242057697584, -0.08674274959352157], [-0.5132742925109407, -0.20074698429267557], [0.36369432353360764, 0.1432394570938909], [0.4764289108140741, -0.33429880976503223], [-0.012983505133301376, 0.34370690880227417], [0.3098374849841583, -0.2208135833367625], [-0.5455899891313759, 0.16296716940172318], [0.06796060110745394, -0.5554596833724804], [0.12282468264061874, 0.08024416397167489], [0.2617830254393346, -0.4577921595237512], [-0.2551509387860821, -0.1906853291856328], [-0.3713817672618823, 0.31418644713447386], [-0.405390614846303, -0.44225061326048337]]",density,black,,,N012,visual,1,[],"['1', '2', '3', '4']",1,2023.2.3,harveyvisual,2.1,[],8,0.75,
0,pause,0.4,None,None,None,0,117,117,117,,,,,,,,,,,,,N012,visual,1,[],"['1', '2', '3', '4']",1,2023.2.3,harveyvisual,2.1,[],8,0.75,
20,dot,0.3,['dot'],['density'],white,0,118,118,118,,,43.7002170085907,43.42562198638916,43.70892596244812,dot,"[0.06, 0.08, 0.08, 0.1, 0.1, 0.1, 0.08, 0.1, 0.1, 0.06, 0.06, 0.08, 0.1, 0.06, 0.1, 0.1, 0.1, 0.08, 0.1, 0.06]","[[-0.34323960595585995, 0.08236919541685372], [0.363356007626494, 0.3126639706484682], [-0.21496303316971682, -0.550302229991966], [0.3161965570793235, -0.3361423366962913], [0.06701471997810549, 0.5987729009547056], [0.5598132267880974, -0.1104935183357902], [0.3153437508726178, 0.09904974780041742], [-0.1896248894534826, -0.045455153654060054], [-0.23513228287518462, 0.33990803912049605], [-0.21917476123961666, -0.35539870774681875], [-0.4225669253060935, 0.42755221303935825], [0.09691094733378347, -0.15373224421231013], [0.07552369535335213, 0.2309633898556862], [-0.38595945392841396, -0.184899822904588], [-0.5783879109272059, -0.07587386866512023], [0.01888376810814063, -0.3358307282067825], [0.5059827608012698, -0.3020577799401757], [0.2734972583429762, 0.5262110544360125], [0.5177991383165376, 0.18585810198323982], [0.23276738037565414, -0.5188236872143833]]",density,white,,,N012,visual,1,[],"['1', '2', '3', '4']",1,2023.2.3,harveyvisual,2.1,[],8,0.75,
0,pause,0.4,None,None,None,0,119,119,119,,,,,,,,,,,1,43.98075604438782,N012,visual,1,[],"['1', '2', '3', '4']",1,2023.2.3,harveyvisual,2.1,[],8,0.75,
20,dot,0.3,['dot'],['density'],black,0,120,120,120,,,44.400208950042725,44.1256000995636,44.40893292427063,dot,"[0.1, 0.1, 0.06, 0.1, 0.1, 0.08, 0.06, 0.08, 0.08, 0.06, 0.06, 0.1, 0.08, 0.06, 0.06, 0.1, 0.06, 0.08, 0.1, 0.06]","[[-0.04207870321260254, 0.26527356122782264], [0.2618617290209666, -0.43270898445189193], [-0.33841438963766657, -0.19193148911906455], [0.11758877430723635, -0.2918512627480093], [0.16947549731256017, 0.08047380231063472], [0.5021632459089665, 0.22926990565638805], [0.4378974428667176, -0.00043927695101964037], [-0.16523439413453278, 0.5317155357461975], [-0.48869340112323, -0.01857910088578918], [-0.07045184989205111, -0.5548876043166279], [-0.3220342071082594, 0.35902892082523796], [-0.1123500731333178, 0.0887980705568141], [0.2819992024394181, 0.39915425477437516], [0.46183478060890104, -0.3107711921469349], [-0.054290202237977425, -0.1792203754956484], [-0.4104406235304037, -0.3910058158502549], [-0.5085459847842292, 0.3244065192146203], [-0.19832199311297233, -0.3988701438550639], [0.16421584510050613, 0.550735205817518], [0.5700764691124297, -0.13847990994807774]]",density,black,,,N012,visual,1,[],"['1', '2', '3', '4']",1,2023.2.3,harveyvisual,2.1,[],8,0.75,
0,pause,0.4,None,None,None,0,121,121,121,,,,,,,,,,,,,N012,visual,1,[],"['1', '2', '3', '4']",1,2023.2.3,harveyvisual,2.1,[],8,0.75,
20,dot,0.3,['dot'],['density'],white,0,122,122,122,,,45.10020995140076,44.825639963150024,45.109046936035156,dot,"[0.1, 0.08, 0.1, 0.08, 0.06, 0.1, 0.08, 0.08, 0.08, 0.06, 0.1, 0.1, 0.06, 0.06, 0.1, 0.1, 0.1, 0.06, 0.06, 0.06]","[[-0.2654337453556757, -0.11408318160938802], [0.026300065862604693, 0.4718119189232428], [-0.6020438548758263, -0.04914314942857126], [0.4283171555234143, -0.2932924802629083], [-0.280461306053399, 0.4520775994977062], [0.5991536201118987, 0.022376147858390788], [-0.08975949046721399, 0.21728844970820405], [-0.5339638287541502, 0.28145623925886804], [0.4983880424160997, 0.3306013028127892], [0.18300050681072577, -0.15137398196524537], [-0.18309658701616838, -0.31111714868498913], [-0.033091130440349725, 0.007083566293673571], [0.20919229980746357, 0.39797882208855384], [-0.35451889757667226, 0.08626140025217915], [0.4113120925916983, 0.12668917525067463], [0.17402291801701952, -0.45788202500892405], [-0.4041723359234286, -0.27962905758355705], [0.21501651482712403, 0.10582596703711056], [-0.2578020469256259, -0.5354186652646346], [-0.03648715149386361, -0.5609405339463975]]",density,white,,,N012,visual,1,[],"['1', '2', '3', '4']",1,2023.2.3,harveyvisual,2.1,[],8,0.75,
0,pause,0.4,None,None,None,0,123,123,123,,,,,,,,,,,1,45.34708595275879,N012,visual,1,[],"['1', '2', '3', '4']",1,2023.2.3,harveyvisual,2.1,[],8,0.75,
20,dot,0.3,['dot'],['density'],black,0,124,124,124,,,45.80022192001343,45.52577996253967,45.809037923812866,dot,"[0.1, 0.1, 0.1, 0.1, 0.08, 0.08, 0.1, 0.06, 0.1, 0.1, 0.1, 0.1, 0.1, 0.08, 0.08, 0.06, 0.08, 0.06, 0.08, 0.1]","[[0.526446860395655, 0.11197169661421602], [-0.3297271128204956, 0.48780710328925403], [-0.17770215202788964, -0.279202725149573], [0.2692780576623336, 0.31985519094693915], [0.4857595822290658, -0.34514721798796216], [-0.18699011164768387, 0.253088435815674], [-0.4122713353946618, 0.08807135526343973], [0.05432467591901502, -0.5069496790424178], [-0.05285206139287835, -0.11151280339101272], [-0.13692851082801255, 0.497816157932814], [-0.4520165939845016, -0.18742589374238777], [0.10816358457909814, 0.16615902754528755], [0.12298834145216087, -0.22266210014933702], [0.28324883415756297, -0.38938658439331125], [0.04855229448719667, 0.4082936703447203], [0.28768618745824037, 0.5315386010272322], [-0.1723909035997065, -0.46964648228880557], [-0.21380688095362615, 0.03048752595061832], [-0.6036018397870985, 0.03891436214564633], [-0.49638398318808874, 0.30870264550522075]]",density,black,,,N012,visual,1,[],"['1', '2', '3', '4']",1,2023.2.3,harveyvisual,2.1,[],8,0.75,
0,pause,0.4,None,None,None,0,125,125,125,,,,,,,,,,,,,N012,visual,1,[],"['1', '2', '3', '4']",1,2023.2.3,harveyvisual,2.1,[],8,0.75,
20,dot,0.3,['dot'],['density'],black,0,126,126,126,,,46.50022101402283,46.225598096847534,46.50888395309448,dot,"[0.1, 0.06, 0.06, 0.1, 0.1, 0.06, 0.06, 0.1, 0.1, 0.1, 0.06, 0.06, 0.1, 0.08, 0.08, 0.1, 0.08, 0.1, 0.08, 0.1]","[[0.0018732049387422123, -0.328375995736932], [0.3063853439571479, -0.26450198368545363], [-0.32486910888685, -0.2723272647648264], [-0.17424233036545472, 0.23531274839348149], [-0.5582855063034545, -0.15754685379868144], [0.5090779733282674, -0.23138355367809654], [-0.6038472286063638, 0.031876931402329146], [0.2017380174548168, 0.37947869736268014], [-0.05160759087306144, 0.06986036764093673], [0.5810720582718346, 0.12997283823484146], [0.041706669683743924, -0.5664561503015992], [-0.2761759337329823, 0.04043668030701797], [0.299810869148855, 0.20876467179096092], [0.30957595257221615, -0.0072174008187516625], [0.12983082757476205, 0.5591451532235108], [0.1409664506984316, -0.10030981549299822], [0.33016606007605975, -0.47444223156905463], [-0.21498405896286515, -0.47652042413752727], [-0.10620294372031247, 0.5098123731405156], [-0.4228853113057598, 0.2974404704790334]]",density,black,,,N012,visual,1,[],"['1', '2', '3', '4']",1,2023.2.3,harveyvisual,2.1,[],8,0.75,
0,pause,0.4,None,None,None,0,127,127,127,,,,,,,,,,,,,N012,visual,1,[],"['1', '2', '3', '4']",1,2023.2.3,harveyvisual,2.1,[],8,0.75,
20,dot,0.3,['dot'],['density'],black,0,128,128,128,,,47.20022702217102,46.9255530834198,47.208860874176025,dot,"[0.1, 0.08, 0.08, 0.06, 0.1, 0.1, 0.1, 0.06, 0.08, 0.06, 0.08, 0.1, 0.08, 0.08, 0.08, 0.08, 0.06, 0.06, 0.08, 0.1]","[[0.16125097082674633, -0.21062966760473356], [-0.4360503329535867, 0.4072515469412175], [-0.4550009368858027, -0.14164552726179835], [-0.10605067800112444, 0.2120604159067696], [0.10451840528519052, 0.4905568229564369], [0.0166973969959604, -0.33910125368482913], [-0.5916606694844284, 0.02995475577993814], [0.3485803249326539, 0.4790871436897213], [-0.3632563345799949, -0.4701336621239472], [-0.2174316877771706, -0.21388621286035386], [0.5854639864336401, 0.08088998338796718], [0.3962223206492016, -0.2057407484413697], [-0.5380536830298326, 0.2370987544175368], [-0.009209978739996849, -0.018340352231048684], [-0.2417754870495678, 0.017904768001728244], [0.26695405975114705, 0.0337316281778951], [-0.11152228087622529, -0.5642869136719626], [-0.1081390286335372, 0.4654864077289368], [0.27049587249539897, -0.48285401989323135], [0.4907062953145923, 0.254872410252906]]",density,black,,,N012,visual,1,[],"['1', '2', '3', '4']",1,2023.2.3,harveyvisual,2.1,[],8,0.75,
0,pause,0.4,None,None,None,0,129,129,129,,,,,,,,,,,,,N012,visual,1,[],"['1', '2', '3', '4']",1,2023.2.3,harveyvisual,2.1,[],8,0.75,
20,dot,0.3,['dot'],['density'],black,0,130,130,130,,,47.900224924087524,47.62553691864014,47.908875942230225,dot,"[0.08, 0.08, 0.06, 0.1, 0.06, 0.06, 0.08, 0.06, 0.1, 0.08, 0.06, 0.08, 0.08, 0.06, 0.08, 0.08, 0.1, 0.06, 0.06, 0.08]","[[0.19665836490221167, 0.456627368001552], [-0.0830523470516007, 0.16049239970041151], [-0.06948621645281183, -0.05279362934870391], [-0.11555576976657805, -0.4947906416074035], [0.23184845051883152, -0.2609401048961818], [-0.23475897860666028, 0.37724845514723937], [0.48158190143285495, 0.3485131405592197], [-0.2885310054974907, -0.3671376867423046], [-0.46093252232949455, -0.14892286369359103], [0.44556528374220383, -0.2379914513401499], [0.6027121860275227, -0.04131020210526721], [-0.26829237270972367, -0.11118758433805326], [0.14939393800173006, -0.4360106365846295], [-0.39254529388070636, 0.046327821001190206], [0.3346486737943989, 0.13773774765053381], [0.22072274809548986, -0.0428605496514306], [-0.4612575331924775, 0.28200841445210223], [-0.60098660308307, 0.07089689132931827], [0.3857634627772797, -0.4193667670949074], [-0.09535748252183729, -0.2939766032410148]]",density,black,,,N012,visual,1,[],"['1', '2', '3', '4']",1,2023.2.3,harveyvisual,2.1,[],8,0.75,
0,pause,0.4,None,None,None,0,131,131,131,,,,,,,,,,,,,N012,visual,1,[],"['1', '2', '3', '4']",1,2023.2.3,harveyvisual,2.1,[],8,0.75,
20,dot,0.3,['dot'],['density'],black,0,132,132,132,,,48.60020399093628,48.32553291320801,48.60886096954346,dot,"[0.1, 0.06, 0.08, 0.06, 0.08, 0.06, 0.1, 0.08, 0.06, 0.08, 0.1, 0.06, 0.08, 0.08, 0.08, 0.06, 0.06, 0.06, 0.06, 0.1]","[[-0.5250377261165301, 0.021269465026411805], [-0.26132409970582926, 0.18837023065011382], [-0.03387914517647028, -0.2908017437487652], [-0.19911156823628434, -0.41479882541795], [0.2350118588135378, 0.027820170461165916], [0.5110913664631732, 0.21346143070984575], [0.3315701866510604, -0.31804488042133017], [-0.03939789731657917, 0.26449367212564356], [0.31630933313424303, 0.4489353491087561], [-0.3018357031444856, 0.44894655784788895], [0.5921615849802689, -0.10043463337256282], [-0.03556744529653921, 0.06034175514300455], [-0.4781486645082633, -0.19585981695562607], [0.20627864948635932, 0.28916977255879317], [0.0032523805606692324, 0.5687906673186596], [0.13951019053315716, -0.5571572022540381], [-0.2139691127727451, -0.2157139594068428], [0.15656609462256166, -0.1856747325476954], [0.3615127341357909, -0.11436465589671052], [-0.5085105044209184, 0.24250221271988043]]",density,black,,,N012,visual,1,[],"['1', '2', '3', '4']",1,2023.2.3,harveyvisual,2.1,[],8,0.75,
0,pause,0.4,None,None,None,0,133,133,133,,,,,,,,,,,,,N012,visual,1,[],"['1', '2', '3', '4']",1,2023.2.3,harveyvisual,2.1,[],8,0.75,
20,dot,0.3,['dot'],['density'],black,0,134,134,134,,,49.30020999908447,49.02560997009277,49.308948040008545,dot,"[0.08, 0.1, 0.1, 0.06, 0.06, 0.1, 0.06, 0.06, 0.08, 0.1, 0.08, 0.1, 0.06, 0.06, 0.08, 0.08, 0.08, 0.06, 0.08, 0.08]","[[0.17971159390386493, 0.14277852327419194], [0.5084974805705195, -0.13329698462897918], [-0.26883962390810195, -0.47856423440782714], [-0.60016271309345, 0.027023554168348105], [0.3999744016434569, 0.44583884446275446], [-0.039725892381398564, 0.07032172229417566], [0.36959227037161246, 0.1274099301719459], [-0.08126662293137488, 0.29629954282044235], [-0.02065211342138018, -0.46145245823007286], [0.21721452946999675, 0.33784970351808274], [-0.05550772368865631, -0.20800660714785885], [-0.07390292948901911, 0.5172825934298702], [0.15317720786709155, -0.25284985823497613], [-0.5310276983831035, -0.19632175481784592], [-0.4052545419543454, 0.3826143923684325], [0.3424912151704116, -0.48928338489987216], [-0.3426615739253052, -0.3004076372619673], [-0.49783400413539697, 0.1895612605538094], [0.5895407365284514, 0.08644059329692527], [-0.3451966522814832, -0.008577458314120934]]",density,black,,,N012,visual,1,[],"['1', '2', '3', '4']",1,2023.2.3,harveyvisual,2.1,[],8,0.75,
0,pause,0.4,None,None,None,0,135,135,135,,,,,,,,,,,,,N012,visual,1,[],"['1', '2', '3', '4']",1,2023.2.3,harveyvisual,2.1,[],8,0.75,
20,dot,0.3,['dot'],['density'],black,0,136,136,136,,,50.00021195411682,49.72560787200928,50.00885796546936,dot,"[0.08, 0.1, 0.06, 0.1, 0.06, 0.06, 0.08, 0.06, 0.06, 0.06, 0.1, 0.08, 0.06, 0.06, 0.08, 0.08, 0.06, 0.08, 0.08, 0.1]","[[-0.018068564839391787, -0.2969749992560522], [-0.4443073938380497, -0.14749203417475104], [-0.12732137882979006, -0.47283811180010327], [-0.42859238893312, -0.38446496371255345], [0.41179546575514114, 0.005055970382516817], [-0.21682159773109155, -0.07320957638139824], [-0.11748746030490148, 0.45519203649366624], [-0.46561045322440875, 0.12967113384990747], [0.4376726608534186, -0.21558003569106504], [0.15836197687324227, 0.5418049639718342], [-0.17253774160999003, 0.19871066376478974], [-0.5008694492733629, 0.33960837694327406], [0.41879661553193304, 0.28954207812043137], [0.1383817636471174, -0.42074329659931686], [0.601687047916022, -0.053494669196397775], [0.06886553228202996, -0.027021978931598745], [0.19805813012834594, -0.181353581988767], [0.1489836903571412, 0.2609036311177553], [0.3400234333133503, 0.47197756959082016], [0.33543017661037344, -0.4326586353388042]]",density,black,,,N012,visual,1,[],"['1', '2', '3', '4']",1,2023.2.3,harveyvisual,2.1,[],8,0.75,
0,pause,0.4,None,None,None,0,137,137,137,,,,,,,,,,,,,N012,visual,1,[],"['1', '2', '3', '4']",1,2023.2.3,harveyvisual,2.1,[],8,0.75,
20,dot,0.3,['dot'],['density'],black,0,138,138,138,,,50.700226068496704,50.42543005943298,50.70875787734985,dot,"[0.06, 0.08, 0.06, 0.08, 0.06, 0.08, 0.08, 0.08, 0.1, 0.08, 0.06, 0.08, 0.06, 0.06, 0.1, 0.08, 0.1, 0.1, 0.08, 0.06]","[[0.22241384126409014, -0.23048335391344626], [0.31688454163185187, 0.11971151069624986], [-0.0890964075858931, -0.4591415545003107], [-0.5799246422894856, 0.057047007916107006], [-0.014603579922191412, 0.1693942788744881], [-0.05746795744498756, 0.543768552059928], [-0.30884334756287846, 0.2950892158594923], [-0.5651570389702973, -0.2105092786615332], [0.16855101708170794, -0.515426224051238], [0.4308301103815434, -0.10144330087584791], [0.4656992529639995, -0.2950986618398803], [0.5369263020871574, 0.1365588429651362], [-0.16839053691386008, -0.23892488974929954], [0.3687263298169672, 0.4375361437964796], [-0.38427653469547346, -0.3987656977967333], [-0.310834348561818, -0.11059964680455919], [0.05350140960350702, -0.07526390497679836], [0.019725488490943466, -0.29274667102702834], [0.1325834220767722, 0.5554583173081981], [-0.5271646342376184, 0.26917530456234473]]",density,black,,,N012,visual,1,[],"['1', '2', '3', '4']",1,2023.2.3,harveyvisual,2.1,[],8,0.75,
0,pause,0.4,None,None,None,0,139,139,139,,,,,,,,,,,,,N012,visual,1,[],"['1', '2', '3', '4']",1,2023.2.3,harveyvisual,2.1,[],8,0.75,
20,dot,0.3,['dot'],['density'],black,0,140,140,140,,,51.40020704269409,51.12539887428284,51.408771991729736,dot,"[0.08, 0.06, 0.08, 0.06, 0.1, 0.08, 0.1, 0.06, 0.1, 0.1, 0.08, 0.08, 0.08, 0.1, 0.1, 0.06, 0.1, 0.08, 0.1, 0.1]","[[0.5326575244545814, 0.22773095284470268], [-0.273065039874616, 0.19806036765436896], [0.11320868568222486, 0.526202745338733], [0.39144793710753145, -0.17866991961080214], [-0.34515557084657494, 0.37643286248378327], [0.16601149494030543, -0.5569598898522145], [-0.19488695097472214, -0.4609362759005716], [0.018689338141716583, -0.40538663686228305], [-0.4392099666026926, -0.017467900361171462], [-0.17561890976159006, -0.16238852209901644], [0.3597701516316226, -0.3798028826366501], [0.1706148227992813, 0.004460522726715821], [0.23967392510563357, 0.3551301627200887], [-0.47271067220869695, 0.18938679422177024], [-0.4661688665385073, -0.27851001290017924], [0.5727556647372999, -0.07819856331776012], [0.062137416668480716, 0.2821400618976744], [0.09383582704080806, -0.1874032720979497], [-0.15425132011815396, 0.5173309159067468], [-0.06018965938513787, 0.10960989312572023]]",density,black,,,N012,visual,1,[],"['1', '2', '3', '4']",1,2023.2.3,harveyvisual,2.1,[],8,0.75,
0,pause,0.4,None,None,None,0,141,141,141,,,,,,,,,,,,,N012,visual,1,[],"['1', '2', '3', '4']",1,2023.2.3,harveyvisual,2.1,[],8,0.75,
20,dot,0.3,['dot'],['density'],black,0,142,142,142,,,52.100234031677246,51.82538199424744,52.10871696472168,dot,"[0.1, 0.06, 0.1, 0.08, 0.06, 0.06, 0.08, 0.1, 0.1, 0.06, 0.1, 0.08, 0.08, 0.08, 0.08, 0.06, 0.06, 0.1, 0.06, 0.1]","[[-0.12024988220475114, -0.09616674843160355], [-0.13122310408973503, 0.3780992142191355], [-0.23030231384602873, 0.5426839341774465], [-0.035966018023110724, -0.3687098346010416], [0.09808912282862803, 0.3831112832167328], [0.23827707043046253, 0.011691866633583015], [-0.35835364774142875, 0.04685081200340374], [0.14075943659284207, -0.28161628786692644], [-0.18335020818769382, 0.1842068882962461], [0.490225114482009, -0.08086328868627335], [0.015348945524446655, -0.5627596091340046], [-0.23160968840236723, -0.4077997863490012], [-0.5796685141590393, -0.09692985642791867], [0.42153893991868296, 0.31473985537024973], [0.2387827982933477, -0.47523430862172733], [-0.5389949738788804, 0.20498614882919874], [-0.41193673963460686, -0.21146543954128375], [0.244399314083105, 0.5067924806125833], [0.5870901439269326, 0.10305653421461425], [-0.3460493620758396, 0.32790076124471357]]",density,black,,,N012,visual,1,[],"['1', '2', '3', '4']",1,2023.2.3,harveyvisual,2.1,[],8,0.75,
0,pause,0.4,None,None,None,0,143,143,143,,,,,,,,,,,,,N012,visual,1,[],"['1', '2', '3', '4']",1,2023.2.3,harveyvisual,2.1,[],8,0.75,
20,dot,0.3,['dot'],['density'],black,0,144,144,144,,,52.80021905899048,52.525530099868774,52.8091299533844,dot,"[0.08, 0.06, 0.08, 0.06, 0.06, 0.1, 0.06, 0.1, 0.1, 0.08, 0.08, 0.06, 0.06, 0.06, 0.1, 0.1, 0.1, 0.08, 0.1, 0.1]","[[0.5391257895278246, -0.21033404273911888], [-0.2413188746103661, -0.12952713843420732], [0.22802636668032072, -0.5584294566543948], [-0.5095049805409904, 0.20206239378952018], [-0.6045563976501381, 0.001088305823422741], [0.40105893859662756, -0.34077666462652023], [-0.18201757612805175, 0.10813549239813947], [0.24430468001553485, -0.05156114785864441], [0.5159339540772366, 0.051169379466147136], [-0.515255080401793, -0.2809025158148976], [0.1794684050988512, 0.4080436362497617], [-0.22413799077648822, 0.5237750891585323], [-0.03786850576294787, 0.3553343570181202], [0.05828521206952153, -0.195657619283092], [0.42056590981765674, 0.3449394180753969], [-0.22830946618101983, 0.31565345330397854], [0.019533131467185827, 0.5570440991428753], [0.11293536309012497, 0.10674028011648085], [-0.3541251452961956, -0.4026878076090544], [-0.10698739091637016, -0.37834827773451696]]",density,black,,,N012,visual,1,[],"['1', '2', '3', '4']",1,2023.2.3,harveyvisual,2.1,[],8,0.75,
0,pause,0.4,None,None,None,0,145,145,145,,,,,,,,,,,,,N012,visual,1,[],"['1', '2', '3', '4']",1,2023.2.3,harveyvisual,2.1,[],8,0.75,
20,dot,0.3,['dot'],['density'],black,0,146,146,146,,,53.5002179145813,53.22539687156677,53.508837938308716,dot,"[0.06, 0.1, 0.1, 0.08, 0.06, 0.1, 0.08, 0.06, 0.1, 0.08, 0.08, 0.1, 0.1, 0.08, 0.06, 0.06, 0.1, 0.06, 0.1, 0.08]","[[0.3179339382348093, 0.26334239090793066], [0.07036241111374197, -0.2650299382963745], [-0.045199462267421775, 0.40031181130369764], [0.5889550261527788, 0.008608397700999998], [-0.20844501455359493, -0.2870998801699653], [-0.515522340420035, 0.21801783949816328], [-0.45115022023122564, -0.31243211334824594], [-0.5852862871345178, -0.07143015779566045], [0.37792716471636156, -0.4159286495371852], [0.17008147549278319, 0.5112842887438851], [-0.3422961426277078, 0.060959033687477626], [-0.16418335604599632, -0.4845047966140088], [0.43665800999594884, -0.15350953750725044], [0.5519178750318517, 0.20813716045145186], [0.29571729116184464, 0.056152332658525594], [0.11511416303630984, 0.12716731743411613], [-0.07516438453852115, 0.09133397426345535], [0.36699115881790156, 0.44698042771944996], [-0.2874796888600255, 0.2631914118348747], [0.09518608589255684, -0.507330831881271]]",density,black,,,N012,visual,1,[],"['1', '2', '3', '4']",1,2023.2.3,harveyvisual,2.1,[],8,0.75,
0,pause,0.4,None,None,None,0,147,147,147,,,,,,,,,,,,,N012,visual,1,[],"['1', '2', '3', '4']",1,2023.2.3,harveyvisual,2.1,[],8,0.75,
20,dot,0.3,['dot'],['density'],black,0,148,148,148,,,54.2002170085907,53.92537808418274,54.20871090888977,dot,"[0.1, 0.08, 0.06, 0.1, 0.1, 0.1, 0.08, 0.06, 0.08, 0.08, 0.08, 0.06, 0.08, 0.1, 0.1, 0.06, 0.1, 0.08, 0.1, 0.1]","[[0.2021534629617956, -0.4232512568518808], [-0.07376240335807838, 0.34931970460415995], [-0.2706044173491833, -0.08239710075202167], [0.455496861255721, 0.22424457584145485], [0.036982191854505575, 0.11139461007200624], [-0.3206517881850132, 0.13285376490881173], [0.39362452858285446, 0.4181420141339373], [-0.5596333061826512, -0.21969548291196972], [-0.3695961841439469, -0.32953545922318994], [-0.38327237995597985, 0.43255835120312197], [0.4224036454398227, -0.4327279877106083], [-0.5427713438352308, 0.09808253129435662], [0.5266984719832363, -0.13647152631107282], [0.09573644195138276, -0.2526904200474947], [0.158958036773012, 0.4769460087211955], [0.28911824774258643, -0.0753840801016808], [-0.12864485166327672, -0.42878826563421246], [-0.03829728511458241, -0.08019994847882606], [-0.16542124455237733, 0.5691043387780361], [0.14981624949717853, 0.27736521874018805]]",density,black,,,N012,visual,1,[],"['1', '2', '3', '4']",1,2023.2.3,harveyvisual,2.1,[],8,0.75,
0,pause,0.4,None,None,None,0,149,149,149,,,,,,,,,,,,,N012,visual,1,[],"['1', '2', '3', '4']",1,2023.2.3,harveyvisual,2.1,[],8,0.75,
20,dot,0.3,['dot'],['density'],black,0,150,150,150,,,54.90021109580994,54.625338077545166,54.90869188308716,dot,"[0.06, 0.06, 0.08, 0.1, 0.1, 0.06, 0.1, 0.1, 0.08, 0.1, 0.06, 0.08, 0.08, 0.1, 0.1, 0.08, 0.08, 0.08, 0.06, 0.1]","[[0.06004415684078168, -0.0024952254980596944], [-0.1860129925895051, -0.11070780738817737], [-0.23900025995186636, 0.13560751746157884], [0.13694338287127072, 0.3107633491116236], [-0.04537551674098017, -0.5362077726681047], [0.5406889897702231, 0.0706106724650325], [-0.161998015331636, 0.4534767814038009], [0.29321686725822893, -0.456406056709698], [0.5151280211419224, 0.28909056059030364], [-0.42987093234098983, -0.2822864801592477], [0.11571476561022498, -0.31670256624631554], [-0.5961442206006355, -0.02470787024783043], [-0.06687059639357251, 0.2656163153242036], [-0.37965560694377903, -0.09104942613527728], [0.1254179563173644, 0.5169890604903133], [0.5134820198613815, -0.15370127720224955], [0.2641945198660408, -0.024844305053204563], [-0.36792095335078423, 0.3104417365005956], [0.33959712404062514, 0.48894844104179147], [0.32960520278038696, -0.23469757483859766]]",density,black,,,N012,visual,1,[],"['1', '2', '3', '4']",1,2023.2.3,harveyvisual,2.1,[],8,0.75,
0,pause,0.4,None,None,None,0,151,151,151,,,,,,,,,,,,,N012,visual,1,[],"['1', '2', '3', '4']",1,2023.2.3,harveyvisual,2.1,[],8,0.75,
20,dot,0.3,['dot'],['density'],black,0,152,152,152,,,55.60021901130676,55.325342893600464,55.60861301422119,dot,"[0.08, 0.08, 0.06, 0.1, 0.06, 0.08, 0.08, 0.06, 0.08, 0.1, 0.1, 0.1, 0.06, 0.1, 0.08, 0.06, 0.08, 0.06, 0.1, 0.1]","[[0.20780515757841644, 0.01634949035513955], [0.3619970944006251, -0.3324853762031406], [-0.24382787849649706, -0.3606882187833299], [-0.35304906991247076, 0.03232938397831253], [0.5012788034650116, 0.21717673188204506], [-0.452626688925628, -0.38773869051783366], [-0.07630287111230005, 0.21280197313860127], [0.6021907078284371, 0.02416472609180373], [0.23604539821889947, 0.3052149712488357], [0.008651126312309798, 0.4605995537725657], [-0.4785703600603559, -0.1417400107906088], [-0.5945043571640068, 0.09744018563976663], [-0.2896123955406189, 0.37875959101420054], [-0.13393538866857735, -0.060249910424530984], [0.505212385245498, -0.15212118318104997], [0.05710166689435803, -0.13788001651387816], [-0.10949200926534686, -0.5086005349309675], [0.3479897308229397, 0.47714436398301585], [-0.1629721647626018, 0.5560164554067029], [0.039330344692444674, -0.32685413745241093]]",density,black,,,N012,visual,1,[],"['1', '2', '3', '4']",1,2023.2.3,harveyvisual,2.1,[],8,0.75,
0,pause,0.4,None,None,None,0,153,153,153,,,,,,,,,,,,,N012,visual,1,[],"['1', '2', '3', '4']",1,2023.2.3,harveyvisual,2.1,[],8,0.75,
20,dot,0.3,['dot'],['density'],black,0,154,154,154,,,56.300220012664795,56.02527904510498,56.30883002281189,dot,"[0.08, 0.1, 0.1, 0.08, 0.06, 0.08, 0.08, 0.1, 0.06, 0.1, 0.06, 0.08, 0.1, 0.06, 0.1, 0.06, 0.06, 0.08, 0.1, 0.1]","[[-0.2971560520773873, -0.36613706371813237], [0.3728953146795243, 0.2233655231848959], [0.013408917193845404, 0.20642191293809253], [-0.2739497229983509, 0.4179783666732899], [-0.476799611363012, 0.18551896605712143], [0.2955910414748312, 0.5000479031577527], [0.01576535263620016, -0.2860406169047904], [-0.08422887640372012, 0.5813510656578103], [-0.45529715091271195, -0.0671341501620184], [-0.29251869463603236, 0.07305539943190509], [0.05670330441415916, -0.5758201449913714], [0.23968590065938078, -0.3134332971845799], [0.5499435676931735, -0.05333137828063117], [0.1929859991184647, 0.12421441866798211], [0.21366154262125747, -0.06537021732909587], [-0.16050520878307334, -0.5295564232781711], [-0.27082563442222984, -0.14655275864435574], [0.4921079153423088, -0.3472760517251443], [-0.10618379173309273, -0.027765888120971027], [0.09236202266573046, 0.46876841927730806]]",density,black,,,N012,visual,1,[],"['1', '2', '3', '4']",1,2023.2.3,harveyvisual,2.1,[],8,0.75,
0,pause,0.4,None,None,None,0,155,155,155,,,,,,,,,,,,,N012,visual,1,[],"['1', '2', '3', '4']",1,2023.2.3,harveyvisual,2.1,[],8,0.75,
9,dot,0.3,['dot'],['density'],black,0,156,156,156,,,57.000216007232666,56.708860874176025,57.008583068847656,dot,"[0.1, 0.08, 0.08, 0.1, 0.08, 0.08, 0.08, 0.08, 0.08]","[[0.5571797577834091, 0.07732674165650813], [0.16332656704353227, -0.09331314560094064], [0.4138178119161903, 0.3925230053806507], [0.28711316854655766, 0.07147022394212545], [0.052100496024031176, 0.3810199549023822], [0.2172039135420496, 0.26337040755706287], [-0.2646845915772586, 0.12849707234668142], [0.21844181080216274, 0.4926952285236599], [0.0761275456309072, 0.11718001140956479]]",density,black,,,N012,visual,1,[],"['1', '2', '3', '4']",1,2023.2.3,harveyvisual,2.1,[],8,0.75,
0,pause,0.4,None,None,None,0,157,157,157,,,,,,,,,,,,,N012,visual,1,[],"['1', '2', '3', '4']",1,2023.2.3,harveyvisual,2.1,[],8,0.75,
9,dot,0.3,['dot'],['density'],black,0,158,158,158,,,57.70021891593933,57.40861892700195,57.70857501029968,dot,"[0.06, 0.08, 0.06, 0.08, 0.1, 0.08, 0.06, 0.08, 0.06]","[[-0.23139737267821464, 0.4582894628988488], [-0.22563640623437264, 0.09161215191469056], [0.08653997658409265, 0.18408404769425912], [-0.34134765149242685, 0.2795210921938051], [-0.45752590330905135, 0.08752711185150099], [-0.035040587470716034, -0.07657027701648178], [-0.27120713465948276, -0.1309343981320133], [-0.3537313425617488, -0.374673418779248], [-0.09309732942360581, 0.2754840453600595]]",density,black,,,N012,visual,1,[],"['1', '2', '3', '4']",1,2023.2.3,harveyvisual,2.1,[],8,0.75,
0,pause,0.4,None,None,None,0,159,159,159,,,,,,,,,,,,,N012,visual,1,[],"['1', '2', '3', '4']",1,2023.2.3,harveyvisual,2.1,[],8,0.75,
9,dot,0.3,['dot'],['density'],white,0,160,160,160,,,58.40021896362305,58.10856509208679,58.40856599807739,dot,"[0.06, 0.1, 0.1, 0.06, 0.08, 0.08, 0.08, 0.1, 0.08]","[[-0.06218673389315922, -0.4689115343027075], [0.3660477402554353, -0.15396192139437054], [0.1401329754895462, -0.14262156541192547], [0.12293598154832706, -0.38779640022673934], [0.42645158233284447, -0.3607859009111275], [-0.06238477126329685, -0.2564764349502154], [-0.2584688277182379, -0.29964401945706215], [-0.11312192996032899, -0.05439345917292958], [0.19096873654163896, 0.1321853744035435]]",density,white,,,N012,visual,1,[],"['1', '2', '3', '4']",1,2023.2.3,harveyvisual,2.1,[],8,0.75,
0,pause,0.4,None,None,None,0,161,161,161,,,,,,,,,,,,,N012,visual,1,[],"['1', '2', '3', '4']",1,2023.2.3,harveyvisual,2.1,[],8,0.75,
9,dot,0.3,['dot'],['density'],black,0,162,162,162,,,59.10021710395813,58.808552980422974,59.10868692398071,dot,"[0.1, 0.08, 0.1, 0.08, 0.08, 0.1, 0.1, 0.06, 0.06]","[[0.02295687172906439, -0.4555612238154966], [0.343534432465795, -0.2595759245515751], [-0.16187815285083418, -0.09052449078383604], [0.11251247888811697, -0.27313237114007116], [0.30947849701411384, 0.04064216277921932], [0.06991680920562879, 0.010838090335221196], [-0.17538857600721916, -0.30040513178321704], [-0.11470383471809205, 0.10558329706542706], [-0.35883798189287325, -0.15372405551062507]]",density,black,,,N012,visual,1,[],"['1', '2', '3', '4']",1,2023.2.3,harveyvisual,2.1,[],8,0.75,
0,pause,0.4,None,None,None,0,163,163,163,,,,,,,,,,,,,N012,visual,1,[],"['1', '2', '3', '4']",1,2023.2.3,harveyvisual,2.1,[],8,0.75,
9,dot,0.3,['dot'],['density'],black,0,164,164,164,,,59.800211906433105,59.50869107246399,59.80867290496826,dot,"[0.06, 0.08, 0.1, 0.06, 0.06, 0.08, 0.1, 0.06, 0.06]","[[0.050129075631511706, -0.29659829200500587], [0.1522424042566208, -0.02012498145544232], [-0.31773020450764894, 0.09756431981266957], [-0.25388767024787284, -0.20865833148222632], [-0.06549152868915667, -0.10253084504872755], [-0.047012852932693645, 0.11741599898337682], [0.26526013051082903, -0.18996189821299347], [0.2442588296558726, 0.17404051307925203], [0.053323608967773835, 0.34462047536600726]]",density,black,,,N012,visual,1,[],"['1', '2', '3', '4']",1,2023.2.3,harveyvisual,2.1,[],8,0.75,
0,pause,0.4,None,None,None,0,165,165,165,,,,,,,,,,,,,N012,visual,1,[],"['1', '2', '3', '4']",1,2023.2.3,harveyvisual,2.1,[],8,0.75,
9,dot,0.3,['dot'],['density'],black,0,166,166,166,,,60.50021505355835,60.20851802825928,60.508503913879395,dot,"[0.1, 0.08, 0.06, 0.1, 0.1, 0.1, 0.08, 0.08, 0.06]","[[-0.08351644510687262, 0.021707353155035948], [0.11173555070370329, 0.3931220271068859], [-0.15396522232717408, 0.3423719725559184], [0.23829169989725132, 0.186218803300476], [-0.29008049122260166, 0.17395274189193027], [0.2491440638781109, -0.04662568063892593], [-0.2854023508218629, -0.06307984259985559], [0.003596708871689959, 0.21717875760955796], [-0.47489413548496523, 0.030788186259843496]]",density,black,,,N012,visual,1,[],"['1', '2', '3', '4']",1,2023.2.3,harveyvisual,2.1,[],8,0.75,
0,pause,0.4,None,None,None,0,167,167,167,,,,,,,,,,,,,N012,visual,1,[],"['1', '2', '3', '4']",1,2023.2.3,harveyvisual,2.1,[],8,0.75,
8,dot,0.3,['dot'],['density'],black,0,168,168,168,,,61.200231075286865,60.908504009246826,61.208518981933594,dot,"[0.08, 0.1, 0.06, 0.08, 0.06, 0.08, 0.06, 0.1]","[[-0.43120034012996816, -0.3965796075128045], [0.1478983624034229, -0.46770986256388064], [-0.23058307999139557, -0.3238539366063682], [-0.07988642296593639, -0.13993938361429092], [-0.08664795903044427, -0.5418074813242995], [0.11879255589163208, -0.1637425359681226], [-0.09873641234556067, 0.08705286872936738], [-0.025120016651009644, -0.34045580780112095]]",density,black,,,N012,visual,1,[],"['1', '2', '3', '4']",1,2023.2.3,harveyvisual,2.1,[],8,0.75,
0,pause,0.4,None,None,None,0,169,169,169,,,,,,,,,,,,,N012,visual,1,[],"['1', '2', '3', '4']",1,2023.2.3,harveyvisual,2.1,[],8,0.75,
8,dot,0.3,['dot'],['density'],black,0,170,170,170,,,61.90023589134216,61.608484983444214,61.908628940582275,dot,"[0.1, 0.1, 0.1, 0.08, 0.06, 0.08, 0.08, 0.08]","[[-0.17001050475317317, -0.17367687575201368], [0.3600613666554234, 0.010096468830953859], [-0.08326222131596324, 0.04242117989324811], [0.04296950773068638, 0.29875887990525135], [0.04919814700692566, -0.23206276490508926], [0.2733682510361541, 0.19343137942482672], [0.15974695196996483, -0.02827404827190698], [-0.2919014881818027, 0.0006738684867251376]]",density,black,,,N012,visual,1,[],"['1', '2', '3', '4']",1,2023.2.3,harveyvisual,2.1,[],8,0.75,
0,pause,0.4,None,None,None,0,171,171,171,,,,,,,,,,,,,N012,visual,1,[],"['1', '2', '3', '4']",1,2023.2.3,harveyvisual,2.1,[],8,0.75,
8,dot,0.3,['dot'],['density'],black,0,172,172,172,,,62.60021710395813,62.308456897735596,62.60862398147583,dot,"[0.08, 0.1, 0.08, 0.08, 0.06, 0.06, 0.06, 0.1]","[[-0.3306282708070712, -0.09459634407206743], [0.17708038186302957, -0.36794437316098305], [-0.34368294577136044, -0.39688855169369486], [-0.16397220561896333, 0.03033928826277653], [-0.08476975953586025, -0.41834960305423746], [-0.16765121495786453, -0.2265743681515788], [0.0449590487082352, -0.10546915507075137], [-0.5574709661459258, -0.15664368712912546]]",density,black,,,N012,visual,1,[],"['1', '2', '3', '4']",1,2023.2.3,harveyvisual,2.1,[],8,0.75,
0,pause,0.4,None,None,None,0,173,173,173,,,,,,,,,,,,,N012,visual,1,[],"['1', '2', '3', '4']",1,2023.2.3,harveyvisual,2.1,[],8,0.75,
8,dot,0.3,['dot'],['density'],black,0,174,174,174,,,63.300235986709595,63.00859189033508,63.30884504318237,dot,"[0.1, 0.08, 0.06, 0.1, 0.06, 0.1, 0.08, 0.08]","[[0.29210958841889567, 0.026991922891258572], [0.03093533645276146, 0.3258936230244337], [-0.13014708308220477, 0.20110385145229231], [0.463805327987396, 0.2670013362689149], [0.17887675575806267, 0.48912385903522404], [0.2495142025194702, 0.28253247413027655], [0.03200252102949923, -0.1932501096446728], [0.04457092617056691, 0.07668709382136672]]",density,black,,,N012,visual,1,[],"['1', '2', '3', '4']",1,2023.2.3,harveyvisual,2.1,[],8,0.75,
0,pause,0.4,None,None,None,0,175,175,175,,,,,,,,,,,,,N012,visual,1,[],"['1', '2', '3', '4']",1,2023.2.3,harveyvisual,2.1,[],8,0.75,
8,dot,0.3,['dot'],['density'],black,0,176,176,176,,,64.00022602081299,63.708425998687744,64.00882506370544,dot,"[0.1, 0.1, 0.08, 0.08, 0.1, 0.08, 0.08, 0.08]","[[0.12411109391386341, -0.5343823995123961], [-0.21238427398525783, -0.3197389486612228], [-0.06551876445787266, 0.032183079599910736], [0.22034046694826517, 0.05676208929132721], [0.31747551588691986, -0.13046885784073625], [0.01834943727978222, -0.34316474661021057], [0.10776215616131694, -0.12386070969881222], [-0.2386971922539417, -0.09256206635527232]]",density,black,,,N012,visual,1,[],"['1', '2', '3', '4']",1,2023.2.3,harveyvisual,2.1,[],8,0.75,
0,pause,0.4,None,None,None,0,177,177,177,,,,,,,,,,,,,N012,visual,1,[],"['1', '2', '3', '4']",1,2023.2.3,harveyvisual,2.1,[],8,0.75,
8,dot,0.3,['dot'],['density'],black,0,178,178,178,,,64.70021200180054,64.4084460735321,64.70843005180359,dot,"[0.1, 0.06, 0.06, 0.1, 0.06, 0.06, 0.08, 0.1]","[[-0.4639556696772753, 0.10472599959088454], [-0.22970357876872852, 0.24758381400794424], [-0.060094057158436125, -0.14613975383200573], [-0.022569829209962654, 0.2677975872319761], [-0.3077859326170116, -0.10488986274105515], [-0.16040535020917, 0.031608708128470005], [-0.5175577931920246, -0.20517812764611504], [0.1194024413118107, 0.007837779916585986]]",density,black,,,N012,visual,1,[],"['1', '2', '3', '4']",1,2023.2.3,harveyvisual,2.1,[],8,0.75,
0,pause,0.4,None,None,None,0,179,179,179,,,,,,,,,,,,,N012,visual,1,[],"['1', '2', '3', '4']",1,2023.2.3,harveyvisual,2.1,[],8,0.75,
7,dot,0.3,['dot'],['density'],black,0,180,180,180,,,65.40021705627441,65.1083869934082,65.4094889163971,dot,"[0.06, 0.06, 0.08, 0.06, 0.06, 0.06, 0.06]","[[-0.08751196138777266, -0.40239331021683095], [-0.1389983634140625, -0.1821537091642013], [-0.5212097088452917, -0.15879536445288125], [-0.24197016774290594, 0.025691971861017886], [-0.324083892787021, -0.3083678109532634], [0.06465625853811506, -0.19815494036826437], [-0.2569867334647868, -0.5155038850209747]]",density,black,,,N012,visual,1,[],"['1', '2', '3', '4']",1,2023.2.3,harveyvisual,2.1,[],8,0.75,
0,pause,0.4,None,None,None,0,181,181,181,,,,,,,,,,,,,N012,visual,1,[],"['1', '2', '3', '4']",1,2023.2.3,harveyvisual,2.1,[],8,0.75,
7,dot,0.3,['dot'],['density'],black,0,182,182,182,,,66.10022187232971,65.80836510658264,66.10835790634155,dot,"[0.1, 0.06, 0.08, 0.06, 0.08, 0.06, 0.1]","[[-0.1639205104410485, 0.5375336320852997], [0.13665370749938832, 0.21910895384688228], [-0.33778978147358674, 0.04597826141406851], [-0.2268593015261854, 0.22000868921510455], [-0.39586497221419475, 0.3389169711393182], [-0.023188047053822363, 0.08417042442854547], [-0.025005414605345992, 0.38521147685537843]]",density,black,,,N012,visual,1,[],"['1', '2', '3', '4']",1,2023.2.3,harveyvisual,2.1,[],8,0.75,
0,pause,0.4,None,None,None,0,183,183,183,,,,,,,,,,,,,N012,visual,1,[],"['1', '2', '3', '4']",1,2023.2.3,harveyvisual,2.1,[],8,0.75,
7,dot,0.3,['dot'],['density'],black,0,184,184,184,,,66.80023193359375,66.50837707519531,66.80833292007446,dot,"[0.06, 0.06, 0.1, 0.06, 0.06, 0.06, 0.06]","[[0.12902113605384963, -0.35167066519854956], [0.3838909825822851, -0.05572740120406059], [-0.02857767273637445, 0.1549795872955612], [0.19333287999408408, 0.10698923431715611], [-0.08146847087507005, -0.06064403559207536], [0.18020694687254563, -0.15550905334431223], [-0.07225335190945896, -0.28606481362007624]]",density,black,,,N012,visual,1,[],"['1', '2', '3', '4']",1,2023.2.3,harveyvisual,2.1,[],8,0.75,
0,pause,0.4,None,None,None,0,185,185,185,,,,,,,,,,,,,N012,visual,1,[],"['1', '2', '3', '4']",1,2023.2.3,harveyvisual,2.1,[],8,0.75,
7,dot,0.3,['dot'],['density'],black,0,186,186,186,,,67.500235080719,67.20831990242004,67.5083680152893,dot,"[0.1, 0.1, 0.06, 0.1, 0.08, 0.08, 0.06]","[[0.36124702795982905, 0.02861074637729004], [0.035495459613383976, -0.03736980990239832], [0.4545067059830119, -0.22475560039862832], [0.21831658066582188, 0.20471036725638603], [0.23621436127430617, -0.13960795011418334], [0.5606656921354746, -0.047865395727918474], [0.5468561378002438, 0.2161657569851178]]",density,black,,,N012,visual,1,[],"['1', '2', '3', '4']",1,2023.2.3,harveyvisual,2.1,[],8,0.75,
0,pause,0.4,None,None,None,0,187,187,187,,,,,,,,,,,,,N012,visual,1,[],"['1', '2', '3', '4']",1,2023.2.3,harveyvisual,2.1,[],8,0.75,
7,dot,0.3,['dot'],['density'],black,0,188,188,188,,,68.20021104812622,67.9083309173584,68.20831203460693,dot,"[0.06, 0.1, 0.06, 0.08, 0.06, 0.08, 0.1]","[[-0.026372969700101213, 0.05085620782211805], [-0.16304282038196347, -0.3616501386780019], [-0.013762327205412121, -0.14910430285435466], [0.14729449770710015, -0.3647544547161306], [-0.22494517313234175, -0.12035103032643314], [-0.36514670174418407, -0.33057163197754225], [0.21417125919861074, -0.06627923590771367]]",density,black,,,N012,visual,1,[],"['1', '2', '3', '4']",1,2023.2.3,harveyvisual,2.1,[],8,0.75,
0,pause,0.4,None,None,None,0,189,189,189,,,,,,,,,,,,,N012,visual,1,[],"['1', '2', '3', '4']",1,2023.2.3,harveyvisual,2.1,[],8,0.75,
7,dot,0.3,['dot'],['density'],black,0,190,190,190,,,68.90023303031921,68.60832190513611,68.90828800201416,dot,"[0.1, 0.06, 0.06, 0.08, 0.08, 0.08, 0.1]","[[0.21536278937261513, -0.01733091677764761], [-0.08931035591216824, -0.05246349631749078], [0.21870610454298933, 0.21067491250041093], [-0.1587576617113587, 0.26068369883413384], [0.04623079518225047, 0.4568527369480977], [0.022942391481424712, 0.13939122930077608], [-0.27674911739568203, 0.09730719745121558]]",density,black,,,N012,visual,1,[],"['1', '2', '3', '4']",1,2023.2.3,harveyvisual,2.1,[],8,0.75,
0,pause,0.4,None,None,None,0,191,191,191,,,,,,,,,,,,,N012,visual,1,[],"['1', '2', '3', '4']",1,2023.2.3,harveyvisual,2.1,[],8,0.75,
6,dot,0.3,['dot'],['density'],black,0,192,192,192,,,69.60023593902588,69.30843496322632,69.60842204093933,dot,"[0.08, 0.06, 0.1, 0.1, 0.1, 0.1]","[[0.5108460974500976, 0.10904555526594768], [0.5033362887342737, -0.29902707163897635], [0.3062164979741722, 0.05793810054487639], [0.22849736264613016, -0.28041776899433873], [0.12909977445373055, -0.06500178518750158], [0.41889526300287094, -0.11616960582105396]]",density,black,,,N012,visual,1,[],"['1', '2', '3', '4']",1,2023.2.3,harveyvisual,2.1,[],8,0.75,
0,pause,0.4,None,None,None,0,193,193,193,,,,,,,,,,,,,N012,visual,1,[],"['1', '2', '3', '4']",1,2023.2.3,harveyvisual,2.1,[],8,0.75,
6,dot,0.3,['dot'],['density'],black,0,194,194,194,,,70.3002278804779,70.00840592384338,70.30839490890503,dot,"[0.06, 0.06, 0.06, 0.06, 0.1, 0.1]","[[-0.24492162854676555, 0.16704436901929823], [-0.3861886513150086, 0.35601694661450933], [-0.48514013682315105, 0.15596888098880124], [-0.5451465436738104, -0.12931683943359434], [-0.11772959853104834, 0.007676420150436517], [-0.35755989064212684, -0.03355234579502648]]",density,black,,,N012,visual,1,[],"['1', '2', '3', '4']",1,2023.2.3,harveyvisual,2.1,[],8,0.75,
0,pause,0.4,None,None,None,0,195,195,195,,,,,,,,,,,,,N012,visual,1,[],"['1', '2', '3', '4']",1,2023.2.3,harveyvisual,2.1,[],8,0.75,
6,dot,0.3,['dot'],['density'],black,0,196,196,196,,,71.00021600723267,70.70828700065613,71.00821304321289,dot,"[0.1, 0.1, 0.08, 0.06, 0.08, 0.1]","[[-0.3075905201299059, -0.4396409988488083], [-0.19740249700094745, -0.17714391351551703], [0.053731853964380204, -0.5240815929277938], [0.045148855841778586, -0.17580561296456876], [0.17596231810730836, -0.3386358025171148], [-0.08995737585576556, -0.36423659604885134]]",density,black,,,N012,visual,1,[],"['1', '2', '3', '4']",1,2023.2.3,harveyvisual,2.1,[],8,0.75,
0,pause,0.4,None,None,None,0,197,197,197,,,,,,,,,,,,,N012,visual,1,[],"['1', '2', '3', '4']",1,2023.2.3,harveyvisual,2.1,[],8,0.75,
6,dot,0.3,['dot'],['density'],white,0,198,198,198,,,71.70023202896118,71.4082350730896,71.708261013031,dot,"[0.08, 0.06, 0.06, 0.1, 0.06, 0.06]","[[0.1982846419110591, -0.5292804859653952], [-0.09533153174900855, -0.5647367288422243], [-0.1659446600366624, -0.36958438178462333], [0.23572970018209544, -0.2476946313124468], [-0.023160452264027947, -0.17140847685647978], [0.035419311136148636, -0.3737635646361638]]",density,white,,,N012,visual,1,[],"['1', '2', '3', '4']",1,2023.2.3,harveyvisual,2.1,[],8,0.75,
0,pause,0.4,None,None,None,0,199,199,199,,,,,,,,,,,,,N012,visual,1,[],"['1', '2', '3', '4']",1,2023.2.3,harveyvisual,2.1,[],8,0.75,
6,dot,0.3,['dot'],['density'],black,0,200,200,200,,,72.40021395683289,72.10818290710449,72.40823888778687,dot,"[0.1, 0.1, 0.08, 0.06, 0.1, 0.06]","[[-0.5416753121247185, 0.020803147184574915], [-0.3232269173664433, -0.07161231053200118], [-0.3008479376061402, -0.286480119217458], [-0.22299540496279888, 0.12470258063391813], [-0.10776740766186912, -0.19554033341247495], [-0.5165544979209102, -0.21376225914528924]]",density,black,,,N012,visual,1,[],"['1', '2', '3', '4']",1,2023.2.3,harveyvisual,2.1,[],8,0.75,
0,pause,0.4,None,None,None,0,201,201,201,,,,,,,,,,,,,N012,visual,1,[],"['1', '2', '3', '4']",1,2023.2.3,harveyvisual,2.1,[],8,0.75,
6,dot,0.3,['dot'],['density'],black,0,202,202,202,,,73.10021495819092,72.80817794799805,73.10826992988586,dot,"[0.06, 0.08, 0.1, 0.06, 0.06, 0.1]","[[0.1344939073868, 0.11682503965153783], [0.2622842826516073, -0.1576809643807538], [0.491422654665352, 0.2653315688189552], [0.5669231994484553, 0.0667155191364867], [0.2299276458131091, 0.29835232047215776], [0.3356420801536577, 0.10517090915368521]]",density,black,,,N012,visual,1,[],"['1', '2', '3', '4']",1,2023.2.3,harveyvisual,2.1,[],8,0.75,
0,pause,0.4,None,None,None,0,203,203,203,,,,,,,,,,,,,N012,visual,1,[],"['1', '2', '3', '4']",1,2023.2.3,harveyvisual,2.1,[],8,0.75,
5,dot,0.3,['dot'],['density'],black,0,204,204,204,,,73.8002359867096,73.50830507278442,73.80822205543518,dot,"[0.1, 0.1, 0.08, 0.08, 0.1]","[[-0.006164932418690097, -0.4528126201229341], [-0.1681524682570009, -0.11721653268637569], [-0.1959903964051736, -0.3710708837277218], [0.03544926667602863, -0.1302589477940128], [0.16830580561999814, -0.32298356607012285]]",density,black,,,N012,visual,1,[],"['1', '2', '3', '4']",1,2023.2.3,harveyvisual,2.1,[],8,0.75,
0,pause,0.4,None,None,None,0,205,205,205,,,,,,,,,,,,,N012,visual,1,[],"['1', '2', '3', '4']",1,2023.2.3,harveyvisual,2.1,[],8,0.75,
5,dot,0.3,['dot'],['density'],black,0,206,206,206,,,74.5002179145813,74.20819687843323,74.50817608833313,dot,"[0.06, 0.06, 0.08, 0.06, 0.1]","[[0.21791283729510122, -0.3451859720731072], [0.5246150578842218, -0.1749209719782184], [0.23417080448362212, 0.06149420791510773], [0.21628546435715315, -0.14179681516434317], [0.46094971099473236, 0.03541120369123469]]",density,black,,,N012,visual,1,[],"['1', '2', '3', '4']",1,2023.2.3,harveyvisual,2.1,[],8,0.75,
0,pause,0.4,None,None,None,0,207,207,207,,,,,,,,,,,,,N012,visual,1,[],"['1', '2', '3', '4']",1,2023.2.3,harveyvisual,2.1,[],8,0.75,
5,dot,0.3,['dot'],['density'],black,0,208,208,208,,,75.20022797584534,74.90816593170166,75.20816087722778,dot,"[0.08, 0.1, 0.1, 0.06, 0.06]","[[-0.5348211864270219, -0.08335004612931018], [-0.428892633085643, 0.14758700623805307], [-0.3277098387322906, -0.27887202276080253], [-0.29687101947458117, -0.03792463078145938], [-0.23363771935579355, 0.21194794904782605]]",density,black,,,N012,visual,1,[],"['1', '2', '3', '4']",1,2023.2.3,harveyvisual,2.1,[],8,0.75,
0,pause,0.4,None,None,None,0,209,209,209,,,,,,,,,,,,,N012,visual,1,[],"['1', '2', '3', '4']",1,2023.2.3,harveyvisual,2.1,[],8,0.75,
5,dot,0.3,['dot'],['density'],black,0,210,210,210,,,75.90022587776184,75.60815405845642,75.90807890892029,dot,"[0.08, 0.08, 0.1, 0.1, 0.08]","[[-0.006164932418690097, -0.4528126201229341], [-0.1681524682570009, -0.11721653268637569], [-0.1959903964051736, -0.3710708837277218], [0.03544926667602863, -0.1302589477940128], [0.16830580561999814, -0.32298356607012285]]",density,black,,,N012,visual,1,[],"['1', '2', '3', '4']",1,2023.2.3,harveyvisual,2.1,[],8,0.75,
0,pause,0.4,None,None,None,0,211,211,211,,,,,,,,,,,,,N012,visual,1,[],"['1', '2', '3', '4']",1,2023.2.3,harveyvisual,2.1,[],8,0.75,
5,dot,0.3,['dot'],['density'],black,0,212,212,212,,,76.6002368927002,76.30807590484619,76.60826206207275,dot,"[0.08, 0.1, 0.08, 0.08, 0.06]","[[-0.416197921377668, -0.28619329865683824], [-0.20866628843358032, -0.3460647126262422], [-0.5570429559765239, -0.05989317214741584], [-0.28028983240144106, -0.12146425093182346], [-0.3531870384577651, 0.07845006904085886]]",density,black,,,N012,visual,1,[],"['1', '2', '3', '4']",1,2023.2.3,harveyvisual,2.1,[],8,0.75,
0,pause,0.4,None,None,None,0,213,213,213,,,,,,,,,,,,,N012,visual,1,[],"['1', '2', '3', '4']",1,2023.2.3,harveyvisual,2.1,[],8,0.75,
5,dot,0.3,['dot'],['density'],black,0,214,214,214,,,77.30023503303528,77.00821995735168,77.30821204185486,dot,"[0.08, 0.08, 0.08, 0.08, 0.06]","[[-0.07969108163070573, 0.258241044050758], [-0.3301768112222262, 0.22562982972330062], [-0.16453040906828167, -0.1622271318141552], [-0.21753854086321037, 0.04365873274764029], [0.030347216865940038, 0.07834852794011457]]",density,black,,,N012,visual,1,[],"['1', '2', '3', '4']",1,2023.2.3,harveyvisual,2.1,[],8,0.75,
0,pause,0.4,None,None,None,0,215,215,215,,,,,,,,,,,,,N012,visual,1,[],"['1', '2', '3', '4']",1,2023.2.3,harveyvisual,2.1,[],8,0.75,
4,dot,0.3,['dot'],['density'],black,0,216,216,216,,,78.00022888183594,77.7082040309906,78.00809407234192,dot,"[0.06, 0.1, 0.06, 0.06]","[[0.17852470546651972, -0.2012438881607824], [-0.031034799765910746, -0.12466087783573923], [0.008996399474264666, -0.3229379719524122], [0.15114343287780646, 0.03986859122442722]]",density,black,,,N012,visual,1,[],"['1', '2', '3', '4']",1,2023.2.3,harveyvisual,2.1,[],8,0.75,
0,pause,0.4,None,None,None,0,217,217,217,,,,,,,,,,,,,N012,visual,1,[],"['1', '2', '3', '4']",1,2023.2.3,harveyvisual,2.1,[],8,0.75,
4,dot,0.3,['dot'],['density'],black,0,218,218,218,,,78.70022392272949,78.40806007385254,78.70808005332947,dot,"[0.08, 0.08, 0.1, 0.08]","[[0.3428963381299033, -0.004396565162037705], [0.42558881424794154, 0.18301493672810298], [0.5687630200397232, 0.01721079717795714], [0.4301208405972816, -0.23499851958356296]]",density,black,,,N012,visual,1,[],"['1', '2', '3', '4']",1,2023.2.3,harveyvisual,2.1,[],8,0.75,
0,pause,0.4,None,None,None,0,219,219,219,,,,,,,,,,,,,N012,visual,1,[],"['1', '2', '3', '4']",1,2023.2.3,harveyvisual,2.1,[],8,0.75,
4,dot,0.3,['dot'],['density'],black,0,220,220,220,,,79.40021395683289,79.10802388191223,79.40799307823181,dot,"[0.1, 0.1, 0.08, 0.08]","[[-0.42715721775789556, -0.3806885655784049], [-0.5104054706627589, -0.18016651458941194], [-0.409412055521987, 0.008153849732111747], [-0.2456709064377862, -0.21492281530681134]]",density,black,,,N012,visual,1,[],"['1', '2', '3', '4']",1,2023.2.3,harveyvisual,2.1,[],8,0.75,
0,pause,0.4,None,None,None,0,221,221,221,,,,,,,,,,,,,N012,visual,1,[],"['1', '2', '3', '4']",1,2023.2.3,harveyvisual,2.1,[],8,0.75,
4,dot,0.3,['dot'],['density'],black,0,222,222,222,,,80.10022401809692,79.80797600746155,80.10805201530457,dot,"[0.06, 0.1, 0.06, 0.06]","[[0.17852470546651972, -0.2012438881607824], [-0.031034799765910746, -0.12466087783573923], [0.008996399474264666, -0.3229379719524122], [0.15114343287780646, 0.03986859122442722]]",density,black,,,N012,visual,1,[],"['1', '2', '3', '4']",1,2023.2.3,harveyvisual,2.1,[],8,0.75,
0,pause,0.4,None,None,None,0,223,223,223,,,,,,,,,,,,,N012,visual,1,[],"['1', '2', '3', '4']",1,2023.2.3,harveyvisual,2.1,[],8,0.75,
4,dot,0.3,['dot'],['density'],black,0,224,224,224,,,80.8002200126648,80.50820803642273,80.80820202827454,dot,"[0.08, 0.06, 0.1, 0.06]","[[0.06326389353998313, -0.3457479010937814], [-0.07512051392095552, -0.02196355495157639], [0.09410934090401228, -0.14113260442523076], [-0.13717358852421138, -0.29916566844175635]]",density,black,,,N012,visual,1,[],"['1', '2', '3', '4']",1,2023.2.3,harveyvisual,2.1,[],8,0.75,
0,pause,0.4,None,None,None,0,225,225,225,,,,,,,,,,,,,N012,visual,1,[],"['1', '2', '3', '4']",1,2023.2.3,harveyvisual,2.1,[],8,0.75,
4,dot,0.3,['dot'],['density'],black,0,226,226,226,,,81.50021290779114,81.20822787284851,81.50800108909607,dot,"[0.06, 0.06, 0.08, 0.1]","[[0.107131415583101, 0.03171316484874249], [0.3330877778846877, 0.14211400081541528], [0.23058747141838212, -0.24340322486593785], [0.3173726134345681, -0.05921806988573682]]",density,black,,,N012,visual,1,[],"['1', '2', '3', '4']",1,2023.2.3,harveyvisual,2.1,[],8,0.75,
0,pause,0.4,None,None,None,0,227,227,227,,,,,,,,,,,,,N012,visual,1,[],"['1', '2', '3', '4']",1,2023.2.3,harveyvisual,2.1,[],8,0.75,
3,dot,0.3,['dot'],['density'],black,0,228,228,228,,,82.20023107528687,81.9079818725586,82.20792388916016,dot,"[0.08, 0.08, 0.1]","[[-0.5599668940784417, -0.1503624274944763], [-0.33715825845103314, -0.1742393560729378], [-0.447658281307079, 0.035586458508876644]]",density,black,,,N012,visual,1,[],"['1', '2', '3', '4']",1,2023.2.3,harveyvisual,2.1,[],8,0.75,
0,pause,0.4,None,None,None,0,229,229,229,,,,,,,,,,,,,N012,visual,1,[],"['1', '2', '3', '4']",1,2023.2.3,harveyvisual,2.1,[],8,0.75,
3,dot,0.3,['dot'],['density'],black,0,230,230,230,,,82.90023303031921,82.6078999042511,82.90790104866028,dot,"[0.08, 0.1, 0.08]","[[0.041215869578383385, -0.00689674906403758], [0.17500875751152645, 0.21459232562634095], [-0.03632281132631849, 0.2012994076415249]]",density,black,,,N012,visual,1,[],"['1', '2', '3', '4']",1,2023.2.3,harveyvisual,2.1,[],8,0.75,
0,pause,0.4,None,None,None,0,231,231,231,,,,,,,,,,,,,N012,visual,1,[],"['1', '2', '3', '4']",1,2023.2.3,harveyvisual,2.1,[],8,0.75,
3,dot,0.3,['dot'],['density'],black,0,232,232,232,,,83.60022187232971,83.3078920841217,83.60787200927734,dot,"[0.06, 0.06, 0.06]","[[0.29938275938101017, 0.44415474715472736], [0.13070782598704628, 0.5557174004537693], [0.11832456902218637, 0.3273615767427578]]",density,black,,,N012,visual,1,[],"['1', '2', '3', '4']",1,2023.2.3,harveyvisual,2.1,[],8,0.75,
0,pause,0.4,None,None,None,0,233,233,233,,,,,,,,,,,,,N012,visual,1,[],"['1', '2', '3', '4']",1,2023.2.3,harveyvisual,2.1,[],8,0.75,
3,dot,0.3,['dot'],['density'],black,0,234,234,234,,,84.30021810531616,84.00787591934204,84.3079080581665,dot,"[0.1, 0.06, 0.06]","[[0.4995185571857965, 0.14229679706320136], [0.2944600495073675, 0.23335097983198633], [0.330752226915583, 0.0299241169750933]]",density,black,,,N012,visual,1,[],"['1', '2', '3', '4']",1,2023.2.3,harveyvisual,2.1,[],8,0.75,
0,pause,0.4,None,None,None,0,235,235,235,,,,,,,,,,,,,N012,visual,1,[],"['1', '2', '3', '4']",1,2023.2.3,harveyvisual,2.1,[],8,0.75,
3,dot,0.3,['dot'],['density'],black,0,236,236,236,,,85.0002269744873,84.70786595344543,85.0078649520874,dot,"[0.08, 0.1, 0.1]","[[0.07700183490032705, -0.35627018624379625], [-0.11838355721398923, -0.41989981358322065], [0.04553884901650391, -0.5822363694770394]]",density,black,,,N012,visual,1,[],"['1', '2', '3', '4']",1,2023.2.3,harveyvisual,2.1,[],8,0.75,
0,pause,0.4,None,None,None,0,237,237,237,,,,,,,,,,,,,N012,visual,1,[],"['1', '2', '3', '4']",1,2023.2.3,harveyvisual,2.1,[],8,0.75,
3,dot,0.3,['dot'],['density'],black,0,238,238,238,,,85.70021605491638,85.40791606903076,85.70783495903015,dot,"[0.1, 0.06, 0.08]","[[0.13507679288784277, 0.012189921546254917], [0.31506600046810584, 0.10578898906948993], [0.12756957777796288, 0.2513869495778075]]",density,black,,,N012,visual,1,[],"['1', '2', '3', '4']",1,2023.2.3,harveyvisual,2.1,[],8,0.75,
0,pause,0.4,None,None,None,0,239,239,239,,,,,,,,,,,,,N012,visual,1,[],"['1', '2', '3', '4']",1,2023.2.3,harveyvisual,2.1,[],8,0.75,
2,dot,0.3,['dot'],['density'],black,0,240,240,240,,,86.400230884552,86.10782194137573,86.40782308578491,dot,"[0.1, 0.08]","[[0.002249876020969301, 0.20442088447143333], [-0.056293345030126195, 0.39599742374220376]]",density,black,,,N012,visual,1,[],"['1', '2', '3', '4']",1,2023.2.3,harveyvisual,2.1,[],8,0.75,
0,pause,0.4,None,None,None,0,241,241,241,,,,,,,,,,,,,N012,visual,1,[],"['1', '2', '3', '4']",1,2023.2.3,harveyvisual,2.1,[],8,0.75,
2,dot,0.3,['dot'],['density'],black,0,242,242,242,,,87.10021495819092,86.80783200263977,87.10781502723694,dot,"[0.08, 0.06]","[[-0.40295961353468523, -0.33947470962363085], [-0.23663605411983973, -0.22749761394439932]]",density,black,,,N012,visual,1,[],"['1', '2', '3', '4']",1,2023.2.3,harveyvisual,2.1,[],8,0.75,
0,pause,0.4,None,None,None,0,243,243,243,,,,,,,,,,,,,N012,visual,1,[],"['1', '2', '3', '4']",1,2023.2.3,harveyvisual,2.1,[],8,0.75,
2,dot,0.3,['dot'],['density'],black,0,244,244,244,,,87.80023407936096,87.50782489776611,87.80783009529114,dot,"[0.1, 0.1]","[[0.5590929928249944, 0.05901985638302875], [0.5065513741473344, -0.13409141480534237]]",density,black,,,N012,visual,1,[],"['1', '2', '3', '4']",1,2023.2.3,harveyvisual,2.1,[],8,0.75,
0,pause,0.4,None,None,None,0,245,245,245,,,,,,,,,,,,,N012,visual,1,[],"['1', '2', '3', '4']",1,2023.2.3,harveyvisual,2.1,[],8,0.75,
2,dot,0.3,['dot'],['density'],black,0,246,246,246,,,88.50022292137146,88.20778703689575,88.50782203674316,dot,"[0.06, 0.08]","[[-0.22226122312079244, -0.00806926593831646], [-0.023245446524914906, -0.037240983575548024]]",density,black,,,N012,visual,1,[],"['1', '2', '3', '4']",1,2023.2.3,harveyvisual,2.1,[],8,0.75,
0,pause,0.4,None,None,None,0,247,247,247,,,,,,,,,,,,,N012,visual,1,[],"['1', '2', '3', '4']",1,2023.2.3,harveyvisual,2.1,[],8,0.75,
2,dot,0.3,['dot'],['density'],black,0,248,248,248,,,89.20024108886719,88.90777087211609,89.20769596099854,dot,"[0.06, 0.1]","[[0.11825467712572878, -0.39617910972508336], [0.05459236086910312, -0.5860717982025758]]",density,black,,,N012,visual,1,[],"['1', '2', '3', '4']",1,2023.2.3,harveyvisual,2.1,[],8,0.75,
0,pause,0.4,None,None,None,0,249,249,249,,,,,,,,,,,,,N012,visual,1,[],"['1', '2', '3', '4']",1,2023.2.3,harveyvisual,2.1,[],8,0.75,
2,dot,0.3,['dot'],['density'],black,0,250,250,250,,,89.90022897720337,89.60780596733093,89.90764093399048,dot,"[0.06, 0.06]","[[-0.5356907773971091, -0.01454049690556478], [-0.3936553319468624, 0.1263392020735458]]",density,black,,,N012,visual,1,[],"['1', '2', '3', '4']",1,2023.2.3,harveyvisual,2.1,[],8,0.75,
0,pause,0.4,None,None,None,0,251,251,251,,,,,,,,,,,,,N012,visual,1,[],"['1', '2', '3', '4']",1,2023.2.3,harveyvisual,2.1,[],8,0.75,
1,dot,0.3,['dot'],['density'],black,0,252,252,252,,,90.60022306442261,90.30774903297424,90.60765099525452,dot,[0.08],"[-0.0300711363278092, -0.16168860719337894]",density,black,,,N012,visual,1,[],"['1', '2', '3', '4']",1,2023.2.3,harveyvisual,2.1,[],8,0.75,
0,pause,0.4,None,None,None,0,253,253,253,,,,,,,,,,,,,N012,visual,1,[],"['1', '2', '3', '4']",1,2023.2.3,harveyvisual,2.1,[],8,0.75,
1,dot,0.3,['dot'],['density'],black,0,254,254,254,,,91.30024099349976,91.00774002075195,91.30768489837646,dot,[0.06],"[-0.1989246115662565, -0.15069844343359862]",density,black,,,N012,visual,1,[],"['1', '2', '3', '4']",1,2023.2.3,harveyvisual,2.1,[],8,0.75,
0,pause,0.4,None,None,None,0,255,255,255,,,,,,,,,,,,,N012,visual,1,[],"['1', '2', '3', '4']",1,2023.2.3,harveyvisual,2.1,[],8,0.75,
1,dot,0.3,['dot'],['density'],black,0,256,256,256,,,92.0002179145813,91.70770692825317,92.00781798362732,dot,[0.1],"[-0.2532192430475575, -0.5275431624831907]",density,black,,,N012,visual,1,[],"['1', '2', '3', '4']",1,2023.2.3,harveyvisual,2.1,[],8,0.75,
0,pause,0.4,None,None,None,0,257,257,257,,,,,,,,,,,,,N012,visual,1,[],"['1', '2', '3', '4']",1,2023.2.3,harveyvisual,2.1,[],8,0.75,
1,dot,0.3,['dot'],['density'],black,0,258,258,258,,,92.70022392272949,92.40767908096313,92.70773005485535,dot,[0.1],"[0.5668064281626585, -0.020013277593342628]",density,black,,,N012,visual,1,[],"['1', '2', '3', '4']",1,2023.2.3,harveyvisual,2.1,[],8,0.75,
0,pause,0.4,None,None,None,0,259,259,259,,,,,,,,,,,,,N012,visual,1,[],"['1', '2', '3', '4']",1,2023.2.3,harveyvisual,2.1,[],8,0.75,
1,dot,0.3,['dot'],['density'],black,0,260,260,260,,,93.40022301673889,93.10767102241516,93.40761303901672,dot,[0.1],"[-0.22356924330877379, 0.41145231278245986]",density,black,,,N012,visual,1,[],"['1', '2', '3', '4']",1,2023.2.3,harveyvisual,2.1,[],8,0.75,
0,pause,0.4,None,None,None,0,261,261,261,,,,,,,,,,,,,N012,visual,1,[],"['1', '2', '3', '4']",1,2023.2.3,harveyvisual,2.1,[],8,0.75,
1,dot,0.3,['dot'],['density'],black,0,262,262,262,,,94.10022401809692,93.80769300460815,94.124342918396,dot,[0.1],"[-0.0300711363278092, -0.16168860719337894]",density,black,,,N012,visual,1,[],"['1', '2', '3', '4']",1,2023.2.3,harveyvisual,2.1,[],8,0.75,
0,pause,0.4,None,None,None,0,263,263,263,,,,,,,,,,,,,N012,visual,1,[],"['1', '2', '3', '4']",1,2023.2.3,harveyvisual,2.1,[],8,0.75,
20,dot,0.3,['dot'],['density'],black,0,264,264,264,,,94.80023789405823,94.52434396743774,94.8243350982666,dot,"[0.06, 0.1, 0.1, 0.1, 0.08, 0.08, 0.1, 0.06, 0.08, 0.08, 0.06, 0.1, 0.08, 0.1, 0.08, 0.08, 0.06, 0.1, 0.06, 0.1]","[[-0.3339486124134636, 0.21148818888239163], [-0.5113941836234572, 0.03501617292135745], [-0.49169580647068756, 0.35286900528520126], [0.119807472289722, 0.024388891876372165], [-0.25594017778301187, -0.32368592309978456], [0.35686093082182313, -0.14925678408253257], [-0.011863858730399413, -0.5346221105492235], [0.3448237849643512, 0.32827411751687235], [0.5492022225769587, -0.12923211825698394], [-0.10496803977865576, -0.17531854998027568], [0.5892827860034432, 0.07317454342654606], [0.25355481923985934, -0.3733181767455629], [-0.01259034731883013, 0.3988062276341251], [-0.1935158193314216, 0.5567885231134369], [-0.5200546709142859, -0.20533105088643094], [-0.22340257202929725, -0.016374348732480448], [0.326202883910959, 0.11518399927843781], [0.24224492390274854, 0.551153863388762], [-0.06180726741033837, 0.08387240220575753], [0.059310829956227495, -0.35901262845521414]]",density,black,,,N012,visual,1,[],"['1', '2', '3', '4']",1,2023.2.3,harveyvisual,2.1,[],8,0.75,
0,pause,0.4,None,None,None,0,265,265,265,,,,,,,,,,,,,N012,visual,1,[],"['1', '2', '3', '4']",1,2023.2.3,harveyvisual,2.1,[],8,0.75,
20,dot,0.3,['dot'],['density'],black,0,266,266,266,,,95.50023102760315,95.22430896759033,95.52428388595581,dot,"[0.1, 0.08, 0.1, 0.1, 0.06, 0.08, 0.1, 0.1, 0.06, 0.06, 0.1, 0.06, 0.06, 0.1, 0.1, 0.06, 0.1, 0.1, 0.08, 0.08]","[[0.0004844227103887322, -0.10933160000548253], [0.018587170901253725, -0.3839476883601929], [-0.40924046465508723, 0.165956670540853], [-0.2811386042754581, -0.1886824222044735], [0.3286880890411692, 0.4337344616397678], [0.20240055412626745, 0.21556917972080114], [-0.21900910948007124, 0.280532980905573], [-0.5957734630920358, -0.03836900446231732], [0.59124221929209, 0.05627970985054423], [0.03178850336735983, 0.33834142500881537], [-0.19385561057335488, -0.41086007687519704], [0.5261268084819163, 0.25188798669142665], [0.3305451848128863, -0.052422902346091926], [0.22330825678411337, -0.5108524554169538], [0.2998339938425487, -0.24669960669443702], [-0.05579808621288729, 0.11068544917432344], [0.44017061431971405, -0.377164201763255], [-0.40410452431279686, -0.3330312181224438], [-0.23925915667932846, 0.04786928450790362], [-0.21399255252876537, 0.5531658585887987]]",density,black,,,N012,visual,1,[],"['1', '2', '3', '4']",1,2023.2.3,harveyvisual,2.1,[],8,0.75,
0,pause,0.4,None,None,None,0,267,267,267,,,,,,,,,,,,,N012,visual,1,[],"['1', '2', '3', '4']",1,2023.2.3,harveyvisual,2.1,[],8,0.75,
