num,mod,duration,shape,ll_cond,colors,.thisRepN,.thisTrialN,.thisN,.thisIndex,thisRow.t,notes,raw_global_time,t_start,t_stop,shapes,size,pos,cond,color,button,RT,participant,session,starting_run,left button (match/odd),right button (non-match/even),samples_per_block,psychopy version,expName,offset,audio,number_runs,radius,
1,dot,0.3,['dot'],['density'],white,0,0,0,0,,,2.400207042694092,2.1060500144958496,2.405959129333496,dot,[0.06],"[-0.30422713965878023, 0.0739284850406325]",density,white,,,N012,visual,6,[],"['1', '2', '3', '4']",1,2023.2.3,harveyvisual,2.1,[],8,0.75,
0,pause,0.4,None,None,None,0,1,1,1,,,,,,,,,,,1,2.5665571689605713,N012,visual,6,[],"['1', '2', '3', '4']",1,2023.2.3,harveyvisual,2.1,[],8,0.75,
1,dot,0.3,['dot'],['density'],black,0,2,2,2,,,3.100219964981079,2.8059611320495605,3.1069540977478027,dot,[0.1],"[-0.43400380483721984, 0.10531265887229962]",density,black,,,N012,visual,6,[],"['1', '2', '3', '4']",1,2023.2.3,harveyvisual,2.1,[],8,0.75,
0,pause,0.4,None,None,None,0,3,3,3,,,,,,,,,,,,,N012,visual,6,[],"['1', '2', '3', '4']",1,2023.2.3,harveyvisual,2.1,[],8,0.75,
1,dot,0.3,['dot'],['density'],black,0,4,4,4,,,3.800205945968628,3.5069100856781006,3.8068840503692627,dot,[0.06],"[-0.43105706563061386, -0.18359692062194616]",density,black,,,N012,visual,6,[],"['1', '2', '3', '4']",1,2023.2.3,harveyvisual,2.1,[],8,0.75,
0,pause,0.4,None,None,None,0,5,5,5,,,,,,,,,,,,,N012,visual,6,[],"['1', '2', '3', '4']",1,2023.2.3,harveyvisual,2.1,[],8,0.75,
1,dot,0.3,['dot'],['density'],black,0,6,6,6,,,4.500216007232666,4.206445932388306,4.506310939788818,dot,[0.1],"[0.25023401086931774, -0.3984124620602511]",density,black,,,N012,visual,6,[],"['1', '2', '3', '4']",1,2023.2.3,harveyvisual,2.1,[],8,0.75,
0,pause,0.4,None,None,None,0,7,7,7,,,,,,,,,,,,,N012,visual,6,[],"['1', '2', '3', '4']",1,2023.2.3,harveyvisual,2.1,[],8,0.75,
1,dot,0.3,['dot'],['density'],black,0,8,8,8,,,5.200200080871582,4.906274080276489,5.2062599658966064,dot,[0.06],"[-0.22364231775977078, 0.4637426405669522]",density,black,,,N012,visual,6,[],"['1', '2', '3', '4']",1,2023.2.3,harveyvisual,2.1,[],8,0.75,
0,pause,0.4,None,None,None,0,9,9,9,,,,,,,,,,,,,N012,visual,6,[],"['1', '2', '3', '4']",1,2023.2.3,harveyvisual,2.1,[],8,0.75,
1,dot,0.3,['dot'],['density'],black,0,10,10,10,,,5.900222063064575,5.6062541007995605,5.908553123474121,dot,[0.1],"[0.4230572171255965, 0.15564154118015242]",density,black,,,N012,visual,6,[],"['1', '2', '3', '4']",1,2023.2.3,harveyvisual,2.1,[],8,0.75,
0,pause,0.4,None,None,None,0,11,11,11,,,,,,,,,,,,,N012,visual,6,[],"['1', '2', '3', '4']",1,2023.2.3,harveyvisual,2.1,[],8,0.75,
2,dot,0.3,['dot'],['density'],black,0,12,12,12,,,6.600199937820435,6.308532953262329,6.608534097671509,dot,"[0.06, 0.1]","[[0.3859848860398513, -0.03650274153894256], [0.5613034441480618, 0.06134992989862206]]",density,black,,,N012,visual,6,[],"['1', '2', '3', '4']",1,2023.2.3,harveyvisual,2.1,[],8,0.75,
0,pause,0.4,None,None,None,0,13,13,13,,,,,,,,,,,,,N012,visual,6,[],"['1', '2', '3', '4']",1,2023.2.3,harveyvisual,2.1,[],8,0.75,
2,dot,0.3,['dot'],['density'],black,0,14,14,14,,,7.300221920013428,7.008531093597412,7.3085010051727295,dot,"[0.1, 0.06]","[[-0.4149324818804315, 0.28007444048998836], [-0.5260390884397633, 0.11347960973083408]]",density,black,,,N012,visual,6,[],"['1', '2', '3', '4']",1,2023.2.3,harveyvisual,2.1,[],8,0.75,
0,pause,0.4,None,None,None,0,15,15,15,,,,,,,,,,,,,N012,visual,6,[],"['1', '2', '3', '4']",1,2023.2.3,harveyvisual,2.1,[],8,0.75,
2,dot,0.3,['dot'],['density'],black,0,16,16,16,,,8.000216960906982,7.708501100540161,8.00849199295044,dot,"[0.06, 0.08]","[[-0.15001882639889116, 0.48719053997247297], [-0.1736568080125972, 0.28835755901726084]]",density,black,,,N012,visual,6,[],"['1', '2', '3', '4']",1,2023.2.3,harveyvisual,2.1,[],8,0.75,
0,pause,0.4,None,None,None,0,17,17,17,,,,,,,,,,,,,N012,visual,6,[],"['1', '2', '3', '4']",1,2023.2.3,harveyvisual,2.1,[],8,0.75,
2,dot,0.3,['dot'],['density'],black,0,18,18,18,,,8.700199127197266,8.408492088317871,8.708475112915039,dot,"[0.08, 0.1]","[[0.09481659993656301, 0.43631713998557026], [0.0662189159667295, 0.23745101446818795]]",density,black,,,N012,visual,6,[],"['1', '2', '3', '4']",1,2023.2.3,harveyvisual,2.1,[],8,0.75,
0,pause,0.4,None,None,None,0,19,19,19,,,,,,,,,,,,,N012,visual,6,[],"['1', '2', '3', '4']",1,2023.2.3,harveyvisual,2.1,[],8,0.75,
2,dot,0.3,['dot'],['density'],black,0,20,20,20,,,9.400203943252563,9.10849905014038,9.408465147018433,dot,"[0.08, 0.08]","[[-0.09730612249650272, 0.4989075015380273], [-0.22752244688881013, 0.34485221713342457]]",density,black,,,N012,visual,6,[],"['1', '2', '3', '4']",1,2023.2.3,harveyvisual,2.1,[],8,0.75,
0,pause,0.4,None,None,None,0,21,21,21,,,,,,,,,,,,,N012,visual,6,[],"['1', '2', '3', '4']",1,2023.2.3,harveyvisual,2.1,[],8,0.75,
2,dot,0.3,['dot'],['density'],black,0,22,22,22,,,10.10020112991333,9.808470010757446,10.108443975448608,dot,"[0.1, 0.08]","[[0.21195259569903124, -0.4986433684978455], [0.023877440871594643, -0.42921284787985464]]",density,black,,,N012,visual,6,[],"['1', '2', '3', '4']",1,2023.2.3,harveyvisual,2.1,[],8,0.75,
0,pause,0.4,None,None,None,0,23,23,23,,,,,,,,,,,,,N012,visual,6,[],"['1', '2', '3', '4']",1,2023.2.3,harveyvisual,2.1,[],8,0.75,
3,dot,0.3,['dot'],['density'],black,0,24,24,24,,,10.800219058990479,10.508440971374512,10.808438062667847,dot,"[0.06, 0.06, 0.06]","[[-0.32624451712468355, -0.43854848545497693], [-0.39409142490376414, -0.22516425170789148], [-0.152352104904091, -0.33204091051628687]]",density,black,,,N012,visual,6,[],"['1', '2', '3', '4']",1,2023.2.3,harveyvisual,2.1,[],8,0.75,
0,pause,0.4,None,None,None,0,25,25,25,,,,,,,,,,,,,N012,visual,6,[],"['1', '2', '3', '4']",1,2023.2.3,harveyvisual,2.1,[],8,0.75,
3,dot,0.3,['dot'],['density'],black,0,26,26,26,,,11.500221014022827,11.2084379196167,11.508415937423706,dot,"[0.08, 0.08, 0.1]","[[0.1555504186016049, 0.15532406847092056], [-0.0680535881648269, 0.26220909641571793], [0.08533315121688807, 0.39122308779032533]]",density,black,,,N012,visual,6,[],"['1', '2', '3', '4']",1,2023.2.3,harveyvisual,2.1,[],8,0.75,
0,pause,0.4,None,None,None,0,27,27,27,,,,,,,,,,,,,N012,visual,6,[],"['1', '2', '3', '4']",1,2023.2.3,harveyvisual,2.1,[],8,0.75,
3,dot,0.3,['dot'],['density'],black,0,28,28,28,,,12.200217008590698,11.90839695930481,12.208397150039673,dot,"[0.08, 0.08, 0.08]","[[0.3835821938049364, -0.20766469641190155], [0.321707527308891, -0.4175939354614905], [0.1897943789354585, -0.2642367600490923]]",density,black,,,N012,visual,6,[],"['1', '2', '3', '4']",1,2023.2.3,harveyvisual,2.1,[],8,0.75,
0,pause,0.4,None,None,None,0,29,29,29,,,,,,,,,,,,,N012,visual,6,[],"['1', '2', '3', '4']",1,2023.2.3,harveyvisual,2.1,[],8,0.75,
3,dot,0.3,['dot'],['density'],black,0,30,30,30,,,12.900219917297363,12.608427047729492,12.908381938934326,dot,"[0.08, 0.06, 0.08]","[[-0.1591938184585166, 0.2573970255855866], [-0.049574382916532336, 0.44031337398050124], [0.08264166875933507, 0.262381570646859]]",density,black,,,N012,visual,6,[],"['1', '2', '3', '4']",1,2023.2.3,harveyvisual,2.1,[],8,0.75,
0,pause,0.4,None,None,None,0,31,31,31,,,,,,,,,,,,,N012,visual,6,[],"['1', '2', '3', '4']",1,2023.2.3,harveyvisual,2.1,[],8,0.75,
3,dot,0.3,['dot'],['density'],black,0,32,32,32,,,13.60020112991333,13.30836796760559,13.608505010604858,dot,"[0.06, 0.06, 0.06]","[[-0.32034981165049564, 0.18083778238314796], [-0.3344619052850136, -0.04022521570367012], [-0.13485517643248812, 0.10330846540140716]]",density,black,,,N012,visual,6,[],"['1', '2', '3', '4']",1,2023.2.3,harveyvisual,2.1,[],8,0.75,
0,pause,0.4,None,None,None,0,33,33,33,,,,,,,,,,,,,N012,visual,6,[],"['1', '2', '3', '4']",1,2023.2.3,harveyvisual,2.1,[],8,0.75,
3,dot,0.3,['dot'],['density'],black,0,34,34,34,,,14.300220966339111,14.00850796699524,14.308506965637207,dot,"[0.08, 0.1, 0.1]","[[-0.10589639487257244, 0.35295021258352427], [0.12780035046084517, 0.3479378296372768], [0.013663645537612555, 0.51889388118174]]",density,black,,,N012,visual,6,[],"['1', '2', '3', '4']",1,2023.2.3,harveyvisual,2.1,[],8,0.75,
0,pause,0.4,None,None,None,0,35,35,35,,,,,,,,,,,,,N012,visual,6,[],"['1', '2', '3', '4']",1,2023.2.3,harveyvisual,2.1,[],8,0.75,
4,dot,0.3,['dot'],['density'],black,0,36,36,36,,,15.000213146209717,14.708395957946777,15.008481979370117,dot,"[0.1, 0.08, 0.1, 0.06]","[[-0.4771446773377139, 0.25157103962592786], [-0.4259846000875058, -0.15982147080050188], [-0.5514119563937664, 0.017569371675289724], [-0.3400083930451492, 0.09263869595453958]]",density,black,,,N012,visual,6,[],"['1', '2', '3', '4']",1,2023.2.3,harveyvisual,2.1,[],8,0.75,
0,pause,0.4,None,None,None,0,37,37,37,,,,,,,,,,,,,N012,visual,6,[],"['1', '2', '3', '4']",1,2023.2.3,harveyvisual,2.1,[],8,0.75,
4,dot,0.3,['dot'],['density'],white,0,38,38,38,,,15.700212955474854,15.408476114273071,15.708363056182861,dot,"[0.06, 0.06, 0.06, 0.08]","[[-0.0389916918612136, -0.388752419995929], [-0.2709884701808293, -0.36873671266769453], [0.09349318837137091, -0.23801008290575854], [-0.09100040788429245, -0.11490803606521542]]",density,white,,,N012,visual,6,[],"['1', '2', '3', '4']",1,2023.2.3,harveyvisual,2.1,[],8,0.75,
0,pause,0.4,None,None,None,0,39,39,39,,,,,,,,,,,1,15.829058170318604,N012,visual,6,[],"['1', '2', '3', '4']",1,2023.2.3,harveyvisual,2.1,[],8,0.75,
4,dot,0.3,['dot'],['density'],black,0,40,40,40,,,16.400212049484253,16.108484983444214,16.408453941345215,dot,"[0.08, 0.06, 0.08, 0.1]","[[-0.2516773625496151, -0.30151264897341506], [-0.16747001932966935, -0.11477707456203952], [0.007305472957725734, -0.4586877449884055], [0.017540980065453668, -0.20354321808263612]]",density,black,,,N012,visual,6,[],"['1', '2', '3', '4']",1,2023.2.3,harveyvisual,2.1,[],8,0.75,
0,pause,0.4,None,None,None,0,41,41,41,,,,,,,,,,,,,N012,visual,6,[],"['1', '2', '3', '4']",1,2023.2.3,harveyvisual,2.1,[],8,0.75,
4,dot,0.3,['dot'],['density'],black,0,42,42,42,,,17.100223064422607,16.80834197998047,17.108309984207153,dot,"[0.06, 0.1, 0.08, 0.1]","[[0.5195678262777355, 0.06634869171649047], [0.11508779247300271, 0.04459464887784077], [0.27862218446352316, 0.18290230777407274], [0.28701832247091064, -0.08209332131291468]]",density,black,,,N012,visual,6,[],"['1', '2', '3', '4']",1,2023.2.3,harveyvisual,2.1,[],8,0.75,
0,pause,0.4,None,None,None,0,43,43,43,,,,,,,,,,,,,N012,visual,6,[],"['1', '2', '3', '4']",1,2023.2.3,harveyvisual,2.1,[],8,0.75,
4,dot,0.3,['dot'],['density'],black,0,44,44,44,,,17.800209045410156,17.508304119110107,17.808325052261353,dot,"[0.1, 0.08, 0.1, 0.08]","[[-0.035956560563939345, -0.32709283091503677], [-0.2190429995428959, -0.2035699502326352], [-0.06992348234594314, -0.5664776463754845], [-0.220471277594294, -0.41208836036752056]]",density,black,,,N012,visual,6,[],"['1', '2', '3', '4']",1,2023.2.3,harveyvisual,2.1,[],8,0.75,
0,pause,0.4,None,None,None,0,45,45,45,,,,,,,,,,,,,N012,visual,6,[],"['1', '2', '3', '4']",1,2023.2.3,harveyvisual,2.1,[],8,0.75,
4,dot,0.3,['dot'],['density'],black,0,46,46,46,,,18.500208139419556,18.208295106887817,18.508261919021606,dot,"[0.06, 0.08, 0.06, 0.1]","[[0.14909032788103166, -0.4768554918693636], [0.26071220381864263, -0.20018841858473793], [0.02634252458519163, -0.30967292471165575], [0.3541358554053611, -0.43808560323820217]]",density,black,,,N012,visual,6,[],"['1', '2', '3', '4']",1,2023.2.3,harveyvisual,2.1,[],8,0.75,
0,pause,0.4,None,None,None,0,47,47,47,,,,,,,,,,,,,N012,visual,6,[],"['1', '2', '3', '4']",1,2023.2.3,harveyvisual,2.1,[],8,0.75,
5,dot,0.3,['dot'],['density'],white,0,48,48,48,,,19.200212001800537,18.908334970474243,19.208218097686768,dot,"[0.1, 0.06, 0.1, 0.06, 0.06]","[[0.07471778162596296, -0.10525453490666745], [0.30258431325283514, -0.18125951612401361], [-0.10797831538154114, 0.025200229490558432], [0.07898181201564736, 0.11749757771993925], [0.31731369449760916, 0.032388289652815004]]",density,white,,,N012,visual,6,[],"['1', '2', '3', '4']",1,2023.2.3,harveyvisual,2.1,[],8,0.75,
0,pause,0.4,None,None,None,0,49,49,49,,,,,,,,,,,,,N012,visual,6,[],"['1', '2', '3', '4']",1,2023.2.3,harveyvisual,2.1,[],8,0.75,
5,dot,0.3,['dot'],['density'],black,0,50,50,50,,,19.900241136550903,19.60825800895691,19.908239126205444,dot,"[0.08, 0.06, 0.08, 0.1, 0.08]","[[-0.006164932418690097, -0.4528126201229341], [-0.1681524682570009, -0.11721653268637569], [-0.1959903964051736, -0.3710708837277218], [0.03544926667602863, -0.1302589477940128], [0.16830580561999814, -0.32298356607012285]]",density,black,1,19.63651704788208,N012,visual,6,[],"['1', '2', '3', '4']",1,2023.2.3,harveyvisual,2.1,[],8,0.75,
0,pause,0.4,None,None,None,0,51,51,51,,,,,,,,,,,,,N012,visual,6,[],"['1', '2', '3', '4']",1,2023.2.3,harveyvisual,2.1,[],8,0.75,
5,dot,0.3,['dot'],['density'],black,0,52,52,52,,,20.60021996498108,20.308231115341187,20.60821509361267,dot,"[0.06, 0.08, 0.06, 0.08, 0.1]","[[-0.0036269740154891753, 0.5431219823242713], [-0.2646325594942043, 0.5073179604697073], [-0.41902475937036154, 0.37311436690984484], [-0.007163214206743488, 0.2887893175302695], [-0.2156098228659233, 0.2684642371109035]]",density,black,,,N012,visual,6,[],"['1', '2', '3', '4']",1,2023.2.3,harveyvisual,2.1,[],8,0.75,
0,pause,0.4,None,None,None,0,53,53,53,,,,,,,,,,,,,N012,visual,6,[],"['1', '2', '3', '4']",1,2023.2.3,harveyvisual,2.1,[],8,0.75,
5,dot,0.3,['dot'],['density'],black,0,54,54,54,,,21.30022096633911,21.008382081985474,21.308341026306152,dot,"[0.08, 0.06, 0.1, 0.06, 0.08]","[[-0.20882687658313398, 0.05979685123170853], [0.07709165915785691, 0.33819008637117026], [0.02323578322535992, 0.12175330968231063], [0.02522363087913582, -0.08718927316059993], [-0.12152044988768049, 0.28453648995279207]]",density,black,,,N012,visual,6,[],"['1', '2', '3', '4']",1,2023.2.3,harveyvisual,2.1,[],8,0.75,
0,pause,0.4,None,None,None,0,55,55,55,,,,,,,,,,,,,N012,visual,6,[],"['1', '2', '3', '4']",1,2023.2.3,harveyvisual,2.1,[],8,0.75,
5,dot,0.3,['dot'],['density'],black,0,56,56,56,,,22.00022292137146,21.708359003067017,22.00832200050354,dot,"[0.1, 0.08, 0.1, 0.08, 0.1]","[[0.2447541601906441, 0.3086669061463178], [0.2085849672204031, -0.04267428248465989], [0.44393754570968663, -0.061602228714441105], [0.027125763574429876, 0.05764502161176834], [0.36879828001487897, 0.1310025380577708]]",density,black,,,N012,visual,6,[],"['1', '2', '3', '4']",1,2023.2.3,harveyvisual,2.1,[],8,0.75,
0,pause,0.4,None,None,None,0,57,57,57,,,,,,,,,,,,,N012,visual,6,[],"['1', '2', '3', '4']",1,2023.2.3,harveyvisual,2.1,[],8,0.75,
5,dot,0.3,['dot'],['density'],black,0,58,58,58,,,22.700212955474854,22.408349990844727,22.70833396911621,dot,"[0.08, 0.06, 0.1, 0.08, 0.1]","[[-0.13667773294397823, -0.4810836359727921], [0.22435054442879343, -0.38211739689247126], [0.18745946747878278, -0.17039478388844306], [0.024239655080151325, -0.29759851870815907], [0.08919077751561523, -0.5300131723353856]]",density,black,,,N012,visual,6,[],"['1', '2', '3', '4']",1,2023.2.3,harveyvisual,2.1,[],8,0.75,
0,pause,0.4,None,None,None,0,59,59,59,,,,,,,,,,,,,N012,visual,6,[],"['1', '2', '3', '4']",1,2023.2.3,harveyvisual,2.1,[],8,0.75,
6,dot,0.3,['dot'],['density'],black,0,60,60,60,,,23.400217056274414,23.108216047286987,23.408146142959595,dot,"[0.1, 0.1, 0.06, 0.06, 0.06, 0.06]","[[0.1643264729387965, -0.2471077239796436], [-0.22534804549937193, -0.4918728234310363], [-0.026166131246113146, -0.09278119687647148], [-0.24451989516519138, -0.21339523607155425], [0.11868454116144263, -0.4574197693624388], [-0.058907778787058426, -0.30919141315076737]]",density,black,,,N012,visual,6,[],"['1', '2', '3', '4']",1,2023.2.3,harveyvisual,2.1,[],8,0.75,
0,pause,0.4,None,None,None,0,61,61,61,,,,,,,,,,,,,N012,visual,6,[],"['1', '2', '3', '4']",1,2023.2.3,harveyvisual,2.1,[],8,0.75,
6,dot,0.3,['dot'],['density'],black,0,62,62,62,,,24.100213050842285,23.808372020721436,24.108346939086914,dot,"[0.06, 0.08, 0.08, 0.08, 0.1, 0.1]","[[-0.08086177951302478, 0.2470577028799217], [0.17809040740055945, 0.25721690350386706], [0.248993691455746, -0.144418230259854], [0.04260816027356476, -0.17251108440570345], [0.26201279645255604, 0.07253913185781388], [-0.0017619790798508912, 0.027830886297901026]]",density,black,,,N012,visual,6,[],"['1', '2', '3', '4']",1,2023.2.3,harveyvisual,2.1,[],8,0.75,
0,pause,0.4,None,None,None,0,63,63,63,,,,,,,,,,,,,N012,visual,6,[],"['1', '2', '3', '4']",1,2023.2.3,harveyvisual,2.1,[],8,0.75,
6,dot,0.3,['dot'],['density'],black,0,64,64,64,,,24.80021905899048,24.508098125457764,24.80809712409973,dot,"[0.1, 0.06, 0.1, 0.1, 0.06, 0.06]","[[-0.4836161913484198, -0.3187453071493452], [-0.26471688047626735, -0.2860523134109648], [-0.41762950244179403, 0.08668289631298715], [-0.3878484475239729, -0.1200129628316565], [-0.19654931186518254, -0.017200237521102193], [-0.07523945320955261, -0.19429752312200124]]",density,black,,,N012,visual,6,[],"['1', '2', '3', '4']",1,2023.2.3,harveyvisual,2.1,[],8,0.75,
0,pause,0.4,None,None,None,0,65,65,65,,,,,,,,,,,,,N012,visual,6,[],"['1', '2', '3', '4']",1,2023.2.3,harveyvisual,2.1,[],8,0.75,
6,dot,0.3,['dot'],['density'],black,0,66,66,66,,,25.500221967697144,25.208159923553467,25.50809407234192,dot,"[0.06, 0.08, 0.08, 0.1, 0.1, 0.08]","[[0.0015484977009578463, -0.37153509484940705], [-0.24631791352898516, -0.16063896847060222], [-0.21037316856202723, -0.37491302730087106], [-0.14520134419833938, 0.05228402714841561], [-0.41979900021501537, -0.27073368115662844], [-0.020720382871846178, -0.14076137757070492]]",density,black,,,N012,visual,6,[],"['1', '2', '3', '4']",1,2023.2.3,harveyvisual,2.1,[],8,0.75,
0,pause,0.4,None,None,None,0,67,67,67,,,,,,,,,,,,,N012,visual,6,[],"['1', '2', '3', '4']",1,2023.2.3,harveyvisual,2.1,[],8,0.75,
6,dot,0.3,['dot'],['density'],black,0,68,68,68,,,26.200212001800537,25.908074140548706,26.20806312561035,dot,"[0.1, 0.1, 0.1, 0.08, 0.06, 0.06]","[[0.0015484977009578463, -0.37153509484940705], [-0.24631791352898516, -0.16063896847060222], [-0.21037316856202723, -0.37491302730087106], [-0.14520134419833938, 0.05228402714841561], [-0.41979900021501537, -0.27073368115662844], [-0.020720382871846178, -0.14076137757070492]]",density,black,,,N012,visual,6,[],"['1', '2', '3', '4']",1,2023.2.3,harveyvisual,2.1,[],8,0.75,
0,pause,0.4,None,None,None,0,69,69,69,,,,,,,,,,,,,N012,visual,6,[],"['1', '2', '3', '4']",1,2023.2.3,harveyvisual,2.1,[],8,0.75,
6,dot,0.3,['dot'],['density'],white,0,70,70,70,,,26.900219917297363,26.608057975769043,26.90804409980774,dot,"[0.1, 0.08, 0.1, 0.1, 0.1, 0.08]","[[-0.5416753121247185, 0.020803147184574915], [-0.3232269173664433, -0.07161231053200118], [-0.3008479376061402, -0.286480119217458], [-0.22299540496279888, 0.12470258063391813], [-0.10776740766186912, -0.19554033341247495], [-0.5165544979209102, -0.21376225914528924]]",density,white,,,N012,visual,6,[],"['1', '2', '3', '4']",1,2023.2.3,harveyvisual,2.1,[],8,0.75,
0,pause,0.4,None,None,None,0,71,71,71,,,,,,,,,,,1,27.067421197891235,N012,visual,6,[],"['1', '2', '3', '4']",1,2023.2.3,harveyvisual,2.1,[],8,0.75,
7,dot,0.3,['dot'],['density'],black,0,72,72,72,,,27.60021996498108,27.30802893638611,27.60801100730896,dot,"[0.1, 0.1, 0.08, 0.1, 0.1, 0.1, 0.1]","[[0.3302081014073935, 0.19448071361351732], [-0.22286629369238187, 0.3450023392305547], [-0.11533339293480348, 0.13926201039730488], [0.12023407780451623, 0.21240672508650668], [0.2659789407074307, 0.3894086603790018], [0.026604934602130894, 0.39133200849180605], [0.212400253920387, 0.027377351413115796]]",density,black,,,N012,visual,6,[],"['1', '2', '3', '4']",1,2023.2.3,harveyvisual,2.1,[],8,0.75,
0,pause,0.4,None,None,None,0,73,73,73,,,,,,,,,,,,,N012,visual,6,[],"['1', '2', '3', '4']",1,2023.2.3,harveyvisual,2.1,[],8,0.75,
7,dot,0.3,['dot'],['density'],black,0,74,74,74,,,28.300225019454956,28.00804615020752,28.30803608894348,dot,"[0.06, 0.06, 0.08, 0.08, 0.1, 0.06, 0.1]","[[0.21536278937261513, -0.01733091677764761], [-0.08931035591216824, -0.05246349631749078], [0.21870610454298933, 0.21067491250041093], [-0.1587576617113587, 0.26068369883413384], [0.04623079518225047, 0.4568527369480977], [0.022942391481424712, 0.13939122930077608], [-0.27674911739568203, 0.09730719745121558]]",density,black,,,N012,visual,6,[],"['1', '2', '3', '4']",1,2023.2.3,harveyvisual,2.1,[],8,0.75,
0,pause,0.4,None,None,None,0,75,75,75,,,,,,,,,,,,,N012,visual,6,[],"['1', '2', '3', '4']",1,2023.2.3,harveyvisual,2.1,[],8,0.75,
7,dot,0.3,['dot'],['density'],black,0,76,76,76,,,29.000205993652344,28.707993984222412,29.007983922958374,dot,"[0.06, 0.08, 0.1, 0.08, 0.08, 0.08, 0.06]","[[-0.3423230189937584, -0.41219609722212536], [-0.1182323968952694, -0.35552357509158045], [-0.4111032443031386, -0.006313161275750597], [-0.5095560862941229, -0.2529410328503813], [-0.2588176969072235, -0.18091026219072012], [-0.0026253510642934245, -0.12197054074907589], [-0.16586784627322051, 0.0941069694468023]]",density,black,,,N012,visual,6,[],"['1', '2', '3', '4']",1,2023.2.3,harveyvisual,2.1,[],8,0.75,
0,pause,0.4,None,None,None,0,77,77,77,,,,,,,,,,,,,N012,visual,6,[],"['1', '2', '3', '4']",1,2023.2.3,harveyvisual,2.1,[],8,0.75,
7,dot,0.3,['dot'],['density'],black,0,78,78,78,,,29.700221061706543,29.408002138137817,29.70798897743225,dot,"[0.1, 0.1, 0.08, 0.06, 0.1, 0.06, 0.08]","[[-0.2314520007693297, 0.33838000150240727], [-0.18132207761103206, 0.5552670473927488], [0.017458222085991553, 0.32213086183097556], [0.10538257653630445, 0.5364165263315271], [-0.32661765694444117, 0.13553859080651098], [0.2001110614088519, 0.2352342526365964], [-0.07707990285528175, 0.1388757586163816]]",density,black,,,N012,visual,6,[],"['1', '2', '3', '4']",1,2023.2.3,harveyvisual,2.1,[],8,0.75,
0,pause,0.4,None,None,None,0,79,79,79,,,,,,,,,,,,,N012,visual,6,[],"['1', '2', '3', '4']",1,2023.2.3,harveyvisual,2.1,[],8,0.75,
7,dot,0.3,['dot'],['density'],black,0,80,80,80,,,30.400224924087524,30.107972145080566,30.407973051071167,dot,"[0.06, 0.1, 0.06, 0.06, 0.1, 0.06, 0.1]","[[-0.2877807563129739, -0.2392998172879968], [-0.4930284393840153, 0.02918626900802282], [-0.13307942101536208, -0.4135874564509098], [-0.1727922191076213, -0.04289663127052677], [-0.3943840059764042, -0.4351600913800347], [-0.03321109949484203, -0.21096883087625085], [-0.5418728138863746, -0.1990057631286019]]",density,black,,,N012,visual,6,[],"['1', '2', '3', '4']",1,2023.2.3,harveyvisual,2.1,[],8,0.75,
0,pause,0.4,None,None,None,0,81,81,81,,,,,,,,,,,,,N012,visual,6,[],"['1', '2', '3', '4']",1,2023.2.3,harveyvisual,2.1,[],8,0.75,
7,dot,0.3,['dot'],['density'],black,0,82,82,82,,,31.10021710395813,30.808004140853882,31.10793900489807,dot,"[0.1, 0.08, 0.06, 0.08, 0.08, 0.08, 0.1]","[[0.21536278937261513, -0.01733091677764761], [-0.08931035591216824, -0.05246349631749078], [0.21870610454298933, 0.21067491250041093], [-0.1587576617113587, 0.26068369883413384], [0.04623079518225047, 0.4568527369480977], [0.022942391481424712, 0.13939122930077608], [-0.27674911739568203, 0.09730719745121558]]",density,black,,,N012,visual,6,[],"['1', '2', '3', '4']",1,2023.2.3,harveyvisual,2.1,[],8,0.75,
0,pause,0.4,None,None,None,0,83,83,83,,,,,,,,,,,,,N012,visual,6,[],"['1', '2', '3', '4']",1,2023.2.3,harveyvisual,2.1,[],8,0.75,
8,dot,0.3,['dot'],['density'],black,0,84,84,84,,,31.800214052200317,31.507998943328857,31.808007955551147,dot,"[0.1, 0.06, 0.08, 0.1, 0.08, 0.08, 0.06, 0.06]","[[-0.20800618360187478, -0.297823595680997], [0.0208603014005115, -0.46570844314230314], [-0.33947416747489917, -0.46414587466331364], [-0.2657502487478435, -0.0024929956194721667], [-0.07971030345085922, -0.1368829558420488], [0.12327021606192319, -0.12614842517591618], [-0.10944837079043952, 0.12795643756026515], [-0.4050023469846894, -0.16101207847090707]]",density,black,,,N012,visual,6,[],"['1', '2', '3', '4']",1,2023.2.3,harveyvisual,2.1,[],8,0.75,
0,pause,0.4,None,None,None,0,85,85,85,,,,,,,,,,,,,N012,visual,6,[],"['1', '2', '3', '4']",1,2023.2.3,harveyvisual,2.1,[],8,0.75,
8,dot,0.3,['dot'],['density'],black,0,86,86,86,,,32.50022506713867,32.20793414115906,32.50790309906006,dot,"[0.1, 0.06, 0.1, 0.08, 0.1, 0.08, 0.06, 0.08]","[[0.2715518471235014, -0.4245138665073026], [0.03602391524707561, -0.40638782213015096], [0.4828297141312073, -0.09119901312376678], [0.02835794216237903, 0.028275321652194735], [-0.0895445032969687, -0.19822740391127236], [0.3178997883629752, 0.08245100984997318], [0.21920060966397442, -0.22342839817001514], [0.46807969757011175, -0.32427319705723295]]",density,black,,,N012,visual,6,[],"['1', '2', '3', '4']",1,2023.2.3,harveyvisual,2.1,[],8,0.75,
0,pause,0.4,None,None,None,0,87,87,87,,,,,,,,,,,,,N012,visual,6,[],"['1', '2', '3', '4']",1,2023.2.3,harveyvisual,2.1,[],8,0.75,
8,dot,0.3,['dot'],['density'],black,0,88,88,88,,,33.20021104812622,32.90790510177612,33.20788311958313,dot,"[0.1, 0.1, 0.1, 0.1, 0.06, 0.08, 0.06, 0.08]","[[-0.24177141476747963, 0.37227001522147646], [0.022885153928237218, 0.26973630011126315], [-0.028424808126663318, 0.474031493095366], [-0.14677856605916886, 0.1510981622513803], [-0.33541894344674456, 0.07730913931898181], [0.10840621230513336, 0.04997884008138209], [0.30094222783758756, 0.17024461371702543], [-0.056701880949321645, -0.08542646800774611]]",density,black,,,N012,visual,6,[],"['1', '2', '3', '4']",1,2023.2.3,harveyvisual,2.1,[],8,0.75,
0,pause,0.4,None,None,None,0,89,89,89,,,,,,,,,,,,,N012,visual,6,[],"['1', '2', '3', '4']",1,2023.2.3,harveyvisual,2.1,[],8,0.75,
8,dot,0.3,['dot'],['density'],white,0,90,90,90,,,33.9002161026001,33.60790205001831,33.90787601470947,dot,"[0.08, 0.1, 0.08, 0.08, 0.06, 0.08, 0.1, 0.06]","[[0.43039348711459674, -0.2176132953198537], [0.11499515674856413, 0.2899266495440316], [0.12808102003139596, -0.009244067984354065], [-0.030386771168905473, -0.2551920291624523], [0.3118809155168881, 0.2081403981228026], [-0.06282563634610334, 0.11114412413027695], [0.22944900542930163, -0.23921835558115082], [0.33219925311336224, 0.0035410395788749187]]",density,white,,,N012,visual,6,[],"['1', '2', '3', '4']",1,2023.2.3,harveyvisual,2.1,[],8,0.75,
0,pause,0.4,None,None,None,0,91,91,91,,,,,,,,,,,1,34.004287004470825,N012,visual,6,[],"['1', '2', '3', '4']",1,2023.2.3,harveyvisual,2.1,[],8,0.75,
8,dot,0.3,['dot'],['density'],black,0,92,92,92,,,34.60020613670349,34.307876110076904,34.607872009277344,dot,"[0.1, 0.1, 0.08, 0.1, 0.1, 0.06, 0.1, 0.1]","[[-0.2395708272612018, -0.3613018167456044], [-0.39529086986423073, -0.13116056396528103], [0.016143118738118, -0.3000453801144436], [-0.10247857353615338, 0.12176090555598315], [0.11784264820349834, -0.12422453235794288], [-0.1468533202112338, -0.18280007972172757], [-0.31504288856899026, 0.06147683711297207], [0.2614313121475242, -0.33215718180641224]]",density,black,,,N012,visual,6,[],"['1', '2', '3', '4']",1,2023.2.3,harveyvisual,2.1,[],8,0.75,
0,pause,0.4,None,None,None,0,93,93,93,,,,,,,,,,,,,N012,visual,6,[],"['1', '2', '3', '4']",1,2023.2.3,harveyvisual,2.1,[],8,0.75,
8,dot,0.3,['dot'],['density'],black,0,94,94,94,,,35.300217151641846,35.007853984832764,35.30775499343872,dot,"[0.1, 0.1, 0.08, 0.06, 0.1, 0.08, 0.06, 0.08]","[[-0.21605400050023119, -0.36806604112140096], [-0.4331556331222778, 0.1336594927324191], [-0.3157474098875971, -0.1371073420352747], [-0.10064365538588134, -0.10053754910436148], [0.10862445751928086, -0.04115753002163663], [-0.19663983546434133, 0.09424647547905109], [-0.5379272585723496, -0.06117038891009633], [0.023355790718173546, -0.2955553217846553]]",density,black,,,N012,visual,6,[],"['1', '2', '3', '4']",1,2023.2.3,harveyvisual,2.1,[],8,0.75,
0,pause,0.4,None,None,None,0,95,95,95,,,,,,,,,,,,,N012,visual,6,[],"['1', '2', '3', '4']",1,2023.2.3,harveyvisual,2.1,[],8,0.75,
9,dot,0.3,['dot'],['density'],black,0,96,96,96,,,36.000205993652344,35.70785999298096,36.007936000823975,dot,"[0.08, 0.08, 0.1, 0.08, 0.08, 0.06, 0.08, 0.06, 0.06]","[[0.5633060189111645, -0.020447411670609934], [0.24486306384976717, 0.44476630120442473], [0.18428866344346043, -0.051083701103786204], [0.30165572131442664, 0.2239114093385097], [-0.0017431279865323516, 0.11759053127645673], [0.36864926730470376, 0.029118730319846676], [0.08307425003498874, 0.31712463906399285], [0.26393370779995823, -0.24286541122091637], [0.5109425385251136, 0.2557989077594731]]",density,black,,,N012,visual,6,[],"['1', '2', '3', '4']",1,2023.2.3,harveyvisual,2.1,[],8,0.75,
0,pause,0.4,None,None,None,0,97,97,97,,,,,,,,,,,,,N012,visual,6,[],"['1', '2', '3', '4']",1,2023.2.3,harveyvisual,2.1,[],8,0.75,
9,dot,0.3,['dot'],['density'],black,0,98,98,98,,,36.70023012161255,36.40800094604492,36.707958936691284,dot,"[0.08, 0.06, 0.1, 0.08, 0.08, 0.06, 0.06, 0.06, 0.1]","[[0.4907720478217397, -0.04420899316542184], [0.34945142516086164, 0.15252383324094793], [0.5574461082468273, 0.19132091369540322], [0.27860246559707486, -0.040271372914082004], [0.05137088633600719, 0.3166781443626957], [0.3859483744724672, 0.35594746641407654], [0.08124150308634055, -0.11830714188255424], [-0.07254784919135501, 0.1430213671552253], [0.33979531306265204, -0.26214422422440126]]",density,black,,,N012,visual,6,[],"['1', '2', '3', '4']",1,2023.2.3,harveyvisual,2.1,[],8,0.75,
0,pause,0.4,None,None,None,0,99,99,99,,,,,,,,,,,,,N012,visual,6,[],"['1', '2', '3', '4']",1,2023.2.3,harveyvisual,2.1,[],8,0.75,
9,dot,0.3,['dot'],['density'],black,0,100,100,100,,,37.40021014213562,37.10795497894287,37.40794897079468,dot,"[0.1, 0.06, 0.08, 0.06, 0.08, 0.06, 0.08, 0.08, 0.06]","[[0.5571797577834091, 0.07732674165650813], [0.16332656704353227, -0.09331314560094064], [0.4138178119161903, 0.3925230053806507], [0.28711316854655766, 0.07147022394212545], [0.052100496024031176, 0.3810199549023822], [0.2172039135420496, 0.26337040755706287], [-0.2646845915772586, 0.12849707234668142], [0.21844181080216274, 0.4926952285236599], [0.0761275456309072, 0.11718001140956479]]",density,black,,,N012,visual,6,[],"['1', '2', '3', '4']",1,2023.2.3,harveyvisual,2.1,[],8,0.75,
0,pause,0.4,None,None,None,0,101,101,101,,,,,,,,,,,,,N012,visual,6,[],"['1', '2', '3', '4']",1,2023.2.3,harveyvisual,2.1,[],8,0.75,
9,dot,0.3,['dot'],['density'],black,0,102,102,102,,,38.100213050842285,37.807937145233154,38.107917070388794,dot,"[0.06, 0.08, 0.08, 0.08, 0.1, 0.08, 0.06, 0.08, 0.06]","[[-0.4219467838066047, -0.18114019941065054], [-0.2081543488995217, -0.4860059455967178], [-0.008274735502094755, -0.3457533902190916], [0.02376323820852766, -0.0891001390581758], [-0.4116277839025775, 0.058108040724694845], [-0.18144554169200455, -0.05292133149533743], [0.21944315682242976, -0.26450239569476724], [0.11466821484809545, 0.13327019789913197], [-0.2288148866166432, -0.2599929378926301]]",density,black,,,N012,visual,6,[],"['1', '2', '3', '4']",1,2023.2.3,harveyvisual,2.1,[],8,0.75,
0,pause,0.4,None,None,None,0,103,103,103,,,,,,,,,,,,,N012,visual,6,[],"['1', '2', '3', '4']",1,2023.2.3,harveyvisual,2.1,[],8,0.75,
9,dot,0.3,['dot'],['density'],black,0,104,104,104,,,38.800209045410156,38.507813930511475,38.807711124420166,dot,"[0.1, 0.06, 0.1, 0.08, 0.1, 0.1, 0.06, 0.08, 0.06]","[[0.21556792455118703, 0.37642033042102185], [0.14366510572844648, -0.18651452926789283], [0.49642287684820396, -0.0794158383055628], [-0.04770628609247857, -0.12519201939426747], [0.20310136493979325, 0.154094551714378], [-0.004065485174475974, 0.09100382633055243], [-0.018053901421587658, 0.34918523294118026], [0.29624623666919286, -0.053344657000752645], [-0.2018857737562037, 0.01971770186205045]]",density,black,,,N012,visual,6,[],"['1', '2', '3', '4']",1,2023.2.3,harveyvisual,2.1,[],8,0.75,
0,pause,0.4,None,None,None,0,105,105,105,,,,,,,,,,,,,N012,visual,6,[],"['1', '2', '3', '4']",1,2023.2.3,harveyvisual,2.1,[],8,0.75,
9,dot,0.3,['dot'],['density'],white,0,106,106,106,,,39.50022602081299,39.207916021347046,39.507899045944214,dot,"[0.08, 0.1, 0.08, 0.06, 0.08, 0.08, 0.06, 0.06, 0.06]","[[0.22829877875946783, -0.39640994854570016], [0.3366371496270161, 0.05839125036393789], [-0.11436045239834208, -0.12024221759915668], [-0.02100147820737577, -0.3824026009196371], [0.08479146627654295, 0.024089629435920912], [0.16206374850784472, -0.16075841177209507], [0.38495438842944835, -0.24810596019115372], [-0.23418047716532614, 0.09565997955556291], [0.2111996426858246, 0.23215637940447356]]",density,white,,,N012,visual,6,[],"['1', '2', '3', '4']",1,2023.2.3,harveyvisual,2.1,[],8,0.75,
0,pause,0.4,None,None,None,0,107,107,107,,,,,,,,,,,1,39.611019134521484,N012,visual,6,[],"['1', '2', '3', '4']",1,2023.2.3,harveyvisual,2.1,[],8,0.75,
20,dot,0.3,['dot'],['density'],black,0,108,108,108,,,40.20022106170654,39.92442202568054,40.224395990371704,dot,"[0.06, 0.1, 0.1, 0.1, 0.08, 0.08, 0.06, 0.1, 0.08, 0.08, 0.1, 0.1, 0.06, 0.08, 0.06, 0.08, 0.08, 0.1, 0.08, 0.08]","[[0.16898992846141203, -0.5414337940231109], [-0.5504127236227904, 0.04843895960220873], [0.5337541324725815, -0.18863435659572397], [0.2390780355861436, -0.2801520963268705], [0.027403822692198765, -0.08785426064735125], [0.2539302524623702, 0.335306398418577], [-0.29652146202922336, 0.3882844995093673], [-0.1265801326606233, -0.350031279141223], [0.0716548183790795, 0.5281164677136861], [-0.1992568197000591, 0.0017699051969647384], [-0.10370316838416038, 0.25064367336061355], [0.2976393537626425, -0.024412097001520028], [-0.40864913300835803, -0.35428996710596755], [-0.35055758505119616, 0.18160354954077657], [0.5379992915690227, 0.26829945835208746], [-0.26557456806641766, -0.5243545060083649], [0.5996687637093331, 0.042665420108037935], [-0.38570431706949815, -0.12671715053632765], [-0.036743733929364364, -0.5599477285644965], [0.4346284840719584, -0.3601167343263671]]",density,black,,,N012,visual,6,[],"['1', '2', '3', '4']",1,2023.2.3,harveyvisual,2.1,[],8,0.75,
0,pause,0.4,None,None,None,0,109,109,109,,,,,,,,,,,,,N012,visual,6,[],"['1', '2', '3', '4']",1,2023.2.3,harveyvisual,2.1,[],8,0.75,
20,dot,0.3,['dot'],['density'],black,0,110,110,110,,,40.90021800994873,40.62438702583313,40.924371004104614,dot,"[0.08, 0.1, 0.1, 0.08, 0.08, 0.08, 0.06, 0.06, 0.1, 0.1, 0.08, 0.08, 0.1, 0.08, 0.08, 0.1, 0.06, 0.06, 0.08, 0.1]","[[0.39608338831206635, -0.1553815648461327], [-0.23570747990708635, -0.38991990408797195], [-0.293146974045657, 0.048834685544393075], [0.194969267841001, -0.5096613202199596], [0.4355194214517514, 0.20463130525674783], [0.24714503841099345, -0.30413282913390594], [0.10622075625897998, 0.18874519654664446], [-0.3465649714279235, -0.13323164747984118], [-0.06658695832234962, 0.5640123633374711], [-0.4224770558731257, 0.23056224725621166], [0.1563999776827093, 0.4608120749759004], [-0.19235904305408524, 0.27065352745855853], [-0.4795983907298308, -0.3256885770490062], [-0.5822688899600518, -0.15144587894003514], [0.3983182038559133, 0.44207683454413116], [0.010100535856580217, -0.36088908737533554], [-0.3379613320263666, 0.42922589669854605], [-0.5555114431921653, 0.09544184227850136], [-0.07224590874242842, 0.03951144530244011], [0.001506093962677646, -0.5865812371415677]]",density,black,,,N012,visual,6,[],"['1', '2', '3', '4']",1,2023.2.3,harveyvisual,2.1,[],8,0.75,
0,pause,0.4,None,None,None,0,111,111,111,,,,,,,,,,,,,N012,visual,6,[],"['1', '2', '3', '4']",1,2023.2.3,harveyvisual,2.1,[],8,0.75,
20,dot,0.3,['dot'],['density'],black,0,112,112,112,,,41.6002140045166,41.32436513900757,41.62435793876648,dot,"[0.06, 0.08, 0.1, 0.08, 0.08, 0.06, 0.06, 0.1, 0.06, 0.06, 0.06, 0.06, 0.06, 0.06, 0.08, 0.08, 0.06, 0.08, 0.08, 0.08]","[[0.13960760160044505, -0.3392900417337057], [-0.5561132100133725, -0.1333531235296997], [0.39988013067665007, -0.33044226203820226], [-0.20101390588924867, 0.1821793682601941], [0.24489342024953986, 0.4830053613958797], [-0.5067272554532247, 0.11485077449686237], [-0.37042949939228564, -0.22234013821251525], [0.14832306316736188, 0.07263097679155306], [-0.15671170723665334, 0.38312444750573016], [0.4677344267078517, -0.0046705392856635775], [0.5733630350177678, -0.16961950888478197], [-0.4645031355649027, 0.3073308260568773], [-0.13193158460825977, -0.16530684447402416], [-0.23612590455199328, -0.4237348864501871], [0.4159377749326284, 0.2408342559373982], [0.16355260798111082, -0.14156599080836785], [0.046953795821520705, 0.26373492808225363], [0.059702404867194137, -0.5476069539074868], [0.04354087751627056, 0.49846765723859954], [-0.3289342805310684, 0.4846087007401553]]",density,black,,,N012,visual,6,[],"['1', '2', '3', '4']",1,2023.2.3,harveyvisual,2.1,[],8,0.75,
0,pause,0.4,None,None,None,0,113,113,113,,,,,,,,,,,,,N012,visual,6,[],"['1', '2', '3', '4']",1,2023.2.3,harveyvisual,2.1,[],8,0.75,
20,dot,0.3,['dot'],['density'],black,0,114,114,114,,,42.300217151641846,42.02436804771423,42.324329137802124,dot,"[0.1, 0.08, 0.06, 0.1, 0.1, 0.1, 0.1, 0.06, 0.1, 0.1, 0.08, 0.1, 0.06, 0.06, 0.08, 0.06, 0.06, 0.1, 0.08, 0.1]","[[0.48729336471109075, -0.2904335763923057], [0.4253582938935002, 0.09723133252177357], [-0.06092219632481255, -0.20750095764039583], [-0.024245148969335717, 0.4111661712190904], [-0.23965481616318562, 0.14957896025422512], [-0.33472138421386105, 0.3739147531669902], [-0.5391451135299896, 0.11690133738086228], [0.36944306912352587, 0.2937311215713078], [-0.16428180045352858, 0.5823817021763891], [0.05457752681754624, -0.4429362450156605], [-0.470976244644329, -0.342036536700217], [-0.027676804717124304, 0.09887694909552835], [0.6047088017904886, -0.01848342528894284], [0.30096388864886603, -0.16850659727461637], [-0.2414655719628903, -0.2870234244390158], [0.1499252980720447, 0.24176964969650594], [-0.3997329288541562, -0.11937150397360757], [0.2768981900013592, -0.4692062778431502], [0.2492264594198883, 0.018323608921979928], [-0.20769643456545922, -0.4954247225278818]]",density,black,,,N012,visual,6,[],"['1', '2', '3', '4']",1,2023.2.3,harveyvisual,2.1,[],8,0.75,
0,pause,0.4,None,None,None,0,115,115,115,,,,,,,,,,,,,N012,visual,6,[],"['1', '2', '3', '4']",1,2023.2.3,harveyvisual,2.1,[],8,0.75,
20,dot,0.3,['dot'],['density'],black,0,116,116,116,,,43.000221967697144,42.72438406944275,43.02470898628235,dot,"[0.08, 0.08, 0.06, 0.1, 0.08, 0.06, 0.06, 0.08, 0.06, 0.08, 0.06, 0.08, 0.1, 0.08, 0.08, 0.08, 0.08, 0.08, 0.08, 0.1]","[[0.43582041201074817, 0.3801536906173663], [0.5052798884337047, -0.07000417110425866], [-0.20283726362455395, 0.08046987086411661], [-0.4749103374944067, 0.3563414783276895], [0.4453705241337741, -0.33545089782848947], [0.017769177775107448, 0.40894319846106264], [0.14656377482019878, -0.4204458136533433], [-0.44324306900127886, -0.35228707074694693], [0.05985275066924678, -0.5913486938241022], [0.5427704257394074, 0.18069746391297703], [-0.3771074521536533, -0.0321165348170076], [-0.36210391169269646, 0.1973249592724557], [-0.23618646233082313, -0.4497740722272979], [-0.5568365131162769, 0.1745528997570613], [0.20366380049477806, 0.02929783073965475], [-0.2476676498218503, 0.520192216282145], [-0.5934040777148742, -0.09598988476368293], [-0.08120411041039188, -0.23309220842366019], [0.05806528806909339, -0.10465326635447753], [0.1234346707698285, 0.5844577873946216]]",density,black,,,N012,visual,6,[],"['1', '2', '3', '4']",1,2023.2.3,harveyvisual,2.1,[],8,0.75,
0,pause,0.4,None,None,None,0,117,117,117,,,,,,,,,,,,,N012,visual,6,[],"['1', '2', '3', '4']",1,2023.2.3,harveyvisual,2.1,[],8,0.75,
20,dot,0.3,['dot'],['density'],black,0,118,118,118,,,43.7002170085907,43.424575090408325,43.70771598815918,dot,"[0.06, 0.06, 0.06, 0.06, 0.1, 0.08, 0.08, 0.1, 0.06, 0.06, 0.06, 0.08, 0.06, 0.06, 0.1, 0.06, 0.1, 0.1, 0.06, 0.08]","[[-0.0921932701369228, -0.36876613621622056], [0.4294408792313583, 0.28414496306522813], [-0.406293396374634, -0.17966724245757787], [-0.587192643193767, -0.05471269745185223], [-0.34583858921096, -0.4820700168208452], [0.41958680899807865, -0.32933659333654663], [-0.44799919380023123, 0.2773231979211043], [0.4125480500261255, -0.08171416965521311], [-0.16580718363444713, -0.049876395071665525], [-0.33276050155226883, 0.4320605209717331], [0.13989186787838592, 0.2626017674358473], [0.20248001921612968, -0.03151917784983538], [0.019371594350890753, 0.5636568554719454], [0.09677573697068897, -0.3091788995465083], [-0.0641933574980531, 0.19407695021352356], [0.5687536335658757, 0.1054420476304323], [-0.38254598574173826, 0.061126990653203706], [-0.13799171983723707, 0.45337870225070387], [0.18011785817960368, -0.5386239826745507], [0.3186275882205426, 0.12715324149097562]]",density,black,,,N012,visual,6,[],"['1', '2', '3', '4']",1,2023.2.3,harveyvisual,2.1,[],8,0.75,
0,pause,0.4,None,None,None,0,119,119,119,,,,,,,,,,,,,N012,visual,6,[],"['1', '2', '3', '4']",1,2023.2.3,harveyvisual,2.1,[],8,0.75,
20,dot,0.3,['dot'],['density'],black,0,120,120,120,,,44.40022897720337,44.124449014663696,44.40769600868225,dot,"[0.1, 0.1, 0.08, 0.06, 0.08, 0.08, 0.06, 0.08, 0.08, 0.08, 0.06, 0.08, 0.1, 0.1, 0.08, 0.08, 0.1, 0.1, 0.06, 0.08]","[[0.09941627863036084, 0.30740117494899144], [-0.4690759883128648, -0.021562364140178536], [0.08388075161158814, -0.25899216977832], [0.4276339342304999, 0.3719362631971964], [-0.2851098039162173, -0.10704043216975784], [0.30232821759622286, -0.503702107975865], [-0.5399431787315786, 0.19421164690908493], [0.592905920596757, 0.04669435239635862], [-0.3304585534231373, 0.22580417429014432], [0.23506799950667912, -0.14063650425858665], [0.22815707787154327, 0.46148367518947075], [-0.14510434916691123, 0.16683997835807685], [0.39199493357985904, -0.2652281013753998], [-0.26674814541349307, 0.4677869023739998], [-0.12019083776068318, -0.31206474079723573], [-0.477019749531993, -0.2424675523752723], [0.012875668210604041, 0.029042571080833413], [0.014227926802087953, -0.5867387967397742], [0.3237102348557275, 0.0490827833315165], [0.0050149365333116425, 0.49280427855235365]]",density,black,,,N012,visual,6,[],"['1', '2', '3', '4']",1,2023.2.3,harveyvisual,2.1,[],8,0.75,
0,pause,0.4,None,None,None,0,121,121,121,,,,,,,,,,,,,N012,visual,6,[],"['1', '2', '3', '4']",1,2023.2.3,harveyvisual,2.1,[],8,0.75,
20,dot,0.3,['dot'],['density'],black,0,122,122,122,,,45.10021710395813,44.82444214820862,45.10769510269165,dot,"[0.08, 0.06, 0.06, 0.08, 0.06, 0.1, 0.06, 0.06, 0.08, 0.06, 0.08, 0.06, 0.06, 0.06, 0.06, 0.08, 0.1, 0.1, 0.06, 0.1]","[[-0.05248718180675893, 0.2170112217379766], [0.5908353416673625, -0.03669343343993235], [0.4545572702771995, -0.34917056549930847], [-0.043500260260243895, 0.4627598630919517], [0.14622039227464312, -0.23288280343925594], [-0.49121975594877065, 0.11278588529253364], [0.36377921946350056, 0.08128767034228807], [0.13950744440316343, 0.36345708729601844], [0.3421519727464989, 0.36155980638381374], [-0.1448469058227621, -0.1269510495507682], [-0.40619649803844077, -0.33642107647700237], [0.14874646015444837, -0.5052175572848373], [-0.4308244357018143, 0.3670593421047578], [-0.09522058630811914, -0.35418437944500014], [-0.4307252754629395, -0.09109647276772215], [0.17276081220042616, 0.06539377250755951], [-0.25277784721236723, 0.46594398298021633], [-0.2689395938466948, 0.04387371589172229], [-0.07591035737775753, -0.5514122583150614], [0.5323066677130991, 0.18918008054899144]]",density,black,,,N012,visual,6,[],"['1', '2', '3', '4']",1,2023.2.3,harveyvisual,2.1,[],8,0.75,
0,pause,0.4,None,None,None,0,123,123,123,,,,,,,,,,,,,N012,visual,6,[],"['1', '2', '3', '4']",1,2023.2.3,harveyvisual,2.1,[],8,0.75,
20,dot,0.3,['dot'],['density'],black,0,124,124,124,,,45.800204038619995,45.52432298660278,45.82431101799011,dot,"[0.08, 0.08, 0.1, 0.06, 0.1, 0.1, 0.08, 0.1, 0.08, 0.08, 0.08, 0.06, 0.08, 0.08, 0.08, 0.1, 0.1, 0.06, 0.06, 0.06]","[[-0.5070364668361259, -0.1952986606382916], [0.4160733147719847, -0.12215345202511219], [0.2146787576149325, -0.5486965364145109], [0.5851882502214701, 0.004924384808119964], [-0.5653122123965122, 0.11139512003768887], [-0.19561022140349182, 0.24959520360060872], [-0.043894249851843314, -0.11370419950141603], [0.3767026566555751, 0.37849685492770924], [0.3813278842705211, 0.1285703029602317], [-0.014759076454358366, -0.5469690554698279], [-0.4346931410284605, 0.362035883447144], [0.402077209008595, -0.3959644413945213], [-0.25426779068509936, -0.0011435909009708256], [0.22126514833920663, -0.2726166924292045], [0.17902073920480155, 0.05750255112981395], [-0.2133718352969023, 0.4872199265029318], [0.013767330113272025, 0.5425682899485081], [-0.21840362526088153, -0.32555155847572725], [0.11508769159223509, 0.3421314701607674], [-0.30962630125241514, -0.49306799633319426]]",density,black,,,N012,visual,6,[],"['1', '2', '3', '4']",1,2023.2.3,harveyvisual,2.1,[],8,0.75,
0,pause,0.4,None,None,None,0,125,125,125,,,,,,,,,,,,,N012,visual,6,[],"['1', '2', '3', '4']",1,2023.2.3,harveyvisual,2.1,[],8,0.75,
20,dot,0.3,['dot'],['density'],white,0,126,126,126,,,46.500219106674194,46.224400997161865,46.50784611701965,dot,"[0.06, 0.1, 0.06, 0.1, 0.08, 0.08, 0.08, 0.1, 0.1, 0.06, 0.08, 0.08, 0.1, 0.1, 0.06, 0.1, 0.06, 0.1, 0.08, 0.08]","[[0.46060209121896223, 0.08883912496677332], [-0.407417542021144, 0.013906583383440307], [-0.5796709200711191, 0.12229182847179265], [0.013392882867670486, 0.1763767522728541], [0.27935084865039594, -0.5133472185321684], [-0.46272185953408584, 0.35939397063941536], [-0.4633534389156795, -0.20644799638449585], [-0.25655847747870925, 0.43433452084503643], [-0.22416725437813073, -0.38277404125487424], [-0.13980584128649565, -0.18323031281435365], [0.44193713354216146, -0.14366940060929623], [-0.06405472419124536, 0.44078463810262936], [0.32151203164230224, 0.3310849680748138], [-0.0016175003785128261, -0.016084645494323424], [0.04239894385125953, -0.3884135563438751], [0.23438529679494213, 0.5358528650682531], [-0.3602805164208729, 0.19976926647889554], [0.4283464653072758, -0.36868565471771625], [0.22827344689010276, -0.31633778550900415], [0.15806560748324772, -0.1379590079872804]]",density,white,,,N012,visual,6,[],"['1', '2', '3', '4']",1,2023.2.3,harveyvisual,2.1,[],8,0.75,
0,pause,0.4,None,None,None,0,127,127,127,,,,,,,,,,,1,46.65093111991882,N012,visual,6,[],"['1', '2', '3', '4']",1,2023.2.3,harveyvisual,2.1,[],8,0.75,
20,dot,0.3,['dot'],['density'],black,0,128,128,128,,,47.20021295547485,46.92425298690796,47.224246978759766,dot,"[0.1, 0.06, 0.08, 0.06, 0.1, 0.08, 0.1, 0.06, 0.1, 0.1, 0.1, 0.06, 0.06, 0.1, 0.1, 0.08, 0.06, 0.06, 0.08, 0.08]","[[-0.22556362647470168, -0.4046660281026342], [0.4837909835396076, 0.024458643452743234], [-0.07013434140315866, 0.5586682104150096], [-0.34836560679401357, 0.16036706207620904], [-0.5704396609688983, 0.1281136826431379], [0.1193982064457002, -0.39150833692239473], [0.45985178879797417, -0.24800175418569836], [0.07110214334121545, -0.5844910654486449], [-0.312258878464194, -0.18118589894545795], [-0.08377176050181256, 0.11629328941799777], [-0.29709129089427816, 0.51143766498725], [-0.22890712618722503, 0.3344239518633736], [0.2312491723749276, 0.44215928389035153], [-0.061998549770003075, -0.10125615477318795], [-0.5000434887050883, -0.287273043283116], [-0.41914596307098584, 0.3500985556733636], [0.2657413268430875, -0.010264660884812149], [0.13488216274841036, 0.17083139509341239], [-0.5820019969937338, -0.08629395339076829], [0.41505235309241006, 0.308317730056825]]",density,black,,,N012,visual,6,[],"['1', '2', '3', '4']",1,2023.2.3,harveyvisual,2.1,[],8,0.75,
0,pause,0.4,None,None,None,0,129,129,129,,,,,,,,,,,,,N012,visual,6,[],"['1', '2', '3', '4']",1,2023.2.3,harveyvisual,2.1,[],8,0.75,
20,dot,0.3,['dot'],['density'],black,0,130,130,130,,,47.90022301673889,47.62421107292175,47.92420506477356,dot,"[0.06, 0.06, 0.06, 0.06, 0.1, 0.1, 0.06, 0.08, 0.1, 0.06, 0.06, 0.08, 0.06, 0.06, 0.1, 0.1, 0.08, 0.1, 0.08, 0.08]","[[-0.41837147996516055, -0.24154873755714254], [0.00018659510718077588, 0.06552952071693519], [0.5999102021217669, -0.0677564344154149], [0.07140730317980049, -0.36478912781592526], [-0.18958094262802255, 0.3298525490984132], [0.17404237587204985, -0.18821219073780954], [-0.334765488632707, 0.4710884111057132], [-0.14863720241612965, -0.17269999814324216], [0.10267859107504085, 0.5759334162845156], [-0.5315304960249221, -0.05431101933967211], [0.45556386028367235, -0.2532109124819042], [0.2035172877211462, -0.557580352014868], [-0.3752905003473511, 0.21710147793823764], [-0.32130433145172893, 0.029971943656433964], [0.3850091799085795, 0.16319656883547967], [0.19198389173971908, 0.3840407586766632], [0.4004559207998787, -0.06551151275034506], [0.010225336728713508, 0.3002408567805319], [-0.2974945989044559, -0.5035296617582825], [0.19059020573277174, 0.0769256528708665]]",density,black,,,N012,visual,6,[],"['1', '2', '3', '4']",1,2023.2.3,harveyvisual,2.1,[],8,0.75,
0,pause,0.4,None,None,None,0,131,131,131,,,,,,,,,,,,,N012,visual,6,[],"['1', '2', '3', '4']",1,2023.2.3,harveyvisual,2.1,[],8,0.75,
20,dot,0.3,['dot'],['density'],black,0,132,132,132,,,48.60023307800293,48.32419204711914,48.62417006492615,dot,"[0.1, 0.1, 0.06, 0.1, 0.1, 0.08, 0.06, 0.06, 0.1, 0.06, 0.1, 0.08, 0.08, 0.08, 0.06, 0.06, 0.1, 0.08, 0.1, 0.08]","[[-0.5328547912954583, -0.2085093439488243], [-0.17336972432992787, 0.05482868076437386], [-0.5852036204658781, -0.019286152704145937], [-0.15765133650118185, -0.18361495267311972], [-0.4615945238273893, 0.24011908462195192], [-0.12794747068644668, -0.4809903623696341], [0.36134407053382567, -0.2771443981481088], [0.16427866634789112, 0.31962887620110025], [0.5854393222714082, 0.04246278578124546], [-0.38965795477345483, -0.3769107151759469], [-0.16874984931994208, 0.33434646131000545], [0.5533850625661746, -0.234440650916277], [0.4362876803940966, 0.2978639237296285], [0.10770095633644106, -0.5649388073008332], [0.17080181699745223, -0.30551322959603705], [0.2456050578812956, 0.5218703601025982], [0.04309930170173859, -0.043013143712113844], [-0.2743527204136441, 0.5391065319456199], [0.35089215822080966, 0.009458158367624592], [-0.06514476302329453, 0.5494252596382568]]",density,black,,,N012,visual,6,[],"['1', '2', '3', '4']",1,2023.2.3,harveyvisual,2.1,[],8,0.75,
0,pause,0.4,None,None,None,0,133,133,133,,,,,,,,,,,,,N012,visual,6,[],"['1', '2', '3', '4']",1,2023.2.3,harveyvisual,2.1,[],8,0.75,
20,dot,0.3,['dot'],['density'],black,0,134,134,134,,,49.300213098526,49.024173974990845,49.32415509223938,dot,"[0.1, 0.06, 0.1, 0.08, 0.1, 0.1, 0.06, 0.06, 0.1, 0.08, 0.08, 0.06, 0.08, 0.06, 0.06, 0.1, 0.1, 0.1, 0.1, 0.1]","[[-0.19017980917176358, -0.5468412141422987], [0.10362823755507111, 0.44724992786506257], [-0.25174552115631205, 0.0697877161435363], [0.5870314226645424, 0.12146581664826828], [0.3643610946720577, 0.2997968606916683], [-0.05543209944462535, -0.029292721386219522], [0.4197634131130298, 0.01362381448105715], [0.1941836931769727, -0.12536440330313792], [-0.30396780755515446, 0.4195772021836718], [0.3721091164420719, -0.42487687291728826], [-0.4879929726283596, -0.04124441017292407], [-0.31028804783159375, -0.2886933491608099], [-0.011915920585450657, -0.2227381834932179], [-0.4547609334969418, 0.24998338409541798], [0.44983724460956853, -0.22761656352916682], [0.11564097750955593, -0.4647183888775574], [-0.0257857764098679, 0.27049663787525036], [-0.5002026494723949, -0.3323132412597087], [-0.1554109844808198, 0.574294847117756], [0.12837782523723862, 0.12152313572949813]]",density,black,,,N012,visual,6,[],"['1', '2', '3', '4']",1,2023.2.3,harveyvisual,2.1,[],8,0.75,
0,pause,0.4,None,None,None,0,135,135,135,,,,,,,,,,,,,N012,visual,6,[],"['1', '2', '3', '4']",1,2023.2.3,harveyvisual,2.1,[],8,0.75,
20,dot,0.3,['dot'],['density'],black,0,136,136,136,,,50.00021195411682,49.724162101745605,50.024150133132935,dot,"[0.06, 0.08, 0.1, 0.06, 0.06, 0.08, 0.08, 0.06, 0.06, 0.1, 0.1, 0.1, 0.08, 0.06, 0.08, 0.1, 0.06, 0.08, 0.08, 0.08]","[[-0.5476457265500907, -0.12689523164021013], [-0.2966081568023372, 0.09885412890029632], [-0.451517063812539, -0.31617393965955337], [0.3933385244482247, -0.0051975629962257575], [0.12677150574386897, 0.4749328769633392], [0.315901257388399, 0.3164976673541081], [-0.5465734288997681, 0.1877293641519398], [-0.2779729324887483, -0.101756346398653], [0.40143682866301, -0.38428027042399526], [0.0876859695907215, -0.11490118493768031], [-0.08084882290580186, 0.16642710816582618], [-0.06998004958753101, -0.5376629144678331], [-0.19348064383631453, -0.3469087901685436], [-0.20351710884023416, 0.3925596747648302], [0.5901649088721145, 0.10453423743777565], [0.5753405504640504, -0.16163611527182298], [-0.44614135895443446, 0.3862644437748957], [0.165627924214916, 0.19516961609374206], [0.16976283871058784, -0.4944021037068411], [0.07704815649599372, -0.32230751138930624]]",density,black,,,N012,visual,6,[],"['1', '2', '3', '4']",1,2023.2.3,harveyvisual,2.1,[],8,0.75,
0,pause,0.4,None,None,None,0,137,137,137,,,,,,,,,,,,,N012,visual,6,[],"['1', '2', '3', '4']",1,2023.2.3,harveyvisual,2.1,[],8,0.75,
20,dot,0.3,['dot'],['density'],black,0,138,138,138,,,50.700233936309814,50.42413902282715,50.72412395477295,dot,"[0.08, 0.08, 0.1, 0.06, 0.1, 0.1, 0.1, 0.1, 0.06, 0.06, 0.06, 0.08, 0.1, 0.1, 0.08, 0.1, 0.08, 0.06, 0.08, 0.1]","[[-0.3380056278747704, 0.08096423925648544], [0.15671758820013926, -0.01241699517348227], [-0.30962436824116074, 0.31078464307061093], [-0.5716834482284676, 0.15520856536984493], [-0.09354187094837452, 0.3015712914601625], [0.5351375459380673, 0.27486099181047047], [0.6051644165425437, -0.007210651735950009], [0.43104426947670993, 0.08070987650073957], [0.32596260801933385, 0.46212741553165915], [0.08640187199893212, 0.16666722661299893], [-0.18810146403550798, -0.4901010731219548], [-0.22841770234812225, -0.23015425619289953], [0.16135972644442953, -0.358468486765373], [0.480357011627646, -0.31840751441934434], [-0.03703290988202168, -0.19737486015135847], [-0.09082264687473318, 0.05534091395531249], [-0.5163793793036252, -0.3012778797073402], [-0.4747867713527102, -0.07485705967932443], [0.14575767007095208, 0.35921579340935794], [0.39045388380688617, -0.12734196169158213]]",density,black,,,N012,visual,6,[],"['1', '2', '3', '4']",1,2023.2.3,harveyvisual,2.1,[],8,0.75,
0,pause,0.4,None,None,None,0,139,139,139,,,,,,,,,,,,,N012,visual,6,[],"['1', '2', '3', '4']",1,2023.2.3,harveyvisual,2.1,[],8,0.75,
20,dot,0.3,['dot'],['density'],black,0,140,140,140,,,51.40020513534546,51.12411308288574,51.42428803443909,dot,"[0.1, 0.08, 0.1, 0.1, 0.06, 0.06, 0.1, 0.08, 0.06, 0.1, 0.06, 0.1, 0.06, 0.06, 0.06, 0.08, 0.1, 0.06, 0.1, 0.06]","[[0.497788407802512, -0.24278160478751695], [-0.5367023061961268, 0.15608100165312166], [-0.1742354369329448, 0.4260254523060273], [-0.12531984797160067, 0.1403574756067365], [-0.023908080015788147, -0.17575301305124358], [0.4061286897419266, 0.31370177740502103], [0.353658006718214, -0.08117868564783587], [-0.5479500445310364, -0.18602424592959083], [0.4098965456500515, 0.12135971494044984], [-0.22537860191435377, -0.3038574130494017], [-0.04855300319048916, -0.5261070641737546], [-0.171510782149013, -0.054978858177720635], [0.595728330264725, 0.04003214147271193], [-0.43582559754445116, -0.3646544327252444], [0.30157286350066326, -0.4879370592583435], [0.10257751398177961, 0.28203092708451905], [0.22265642363740545, -0.2792170866640704], [0.01624981956101712, 0.4592456908578968], [0.10760527178446211, 0.028675162912739194], [-0.33248612849060216, 0.20629080322192805]]",density,black,,,N012,visual,6,[],"['1', '2', '3', '4']",1,2023.2.3,harveyvisual,2.1,[],8,0.75,
0,pause,0.4,None,None,None,0,141,141,141,,,,,,,,,,,,,N012,visual,6,[],"['1', '2', '3', '4']",1,2023.2.3,harveyvisual,2.1,[],8,0.75,
20,dot,0.3,['dot'],['density'],black,0,142,142,142,,,52.100213050842285,51.82427501678467,52.124261140823364,dot,"[0.1, 0.06, 0.06, 0.06, 0.1, 0.08, 0.06, 0.1, 0.08, 0.08, 0.08, 0.06, 0.06, 0.1, 0.06, 0.06, 0.06, 0.08, 0.06, 0.1]","[[0.4037434205502827, -0.1302976430508333], [-0.5215060303086574, -0.11670266100575691], [0.11779189988622552, -0.34365073299247084], [0.5938280325355482, 0.0775793555384943], [-0.2366004750395933, -0.18881346881540556], [-0.19932447625173982, 0.3123886212879218], [-0.4004200061476251, 0.39422012226387587], [0.42543881302893294, 0.2032256598397328], [-0.22012625820677473, 0.10431144108558932], [0.17194152865078216, 0.4688374984793944], [-0.5675372672448481, 0.08180753843477756], [0.13619937526809622, 0.26915883874133306], [-0.004264861737923398, -0.19244172237166557], [0.37000615534575143, 0.40546773206735826], [-0.11371467145948827, -0.5458842106346733], [0.19801348330828417, -0.5214981499072828], [-0.2585384321339861, 0.5281553165594215], [0.3300089929937702, -0.35845466595261954], [0.14357497778137285, -0.05760438009861235], [-0.3286207210860502, -0.40444943273992506]]",density,black,,,N012,visual,6,[],"['1', '2', '3', '4']",1,2023.2.3,harveyvisual,2.1,[],8,0.75,
0,pause,0.4,None,None,None,0,143,143,143,,,,,,,,,,,,,N012,visual,6,[],"['1', '2', '3', '4']",1,2023.2.3,harveyvisual,2.1,[],8,0.75,
20,dot,0.3,['dot'],['density'],black,0,144,144,144,,,52.80022406578064,52.52426195144653,52.82423806190491,dot,"[0.06, 0.1, 0.1, 0.1, 0.06, 0.06, 0.08, 0.1, 0.06, 0.06, 0.1, 0.06, 0.06, 0.08, 0.06, 0.08, 0.06, 0.08, 0.1, 0.08]","[[-0.34378990875570414, -0.42525410737490765], [-0.48032524974364865, 0.04925057450611553], [-0.49145349397683286, -0.28689385699961417], [-0.20978850615427136, 0.18981044810516468], [0.4442676448477839, 0.2489858890917192], [-0.23200848803044266, -0.12158661268589288], [0.039044546214931586, -0.3706426392640204], [0.25907849930522686, 0.033882407474686516], [0.26467755395299286, -0.47931319564255337], [0.11406801822291912, -0.184512099412511], [-0.09861977985837667, -0.5269129733721287], [-0.07909213932816128, 0.3437615030116088], [0.4543775058975471, -0.292264590497761], [-0.10305918665594738, 0.5684414093224991], [0.23533812707846713, 0.3801144233212963], [-0.44520782770716727, 0.25298006434508086], [-0.3401774554163829, 0.45354831658257067], [0.6002067509802959, 0.00776490773562008], [0.04587133040426128, 0.0177603688362461], [0.0906441073671681, 0.23526009075817778]]",density,black,,,N012,visual,6,[],"['1', '2', '3', '4']",1,2023.2.3,harveyvisual,2.1,[],8,0.75,
0,pause,0.4,None,None,None,0,145,145,145,,,,,,,,,,,,,N012,visual,6,[],"['1', '2', '3', '4']",1,2023.2.3,harveyvisual,2.1,[],8,0.75,
20,dot,0.3,['dot'],['density'],black,0,146,146,146,,,53.50022006034851,53.22424101829529,53.524131059646606,dot,"[0.06, 0.1, 0.08, 0.08, 0.06, 0.08, 0.06, 0.06, 0.06, 0.08, 0.08, 0.1, 0.08, 0.06, 0.1, 0.08, 0.06, 0.1, 0.08, 0.08]","[[0.15474449006284785, -0.2604329362289344], [0.5139837644355824, -0.25213594375582926], [0.6048947815548699, -0.019111018486489894], [-0.4111332948866321, -0.018395818711197665], [-0.2475110369317331, -0.49647500483130874], [0.16169484732154782, -0.4963507804120284], [-0.3603364080854037, 0.2977577667402348], [0.3700614478980152, -0.07259626097111266], [0.03425623178416248, 0.39486593393028924], [0.31789084305090387, 0.4016801723559946], [0.484577193946235, 0.17373462619814367], [-0.0962189246458709, 0.5617428700650245], [0.06512071289498844, 0.08223101470224559], [-0.49101770308540316, -0.26872611964722914], [-0.22515778096266748, -0.2352674315961829], [-0.030823009315773198, -0.31100632041259374], [-0.5998317696023064, -0.07258263015067072], [0.3576749387413528, -0.38153601009774696], [-0.1439564697988281, 0.08861488974168341], [-0.13926316763277308, 0.3127515775267745]]",density,black,,,N012,visual,6,[],"['1', '2', '3', '4']",1,2023.2.3,harveyvisual,2.1,[],8,0.75,
0,pause,0.4,None,None,None,0,147,147,147,,,,,,,,,,,,,N012,visual,6,[],"['1', '2', '3', '4']",1,2023.2.3,harveyvisual,2.1,[],8,0.75,
20,dot,0.3,['dot'],['density'],black,0,148,148,148,,,54.20021605491638,53.92426609992981,54.22422194480896,dot,"[0.08, 0.08, 0.1, 0.1, 0.1, 0.08, 0.06, 0.06, 0.08, 0.1, 0.1, 0.08, 0.1, 0.06, 0.08, 0.06, 0.06, 0.06, 0.1, 0.06]","[[-0.3645706112272669, -0.4602335955612865], [-0.0330063830956695, 0.07679725516016667], [0.06714896529481307, -0.27246596740057866], [-0.33872986228533364, -0.06679167596319946], [0.5416464749190079, -0.10090858138410469], [0.03948762762286473, -0.4642773564794549], [0.449316479862257, 0.29278261435467656], [0.09622489219684949, 0.29464797263802], [-0.20863190740351406, 0.433594607304307], [-0.16825036761071327, -0.1896349335112294], [0.34423053490009703, -0.24260616622085662], [0.32690126480905213, 0.03968177114672056], [-0.46421691583261226, 0.1934417621507477], [-0.5671255717556264, -0.08818618113371385], [-0.09578676249219475, 0.2755990084561508], [-0.4556938936717444, -0.27765985236981977], [0.040290852207792605, 0.5524915654160819], [-0.1854718956603545, -0.5463945259465433], [0.2587980062951145, -0.5168193554852893], [0.590941000111222, 0.1042151545666262]]",density,black,,,N012,visual,6,[],"['1', '2', '3', '4']",1,2023.2.3,harveyvisual,2.1,[],8,0.75,
0,pause,0.4,None,None,None,0,149,149,149,,,,,,,,,,,,,N012,visual,6,[],"['1', '2', '3', '4']",1,2023.2.3,harveyvisual,2.1,[],8,0.75,
20,dot,0.3,['dot'],['density'],white,0,150,150,150,,,54.900222063064575,54.62404012680054,54.924031019210815,dot,"[0.08, 0.08, 0.1, 0.1, 0.1, 0.06, 0.06, 0.08, 0.06, 0.06, 0.08, 0.08, 0.06, 0.08, 0.06, 0.08, 0.06, 0.08, 0.06, 0.1]","[[-0.48041241093303133, -0.14690444978658299], [0.48480911780039426, 0.2161266126823051], [0.33600474450212414, 0.4034181681166997], [-0.06537238840258575, 0.2364920808291615], [-0.1639645762588846, -0.3963285837342352], [0.25315169939300586, -0.07480952396540524], [0.1313779818194175, 0.46277853029682425], [0.486041438196784, -0.27093343399226044], [-0.4258401653562157, 0.10923487605056903], [0.11550056107873441, -0.5212527462406643], [-0.13231697445069723, 0.05061670818175368], [-0.40725275226325464, 0.3338200362915002], [0.11011641414743745, 0.15863562763360384], [0.5874835368384196, -0.10382733690736788], [0.23968732233554346, -0.3100931143258427], [-0.23406475707583446, -0.16788782561211524], [-0.28973504265914196, 0.49123997896168536], [-0.0923944550384902, 0.5472118849343249], [-0.6020028351487651, 0.022514998476569778], [0.00506064283475427, -0.27191179867766835]]",density,white,,,N012,visual,6,[],"['1', '2', '3', '4']",1,2023.2.3,harveyvisual,2.1,[],8,0.75,
0,pause,0.4,None,None,None,0,151,151,151,,,,,,,,,,,1,55.05996012687683,N012,visual,6,[],"['1', '2', '3', '4']",1,2023.2.3,harveyvisual,2.1,[],8,0.75,
20,dot,0.3,['dot'],['density'],black,0,152,152,152,,,55.60021495819092,55.32400608062744,55.624032974243164,dot,"[0.08, 0.06, 0.06, 0.1, 0.08, 0.1, 0.08, 0.08, 0.1, 0.06, 0.08, 0.08, 0.08, 0.08, 0.06, 0.06, 0.06, 0.06, 0.08, 0.06]","[[-0.5806420444620937, 0.030765491592121025], [-0.43384489043819574, -0.23729594332414808], [-0.3897493834074535, 0.246095735880495], [0.260272738981173, 0.4556028258273662], [0.059648820485075915, -0.5767241710824819], [-0.000643455355827216, 0.22333557881523214], [0.17618959614052487, -0.09255161970329201], [-0.2888346391940523, -0.45049778020881687], [0.5700497891372217, -0.01872536959549395], [-0.11932422844189788, 0.4131862192325242], [0.3194739919704377, 0.24218017932772828], [0.17003894010632348, -0.38637191877188504], [-0.08555091916015467, -0.3518130850935811], [-0.36061512819013414, -0.015232582785394855], [0.5139862463596735, 0.22021641334174707], [0.47838795272831225, -0.271061448719729], [-0.005669616822606693, -0.14826730452477815], [0.3471958808649507, 0.030131097544744356], [-0.3197268023664221, 0.46819291329849255], [-0.18532514275636047, 0.1492921055181453]]",density,black,,,N012,visual,6,[],"['1', '2', '3', '4']",1,2023.2.3,harveyvisual,2.1,[],8,0.75,
0,pause,0.4,None,None,None,0,153,153,153,,,,,,,,,,,,,N012,visual,6,[],"['1', '2', '3', '4']",1,2023.2.3,harveyvisual,2.1,[],8,0.75,
20,dot,0.3,['dot'],['density'],black,0,154,154,154,,,56.30022311210632,56.02402305603027,56.32401895523071,dot,"[0.06, 0.08, 0.06, 0.06, 0.08, 0.06, 0.08, 0.06, 0.1, 0.06, 0.1, 0.08, 0.06, 0.06, 0.08, 0.06, 0.08, 0.1, 0.06, 0.1]","[[0.047494140171514876, 0.5744181050334191], [-0.4681572005434682, -0.33258339516397467], [0.5427895086753786, 0.2597040071492971], [0.012546621948767767, -0.01383895245665645], [-0.5728691996595057, -0.04414614453248805], [-0.010894977146825524, -0.5402589338435226], [-0.20923972779769562, -0.2570682462900223], [0.15541819350525543, 0.16486659859379227], [-0.09392961812629108, 0.25591315136030857], [0.3846751745825103, 0.39550947318905033], [-0.5198441882154989, 0.29518592259656573], [0.37829818187107367, -0.43884139561628194], [0.026546039979232883, -0.27289368921424617], [-0.23035858424236227, -0.029083122817888052], [0.44112147128952783, -0.05620100948136819], [0.486443154817651, -0.2712979718778674], [-0.3476742177451723, 0.15642206980321077], [-0.31794410730128997, -0.4583039003286274], [-0.26980454944069276, 0.5310522123936418], [0.2011118913457678, -0.115231308927636]]",density,black,,,N012,visual,6,[],"['1', '2', '3', '4']",1,2023.2.3,harveyvisual,2.1,[],8,0.75,
0,pause,0.4,None,None,None,0,155,155,155,,,,,,,,,,,,,N012,visual,6,[],"['1', '2', '3', '4']",1,2023.2.3,harveyvisual,2.1,[],8,0.75,
9,dot,0.3,['dot'],['density'],black,0,156,156,156,,,57.000216007232666,56.707350969314575,57.02401113510132,dot,"[0.06, 0.06, 0.06, 0.06, 0.08, 0.06, 0.08, 0.06, 0.06]","[[-0.39546702852536103, 0.05887767166707298], [0.0019437857506851024, 0.07006750722115952], [0.08809400946991845, -0.15083790972035777], [-0.35358057288562594, -0.14123029179452673], [-0.18893042820243505, -0.004761820558363635], [-0.16054322822148615, -0.2701644482013472], [-0.3593088451216199, 0.2649120528395154], [-0.09346394646241396, -0.4621051997984888], [-0.5526246027455071, -0.11781718335669726]]",density,black,,,N012,visual,6,[],"['1', '2', '3', '4']",1,2023.2.3,harveyvisual,2.1,[],8,0.75,
0,pause,0.4,None,None,None,0,157,157,157,,,,,,,,,,,,,N012,visual,6,[],"['1', '2', '3', '4']",1,2023.2.3,harveyvisual,2.1,[],8,0.75,
9,dot,0.3,['dot'],['density'],black,0,158,158,158,,,57.700210094451904,57.40730595588684,57.723947048187256,dot,"[0.06, 0.1, 0.08, 0.06, 0.1, 0.1, 0.1, 0.06, 0.06]","[[0.22829877875946783, -0.39640994854570016], [0.3366371496270161, 0.05839125036393789], [-0.11436045239834208, -0.12024221759915668], [-0.02100147820737577, -0.3824026009196371], [0.08479146627654295, 0.024089629435920912], [0.16206374850784472, -0.16075841177209507], [0.38495438842944835, -0.24810596019115372], [-0.23418047716532614, 0.09565997955556291], [0.2111996426858246, 0.23215637940447356]]",density,black,,,N012,visual,6,[],"['1', '2', '3', '4']",1,2023.2.3,harveyvisual,2.1,[],8,0.75,
0,pause,0.4,None,None,None,0,159,159,159,,,,,,,,,,,,,N012,visual,6,[],"['1', '2', '3', '4']",1,2023.2.3,harveyvisual,2.1,[],8,0.75,
9,dot,0.3,['dot'],['density'],black,0,160,160,160,,,58.400217056274414,58.10728406906128,58.42398500442505,dot,"[0.1, 0.08, 0.06, 0.06, 0.1, 0.06, 0.08, 0.06, 0.1]","[[-0.4219467838066047, -0.18114019941065054], [-0.2081543488995217, -0.4860059455967178], [-0.008274735502094755, -0.3457533902190916], [0.02376323820852766, -0.0891001390581758], [-0.4116277839025775, 0.058108040724694845], [-0.18144554169200455, -0.05292133149533743], [0.21944315682242976, -0.26450239569476724], [0.11466821484809545, 0.13327019789913197], [-0.2288148866166432, -0.2599929378926301]]",density,black,,,N012,visual,6,[],"['1', '2', '3', '4']",1,2023.2.3,harveyvisual,2.1,[],8,0.75,
0,pause,0.4,None,None,None,0,161,161,161,,,,,,,,,,,,,N012,visual,6,[],"['1', '2', '3', '4']",1,2023.2.3,harveyvisual,2.1,[],8,0.75,
9,dot,0.3,['dot'],['density'],black,0,162,162,162,,,59.10020709037781,58.80728793144226,59.12395215034485,dot,"[0.1, 0.08, 0.08, 0.06, 0.08, 0.06, 0.1, 0.08, 0.06]","[[0.30047334598257713, -0.32583448447642216], [0.4997394081452916, 0.05175273655880906], [0.13646797290608587, 0.02221883094322858], [0.11448241016544139, -0.2117191838414046], [0.417500260412479, 0.2413963184479076], [0.19152536325099656, 0.23172406522327998], [0.5046802385722475, -0.28323005758562664], [-0.037891296982194685, 0.14714919272112825], [0.3292067348064443, -0.0657181274468392]]",density,black,,,N012,visual,6,[],"['1', '2', '3', '4']",1,2023.2.3,harveyvisual,2.1,[],8,0.75,
0,pause,0.4,None,None,None,0,163,163,163,,,,,,,,,,,,,N012,visual,6,[],"['1', '2', '3', '4']",1,2023.2.3,harveyvisual,2.1,[],8,0.75,
9,dot,0.3,['dot'],['density'],black,0,164,164,164,,,59.80021905899048,59.50728511810303,59.82408809661865,dot,"[0.1, 0.1, 0.08, 0.08, 0.08, 0.1, 0.06, 0.08, 0.08]","[[0.050129075631511706, -0.29659829200500587], [0.1522424042566208, -0.02012498145544232], [-0.31773020450764894, 0.09756431981266957], [-0.25388767024787284, -0.20865833148222632], [-0.06549152868915667, -0.10253084504872755], [-0.047012852932693645, 0.11741599898337682], [0.26526013051082903, -0.18996189821299347], [0.2442588296558726, 0.17404051307925203], [0.053323608967773835, 0.34462047536600726]]",density,black,,,N012,visual,6,[],"['1', '2', '3', '4']",1,2023.2.3,harveyvisual,2.1,[],8,0.75,
0,pause,0.4,None,None,None,0,165,165,165,,,,,,,,,,,,,N012,visual,6,[],"['1', '2', '3', '4']",1,2023.2.3,harveyvisual,2.1,[],8,0.75,
9,dot,0.3,['dot'],['density'],black,0,166,166,166,,,60.50020694732666,60.207387924194336,60.524060010910034,dot,"[0.06, 0.06, 0.06, 0.08, 0.06, 0.08, 0.08, 0.06, 0.08]","[[0.27429149071172837, 0.34251676390746333], [0.46797507249945486, 0.005491811463162166], [0.21235580877939833, 0.08757146436558581], [0.046223583492975936, 0.2932249054251131], [0.07051592556679111, -0.0704922843318231], [0.30438918969270623, -0.13028831600800136], [0.11534598117609637, 0.5236829685630697], [-0.06673610159464062, 0.12515255452502297], [-0.14439101605953233, -0.1332028051536465]]",density,black,,,N012,visual,6,[],"['1', '2', '3', '4']",1,2023.2.3,harveyvisual,2.1,[],8,0.75,
0,pause,0.4,None,None,None,0,167,167,167,,,,,,,,,,,,,N012,visual,6,[],"['1', '2', '3', '4']",1,2023.2.3,harveyvisual,2.1,[],8,0.75,
8,dot,0.3,['dot'],['density'],black,0,168,168,168,,,61.200233936309814,60.90737795829773,61.22403407096863,dot,"[0.06, 0.08, 0.06, 0.06, 0.1, 0.06, 0.08, 0.1]","[[-0.19427332908310624, 0.44975086906229733], [-0.40583056883657587, 0.41268852933836647], [-0.1064323235824443, 0.09134240931295125], [0.037438273390647224, 0.2873761216870531], [-0.27580465694358225, 0.2567900319995576], [0.047234249799456944, 0.4983172858691376], [0.15563182967593078, 0.1192504703698398], [-0.32834908909536226, -0.014402300111889832]]",density,black,,,N012,visual,6,[],"['1', '2', '3', '4']",1,2023.2.3,harveyvisual,2.1,[],8,0.75,
0,pause,0.4,None,None,None,0,169,169,169,,,,,,,,,,,,,N012,visual,6,[],"['1', '2', '3', '4']",1,2023.2.3,harveyvisual,2.1,[],8,0.75,
8,dot,0.3,['dot'],['density'],black,0,170,170,170,,,61.90021800994873,61.607234954833984,61.92391514778137,dot,"[0.1, 0.1, 0.06, 0.06, 0.1, 0.06, 0.08, 0.1]","[[-0.30918623351354413, -0.2762980118811315], [0.03442122464869854, -0.32944299641312663], [0.20656618624830034, -0.4515266663928406], [0.20458815773351877, -0.002924552385479317], [-0.054765695239429084, -0.14491701700869716], [-0.0008776159608741382, 0.05441634750414142], [0.19975410704164612, -0.21252729673777132], [-0.19330391669800595, 0.14377227853430027]]",density,black,,,N012,visual,6,[],"['1', '2', '3', '4']",1,2023.2.3,harveyvisual,2.1,[],8,0.75,
0,pause,0.4,None,None,None,0,171,171,171,,,,,,,,,,,,,N012,visual,6,[],"['1', '2', '3', '4']",1,2023.2.3,harveyvisual,2.1,[],8,0.75,
8,dot,0.3,['dot'],['density'],black,0,172,172,172,,,62.60021495819092,62.30721592903137,62.6240119934082,dot,"[0.1, 0.08, 0.06, 0.1, 0.06, 0.08, 0.06, 0.08]","[[0.4694715163891994, 0.13329625263481096], [0.14358160208090395, 0.35167434699812705], [0.41559735975202405, 0.3690190921299561], [-0.041805684447173724, 0.4315913723966695], [-0.04993254304034498, 0.2285123563850015], [0.25337459258073897, 0.16365346604105616], [0.18476510797087844, 0.5481483313560797], [0.14868800337579569, -0.10349430855878591]]",density,black,,,N012,visual,6,[],"['1', '2', '3', '4']",1,2023.2.3,harveyvisual,2.1,[],8,0.75,
0,pause,0.4,None,None,None,0,173,173,173,,,,,,,,,,,,,N012,visual,6,[],"['1', '2', '3', '4']",1,2023.2.3,harveyvisual,2.1,[],8,0.75,
8,dot,0.3,['dot'],['density'],black,0,174,174,174,,,63.300217151641846,63.00719714164734,63.323822021484375,dot,"[0.08, 0.1, 0.06, 0.1, 0.06, 0.1, 0.06, 0.06]","[[0.4694715163891994, 0.13329625263481096], [0.14358160208090395, 0.35167434699812705], [0.41559735975202405, 0.3690190921299561], [-0.041805684447173724, 0.4315913723966695], [-0.04993254304034498, 0.2285123563850015], [0.25337459258073897, 0.16365346604105616], [0.18476510797087844, 0.5481483313560797], [0.14868800337579569, -0.10349430855878591]]",density,black,,,N012,visual,6,[],"['1', '2', '3', '4']",1,2023.2.3,harveyvisual,2.1,[],8,0.75,
0,pause,0.4,None,None,None,0,175,175,175,,,,,,,,,,,,,N012,visual,6,[],"['1', '2', '3', '4']",1,2023.2.3,harveyvisual,2.1,[],8,0.75,
8,dot,0.3,['dot'],['density'],black,0,176,176,176,,,64.00021505355835,63.70714092254639,64.02380204200745,dot,"[0.08, 0.1, 0.1, 0.06, 0.1, 0.08, 0.1, 0.1]","[[-0.012034279999911439, 0.06556808781241986], [-0.3446774290598954, 0.11122635080299646], [0.22428040003470762, 0.1796687910302273], [-0.037221971777983635, 0.5300244249381355], [-0.1456717336157172, 0.2672263832914442], [0.040508406505222534, 0.3412803201140432], [-0.26975617824218623, 0.48628578621654683], [0.24128509790231628, 0.4122343446782376]]",density,black,,,N012,visual,6,[],"['1', '2', '3', '4']",1,2023.2.3,harveyvisual,2.1,[],8,0.75,
0,pause,0.4,None,None,None,0,177,177,177,,,,,,,,,,,,,N012,visual,6,[],"['1', '2', '3', '4']",1,2023.2.3,harveyvisual,2.1,[],8,0.75,
8,dot,0.3,['dot'],['density'],black,0,178,178,178,,,64.70021915435791,64.40713000297546,64.72378492355347,dot,"[0.08, 0.06, 0.1, 0.08, 0.06, 0.1, 0.06, 0.1]","[[0.28112832868380594, 0.3075763237432237], [-0.21381995858864508, 0.197554992839043], [0.14035436555963224, -0.1470740351963634], [-0.04856350071149823, -0.017306043905309515], [0.12070301707556046, 0.11279463428917226], [0.35236156425888765, 0.046198621115284964], [-0.012223412543992913, 0.3265760435025566], [0.11745206869397669, 0.49408919182137495]]",density,black,,,N012,visual,6,[],"['1', '2', '3', '4']",1,2023.2.3,harveyvisual,2.1,[],8,0.75,
0,pause,0.4,None,None,None,0,179,179,179,,,,,,,,,,,,,N012,visual,6,[],"['1', '2', '3', '4']",1,2023.2.3,harveyvisual,2.1,[],8,0.75,
7,dot,0.3,['dot'],['density'],black,0,180,180,180,,,65.40022706985474,65.10710501670837,65.42376208305359,dot,"[0.06, 0.1, 0.06, 0.08, 0.1, 0.06, 0.06]","[[0.3302081014073935, 0.19448071361351732], [-0.22286629369238187, 0.3450023392305547], [-0.11533339293480348, 0.13926201039730488], [0.12023407780451623, 0.21240672508650668], [0.2659789407074307, 0.3894086603790018], [0.026604934602130894, 0.39133200849180605], [0.212400253920387, 0.027377351413115796]]",density,black,,,N012,visual,6,[],"['1', '2', '3', '4']",1,2023.2.3,harveyvisual,2.1,[],8,0.75,
0,pause,0.4,None,None,None,0,181,181,181,,,,,,,,,,,,,N012,visual,6,[],"['1', '2', '3', '4']",1,2023.2.3,harveyvisual,2.1,[],8,0.75,
7,dot,0.3,['dot'],['density'],black,0,182,182,182,,,66.10021615028381,65.8070981502533,66.12375998497009,dot,"[0.1, 0.08, 0.08, 0.06, 0.06, 0.06, 0.08]","[[-0.27819289690075527, 0.2483046813246476], [-0.5592260237138849, -0.07980801324287977], [-0.026637344717372308, -0.10521889364121585], [-0.16909952645659185, 0.05101222878256789], [-0.21868546305501066, -0.16482274839932262], [-0.3689572500107929, 0.03738969849335829], [-0.49227831811218986, 0.2063327632277477]]",density,black,,,N012,visual,6,[],"['1', '2', '3', '4']",1,2023.2.3,harveyvisual,2.1,[],8,0.75,
0,pause,0.4,None,None,None,0,183,183,183,,,,,,,,,,,,,N012,visual,6,[],"['1', '2', '3', '4']",1,2023.2.3,harveyvisual,2.1,[],8,0.75,
7,dot,0.3,['dot'],['density'],black,0,184,184,184,,,66.80023503303528,66.50708413124084,66.82379102706909,dot,"[0.1, 0.06, 0.1, 0.06, 0.1, 0.08, 0.08]","[[-0.03978284138183809, -0.43963729991580147], [0.2770736023028816, -0.4460091285183096], [0.4264240077257641, -0.26124456405115876], [0.04351789842027954, -0.004572294527936195], [0.08491707485555088, -0.26540219852266356], [0.2274622265833728, -0.10044916879814345], [0.4232844185721205, -0.050742783717769746]]",density,black,,,N012,visual,6,[],"['1', '2', '3', '4']",1,2023.2.3,harveyvisual,2.1,[],8,0.75,
0,pause,0.4,None,None,None,0,185,185,185,,,,,,,,,,,,,N012,visual,6,[],"['1', '2', '3', '4']",1,2023.2.3,harveyvisual,2.1,[],8,0.75,
7,dot,0.3,['dot'],['density'],black,0,186,186,186,,,67.50023293495178,67.20712208747864,67.5240089893341,dot,"[0.1, 0.06, 0.08, 0.08, 0.06, 0.1, 0.06]","[[0.4852053974746821, 0.2414638673891567], [0.4489127705046299, 0.011725618337583463], [0.18065050592779294, 0.3526250807613559], [0.03625639584007868, 0.1261309995663498], [0.1794309074695897, -0.0624577020416761], [0.2856641480650803, 0.17770493422509798], [0.3124387752689665, -0.21816880331392838]]",density,black,,,N012,visual,6,[],"['1', '2', '3', '4']",1,2023.2.3,harveyvisual,2.1,[],8,0.75,
0,pause,0.4,None,None,None,0,187,187,187,,,,,,,,,,,,,N012,visual,6,[],"['1', '2', '3', '4']",1,2023.2.3,harveyvisual,2.1,[],8,0.75,
7,dot,0.3,['dot'],['density'],black,0,188,188,188,,,68.20021200180054,67.90720701217651,68.2238781452179,dot,"[0.08, 0.06, 0.1, 0.06, 0.08, 0.06, 0.06]","[[-0.3242652666020733, -0.24505345323409705], [-0.563286395470885, 0.11160295583497896], [-0.1647097641571906, 0.12111961656459011], [-0.36052488434271157, 0.18805397786199418], [-0.09510517377503278, -0.06720219285628748], [-0.3867432997129629, -0.05120750304069932], [-0.32798962767594847, 0.38554234766764234]]",density,black,,,N012,visual,6,[],"['1', '2', '3', '4']",1,2023.2.3,harveyvisual,2.1,[],8,0.75,
0,pause,0.4,None,None,None,0,189,189,189,,,,,,,,,,,,,N012,visual,6,[],"['1', '2', '3', '4']",1,2023.2.3,harveyvisual,2.1,[],8,0.75,
7,dot,0.3,['dot'],['density'],black,0,190,190,190,,,68.90022802352905,68.60746097564697,68.92387104034424,dot,"[0.1, 0.06, 0.08, 0.08, 0.06, 0.06, 0.06]","[[-0.2314520007693297, 0.33838000150240727], [-0.18132207761103206, 0.5552670473927488], [0.017458222085991553, 0.32213086183097556], [0.10538257653630445, 0.5364165263315271], [-0.32661765694444117, 0.13553859080651098], [0.2001110614088519, 0.2352342526365964], [-0.07707990285528175, 0.1388757586163816]]",density,black,,,N012,visual,6,[],"['1', '2', '3', '4']",1,2023.2.3,harveyvisual,2.1,[],8,0.75,
0,pause,0.4,None,None,None,0,191,191,191,,,,,,,,,,,,,N012,visual,6,[],"['1', '2', '3', '4']",1,2023.2.3,harveyvisual,2.1,[],8,0.75,
6,dot,0.3,['dot'],['density'],black,0,192,192,192,,,69.60022497177124,69.30714392662048,69.62384700775146,dot,"[0.06, 0.06, 0.08, 0.1, 0.1, 0.08]","[[-0.2715212558254698, 0.2586056842756752], [-0.41011716394998093, -0.23288273174477314], [-0.4259032553852052, 0.02963770343160952], [-0.037696467485790364, -0.07921729390734374], [-0.19058944014171011, 0.07565381115733183], [-0.22931220879523878, -0.14417898787482208]]",density,black,,,N012,visual,6,[],"['1', '2', '3', '4']",1,2023.2.3,harveyvisual,2.1,[],8,0.75,
0,pause,0.4,None,None,None,0,193,193,193,,,,,,,,,,,,,N012,visual,6,[],"['1', '2', '3', '4']",1,2023.2.3,harveyvisual,2.1,[],8,0.75,
6,dot,0.3,['dot'],['density'],black,0,194,194,194,,,70.30022692680359,70.00706005096436,70.32388806343079,dot,"[0.1, 0.08, 0.1, 0.08, 0.06, 0.06]","[[-0.25199583264674774, 0.1645076628059283], [-0.30980015185235615, -0.30059811601219943], [-0.3416104032120793, -0.08609002542292095], [-0.44539923421558947, 0.10453038353258776], [-0.10444623085343022, 0.0009067836503606603], [-0.5495015018291214, -0.1770200348029928]]",density,black,,,N012,visual,6,[],"['1', '2', '3', '4']",1,2023.2.3,harveyvisual,2.1,[],8,0.75,
0,pause,0.4,None,None,None,0,195,195,195,,,,,,,,,,,,,N012,visual,6,[],"['1', '2', '3', '4']",1,2023.2.3,harveyvisual,2.1,[],8,0.75,
6,dot,0.3,['dot'],['density'],black,0,196,196,196,,,71.00023698806763,70.7071590423584,71.02367115020752,dot,"[0.06, 0.08, 0.06, 0.1, 0.06, 0.06]","[[0.21259181929123794, -0.28356491423097735], [0.48303195854319764, 0.06048455888335473], [0.22913681079270962, 0.07473613686017411], [0.4939377514137012, -0.2837040300549214], [0.055643620130747785, -0.14290468481535015], [0.3711413815128542, -0.10952979375652658]]",density,black,,,N012,visual,6,[],"['1', '2', '3', '4']",1,2023.2.3,harveyvisual,2.1,[],8,0.75,
0,pause,0.4,None,None,None,0,197,197,197,,,,,,,,,,,,,N012,visual,6,[],"['1', '2', '3', '4']",1,2023.2.3,harveyvisual,2.1,[],8,0.75,
6,dot,0.3,['dot'],['density'],black,0,198,198,198,,,71.70023703575134,71.40696096420288,71.72361707687378,dot,"[0.1, 0.1, 0.06, 0.06, 0.1, 0.06]","[[-0.560843418842529, -0.11752527585456686], [-0.31277608783648175, 0.04003545118838376], [-0.18207900664359264, -0.3652956678781814], [-0.41442909117718774, -0.4038021739217259], [-0.14446849917993246, -0.07035639226176245], [-0.3420415871796019, -0.1631057353810994]]",density,black,,,N012,visual,6,[],"['1', '2', '3', '4']",1,2023.2.3,harveyvisual,2.1,[],8,0.75,
0,pause,0.4,None,None,None,0,199,199,199,,,,,,,,,,,,,N012,visual,6,[],"['1', '2', '3', '4']",1,2023.2.3,harveyvisual,2.1,[],8,0.75,
6,dot,0.3,['dot'],['density'],white,0,200,200,200,,,72.40023112297058,72.10694694519043,72.42361092567444,dot,"[0.08, 0.06, 0.06, 0.1, 0.06, 0.08]","[[-0.08086177951302478, 0.2470577028799217], [0.17809040740055945, 0.25721690350386706], [0.248993691455746, -0.144418230259854], [0.04260816027356476, -0.17251108440570345], [0.26201279645255604, 0.07253913185781388], [-0.0017619790798508912, 0.027830886297901026]]",density,white,,,N012,visual,6,[],"['1', '2', '3', '4']",1,2023.2.3,harveyvisual,2.1,[],8,0.75,
0,pause,0.4,None,None,None,0,201,201,201,,,,,,,,,,,,,N012,visual,6,[],"['1', '2', '3', '4']",1,2023.2.3,harveyvisual,2.1,[],8,0.75,
6,dot,0.3,['dot'],['density'],black,0,202,202,202,,,73.10023403167725,72.80694913864136,73.123605966568,dot,"[0.08, 0.06, 0.1, 0.1, 0.1, 0.1]","[[-0.5416753121247185, 0.020803147184574915], [-0.3232269173664433, -0.07161231053200118], [-0.3008479376061402, -0.286480119217458], [-0.22299540496279888, 0.12470258063391813], [-0.10776740766186912, -0.19554033341247495], [-0.5165544979209102, -0.21376225914528924]]",density,black,,,N012,visual,6,[],"['1', '2', '3', '4']",1,2023.2.3,harveyvisual,2.1,[],8,0.75,
0,pause,0.4,None,None,None,0,203,203,203,,,,,,,,,,,,,N012,visual,6,[],"['1', '2', '3', '4']",1,2023.2.3,harveyvisual,2.1,[],8,0.75,
5,dot,0.3,['dot'],['density'],black,0,204,204,204,,,73.80021715164185,73.50692009925842,73.82361912727356,dot,"[0.1, 0.06, 0.06, 0.08, 0.1]","[[-0.09836533996777486, -0.13487298234664027], [-0.39372579989196477, -0.3970332615714695], [-0.08519030630468749, -0.3439803803737387], [-0.28676510783747755, -0.22768547842943598], [-0.4191710438677135, -0.018830474544977712]]",density,black,,,N012,visual,6,[],"['1', '2', '3', '4']",1,2023.2.3,harveyvisual,2.1,[],8,0.75,
0,pause,0.4,None,None,None,0,205,205,205,,,,,,,,,,,,,N012,visual,6,[],"['1', '2', '3', '4']",1,2023.2.3,harveyvisual,2.1,[],8,0.75,
5,dot,0.3,['dot'],['density'],black,0,206,206,206,,,74.50021314620972,74.2069001197815,74.52357006072998,dot,"[0.08, 0.08, 0.08, 0.1, 0.08]","[[-0.47409275164437775, -0.17842554437930905], [-0.28800513042966097, -0.4059597382025641], [-0.20075697267214665, 0.008887320625593834], [-0.2708677629513771, -0.1868162154653106], [-0.0886924353013077, -0.2820475711339636]]",density,black,,,N012,visual,6,[],"['1', '2', '3', '4']",1,2023.2.3,harveyvisual,2.1,[],8,0.75,
0,pause,0.4,None,None,None,0,207,207,207,,,,,,,,,,,,,N012,visual,6,[],"['1', '2', '3', '4']",1,2023.2.3,harveyvisual,2.1,[],8,0.75,
5,dot,0.3,['dot'],['density'],black,0,208,208,208,,,75.20023202896118,74.90689015388489,75.2244770526886,dot,"[0.06, 0.06, 0.06, 0.1, 0.06]","[[-0.11834215492801986, 0.412508379109845], [0.31881799646300274, 0.30859303438359803], [-0.06368743078099719, 0.10105058071702504], [0.1133485112468387, 0.46262203184429457], [0.11957051434631445, 0.24197418837926052]]",density,black,,,N012,visual,6,[],"['1', '2', '3', '4']",1,2023.2.3,harveyvisual,2.1,[],8,0.75,
0,pause,0.4,None,None,None,0,209,209,209,,,,,,,,,,,,,N012,visual,6,[],"['1', '2', '3', '4']",1,2023.2.3,harveyvisual,2.1,[],8,0.75,
5,dot,0.3,['dot'],['density'],black,0,210,210,210,,,75.90021014213562,75.60686898231506,75.92357301712036,dot,"[0.1, 0.06, 0.08, 0.08, 0.08]","[[-0.3632963637400461, -0.33792544526642676], [-0.48189922448633543, -0.036156829306921726], [-0.2958020468624338, 0.07292024124872273], [-0.10639492237515816, -0.0008972940205680791], [-0.20818262001932955, -0.17666930306052683]]",density,black,,,N012,visual,6,[],"['1', '2', '3', '4']",1,2023.2.3,harveyvisual,2.1,[],8,0.75,
0,pause,0.4,None,None,None,0,211,211,211,,,,,,,,,,,,,N012,visual,6,[],"['1', '2', '3', '4']",1,2023.2.3,harveyvisual,2.1,[],8,0.75,
5,dot,0.3,['dot'],['density'],black,0,212,212,212,,,76.60023212432861,76.30693507194519,76.62352395057678,dot,"[0.06, 0.1, 0.06, 0.1, 0.08]","[[-0.19096480170835262, 0.2202776521134577], [0.009488999043989208, 0.5721548226574139], [0.16477125949827795, 0.3732973518003487], [0.07476286221063107, 0.1476230553836633], [-0.051949696108355745, 0.36609537475325354]]",density,black,,,N012,visual,6,[],"['1', '2', '3', '4']",1,2023.2.3,harveyvisual,2.1,[],8,0.75,
0,pause,0.4,None,None,None,0,213,213,213,,,,,,,,,,,,,N012,visual,6,[],"['1', '2', '3', '4']",1,2023.2.3,harveyvisual,2.1,[],8,0.75,
5,dot,0.3,['dot'],['density'],black,0,214,214,214,,,77.30020999908447,77.0068371295929,77.32349109649658,dot,"[0.1, 0.1, 0.06, 0.06, 0.08]","[[0.2075830250205083, 0.5448960418430373], [0.010600229768786232, 0.45420498888786176], [-0.10187712889758427, 0.28364076042242115], [0.1691377395635631, 0.293820614486451], [-0.2596336492265815, 0.40815120909286945]]",density,black,,,N012,visual,6,[],"['1', '2', '3', '4']",1,2023.2.3,harveyvisual,2.1,[],8,0.75,
0,pause,0.4,None,None,None,0,215,215,215,,,,,,,,,,,,,N012,visual,6,[],"['1', '2', '3', '4']",1,2023.2.3,harveyvisual,2.1,[],8,0.75,
4,dot,0.3,['dot'],['density'],black,0,216,216,216,,,78.00023007392883,77.70682501792908,78.02350211143494,dot,"[0.06, 0.08, 0.08, 0.1]","[[-0.3884818304242726, 0.11421243679268873], [-0.11472928134965246, -0.13141119473891247], [-0.1657593024508462, 0.13368900033666462], [-0.36655717599886073, -0.10387254737714131]]",density,black,,,N012,visual,6,[],"['1', '2', '3', '4']",1,2023.2.3,harveyvisual,2.1,[],8,0.75,
0,pause,0.4,None,None,None,0,217,217,217,,,,,,,,,,,,,N012,visual,6,[],"['1', '2', '3', '4']",1,2023.2.3,harveyvisual,2.1,[],8,0.75,
4,dot,0.3,['dot'],['density'],black,0,218,218,218,,,78.7002170085907,78.40679693222046,78.72352313995361,dot,"[0.06, 0.06, 0.1, 0.1]","[[0.06326389353998313, -0.3457479010937814], [-0.07512051392095552, -0.02196355495157639], [0.09410934090401228, -0.14113260442523076], [-0.13717358852421138, -0.29916566844175635]]",density,black,,,N012,visual,6,[],"['1', '2', '3', '4']",1,2023.2.3,harveyvisual,2.1,[],8,0.75,
0,pause,0.4,None,None,None,0,219,219,219,,,,,,,,,,,,,N012,visual,6,[],"['1', '2', '3', '4']",1,2023.2.3,harveyvisual,2.1,[],8,0.75,
4,dot,0.3,['dot'],['density'],black,0,220,220,220,,,79.40022993087769,79.10679912567139,79.42343401908875,dot,"[0.08, 0.1, 0.08, 0.06]","[[-0.22375678750486633, 0.16938766720995918], [-0.03438308412182927, 0.2632029670309489], [0.15312837370161694, 0.1265605786946886], [-0.035433382102469414, 0.014828983441921377]]",density,black,,,N012,visual,6,[],"['1', '2', '3', '4']",1,2023.2.3,harveyvisual,2.1,[],8,0.75,
0,pause,0.4,None,None,None,0,221,221,221,,,,,,,,,,,,,N012,visual,6,[],"['1', '2', '3', '4']",1,2023.2.3,harveyvisual,2.1,[],8,0.75,
4,dot,0.3,['dot'],['density'],black,0,222,222,222,,,80.1002299785614,79.80677199363708,80.12341713905334,dot,"[0.06, 0.1, 0.08, 0.1]","[[0.06326389353998313, -0.3457479010937814], [-0.07512051392095552, -0.02196355495157639], [0.09410934090401228, -0.14113260442523076], [-0.13717358852421138, -0.29916566844175635]]",density,black,,,N012,visual,6,[],"['1', '2', '3', '4']",1,2023.2.3,harveyvisual,2.1,[],8,0.75,
0,pause,0.4,None,None,None,0,223,223,223,,,,,,,,,,,,,N012,visual,6,[],"['1', '2', '3', '4']",1,2023.2.3,harveyvisual,2.1,[],8,0.75,
4,dot,0.3,['dot'],['density'],black,0,224,224,224,,,80.80023002624512,80.50674200057983,80.82340812683105,dot,"[0.06, 0.06, 0.06, 0.08]","[[0.2541297109701026, -0.03410267595110144], [0.396116024817599, -0.19002287009394117], [0.4303711222235913, 0.2602585224666286], [0.4446461975978109, 0.027516111316963392]]",density,black,,,N012,visual,6,[],"['1', '2', '3', '4']",1,2023.2.3,harveyvisual,2.1,[],8,0.75,
0,pause,0.4,None,None,None,0,225,225,225,,,,,,,,,,,,,N012,visual,6,[],"['1', '2', '3', '4']",1,2023.2.3,harveyvisual,2.1,[],8,0.75,
4,dot,0.3,['dot'],['density'],black,0,226,226,226,,,81.50023794174194,81.20677709579468,81.52337694168091,dot,"[0.08, 0.1, 0.08, 0.06]","[[-0.5133923796685119, -0.13567638448558317], [-0.3102378593599109, -0.17790160316510653], [-0.5338837235738882, 0.07316730980410076], [-0.255286731521037, 0.022123457211080083]]",density,black,,,N012,visual,6,[],"['1', '2', '3', '4']",1,2023.2.3,harveyvisual,2.1,[],8,0.75,
0,pause,0.4,None,None,None,0,227,227,227,,,,,,,,,,,,,N012,visual,6,[],"['1', '2', '3', '4']",1,2023.2.3,harveyvisual,2.1,[],8,0.75,
3,dot,0.3,['dot'],['density'],black,0,228,228,228,,,82.20023107528687,81.90669894218445,82.22336792945862,dot,"[0.1, 0.1, 0.1]","[[-0.476501853024302, 0.3110516410681161], [-0.26865065753742645, 0.4732574608261889], [-0.2772428868380306, 0.2516539537451065]]",density,black,,,N012,visual,6,[],"['1', '2', '3', '4']",1,2023.2.3,harveyvisual,2.1,[],8,0.75,
0,pause,0.4,None,None,None,0,229,229,229,,,,,,,,,,,,,N012,visual,6,[],"['1', '2', '3', '4']",1,2023.2.3,harveyvisual,2.1,[],8,0.75,
3,dot,0.3,['dot'],['density'],white,0,230,230,230,,,82.90022802352905,82.60669493675232,82.92443513870239,dot,"[0.08, 0.06, 0.06]","[[0.023581383320217864, -0.14485493475327696], [-0.06776129410461201, 0.04872406380669356], [0.14236151446293968, 0.029671970014602284]]",density,white,,,N012,visual,6,[],"['1', '2', '3', '4']",1,2023.2.3,harveyvisual,2.1,[],8,0.75,
0,pause,0.4,None,None,None,0,231,231,231,,,,,,,,,,,1,83.0784330368042,N012,visual,6,[],"['1', '2', '3', '4']",1,2023.2.3,harveyvisual,2.1,[],8,0.75,
3,dot,0.3,['dot'],['density'],black,0,232,232,232,,,83.60023403167725,83.30670309066772,83.62351894378662,dot,"[0.08, 0.1, 0.1]","[[0.4290032298944087, 0.1407520187648592], [0.22848299553954127, 0.06362144779139585], [0.3595680574788582, -0.09433362503040832]]",density,black,,,N012,visual,6,[],"['1', '2', '3', '4']",1,2023.2.3,harveyvisual,2.1,[],8,0.75,
0,pause,0.4,None,None,None,0,233,233,233,,,,,,,,,,,,,N012,visual,6,[],"['1', '2', '3', '4']",1,2023.2.3,harveyvisual,2.1,[],8,0.75,
3,dot,0.3,['dot'],['density'],black,0,234,234,234,,,84.30022192001343,84.00671601295471,84.3234601020813,dot,"[0.06, 0.06, 0.06]","[[-0.021384933427115945, -0.26055744462645497], [0.16478637362895734, -0.404980755917603], [-0.025077849445719256, -0.48190209473619267]]",density,black,,,N012,visual,6,[],"['1', '2', '3', '4']",1,2023.2.3,harveyvisual,2.1,[],8,0.75,
0,pause,0.4,None,None,None,0,235,235,235,,,,,,,,,,,,,N012,visual,6,[],"['1', '2', '3', '4']",1,2023.2.3,harveyvisual,2.1,[],8,0.75,
3,dot,0.3,['dot'],['density'],black,0,236,236,236,,,85.00023102760315,84.70668005943298,85.02332711219788,dot,"[0.1, 0.06, 0.1]","[[-0.27441186418729774, -0.31428620701652393], [-0.10438281902574013, -0.2032379983598837], [-0.31523395761825285, -0.08768035506307631]]",density,black,,,N012,visual,6,[],"['1', '2', '3', '4']",1,2023.2.3,harveyvisual,2.1,[],8,0.75,
0,pause,0.4,None,None,None,0,237,237,237,,,,,,,,,,,,,N012,visual,6,[],"['1', '2', '3', '4']",1,2023.2.3,harveyvisual,2.1,[],8,0.75,
3,dot,0.3,['dot'],['density'],black,0,238,238,238,,,85.70022392272949,85.40678906440735,85.72333312034607,dot,"[0.06, 0.06, 0.08]","[[0.29938275938101017, 0.44415474715472736], [0.13070782598704628, 0.5557174004537693], [0.11832456902218637, 0.3273615767427578]]",density,black,,,N012,visual,6,[],"['1', '2', '3', '4']",1,2023.2.3,harveyvisual,2.1,[],8,0.75,
0,pause,0.4,None,None,None,0,239,239,239,,,,,,,,,,,,,N012,visual,6,[],"['1', '2', '3', '4']",1,2023.2.3,harveyvisual,2.1,[],8,0.75,
2,dot,0.3,['dot'],['density'],black,0,240,240,240,,,86.40021514892578,86.10662412643433,86.42342114448547,dot,"[0.06, 0.1]","[[-0.2277318593301165, -0.35289300204507235], [-0.09400723608355734, -0.20388512549033708]]",density,black,,,N012,visual,6,[],"['1', '2', '3', '4']",1,2023.2.3,harveyvisual,2.1,[],8,0.75,
0,pause,0.4,None,None,None,0,241,241,241,,,,,,,,,,,,,N012,visual,6,[],"['1', '2', '3', '4']",1,2023.2.3,harveyvisual,2.1,[],8,0.75,
2,dot,0.3,['dot'],['density'],black,0,242,242,242,,,87.10022401809692,86.80676007270813,87.1232521533966,dot,"[0.08, 0.1]","[[0.28379985726396956, 0.19228106150028407], [0.10160376615595414, 0.2763535177041957]]",density,black,,,N012,visual,6,[],"['1', '2', '3', '4']",1,2023.2.3,harveyvisual,2.1,[],8,0.75,
0,pause,0.4,None,None,None,0,243,243,243,,,,,,,,,,,,,N012,visual,6,[],"['1', '2', '3', '4']",1,2023.2.3,harveyvisual,2.1,[],8,0.75,
2,dot,0.3,['dot'],['density'],white,0,244,244,244,,,87.80022811889648,87.50657796859741,87.82323408126831,dot,"[0.06, 0.06]","[[-0.22226122312079244, -0.00806926593831646], [-0.023245446524914906, -0.037240983575548024]]",density,white,,,N012,visual,6,[],"['1', '2', '3', '4']",1,2023.2.3,harveyvisual,2.1,[],8,0.75,
0,pause,0.4,None,None,None,0,245,245,245,,,,,,,,,,,,,N012,visual,6,[],"['1', '2', '3', '4']",1,2023.2.3,harveyvisual,2.1,[],8,0.75,
2,dot,0.3,['dot'],['density'],black,0,246,246,246,,,88.50021696090698,88.20655798912048,88.52322292327881,dot,"[0.1, 0.1]","[[0.002249876020969301, 0.20442088447143333], [-0.056293345030126195, 0.39599742374220376]]",density,black,,,N012,visual,6,[],"['1', '2', '3', '4']",1,2023.2.3,harveyvisual,2.1,[],8,0.75,
0,pause,0.4,None,None,None,0,247,247,247,,,,,,,,,,,,,N012,visual,6,[],"['1', '2', '3', '4']",1,2023.2.3,harveyvisual,2.1,[],8,0.75,
2,dot,0.3,['dot'],['density'],white,0,248,248,248,,,89.2002420425415,88.90653991699219,89.22320199012756,dot,"[0.06, 0.1]","[[0.2713647219188039, -0.029235290058335472], [0.46697437826705046, 0.014145112521712659]]",density,white,,,N012,visual,6,[],"['1', '2', '3', '4']",1,2023.2.3,harveyvisual,2.1,[],8,0.75,
0,pause,0.4,None,None,None,0,249,249,249,,,,,,,,,,,,,N012,visual,6,[],"['1', '2', '3', '4']",1,2023.2.3,harveyvisual,2.1,[],8,0.75,
2,dot,0.3,['dot'],['density'],black,0,250,250,250,,,89.90021300315857,89.60656404495239,89.92318391799927,dot,"[0.06, 0.06]","[[0.4101371699595759, -0.046236245446824746], [0.42481245787877703, -0.24684889303111815]]",density,black,,,N012,visual,6,[],"['1', '2', '3', '4']",1,2023.2.3,harveyvisual,2.1,[],8,0.75,
0,pause,0.4,None,None,None,0,251,251,251,,,,,,,,,,,,,N012,visual,6,[],"['1', '2', '3', '4']",1,2023.2.3,harveyvisual,2.1,[],8,0.75,
1,dot,0.3,['dot'],['density'],black,0,252,252,252,,,90.60021495819092,90.30765104293823,90.62319898605347,dot,[0.1],"[0.4230572171255965, 0.15564154118015242]",density,black,,,N012,visual,6,[],"['1', '2', '3', '4']",1,2023.2.3,harveyvisual,2.1,[],8,0.75,
0,pause,0.4,None,None,None,0,253,253,253,,,,,,,,,,,,,N012,visual,6,[],"['1', '2', '3', '4']",1,2023.2.3,harveyvisual,2.1,[],8,0.75,
1,dot,0.3,['dot'],['density'],black,0,254,254,254,,,91.300213098526,91.0066499710083,91.32319593429565,dot,[0.1],"[-0.48958603946102763, 0.32731293615049173]",density,black,,,N012,visual,6,[],"['1', '2', '3', '4']",1,2023.2.3,harveyvisual,2.1,[],8,0.75,
0,pause,0.4,None,None,None,0,255,255,255,,,,,,,,,,,,,N012,visual,6,[],"['1', '2', '3', '4']",1,2023.2.3,harveyvisual,2.1,[],8,0.75,
1,dot,0.3,['dot'],['density'],black,0,256,256,256,,,92.0002110004425,91.70650315284729,92.02315497398376,dot,[0.06],"[0.1600937909388646, -0.5041032805904762]",density,black,,,N012,visual,6,[],"['1', '2', '3', '4']",1,2023.2.3,harveyvisual,2.1,[],8,0.75,
0,pause,0.4,None,None,None,0,257,257,257,,,,,,,,,,,,,N012,visual,6,[],"['1', '2', '3', '4']",1,2023.2.3,harveyvisual,2.1,[],8,0.75,
1,dot,0.3,['dot'],['density'],black,0,258,258,258,,,92.70022511482239,92.40648007392883,92.72325897216797,dot,[0.1],"[0.30758596680771827, -0.21275106234766314]",density,black,,,N012,visual,6,[],"['1', '2', '3', '4']",1,2023.2.3,harveyvisual,2.1,[],8,0.75,
0,pause,0.4,None,None,None,0,259,259,259,,,,,,,,,,,,,N012,visual,6,[],"['1', '2', '3', '4']",1,2023.2.3,harveyvisual,2.1,[],8,0.75,
1,dot,0.3,['dot'],['density'],black,0,260,260,260,,,93.40023303031921,93.10649800300598,93.42311596870422,dot,[0.08],"[0.19623115665255414, 0.1676894875529279]",density,black,,,N012,visual,6,[],"['1', '2', '3', '4']",1,2023.2.3,harveyvisual,2.1,[],8,0.75,
0,pause,0.4,None,None,None,0,261,261,261,,,,,,,,,,,,,N012,visual,6,[],"['1', '2', '3', '4']",1,2023.2.3,harveyvisual,2.1,[],8,0.75,
1,dot,0.3,['dot'],['density'],black,0,262,262,262,,,94.10023903846741,93.80658102035522,94.12333011627197,dot,[0.06],"[0.2830289625583117, -0.03026882548871228]",density,black,,,N012,visual,6,[],"['1', '2', '3', '4']",1,2023.2.3,harveyvisual,2.1,[],8,0.75,
0,pause,0.4,None,None,None,0,263,263,263,,,,,,,,,,,,,N012,visual,6,[],"['1', '2', '3', '4']",1,2023.2.3,harveyvisual,2.1,[],8,0.75,
20,dot,0.3,['dot'],['density'],black,0,264,264,264,,,94.80022311210632,94.52309513092041,94.82308506965637,dot,"[0.1, 0.1, 0.08, 0.08, 0.1, 0.08, 0.08, 0.1, 0.08, 0.08, 0.1, 0.08, 0.08, 0.06, 0.06, 0.06, 0.1, 0.06, 0.08, 0.06]","[[-0.08132362843458452, -0.21230123889366986], [-0.5035010154802456, 0.11374093638191018], [0.16219438299864308, -0.31375092213623246], [0.08436604608518328, 0.5748930607479303], [0.49945987062106656, 0.29775132971423807], [0.4504496082115038, -0.15743667616072557], [-0.32483085923977756, 0.48348448138176137], [-0.4604883124331585, -0.3572507315004692], [-0.10355254040747108, 0.3358505235211232], [-0.04582181550482434, -0.4393342611635097], [-0.3170080594894865, -0.19800531823009115], [-0.02770903960530624, 0.023886722581055064], [0.27681221980126924, 0.1837062105839875], [-0.22619774670556875, -0.5035587795868739], [-0.4875941673073075, -0.08480174120041883], [0.39577147185047823, -0.421008277062342], [0.07823124447261876, 0.1980979094303561], [0.5904539880537273, 0.07126359701175153], [0.24722388346554836, -0.13259416069909302], [0.2905106429695611, 0.394177642453045]]",density,black,,,N012,visual,6,[],"['1', '2', '3', '4']",1,2023.2.3,harveyvisual,2.1,[],8,0.75,
0,pause,0.4,None,None,None,0,265,265,265,,,,,,,,,,,,,N012,visual,6,[],"['1', '2', '3', '4']",1,2023.2.3,harveyvisual,2.1,[],8,0.75,
20,dot,0.3,['dot'],['density'],black,0,266,266,266,,,95.50022292137146,95.22304892539978,95.52303409576416,dot,"[0.1, 0.08, 0.1, 0.08, 0.08, 0.08, 0.06, 0.08, 0.1, 0.06, 0.06, 0.1, 0.06, 0.1, 0.08, 0.1, 0.1, 0.08, 0.06, 0.1]","[[0.5508910988836363, 0.08515717354494873], [-0.35022181484093323, -0.18503440676470567], [0.014291102189315064, -0.16950306799246856], [0.15530209658556515, -0.3495660628559951], [-0.5863593299757791, 0.09556545533836724], [-0.38579839993507975, 0.01709939082953843], [0.036355843284924805, 0.0797984355925978], [-0.09453644467377131, 0.5829125380797393], [0.40688550602324136, -0.3158317820439403], [0.47494911498370096, 0.3260996403947851], [0.12628693019983472, 0.35567085257082], [-0.14274166008371414, -0.0011735439107508627], [-0.06396932268812949, 0.2718988471117685], [-0.29916028389402216, -0.47381226941179405], [0.3200732489069642, 0.10576587518948521], [0.5007498354977648, -0.10650697612655063], [-0.38680942779342564, 0.43683709214531485], [0.0060780148046167826, -0.5591559283069448], [-0.16318001268369337, -0.24693132317824507], [0.20860633839921883, -0.07936154439862175]]",density,black,,,N012,visual,6,[],"['1', '2', '3', '4']",1,2023.2.3,harveyvisual,2.1,[],8,0.75,
0,pause,0.4,None,None,None,0,267,267,267,,,,,,,,,,,,,N012,visual,6,[],"['1', '2', '3', '4']",1,2023.2.3,harveyvisual,2.1,[],8,0.75,
