num,mod,duration,shape,ll_cond,colors,.thisRepN,.thisTrialN,.thisN,.thisIndex,thisRow.t,notes,raw_global_time,t_start,t_stop,shapes,size,pos,cond,color,button,RT,participant,session,starting_run,left button (match/odd),right button (non-match/even),samples_per_block,psychopy version,expName,offset,audio,number_runs,radius,
1,dot,0.3,['dot'],['density'],black,0,0,0,0,,,2.4002020359039307,2.1090261936187744,2.408946990966797,dot,[0.1],"[0.5286010678554951, -0.2554598500704326]",density,black,,,N012,visual,3,[],"['1', '2', '3', '4']",1,2023.2.3,harveyvisual,2.1,[],8,0.75,
0,pause,0.4,None,None,None,0,1,1,1,,,,,,,,,,,,,N012,visual,3,[],"['1', '2', '3', '4']",1,2023.2.3,harveyvisual,2.1,[],8,0.75,
1,dot,0.3,['dot'],['density'],black,0,2,2,2,,,3.10020112991333,2.808927059173584,3.1097161769866943,dot,[0.08],"[0.2443568370277045, -0.23874091154858243]",density,black,,,N012,visual,3,[],"['1', '2', '3', '4']",1,2023.2.3,harveyvisual,2.1,[],8,0.75,
0,pause,0.4,None,None,None,0,3,3,3,,,,,,,,,,,,,N012,visual,3,[],"['1', '2', '3', '4']",1,2023.2.3,harveyvisual,2.1,[],8,0.75,
1,dot,0.3,['dot'],['density'],white,0,4,4,4,,,3.800222158432007,3.5098750591278076,3.8094241619110107,dot,[0.1],"[0.39967490259390637, -0.2576437183111264]",density,white,,,N012,visual,3,[],"['1', '2', '3', '4']",1,2023.2.3,harveyvisual,2.1,[],8,0.75,
0,pause,0.4,None,None,None,0,5,5,5,,,,,,,,,,,1,3.9403419494628906,N012,visual,3,[],"['1', '2', '3', '4']",1,2023.2.3,harveyvisual,2.1,[],8,0.75,
1,dot,0.3,['dot'],['density'],black,0,6,6,6,,,4.500226974487305,4.209411144256592,4.509442090988159,dot,[0.06],"[0.03111034986587176, -0.1137363894063533]",density,black,,,N012,visual,3,[],"['1', '2', '3', '4']",1,2023.2.3,harveyvisual,2.1,[],8,0.75,
0,pause,0.4,None,None,None,0,7,7,7,,,,,,,,,,,,,N012,visual,3,[],"['1', '2', '3', '4']",1,2023.2.3,harveyvisual,2.1,[],8,0.75,
1,dot,0.3,['dot'],['density'],black,0,8,8,8,,,5.200213193893433,4.909449100494385,5.209431171417236,dot,[0.06],"[-0.00037526000000685745, -0.027921386894572527]",density,black,,,N012,visual,3,[],"['1', '2', '3', '4']",1,2023.2.3,harveyvisual,2.1,[],8,0.75,
0,pause,0.4,None,None,None,0,9,9,9,,,,,,,,,,,,,N012,visual,3,[],"['1', '2', '3', '4']",1,2023.2.3,harveyvisual,2.1,[],8,0.75,
1,dot,0.3,['dot'],['density'],black,0,10,10,10,,,5.900215148925781,5.611710071563721,5.9117021560668945,dot,[0.08],"[-0.22356924330877379, 0.41145231278245986]",density,black,,,N012,visual,3,[],"['1', '2', '3', '4']",1,2023.2.3,harveyvisual,2.1,[],8,0.75,
0,pause,0.4,None,None,None,0,11,11,11,,,,,,,,,,,,,N012,visual,3,[],"['1', '2', '3', '4']",1,2023.2.3,harveyvisual,2.1,[],8,0.75,
2,dot,0.3,['dot'],['density'],black,0,12,12,12,,,6.600229024887085,6.31173300743103,6.611696004867554,dot,"[0.08, 0.1]","[[0.21918454152848227, -0.10588244801595839], [0.1860161616926718, 0.09155890801726524]]",density,black,,,N012,visual,3,[],"['1', '2', '3', '4']",1,2023.2.3,harveyvisual,2.1,[],8,0.75,
0,pause,0.4,None,None,None,0,13,13,13,,,,,,,,,,,,,N012,visual,3,[],"['1', '2', '3', '4']",1,2023.2.3,harveyvisual,2.1,[],8,0.75,
2,dot,0.3,['dot'],['density'],black,0,14,14,14,,,7.30022406578064,7.011679172515869,7.311642169952393,dot,"[0.1, 0.08]","[[0.038501021189721846, -0.3380528513692932], [0.2360793696083702, -0.306423538752856]]",density,black,,,N012,visual,3,[],"['1', '2', '3', '4']",1,2023.2.3,harveyvisual,2.1,[],8,0.75,
0,pause,0.4,None,None,None,0,15,15,15,,,,,,,,,,,,,N012,visual,3,[],"['1', '2', '3', '4']",1,2023.2.3,harveyvisual,2.1,[],8,0.75,
2,dot,0.3,['dot'],['density'],black,0,16,16,16,,,8.000225067138672,7.711641073226929,8.011665105819702,dot,"[0.06, 0.06]","[[0.2713647219188039, -0.029235290058335472], [0.46697437826705046, 0.014145112521712659]]",density,black,,,N012,visual,3,[],"['1', '2', '3', '4']",1,2023.2.3,harveyvisual,2.1,[],8,0.75,
0,pause,0.4,None,None,None,0,17,17,17,,,,,,,,,,,,,N012,visual,3,[],"['1', '2', '3', '4']",1,2023.2.3,harveyvisual,2.1,[],8,0.75,
2,dot,0.3,['dot'],['density'],black,0,18,18,18,,,8.700226068496704,8.41171407699585,8.711619138717651,dot,"[0.1, 0.1]","[[-0.20887660672828282, 0.3399455197969581], [-0.34272369919491674, 0.19089688818271272]]",density,black,,,N012,visual,3,[],"['1', '2', '3', '4']",1,2023.2.3,harveyvisual,2.1,[],8,0.75,
0,pause,0.4,None,None,None,0,19,19,19,,,,,,,,,,,,,N012,visual,3,[],"['1', '2', '3', '4']",1,2023.2.3,harveyvisual,2.1,[],8,0.75,
2,dot,0.3,['dot'],['density'],black,0,20,20,20,,,9.400202989578247,9.111611127853394,9.411604166030884,dot,"[0.1, 0.06]","[[-0.21141336561075566, 0.4273762957479495], [-0.1407142259739198, 0.23984948612333498]]",density,black,,,N012,visual,3,[],"['1', '2', '3', '4']",1,2023.2.3,harveyvisual,2.1,[],8,0.75,
0,pause,0.4,None,None,None,0,21,21,21,,,,,,,,,,,,,N012,visual,3,[],"['1', '2', '3', '4']",1,2023.2.3,harveyvisual,2.1,[],8,0.75,
2,dot,0.3,['dot'],['density'],black,0,22,22,22,,,10.100224018096924,9.811621189117432,10.111630201339722,dot,"[0.1, 0.06]","[[0.11825467712572878, -0.39617910972508336], [0.05459236086910312, -0.5860717982025758]]",density,black,,,N012,visual,3,[],"['1', '2', '3', '4']",1,2023.2.3,harveyvisual,2.1,[],8,0.75,
0,pause,0.4,None,None,None,0,23,23,23,,,,,,,,,,,,,N012,visual,3,[],"['1', '2', '3', '4']",1,2023.2.3,harveyvisual,2.1,[],8,0.75,
3,dot,0.3,['dot'],['density'],black,0,24,24,24,,,10.800204038619995,10.511636018753052,10.811568021774292,dot,"[0.08, 0.06, 0.1]","[[0.48628142840140876, 0.1515230430224543], [0.28796188866220057, 0.19625725416133796], [0.3371406364253883, -0.002661880310138811]]",density,black,,,N012,visual,3,[],"['1', '2', '3', '4']",1,2023.2.3,harveyvisual,2.1,[],8,0.75,
0,pause,0.4,None,None,None,0,25,25,25,,,,,,,,,,,,,N012,visual,3,[],"['1', '2', '3', '4']",1,2023.2.3,harveyvisual,2.1,[],8,0.75,
3,dot,0.3,['dot'],['density'],black,0,26,26,26,,,11.500203132629395,11.211546182632446,11.511538982391357,dot,"[0.1, 0.1, 0.08]","[[-0.36641147837046456, 0.28339849123565264], [-0.19108570342652328, 0.4628134959899303], [-0.16564092668537764, 0.24926372681875647]]",density,black,,,N012,visual,3,[],"['1', '2', '3', '4']",1,2023.2.3,harveyvisual,2.1,[],8,0.75,
0,pause,0.4,None,None,None,0,27,27,27,,,,,,,,,,,,,N012,visual,3,[],"['1', '2', '3', '4']",1,2023.2.3,harveyvisual,2.1,[],8,0.75,
3,dot,0.3,['dot'],['density'],white,0,28,28,28,,,12.200215101242065,11.911530017852783,12.211497068405151,dot,"[0.06, 0.08, 0.08]","[[0.348550694073714, -0.26372109460002424], [0.5073713069625243, -0.14206826334288786], [0.3419709386041379, 0.005891602819957491]]",density,white,,,N012,visual,3,[],"['1', '2', '3', '4']",1,2023.2.3,harveyvisual,2.1,[],8,0.75,
0,pause,0.4,None,None,None,0,29,29,29,,,,,,,,,,,1,12.345346927642822,N012,visual,3,[],"['1', '2', '3', '4']",1,2023.2.3,harveyvisual,2.1,[],8,0.75,
3,dot,0.3,['dot'],['density'],black,0,30,30,30,,,12.900219202041626,12.611509084701538,12.91149616241455,dot,"[0.06, 0.08, 0.08]","[[0.06695044750400271, -0.4036822973150869], [0.2898428615912539, -0.43752325319744867], [0.2484486434572057, -0.2241911098289173]]",density,black,,,N012,visual,3,[],"['1', '2', '3', '4']",1,2023.2.3,harveyvisual,2.1,[],8,0.75,
0,pause,0.4,None,None,None,0,31,31,31,,,,,,,,,,,,,N012,visual,3,[],"['1', '2', '3', '4']",1,2023.2.3,harveyvisual,2.1,[],8,0.75,
3,dot,0.3,['dot'],['density'],black,0,32,32,32,,,13.600203037261963,13.31152606010437,13.611513137817383,dot,"[0.1, 0.06, 0.1]","[[-0.17720328293608806, -0.4514300161601115], [0.022754438065530718, -0.42143894503716073], [-0.10940085810899225, -0.24791511077847575]]",density,black,,,N012,visual,3,[],"['1', '2', '3', '4']",1,2023.2.3,harveyvisual,2.1,[],8,0.75,
0,pause,0.4,None,None,None,0,33,33,33,,,,,,,,,,,,,N012,visual,3,[],"['1', '2', '3', '4']",1,2023.2.3,harveyvisual,2.1,[],8,0.75,
3,dot,0.3,['dot'],['density'],black,0,34,34,34,,,14.300222158432007,14.011492013931274,14.311491012573242,dot,"[0.06, 0.06, 0.08]","[[0.06695044750400271, -0.4036822973150869], [0.2898428615912539, -0.43752325319744867], [0.2484486434572057, -0.2241911098289173]]",density,black,,,N012,visual,3,[],"['1', '2', '3', '4']",1,2023.2.3,harveyvisual,2.1,[],8,0.75,
0,pause,0.4,None,None,None,0,35,35,35,,,,,,,,,,,,,N012,visual,3,[],"['1', '2', '3', '4']",1,2023.2.3,harveyvisual,2.1,[],8,0.75,
4,dot,0.3,['dot'],['density'],black,0,36,36,36,,,15.000203132629395,14.711482048034668,15.011603116989136,dot,"[0.1, 0.1, 0.06, 0.1]","[[-0.264878088602857, 0.22906395790450432], [0.07239228809704809, 0.2615492699427171], [0.10034738543262733, 0.4676118263175188], [-0.09637524959065707, 0.3769302803343899]]",density,black,,,N012,visual,3,[],"['1', '2', '3', '4']",1,2023.2.3,harveyvisual,2.1,[],8,0.75,
0,pause,0.4,None,None,None,0,37,37,37,,,,,,,,,,,,,N012,visual,3,[],"['1', '2', '3', '4']",1,2023.2.3,harveyvisual,2.1,[],8,0.75,
4,dot,0.3,['dot'],['density'],black,0,38,38,38,,,15.700215101242065,15.411598205566406,15.711592197418213,dot,"[0.06, 0.06, 0.1, 0.1]","[[-0.24855901342904946, 0.4326179111294549], [-0.33066739519925503, 0.24314919490711104], [-0.015728317870896572, 0.5189617074191414], [-0.09686463175319387, 0.28200212383687606]]",density,black,,,N012,visual,3,[],"['1', '2', '3', '4']",1,2023.2.3,harveyvisual,2.1,[],8,0.75,
0,pause,0.4,None,None,None,0,39,39,39,,,,,,,,,,,,,N012,visual,3,[],"['1', '2', '3', '4']",1,2023.2.3,harveyvisual,2.1,[],8,0.75,
4,dot,0.3,['dot'],['density'],black,0,40,40,40,,,16.400211095809937,16.111590147018433,16.411566972732544,dot,"[0.06, 0.08, 0.08, 0.08]","[[0.1665887267295909, 0.08389582001604734], [0.4584359263982055, 0.26405512465689546], [0.4157764543415929, 0.03513878013061779], [0.2392225064082761, 0.29777239984320175]]",density,black,,,N012,visual,3,[],"['1', '2', '3', '4']",1,2023.2.3,harveyvisual,2.1,[],8,0.75,
0,pause,0.4,None,None,None,0,41,41,41,,,,,,,,,,,,,N012,visual,3,[],"['1', '2', '3', '4']",1,2023.2.3,harveyvisual,2.1,[],8,0.75,
4,dot,0.3,['dot'],['density'],black,0,42,42,42,,,17.100226163864136,16.811557054519653,17.111561059951782,dot,"[0.06, 0.06, 0.1, 0.08]","[[0.107131415583101, 0.03171316484874249], [0.3330877778846877, 0.14211400081541528], [0.23058747141838212, -0.24340322486593785], [0.3173726134345681, -0.05921806988573682]]",density,black,,,N012,visual,3,[],"['1', '2', '3', '4']",1,2023.2.3,harveyvisual,2.1,[],8,0.75,
0,pause,0.4,None,None,None,0,43,43,43,,,,,,,,,,,,,N012,visual,3,[],"['1', '2', '3', '4']",1,2023.2.3,harveyvisual,2.1,[],8,0.75,
4,dot,0.3,['dot'],['density'],black,0,44,44,44,,,17.800213098526,17.511579036712646,17.811527013778687,dot,"[0.08, 0.1, 0.06, 0.06]","[[0.06019618102804278, 0.17823994931545822], [-0.1876584465411705, -0.07971170835358893], [0.026807447441335588, -0.04038633305360204], [-0.17818728785032123, 0.12753763641901858]]",density,black,,,N012,visual,3,[],"['1', '2', '3', '4']",1,2023.2.3,harveyvisual,2.1,[],8,0.75,
0,pause,0.4,None,None,None,0,45,45,45,,,,,,,,,,,,,N012,visual,3,[],"['1', '2', '3', '4']",1,2023.2.3,harveyvisual,2.1,[],8,0.75,
4,dot,0.3,['dot'],['density'],black,0,46,46,46,,,18.500224113464355,18.211531162261963,18.511524200439453,dot,"[0.06, 0.08, 0.1, 0.1]","[[0.3225849294362846, -0.13157286681700714], [0.2615083713376798, -0.38790318245483907], [0.48399895238698887, -0.2981397300552969], [0.514252162939949, -0.043630752066028525]]",density,black,,,N012,visual,3,[],"['1', '2', '3', '4']",1,2023.2.3,harveyvisual,2.1,[],8,0.75,
0,pause,0.4,None,None,None,0,47,47,47,,,,,,,,,,,,,N012,visual,3,[],"['1', '2', '3', '4']",1,2023.2.3,harveyvisual,2.1,[],8,0.75,
5,dot,0.3,['dot'],['density'],black,0,48,48,48,,,19.200213193893433,18.911519050598145,19.211344003677368,dot,"[0.06, 0.08, 0.06, 0.08, 0.1]","[[-0.2338402938730933, 0.15846616122991625], [-0.3229678957369872, -0.0901175890533356], [-0.5034912146055804, 0.021834460539281654], [-0.23914892391179104, -0.28496604153387733], [-0.10132718886958789, -0.1172648190903725]]",density,black,,,N012,visual,3,[],"['1', '2', '3', '4']",1,2023.2.3,harveyvisual,2.1,[],8,0.75,
0,pause,0.4,None,None,None,0,49,49,49,,,,,,,,,,,,,N012,visual,3,[],"['1', '2', '3', '4']",1,2023.2.3,harveyvisual,2.1,[],8,0.75,
5,dot,0.3,['dot'],['density'],black,0,50,50,50,,,19.90022301673889,19.61134099960327,19.911336183547974,dot,"[0.06, 0.06, 0.06, 0.08, 0.1]","[[-0.28680504698685855, -0.37141287089520275], [-0.07941991320777259, -0.3100284666993168], [0.1333965094747872, -0.32231728701695306], [-0.16725551142864267, -0.07802884766317453], [0.04399369704041987, -0.09756099317031844]]",density,black,,,N012,visual,3,[],"['1', '2', '3', '4']",1,2023.2.3,harveyvisual,2.1,[],8,0.75,
0,pause,0.4,None,None,None,0,51,51,51,,,,,,,,,,,,,N012,visual,3,[],"['1', '2', '3', '4']",1,2023.2.3,harveyvisual,2.1,[],8,0.75,
5,dot,0.3,['dot'],['density'],black,0,52,52,52,,,20.600215196609497,20.31132197380066,20.611313104629517,dot,"[0.1, 0.1, 0.08, 0.06, 0.08]","[[-0.3632963637400461, -0.33792544526642676], [-0.48189922448633543, -0.036156829306921726], [-0.2958020468624338, 0.07292024124872273], [-0.10639492237515816, -0.0008972940205680791], [-0.20818262001932955, -0.17666930306052683]]",density,black,,,N012,visual,3,[],"['1', '2', '3', '4']",1,2023.2.3,harveyvisual,2.1,[],8,0.75,
0,pause,0.4,None,None,None,0,53,53,53,,,,,,,,,,,,,N012,visual,3,[],"['1', '2', '3', '4']",1,2023.2.3,harveyvisual,2.1,[],8,0.75,
5,dot,0.3,['dot'],['density'],black,0,54,54,54,,,21.30022120475769,21.01137113571167,21.311300039291382,dot,"[0.1, 0.06, 0.08, 0.08, 0.1]","[[0.2947939438731228, -0.23060267152592065], [-0.16069394766121817, -0.3416383267983795], [0.17571447256805817, -0.04795497140357211], [-0.06398416024856234, -0.043165972544212804], [0.046845399773749824, -0.2436216536023896]]",density,black,,,N012,visual,3,[],"['1', '2', '3', '4']",1,2023.2.3,harveyvisual,2.1,[],8,0.75,
0,pause,0.4,None,None,None,0,55,55,55,,,,,,,,,,,,,N012,visual,3,[],"['1', '2', '3', '4']",1,2023.2.3,harveyvisual,2.1,[],8,0.75,
5,dot,0.3,['dot'],['density'],black,0,56,56,56,,,22.00021505355835,21.71128797531128,22.01126503944397,dot,"[0.1, 0.1, 0.08, 0.1, 0.1]","[[0.10558973120531606, -0.20428866875977839], [-0.0893225412758366, 0.16524926947551877], [-0.05793580974794309, -0.07826743033729393], [0.11130747138107101, 0.10875249109580729], [0.28035132100960686, -0.09064984251937742]]",density,black,,,N012,visual,3,[],"['1', '2', '3', '4']",1,2023.2.3,harveyvisual,2.1,[],8,0.75,
0,pause,0.4,None,None,None,0,57,57,57,,,,,,,,,,,,,N012,visual,3,[],"['1', '2', '3', '4']",1,2023.2.3,harveyvisual,2.1,[],8,0.75,
5,dot,0.3,['dot'],['density'],black,0,58,58,58,,,22.700231075286865,22.411318063735962,22.711246013641357,dot,"[0.1, 0.08, 0.06, 0.1, 0.1]","[[-0.13667773294397823, -0.4810836359727921], [0.22435054442879343, -0.38211739689247126], [0.18745946747878278, -0.17039478388844306], [0.024239655080151325, -0.29759851870815907], [0.08919077751561523, -0.5300131723353856]]",density,black,,,N012,visual,3,[],"['1', '2', '3', '4']",1,2023.2.3,harveyvisual,2.1,[],8,0.75,
0,pause,0.4,None,None,None,0,59,59,59,,,,,,,,,,,,,N012,visual,3,[],"['1', '2', '3', '4']",1,2023.2.3,harveyvisual,2.1,[],8,0.75,
6,dot,0.3,['dot'],['density'],white,0,60,60,60,,,23.400225162506104,23.111314058303833,23.411247968673706,dot,"[0.1, 0.06, 0.08, 0.08, 0.06, 0.1]","[[-0.4130096743352808, -0.09152271377164663], [-0.19778223104980006, -0.03862987845790588], [-0.5782793278508197, 0.04067119283421001], [-0.2942915267906656, -0.3673297053134895], [-0.33560074172492643, 0.119885218799542], [-0.5263932498355091, -0.25924495598585295]]",density,white,,,N012,visual,3,[],"['1', '2', '3', '4']",1,2023.2.3,harveyvisual,2.1,[],8,0.75,
0,pause,0.4,None,None,None,0,61,61,61,,,,,,,,,,,1,23.55802583694458,N012,visual,3,[],"['1', '2', '3', '4']",1,2023.2.3,harveyvisual,2.1,[],8,0.75,
6,dot,0.3,['dot'],['density'],black,0,62,62,62,,,24.100232124328613,23.8112370967865,24.111212015151978,dot,"[0.08, 0.1, 0.06, 0.08, 0.06, 0.1]","[[-0.2094991805307552, 0.08302354111181451], [0.09557258300728075, 0.3458622669714129], [0.22056408800171526, -0.017094369341425636], [0.026601936584830878, 0.1297564650757722], [-0.11681768564656844, 0.2726391152528644], [-0.03570146891163527, -0.09222923444939024]]",density,black,,,N012,visual,3,[],"['1', '2', '3', '4']",1,2023.2.3,harveyvisual,2.1,[],8,0.75,
0,pause,0.4,None,None,None,0,63,63,63,,,,,,,,,,,,,N012,visual,3,[],"['1', '2', '3', '4']",1,2023.2.3,harveyvisual,2.1,[],8,0.75,
6,dot,0.3,['dot'],['density'],black,0,64,64,64,,,24.80022406578064,24.511200189590454,24.811216115951538,dot,"[0.1, 0.06, 0.1, 0.06, 0.08, 0.08]","[[-0.2715212558254698, 0.2586056842756752], [-0.41011716394998093, -0.23288273174477314], [-0.4259032553852052, 0.02963770343160952], [-0.037696467485790364, -0.07921729390734374], [-0.19058944014171011, 0.07565381115733183], [-0.22931220879523878, -0.14417898787482208]]",density,black,,,N012,visual,3,[],"['1', '2', '3', '4']",1,2023.2.3,harveyvisual,2.1,[],8,0.75,
0,pause,0.4,None,None,None,0,65,65,65,,,,,,,,,,,,,N012,visual,3,[],"['1', '2', '3', '4']",1,2023.2.3,harveyvisual,2.1,[],8,0.75,
6,dot,0.3,['dot'],['density'],black,0,66,66,66,,,25.500226974487305,25.211167097091675,25.51117515563965,dot,"[0.06, 0.1, 0.1, 0.08, 0.1, 0.1]","[[0.4838288853419304, 0.012393783640839304], [0.3357737587390128, 0.3939464288632381], [0.48781910936274964, 0.21484656822060386], [0.038497076365425514, 0.2266532147795764], [0.13074852606734502, 0.009493629341700475], [0.2855531954453259, 0.1811044151544938]]",density,black,,,N012,visual,3,[],"['1', '2', '3', '4']",1,2023.2.3,harveyvisual,2.1,[],8,0.75,
0,pause,0.4,None,None,None,0,67,67,67,,,,,,,,,,,,,N012,visual,3,[],"['1', '2', '3', '4']",1,2023.2.3,harveyvisual,2.1,[],8,0.75,
6,dot,0.3,['dot'],['density'],black,0,68,68,68,,,26.20021414756775,25.91116499900818,26.211158990859985,dot,"[0.06, 0.06, 0.1, 0.08, 0.08, 0.08]","[[-0.24492162854676555, 0.16704436901929823], [-0.3861886513150086, 0.35601694661450933], [-0.48514013682315105, 0.15596888098880124], [-0.5451465436738104, -0.12931683943359434], [-0.11772959853104834, 0.007676420150436517], [-0.35755989064212684, -0.03355234579502648]]",density,black,,,N012,visual,3,[],"['1', '2', '3', '4']",1,2023.2.3,harveyvisual,2.1,[],8,0.75,
0,pause,0.4,None,None,None,0,69,69,69,,,,,,,,,,,,,N012,visual,3,[],"['1', '2', '3', '4']",1,2023.2.3,harveyvisual,2.1,[],8,0.75,
6,dot,0.3,['dot'],['density'],black,0,70,70,70,,,26.90021514892578,26.6111581325531,26.91113305091858,dot,"[0.06, 0.06, 0.06, 0.1, 0.06, 0.06]","[[0.1442800129286608, -0.025670240792647715], [-0.253335145558221, 0.06312541807928282], [0.15340240856287354, 0.2410349392962658], [-0.1639657784688781, 0.25075335361279655], [-0.07910231793701084, -0.12784096878077061], [-0.011661193723423325, 0.11361106492824657]]",density,black,,,N012,visual,3,[],"['1', '2', '3', '4']",1,2023.2.3,harveyvisual,2.1,[],8,0.75,
0,pause,0.4,None,None,None,0,71,71,71,,,,,,,,,,,,,N012,visual,3,[],"['1', '2', '3', '4']",1,2023.2.3,harveyvisual,2.1,[],8,0.75,
7,dot,0.3,['dot'],['density'],white,0,72,72,72,,,27.60020899772644,27.311182975769043,27.61114811897278,dot,"[0.06, 0.08, 0.08, 0.08, 0.06, 0.1, 0.06]","[[-0.0840690222646118, 0.326581156863932], [0.2873095043411744, 0.40733497502034743], [0.3312644566818162, -0.06338498518608723], [-0.0506181805300269, 0.10889297565070959], [0.1236891467835978, 0.25045991881734525], [0.122473450616654, -0.061936092255746894], [0.3019459967494134, 0.15241064997072415]]",density,white,,,N012,visual,3,[],"['1', '2', '3', '4']",1,2023.2.3,harveyvisual,2.1,[],8,0.75,
0,pause,0.4,None,None,None,0,73,73,73,,,,,,,,,,,1,27.730281829833984,N012,visual,3,[],"['1', '2', '3', '4']",1,2023.2.3,harveyvisual,2.1,[],8,0.75,
7,dot,0.3,['dot'],['density'],black,0,74,74,74,,,28.300228118896484,28.011133193969727,28.31112003326416,dot,"[0.08, 0.1, 0.08, 0.08, 0.08, 0.06, 0.06]","[[-0.27882252076513336, 0.33055409005240166], [-0.4957633793454142, -0.06140876275196145], [-0.0066404743852866415, -0.09326226909207957], [-0.0437417051997281, 0.24568157295930956], [-0.4653499650939929, 0.1386387143322748], [-0.23664853702636232, 0.07695828400639043], [-0.2650254833014284, -0.12289079349875774]]",density,black,,,N012,visual,3,[],"['1', '2', '3', '4']",1,2023.2.3,harveyvisual,2.1,[],8,0.75,
0,pause,0.4,None,None,None,0,75,75,75,,,,,,,,,,,,,N012,visual,3,[],"['1', '2', '3', '4']",1,2023.2.3,harveyvisual,2.1,[],8,0.75,
7,dot,0.3,['dot'],['density'],black,0,76,76,76,,,29.0002121925354,28.711114168167114,29.011099100112915,dot,"[0.06, 0.06, 0.1, 0.06, 0.1, 0.08, 0.1]","[[-0.23867826801906328, -0.4967507610264224], [-0.008572732368673055, -0.07934474412745643], [-0.2066881937132076, -0.2790710878612567], [0.21709551483580575, -0.47507177834902015], [0.2058411173229685, -0.17553172422760346], [-0.015438952742397984, -0.3568653319460787], [-0.011603255668745115, -0.5749057065343526]]",density,black,,,N012,visual,3,[],"['1', '2', '3', '4']",1,2023.2.3,harveyvisual,2.1,[],8,0.75,
0,pause,0.4,None,None,None,0,77,77,77,,,,,,,,,,,,,N012,visual,3,[],"['1', '2', '3', '4']",1,2023.2.3,harveyvisual,2.1,[],8,0.75,
7,dot,0.3,['dot'],['density'],black,0,78,78,78,,,29.70022702217102,29.411180019378662,29.71108913421631,dot,"[0.06, 0.06, 0.1, 0.06, 0.1, 0.06, 0.08]","[[0.13823229125104186, -0.11287424625882309], [-0.082914425993103, 0.43156227464827385], [0.30107400633957315, 0.2583336012722512], [-0.1103107855725706, 0.20298726112520996], [0.37862923877470095, 0.05664428164281185], [0.10057609128089995, 0.3089177590539603], [0.1009283971288976, 0.1061295027106774]]",density,black,,,N012,visual,3,[],"['1', '2', '3', '4']",1,2023.2.3,harveyvisual,2.1,[],8,0.75,
0,pause,0.4,None,None,None,0,79,79,79,,,,,,,,,,,,,N012,visual,3,[],"['1', '2', '3', '4']",1,2023.2.3,harveyvisual,2.1,[],8,0.75,
7,dot,0.3,['dot'],['density'],black,0,80,80,80,,,30.40021014213562,30.111149072647095,30.41106605529785,dot,"[0.06, 0.08, 0.06, 0.08, 0.08, 0.06, 0.06]","[[-0.4260259763687212, 0.0015611622021723967], [-0.003169876971998007, 0.13415651360788267], [-0.2586764037849864, 0.4417783913692737], [-0.4397986643511286, 0.306274470342183], [-0.0069778791964768315, 0.3653924841843964], [-0.25662591460159173, 0.21046748777052526], [-0.17930648864359452, 0.007725268650954965]]",density,black,,,N012,visual,3,[],"['1', '2', '3', '4']",1,2023.2.3,harveyvisual,2.1,[],8,0.75,
0,pause,0.4,None,None,None,0,81,81,81,,,,,,,,,,,,,N012,visual,3,[],"['1', '2', '3', '4']",1,2023.2.3,harveyvisual,2.1,[],8,0.75,
7,dot,0.3,['dot'],['density'],black,0,82,82,82,,,31.100221157073975,30.811114072799683,31.11108899116516,dot,"[0.1, 0.08, 0.1, 0.1, 0.1, 0.1, 0.1]","[[0.3474653327129969, -0.31878285251617694], [0.04167069501601444, -0.04495125607964222], [-0.05005146056072613, -0.501422524998621], [-0.11295401278341419, -0.30095052262615135], [0.08710344590613708, -0.2932726077696002], [0.25592372840254046, -0.13825923460737455], [-0.15770825932276006, -0.07757053521742455]]",density,black,,,N012,visual,3,[],"['1', '2', '3', '4']",1,2023.2.3,harveyvisual,2.1,[],8,0.75,
0,pause,0.4,None,None,None,0,83,83,83,,,,,,,,,,,,,N012,visual,3,[],"['1', '2', '3', '4']",1,2023.2.3,harveyvisual,2.1,[],8,0.75,
8,dot,0.3,['dot'],['density'],black,0,84,84,84,,,31.8002290725708,31.511051177978516,31.811025142669678,dot,"[0.06, 0.08, 0.1, 0.06, 0.1, 0.06, 0.08, 0.06]","[[-0.08486713456805763, -0.4233549652310786], [-0.34121661687321897, 0.009931669871959016], [0.06179899905610707, -0.01287726204627424], [-0.01080387642187049, -0.20774715314808884], [-0.2259787915635077, -0.2257096572683263], [-0.31087639520469923, -0.4457762681120083], [-0.07938707884489006, 0.17996906985975966], [-0.13919465900414296, -0.03133413505419433]]",density,black,,,N012,visual,3,[],"['1', '2', '3', '4']",1,2023.2.3,harveyvisual,2.1,[],8,0.75,
0,pause,0.4,None,None,None,0,85,85,85,,,,,,,,,,,,,N012,visual,3,[],"['1', '2', '3', '4']",1,2023.2.3,harveyvisual,2.1,[],8,0.75,
8,dot,0.3,['dot'],['density'],black,0,86,86,86,,,32.50023102760315,32.211026191711426,32.51105618476868,dot,"[0.06, 0.1, 0.1, 0.1, 0.08, 0.1, 0.1, 0.1]","[[-0.3306282708070712, -0.09459634407206743], [0.17708038186302957, -0.36794437316098305], [-0.34368294577136044, -0.39688855169369486], [-0.16397220561896333, 0.03033928826277653], [-0.08476975953586025, -0.41834960305423746], [-0.16765121495786453, -0.2265743681515788], [0.0449590487082352, -0.10546915507075137], [-0.5574709661459258, -0.15664368712912546]]",density,black,,,N012,visual,3,[],"['1', '2', '3', '4']",1,2023.2.3,harveyvisual,2.1,[],8,0.75,
0,pause,0.4,None,None,None,0,87,87,87,,,,,,,,,,,,,N012,visual,3,[],"['1', '2', '3', '4']",1,2023.2.3,harveyvisual,2.1,[],8,0.75,
8,dot,0.3,['dot'],['density'],black,0,88,88,88,,,33.20021319389343,32.91099500656128,33.21104097366333,dot,"[0.1, 0.06, 0.06, 0.08, 0.1, 0.08, 0.1, 0.08]","[[-0.13470540342303577, 0.06408260861786476], [-0.32633744656496655, 0.15045505181492372], [-0.2908673593763413, -0.0762007135190446], [-0.5368971138264618, 0.18470905249118252], [0.055331558945424124, 0.1732254888039505], [-0.30909967543404826, 0.3845911877556102], [-0.0777863596696305, 0.41921053595603236], [0.03181857584637903, -0.08967320215721851]]",density,black,,,N012,visual,3,[],"['1', '2', '3', '4']",1,2023.2.3,harveyvisual,2.1,[],8,0.75,
0,pause,0.4,None,None,None,0,89,89,89,,,,,,,,,,,,,N012,visual,3,[],"['1', '2', '3', '4']",1,2023.2.3,harveyvisual,2.1,[],8,0.75,
8,dot,0.3,['dot'],['density'],white,0,90,90,90,,,33.90022301673889,33.611051082611084,33.91098999977112,dot,"[0.06, 0.1, 0.06, 0.1, 0.06, 0.1, 0.1, 0.1]","[[-0.4639556696772753, 0.10472599959088454], [-0.22970357876872852, 0.24758381400794424], [-0.060094057158436125, -0.14613975383200573], [-0.022569829209962654, 0.2677975872319761], [-0.3077859326170116, -0.10488986274105515], [-0.16040535020917, 0.031608708128470005], [-0.5175577931920246, -0.20517812764611504], [0.1194024413118107, 0.007837779916585986]]",density,white,,,N012,visual,3,[],"['1', '2', '3', '4']",1,2023.2.3,harveyvisual,2.1,[],8,0.75,
0,pause,0.4,None,None,None,0,91,91,91,,,,,,,,,,,1,34.04002499580383,N012,visual,3,[],"['1', '2', '3', '4']",1,2023.2.3,harveyvisual,2.1,[],8,0.75,
8,dot,0.3,['dot'],['density'],white,0,92,92,92,,,34.6002299785614,34.310935974121094,34.61097812652588,dot,"[0.08, 0.1, 0.1, 0.1, 0.08, 0.06, 0.06, 0.1]","[[0.34834348934164344, -0.28812382596974456], [-0.10329597477015798, -0.5243874580500916], [0.11080732975293575, -0.39067626210733153], [-0.006800183936578442, -0.10390350920236302], [0.17453264242573352, -0.004648084789036161], [-0.11839138898177409, -0.2765800857961495], [-0.2122949223397977, -0.08354151726817095], [0.0010823045536620208, 0.09995244087301837]]",density,white,,,N012,visual,3,[],"['1', '2', '3', '4']",1,2023.2.3,harveyvisual,2.1,[],8,0.75,
0,pause,0.4,None,None,None,0,93,93,93,,,,,,,,,,,,,N012,visual,3,[],"['1', '2', '3', '4']",1,2023.2.3,harveyvisual,2.1,[],8,0.75,
8,dot,0.3,['dot'],['density'],black,0,94,94,94,,,35.30023717880249,35.0109281539917,35.310925006866455,dot,"[0.08, 0.06, 0.06, 0.1, 0.1, 0.1, 0.06, 0.06]","[[0.29210958841889567, 0.026991922891258572], [0.03093533645276146, 0.3258936230244337], [-0.13014708308220477, 0.20110385145229231], [0.463805327987396, 0.2670013362689149], [0.17887675575806267, 0.48912385903522404], [0.2495142025194702, 0.28253247413027655], [0.03200252102949923, -0.1932501096446728], [0.04457092617056691, 0.07668709382136672]]",density,black,1,35.03216099739075,N012,visual,3,[],"['1', '2', '3', '4']",1,2023.2.3,harveyvisual,2.1,[],8,0.75,
0,pause,0.4,None,None,None,0,95,95,95,,,,,,,,,,,,,N012,visual,3,[],"['1', '2', '3', '4']",1,2023.2.3,harveyvisual,2.1,[],8,0.75,
9,dot,0.3,['dot'],['density'],black,0,96,96,96,,,36.00021004676819,35.710911989212036,36.01089811325073,dot,"[0.1, 0.08, 0.08, 0.06, 0.1, 0.08, 0.06, 0.1, 0.06]","[[-0.03413633707233166, 0.539775862693792], [0.03045342777742709, 0.14881397110038386], [0.3968101769942594, 0.3516381959676015], [-0.12464897846505978, 0.27513009849494485], [0.24828272947848068, 0.13372878599656182], [0.1825630446668698, 0.5466865974155928], [-0.40057775338259505, 0.3148646888607764], [0.06988801613907401, -0.06658504348068199], [0.07277149512897427, 0.3699912437376705]]",density,black,,,N012,visual,3,[],"['1', '2', '3', '4']",1,2023.2.3,harveyvisual,2.1,[],8,0.75,
0,pause,0.4,None,None,None,0,97,97,97,,,,,,,,,,,,,N012,visual,3,[],"['1', '2', '3', '4']",1,2023.2.3,harveyvisual,2.1,[],8,0.75,
9,dot,0.3,['dot'],['density'],black,0,98,98,98,,,36.70022416114807,36.41090202331543,36.7109010219574,dot,"[0.06, 0.06, 0.06, 0.1, 0.08, 0.08, 0.08, 0.08, 0.06]","[[0.34043128493099817, 0.2271075800100716], [0.2702764120171402, -0.10456749967376819], [-0.1274635928921129, -0.04210317806044915], [-0.03460273614387521, 0.1795356259369138], [0.14470969472881007, 0.3391925298523705], [0.06761060508642219, 0.0060094309834155335], [0.5117869412029185, -0.12050585585317111], [0.07404675892906432, -0.22660478390602867], [0.35723900661310204, -0.3185591288757]]",density,black,,,N012,visual,3,[],"['1', '2', '3', '4']",1,2023.2.3,harveyvisual,2.1,[],8,0.75,
0,pause,0.4,None,None,None,0,99,99,99,,,,,,,,,,,,,N012,visual,3,[],"['1', '2', '3', '4']",1,2023.2.3,harveyvisual,2.1,[],8,0.75,
9,dot,0.3,['dot'],['density'],black,0,100,100,100,,,37.400217056274414,37.110889196395874,37.41087603569031,dot,"[0.1, 0.06, 0.08, 0.08, 0.1, 0.1, 0.08, 0.1, 0.06]","[[0.019793807854907846, -0.43234396454466956], [-0.19026732246162045, -0.30921043426246514], [0.04019268118281429, 0.04496242893187172], [-0.3995051790572048, -0.35321755636659735], [-0.3855517065125252, -0.10705750392277943], [0.08372722599267078, -0.1679482296571974], [0.2622756688563642, -0.3928589043728353], [-0.14305193053609555, -0.047108980659819465], [-0.27076529918092873, 0.10825753519043561]]",density,black,,,N012,visual,3,[],"['1', '2', '3', '4']",1,2023.2.3,harveyvisual,2.1,[],8,0.75,
0,pause,0.4,None,None,None,0,101,101,101,,,,,,,,,,,,,N012,visual,3,[],"['1', '2', '3', '4']",1,2023.2.3,harveyvisual,2.1,[],8,0.75,
9,dot,0.3,['dot'],['density'],black,0,102,102,102,,,38.100213050842285,37.810893058776855,38.11103010177612,dot,"[0.06, 0.08, 0.1, 0.06, 0.06, 0.06, 0.06, 0.08, 0.1]","[[0.050129075631511706, -0.29659829200500587], [0.1522424042566208, -0.02012498145544232], [-0.31773020450764894, 0.09756431981266957], [-0.25388767024787284, -0.20865833148222632], [-0.06549152868915667, -0.10253084504872755], [-0.047012852932693645, 0.11741599898337682], [0.26526013051082903, -0.18996189821299347], [0.2442588296558726, 0.17404051307925203], [0.053323608967773835, 0.34462047536600726]]",density,black,,,N012,visual,3,[],"['1', '2', '3', '4']",1,2023.2.3,harveyvisual,2.1,[],8,0.75,
0,pause,0.4,None,None,None,0,103,103,103,,,,,,,,,,,,,N012,visual,3,[],"['1', '2', '3', '4']",1,2023.2.3,harveyvisual,2.1,[],8,0.75,
9,dot,0.3,['dot'],['density'],black,0,104,104,104,,,38.80021619796753,38.51101803779602,38.81099605560303,dot,"[0.1, 0.06, 0.1, 0.08, 0.1, 0.08, 0.06, 0.1, 0.1]","[[-0.05049485011715354, 0.3013521193238899], [0.15354596755057998, 0.36785015051376163], [0.22995749783639982, 0.07309138415424772], [0.13460311710395165, -0.18603378415368982], [0.33097739113381164, -0.13822260855557728], [-0.16464148731134703, 0.07190493829483618], [0.521154897315396, -0.007803673430992942], [0.02684304494395013, 0.0018704401699241912], [-0.15545279255173522, -0.15329938800760382]]",density,black,,,N012,visual,3,[],"['1', '2', '3', '4']",1,2023.2.3,harveyvisual,2.1,[],8,0.75,
0,pause,0.4,None,None,None,0,105,105,105,,,,,,,,,,,,,N012,visual,3,[],"['1', '2', '3', '4']",1,2023.2.3,harveyvisual,2.1,[],8,0.75,
9,dot,0.3,['dot'],['density'],black,0,106,106,106,,,39.500235080718994,39.210997104644775,39.51097512245178,dot,"[0.08, 0.1, 0.08, 0.1, 0.1, 0.06, 0.06, 0.08, 0.08]","[[-0.011980588702785358, -0.14271344386551676], [-0.15345504415890063, -0.3599837049237609], [0.2909474261289129, -0.3591516282942406], [0.16239073734315843, -0.5386624114967425], [0.2227638828830022, -0.11271380419745088], [0.06426208015886789, 0.04859175461581491], [-0.3648571389210414, -0.3413683676300365], [0.3831858227582706, 0.019718563726728144], [0.06479696894599615, -0.3534524636945761]]",density,black,,,N012,visual,3,[],"['1', '2', '3', '4']",1,2023.2.3,harveyvisual,2.1,[],8,0.75,
0,pause,0.4,None,None,None,0,107,107,107,,,,,,,,,,,,,N012,visual,3,[],"['1', '2', '3', '4']",1,2023.2.3,harveyvisual,2.1,[],8,0.75,
20,dot,0.3,['dot'],['density'],black,0,108,108,108,,,40.20021605491638,39.91096901893616,40.21097016334534,dot,"[0.1, 0.06, 0.08, 0.1, 0.1, 0.08, 0.08, 0.08, 0.08, 0.06, 0.08, 0.08, 0.08, 0.08, 0.1, 0.1, 0.08, 0.08, 0.06, 0.1]","[[-0.27968898516808943, -0.09291558780126113], [0.4376178703608967, -0.0395387261663408], [-0.19953320716798822, -0.32658979267398314], [0.06391321497040048, -0.32053034273130093], [-0.30025621353281695, 0.09553740678593003], [0.1738560214003395, 0.5169978917448285], [-0.5455748714398299, 0.1735594307372324], [0.26608343277750635, -0.3054585179641042], [-0.1392502985889601, -0.5584660105929061], [-0.02151474927942587, 0.09046692115669175], [-0.21579830267434247, 0.3628865943464673], [-0.5412382831281729, -0.17318163845313944], [0.5548133834869352, -0.19782180405006777], [0.5897529880799918, 0.08416610273573699], [0.3567906463298114, 0.3058656611377852], [0.16434884039959152, 0.2679295085958503], [0.13317080477154186, -0.5650435809413604], [-0.41483835896824395, 0.4082918268550881], [0.09321639329539044, -0.12614184123230976], [-0.11997899499812997, 0.5758341281204316]]",density,black,,,N012,visual,3,[],"['1', '2', '3', '4']",1,2023.2.3,harveyvisual,2.1,[],8,0.75,
0,pause,0.4,None,None,None,0,109,109,109,,,,,,,,,,,,,N012,visual,3,[],"['1', '2', '3', '4']",1,2023.2.3,harveyvisual,2.1,[],8,0.75,
20,dot,0.3,['dot'],['density'],black,0,110,110,110,,,40.90022110939026,40.610849142074585,40.910943031311035,dot,"[0.06, 0.1, 0.06, 0.06, 0.1, 0.1, 0.08, 0.08, 0.06, 0.06, 0.06, 0.08, 0.1, 0.06, 0.06, 0.1, 0.06, 0.06, 0.06, 0.1]","[[0.5734790462884013, 0.022703451158943316], [0.2891373963182847, 0.39898080179738815], [-0.283022333471222, -0.4210672968724841], [-0.44947392562086597, 0.3838071558601919], [0.3697600805220804, -0.41167563001788776], [0.1500661741195639, -0.504168059103632], [0.4208629954451867, 0.2044675118457871], [-0.5837988184488172, 0.0744606374571514], [0.06086932636262643, 0.11732347869489379], [-0.3158833326838919, -0.03863716443454113], [0.140932155981214, -0.2609556344944945], [-0.19516490181574797, 0.22793676109749594], [0.4554411774375319, -0.16987116863283136], [-0.1431947544977914, -0.5849917489693408], [-0.3971126550763844, -0.2167664769526994], [-0.04649673766388207, -0.3145883473903416], [0.34154494334426, 0.03162942507018818], [0.061171158654993785, 0.3353952783805486], [-0.08921589523433704, -0.09488201457015999], [0.07768537190820701, 0.5774468475548433]]",density,black,,,N012,visual,3,[],"['1', '2', '3', '4']",1,2023.2.3,harveyvisual,2.1,[],8,0.75,
0,pause,0.4,None,None,None,0,111,111,111,,,,,,,,,,,,,N012,visual,3,[],"['1', '2', '3', '4']",1,2023.2.3,harveyvisual,2.1,[],8,0.75,
20,dot,0.3,['dot'],['density'],black,0,112,112,112,,,41.60021209716797,41.310965061187744,41.610942125320435,dot,"[0.06, 0.1, 0.08, 0.08, 0.06, 0.1, 0.1, 0.06, 0.08, 0.06, 0.06, 0.1, 0.06, 0.1, 0.1, 0.06, 0.1, 0.08, 0.06, 0.08]","[[-0.10598349971470572, 0.04681945075123439], [-0.11160329184909323, -0.3968033310716157], [0.4843584124420418, -0.12039303959402434], [-0.0748676124101052, 0.4064475859151718], [-0.3099728669410852, -0.4159579361640968], [-0.3855531092666399, 0.31958858354497305], [-0.4672026357158924, -0.08001143480393924], [0.1188280979204096, -0.1655574404959082], [0.27336138194197024, 0.33723000286307936], [0.33492734947688685, 0.02872537926561669], [0.48444794412959935, 0.332771051806042], [0.1326216991865602, 0.1670300151369173], [0.0992210614328296, 0.5956317122431468], [-0.016812045071189385, -0.591542701032886], [-0.5081697099341561, 0.13489947961925913], [0.49228777395957535, -0.3226402434348388], [-0.5198256871481959, -0.2848264898954963], [0.34587680963823175, -0.4858039744263749], [0.5739516075425256, 0.11691219627161609], [-0.21886012200450727, 0.5352115179851549]]",density,black,,,N012,visual,3,[],"['1', '2', '3', '4']",1,2023.2.3,harveyvisual,2.1,[],8,0.75,
0,pause,0.4,None,None,None,0,113,113,113,,,,,,,,,,,,,N012,visual,3,[],"['1', '2', '3', '4']",1,2023.2.3,harveyvisual,2.1,[],8,0.75,
20,dot,0.3,['dot'],['density'],black,0,114,114,114,,,42.30021619796753,42.01081919670105,42.31075406074524,dot,"[0.08, 0.08, 0.06, 0.06, 0.1, 0.1, 0.1, 0.08, 0.1, 0.06, 0.1, 0.1, 0.1, 0.06, 0.1, 0.08, 0.1, 0.08, 0.08, 0.06]","[[0.061471520555160586, 0.24013599704411792], [-0.5761874419127951, 0.18506279701726902], [0.10202519986023639, -0.12481531905852661], [0.040156287063661034, -0.43846861862247366], [-0.22980833406563939, 0.5224285660143387], [0.3092377810026671, 0.08545789198692333], [-0.477206241823267, 0.0015103022529802113], [0.32060615832887573, 0.5131917350085433], [0.4556881820182809, -0.15971897259337925], [-0.25225641969576423, 0.18293592795181657], [-0.4001399017382803, -0.18392597804332683], [0.4230969406837962, 0.2821271422902366], [0.5649110141327894, 0.0413593566724072], [-0.2936808923688823, -0.3754987332621329], [0.30105787026249176, -0.42389658057335977], [-0.47514620650077577, 0.3541060092386052], [-0.13207183770990288, -0.18170460504532437], [-0.03715527697374421, 0.5935716409309296], [-0.06742114186406767, 0.40307951692974686], [-0.19367193410474143, -0.561248228778531]]",density,black,,,N012,visual,3,[],"['1', '2', '3', '4']",1,2023.2.3,harveyvisual,2.1,[],8,0.75,
0,pause,0.4,None,None,None,0,115,115,115,,,,,,,,,,,,,N012,visual,3,[],"['1', '2', '3', '4']",1,2023.2.3,harveyvisual,2.1,[],8,0.75,
20,dot,0.3,['dot'],['density'],white,0,116,116,116,,,43.000219106674194,42.710745096206665,43.0107421875,dot,"[0.1, 0.06, 0.1, 0.1, 0.1, 0.08, 0.08, 0.1, 0.08, 0.06, 0.06, 0.06, 0.08, 0.06, 0.1, 0.1, 0.06, 0.08, 0.1, 0.06]","[[-0.5487197741587952, 0.04990691457960622], [-0.41962197896475684, -0.3168592407539511], [0.5404478114084376, 0.266999506967924], [0.5496799299046534, -0.18898228300084494], [0.3349547801776245, 0.16030347319007432], [0.2693459260465515, -0.24482304498152374], [-0.01841107090609173, -0.41376454405935054], [-0.3174328424542938, 0.1651639338177463], [-0.09203443205234929, -0.026078371905827957], [-0.18118755300048023, 0.3542371804035771], [0.06819786328388155, -0.21547209635353304], [0.13426456578718438, 0.2107859029247865], [0.2603937358326618, -0.5421876055489047], [0.22396370271413235, -0.011733241718492549], [-0.06533645645297748, 0.1880611359358857], [-0.5407321466615634, -0.14725111984792733], [-0.20509023316268787, -0.17985003757525414], [0.5805654266660466, 0.010657462943755192], [0.13321576589670736, 0.5197587127214095], [0.2664680390690779, 0.3705873767753187]]",density,white,,,N012,visual,3,[],"['1', '2', '3', '4']",1,2023.2.3,harveyvisual,2.1,[],8,0.75,
0,pause,0.4,None,None,None,0,117,117,117,,,,,,,,,,,1,43.19818997383118,N012,visual,3,[],"['1', '2', '3', '4']",1,2023.2.3,harveyvisual,2.1,[],8,0.75,
20,dot,0.3,['dot'],['density'],black,0,118,118,118,,,43.700231075286865,43.41082000732422,43.710736989974976,dot,"[0.06, 0.08, 0.08, 0.06, 0.06, 0.08, 0.08, 0.1, 0.06, 0.06, 0.06, 0.1, 0.08, 0.08, 0.1, 0.1, 0.08, 0.08, 0.08, 0.1]","[[0.3720138627508941, 0.22057844738597587], [-0.12240107170780856, -0.026850422917869876], [-0.39765515242599775, -0.06521197890304459], [-0.5694375653497079, 0.04788683427833065], [-0.34679572601663144, 0.3945964107692144], [0.255869357492597, 0.5027558990850054], [0.31901242827829346, -0.011239012814128535], [-0.1362436593553924, 0.4135076359974297], [0.05831742831051501, -0.35526934140355093], [0.5232221432288372, -0.0710265107167205], [-0.28216915240710155, 0.1035915266873827], [-0.5450483160872679, -0.20630218749457224], [0.41689971095311906, -0.42215987678972017], [0.05866181880860166, -0.14331157501192077], [-0.07455094934092399, -0.5541466691771527], [0.12707844217596176, 0.12979152522505633], [0.02068498906833871, 0.2970719605926039], [-0.19159036231933102, -0.34226543826749833], [0.23099150359672516, -0.46910134977068024], [0.34780313785789263, -0.23652646493335866]]",density,black,,,N012,visual,3,[],"['1', '2', '3', '4']",1,2023.2.3,harveyvisual,2.1,[],8,0.75,
0,pause,0.4,None,None,None,0,119,119,119,,,,,,,,,,,,,N012,visual,3,[],"['1', '2', '3', '4']",1,2023.2.3,harveyvisual,2.1,[],8,0.75,
20,dot,0.3,['dot'],['density'],white,0,120,120,120,,,44.400219202041626,44.11078906059265,44.41070914268494,dot,"[0.1, 0.1, 0.08, 0.06, 0.08, 0.08, 0.06, 0.1, 0.06, 0.06, 0.08, 0.08, 0.08, 0.1, 0.06, 0.08, 0.08, 0.06, 0.08, 0.1]","[[-0.41596263753548923, -0.20755285915469662], [0.474850252083863, -0.07309690316231549], [0.126512993050655, -0.13967684179811024], [0.1765926430426893, 0.12463774282456053], [0.20008798331548583, 0.3558938649323674], [0.4245019982673254, -0.3509270615337407], [0.5526383748905311, 0.19357897990906], [-0.5486716448674209, -0.02357292070322753], [-0.260363999609428, -0.017739707301463015], [-0.22942487335581252, -0.4187941297200192], [0.021820636048570208, -0.29919148823833114], [0.44441024607345103, 0.37017459395910607], [-0.239449207689104, 0.3746931290680142], [-0.054162608873624896, 0.22600929315198748], [-0.1841128386016146, 0.5658562258563999], [0.10242514560916005, -0.5687745965979942], [0.28574896894284596, -0.5139915210331722], [-0.4373990950764006, 0.21748187687411102], [-0.012974228200632765, 0.01630039203203304], [0.32309501636416327, -0.18770825652399775]]",density,white,,,N012,visual,3,[],"['1', '2', '3', '4']",1,2023.2.3,harveyvisual,2.1,[],8,0.75,
0,pause,0.4,None,None,None,0,121,121,121,,,,,,,,,,,1,44.55333995819092,N012,visual,3,[],"['1', '2', '3', '4']",1,2023.2.3,harveyvisual,2.1,[],8,0.75,
20,dot,0.3,['dot'],['density'],black,0,122,122,122,,,45.100210189819336,44.81069612503052,45.11068105697632,dot,"[0.1, 0.1, 0.1, 0.08, 0.1, 0.08, 0.08, 0.08, 0.1, 0.1, 0.08, 0.06, 0.08, 0.08, 0.08, 0.1, 0.06, 0.1, 0.08, 0.1]","[[-0.35603518389610966, 0.37318422171918825], [0.4938148286146623, -0.12044210906510736], [0.4294774917801464, 0.14947539557532108], [0.4534466935921456, 0.33989814861657736], [-0.3073560295189936, -0.298562245856205], [-0.5732243783714212, 0.1443763830366278], [0.1636298708703784, 0.39438486786548144], [0.15910970391018442, -0.5675374199399517], [0.03969802607507711, -0.06854213406706022], [-0.15185738086892453, 0.4144740822437959], [-0.07641832097716761, -0.2316461162826452], [-0.07524319620854647, -0.49128226431581024], [-0.16748062230589894, -0.01529847389065997], [0.08632874235857246, -0.38957534620892587], [0.2909784929699327, 0.013403365748877238], [0.3993396180605572, -0.4323262098115927], [-0.5007159018456121, -0.12146471132196685], [0.05017637994403479, 0.22653596698938416], [-0.008046935657243792, 0.5604951982229148], [-0.36319626261050997, 0.023803361355278774]]",density,black,,,N012,visual,3,[],"['1', '2', '3', '4']",1,2023.2.3,harveyvisual,2.1,[],8,0.75,
0,pause,0.4,None,None,None,0,123,123,123,,,,,,,,,,,,,N012,visual,3,[],"['1', '2', '3', '4']",1,2023.2.3,harveyvisual,2.1,[],8,0.75,
20,dot,0.3,['dot'],['density'],black,0,124,124,124,,,45.800209045410156,45.5106680393219,45.81081509590149,dot,"[0.06, 0.08, 0.06, 0.08, 0.06, 0.08, 0.08, 0.08, 0.06, 0.08, 0.08, 0.1, 0.06, 0.06, 0.06, 0.06, 0.08, 0.08, 0.08, 0.08]","[[-0.26089682175830653, 0.18586282669885013], [0.35116425056144995, 0.3404116272508083], [0.2985746214736682, -0.35164519389884485], [-0.3190206753405796, -0.24299396917062238], [0.046647308257024456, -0.16863927788919902], [-0.530015595947391, -0.18948501547619329], [-0.39499740034551134, 0.3246770820952229], [0.39625799331213873, 0.12326801075979477], [0.5323427189051025, -0.029742015848624126], [-0.1749513971247723, -0.5062356674323407], [0.2664303960882869, -0.07062065920027621], [-0.37072062719177107, -0.05857123388214158], [0.06376240627093932, 0.5315578382501204], [-0.5931816233145129, 0.08546530908422693], [0.15970276742368472, 0.1569748407391771], [-0.1875398130349002, -0.0061760094500616924], [0.07715530333720089, -0.433985041519641], [-0.22971057184337945, 0.4700356580380325], [0.50501725057502, -0.2950659520647479], [-0.3596230230942471, -0.4289016022583479]]",density,black,,,N012,visual,3,[],"['1', '2', '3', '4']",1,2023.2.3,harveyvisual,2.1,[],8,0.75,
0,pause,0.4,None,None,None,0,125,125,125,,,,,,,,,,,,,N012,visual,3,[],"['1', '2', '3', '4']",1,2023.2.3,harveyvisual,2.1,[],8,0.75,
20,dot,0.3,['dot'],['density'],black,0,126,126,126,,,46.50022506713867,46.210813999176025,46.51079797744751,dot,"[0.08, 0.1, 0.1, 0.06, 0.08, 0.1, 0.06, 0.06, 0.06, 0.08, 0.1, 0.08, 0.06, 0.1, 0.06, 0.1, 0.1, 0.08, 0.06, 0.1]","[[-0.35838217253164484, -0.22661610881971678], [-0.011168929055420773, -0.41009697347868596], [0.13633754799696096, 0.18445104922514188], [-0.5781218011955229, -0.10756012835336459], [-0.438213577765431, 0.2691984583333639], [0.07923488552112412, 0.465535813460647], [0.2899676772281101, -0.030367736378029364], [0.5969740130377151, 0.09553963237403885], [-0.3515376057129482, -0.4827537795669349], [0.5323129351864592, -0.09571458963037688], [0.09051894957336526, -0.10739464556495987], [-0.2895156239145513, 0.4040566975757034], [-0.10035615340913684, 0.20951201610952086], [0.3108785284144626, 0.45779309200719787], [0.4072351833919011, 0.19959922314163597], [0.28660213101260623, -0.33005432049952943], [-0.339537971591084, 0.032333806956667877], [-0.12420142424968728, 0.5337239679212211], [0.5144708548196545, -0.28504427798137305], [-0.06754314873553025, -0.2245640498650019]]",density,black,,,N012,visual,3,[],"['1', '2', '3', '4']",1,2023.2.3,harveyvisual,2.1,[],8,0.75,
0,pause,0.4,None,None,None,0,127,127,127,,,,,,,,,,,,,N012,visual,3,[],"['1', '2', '3', '4']",1,2023.2.3,harveyvisual,2.1,[],8,0.75,
20,dot,0.3,['dot'],['density'],white,0,128,128,128,,,47.200234174728394,46.910802125930786,47.21078610420227,dot,"[0.1, 0.1, 0.06, 0.08, 0.08, 0.1, 0.08, 0.08, 0.06, 0.06, 0.1, 0.1, 0.1, 0.06, 0.08, 0.06, 0.06, 0.1, 0.1, 0.1]","[[-0.26100484243655164, -0.07439214039404518], [-0.4594284756697778, -0.3203877621276987], [0.09544286157897142, -0.5386937167087251], [-0.5913473392610051, 0.10662414348352611], [0.32527592541725026, 0.3082982675996666], [-0.011827743718986428, -0.2663790068353046], [0.48119408491108706, -0.20825274447453457], [0.14631003895497474, 0.49979443112673283], [0.2459993865677308, 0.014899957615461035], [0.54367812514019, 0.1832773295080657], [-0.11419955251486391, 0.3846640600000534], [0.5929789633230388, -0.04905495423975763], [-0.0239483275882324, 0.1493616063819132], [-0.4406373741419598, 0.28932367920610524], [0.2729082081564892, -0.3755281055345078], [-0.2587167444913138, -0.4474062874817557], [-0.37938164544025643, 0.08365417866754443], [-0.26534414690940833, 0.5049325356484534], [-0.5307966602863821, -0.10680152219724248], [-0.08198489776647433, 0.5792865905317587]]",density,white,,,N012,visual,3,[],"['1', '2', '3', '4']",1,2023.2.3,harveyvisual,2.1,[],8,0.75,
0,pause,0.4,None,None,None,0,129,129,129,,,,,,,,,,,1,47.27676200866699,N012,visual,3,[],"['1', '2', '3', '4']",1,2023.2.3,harveyvisual,2.1,[],8,0.75,
20,dot,0.3,['dot'],['density'],black,0,130,130,130,,,47.90021109580994,47.61079502105713,47.91078519821167,dot,"[0.1, 0.06, 0.08, 0.08, 0.06, 0.06, 0.1, 0.1, 0.06, 0.06, 0.08, 0.06, 0.06, 0.06, 0.06, 0.1, 0.06, 0.08, 0.06, 0.06]","[[-0.5402748639027112, -0.15803109565286405], [-0.43618006950229077, 0.1949264967139986], [0.13102420487301525, 0.5653127994493101], [-0.10865833182813678, -0.2581561129243632], [0.34033786689477197, 0.3054055489495474], [-0.047769049433405764, 0.0746430456099233], [0.17391887568261333, 0.03465316861539325], [-0.27663282049875326, 0.30238919722957414], [0.05873556580069095, 0.3020184355130455], [0.3123811551269885, -0.46837756386828877], [-0.18849790064234062, -0.06518975410030847], [0.39134991036329436, -0.07860913618962512], [-0.25881658909748756, -0.408299521485685], [-0.12240060676026732, 0.564125633536611], [0.5568736699814908, 0.1938144678887934], [0.335328059141322, 0.5006837340574595], [-0.379546556063056, -0.009170592783252274], [0.5074719386085863, -0.23436524412713014], [0.017512239339446345, -0.4019103560897326], [0.12741193819996643, -0.2292519590181904]]",density,black,,,N012,visual,3,[],"['1', '2', '3', '4']",1,2023.2.3,harveyvisual,2.1,[],8,0.75,
0,pause,0.4,None,None,None,0,131,131,131,,,,,,,,,,,,,N012,visual,3,[],"['1', '2', '3', '4']",1,2023.2.3,harveyvisual,2.1,[],8,0.75,
20,dot,0.3,['dot'],['density'],black,0,132,132,132,,,48.60022306442261,48.31065917015076,48.610833168029785,dot,"[0.08, 0.06, 0.06, 0.06, 0.1, 0.1, 0.08, 0.08, 0.1, 0.1, 0.1, 0.1, 0.08, 0.06, 0.08, 0.1, 0.1, 0.08, 0.08, 0.1]","[[0.29873489622467153, 0.3959777338117034], [-0.37327739844993324, -0.2743366955340659], [0.5326091411244976, -0.2106476379119793], [-0.37050322967400584, 0.16669536895810472], [-0.08498399801524692, -0.3639700668575722], [-0.5018710868147217, 0.00956290379936775], [0.47810724851424824, 0.17790119261385118], [0.03892989112305023, 0.35300829807793377], [0.012304929577001467, 0.15404390719397998], [-0.41762055839126994, 0.4381098507658211], [-0.15082206828218075, 0.4108754557095833], [0.15084181743004343, -0.48354956635739577], [0.1269735285879584, 0.5431950097820855], [-0.20482818767446515, -0.09158085127730725], [0.594964009175993, -0.027402831886175857], [-0.0034170915961199144, -0.045099024179203306], [0.3400998595795497, -0.37631282912424324], [-0.2785965238323865, -0.5090579027216603], [0.17605748359189055, 0.03264851643645561], [-0.16880596649599172, 0.21884489104185767]]",density,black,,,N012,visual,3,[],"['1', '2', '3', '4']",1,2023.2.3,harveyvisual,2.1,[],8,0.75,
0,pause,0.4,None,None,None,0,133,133,133,,,,,,,,,,,,,N012,visual,3,[],"['1', '2', '3', '4']",1,2023.2.3,harveyvisual,2.1,[],8,0.75,
20,dot,0.3,['dot'],['density'],black,0,134,134,134,,,49.30023002624512,49.01082801818848,49.31061005592346,dot,"[0.06, 0.1, 0.1, 0.1, 0.06, 0.06, 0.08, 0.08, 0.08, 0.08, 0.1, 0.06, 0.06, 0.1, 0.1, 0.1, 0.1, 0.06, 0.08, 0.06]","[[-0.4593809291367044, -0.06856068557405903], [0.22145747432092844, -0.11823360761377644], [0.10075740702030356, 0.22689007949309292], [0.3864150421235487, 0.11960421954176753], [-0.11142584054556193, 0.175553172803547], [0.15277941905859904, 0.5134299958367056], [-0.016701939911595187, -0.13503836421209653], [-0.33126769778713205, -0.503525847908279], [0.26584960087189935, -0.533027141416146], [-0.1217418012886376, 0.37555261369833115], [0.33354475812575923, 0.3686764445756898], [0.6023890568698148, 0.01455571249490814], [0.275975994506915, -0.32205543430199], [0.5514317620646881, -0.2021514967989635], [-0.4243714605142892, -0.27063673178104364], [-0.0010523014974883615, -0.4147254240823208], [-0.2683232926991694, -0.13694647953582306], [-0.5058667902937461, 0.1559060750747771], [-0.2816817267720872, 0.5063160622021432], [-0.3016829741853178, 0.30994493009876667]]",density,black,,,N012,visual,3,[],"['1', '2', '3', '4']",1,2023.2.3,harveyvisual,2.1,[],8,0.75,
0,pause,0.4,None,None,None,0,135,135,135,,,,,,,,,,,,,N012,visual,3,[],"['1', '2', '3', '4']",1,2023.2.3,harveyvisual,2.1,[],8,0.75,
20,dot,0.3,['dot'],['density'],white,0,136,136,136,,,50.00023913383484,49.71059799194336,50.010560035705566,dot,"[0.06, 0.08, 0.06, 0.08, 0.06, 0.1, 0.1, 0.1, 0.08, 0.06, 0.06, 0.06, 0.1, 0.06, 0.06, 0.1, 0.08, 0.08, 0.1, 0.06]","[[0.30426362510675187, -0.49150016628913523], [-0.058723818502968705, -0.5359845275177101], [-0.4464737505291779, -0.4035358762070595], [-0.5430717485996366, -0.19776980956185525], [-0.5060362770833073, 0.021935313071363816], [-0.08875626775866363, 0.4026502294985592], [0.273934853917542, 0.30560445968613703], [0.5746590166148985, 0.15089830863105996], [0.4060373603132571, -0.07411622340245294], [-0.28690122388791245, -0.24757951046705207], [0.13548539618074673, 0.033085843079608934], [0.17519728722433803, -0.2836230965733004], [-0.21010987480163906, 0.1593731930496699], [-0.3947298627794237, 0.28291810794110206], [0.11885587919713037, 0.5357838205580248], [0.5515458483722105, -0.24828446079262026], [-0.19674433497612315, -0.06366733007974834], [0.06812511464043602, 0.2130623316606569], [-0.01737934047393963, -0.3437073957145466], [-0.2270675989717565, -0.42890744101641753]]",density,white,,,N012,visual,3,[],"['1', '2', '3', '4']",1,2023.2.3,harveyvisual,2.1,[],8,0.75,
0,pause,0.4,None,None,None,0,137,137,137,,,,,,,,,,,1,50.07001495361328,N012,visual,3,[],"['1', '2', '3', '4']",1,2023.2.3,harveyvisual,2.1,[],8,0.75,
20,dot,0.3,['dot'],['density'],black,0,138,138,138,,,50.70021104812622,50.41050410270691,50.71053719520569,dot,"[0.06, 0.08, 0.06, 0.06, 0.06, 0.08, 0.08, 0.08, 0.08, 0.1, 0.08, 0.08, 0.06, 0.08, 0.06, 0.08, 0.06, 0.08, 0.06, 0.08]","[[0.5966152251288249, -0.05421393679352367], [0.2740303690831146, -0.06998177581864512], [-0.28879327871106963, 0.37127432384196446], [0.41618438666524626, 0.3154926023995848], [0.23232065670045443, 0.2519676082167309], [-0.5051429122717233, -0.1365989284357781], [-0.46061525690982974, 0.21266803255105715], [0.08900155314634439, 0.4739500788791199], [0.5429622469150049, -0.2601010987183476], [-0.3163488942601509, -0.40359537642259674], [0.018392641934851794, -0.2567041588825039], [-0.11384717155483848, 0.5781470857268247], [0.46762929915251206, 0.0963073237501651], [-0.08199522835624284, -0.505110628857732], [0.26629132557818325, -0.4641923520034406], [-0.3189444960778871, -0.05544391923246883], [-0.19300966700832256, 0.08741260843220022], [-0.08699134687387489, 0.2743759235225227], [0.08916766737818638, 0.022908803487543317], [-0.5792790861136963, 0.03959007775759246]]",density,black,,,N012,visual,3,[],"['1', '2', '3', '4']",1,2023.2.3,harveyvisual,2.1,[],8,0.75,
0,pause,0.4,None,None,None,0,139,139,139,,,,,,,,,,,,,N012,visual,3,[],"['1', '2', '3', '4']",1,2023.2.3,harveyvisual,2.1,[],8,0.75,
20,dot,0.3,['dot'],['density'],black,0,140,140,140,,,51.4002251625061,51.11054801940918,51.410508155822754,dot,"[0.08, 0.06, 0.1, 0.08, 0.06, 0.06, 0.08, 0.1, 0.06, 0.06, 0.06, 0.06, 0.06, 0.06, 0.06, 0.06, 0.08, 0.1, 0.06, 0.08]","[[-0.13542214257622398, 0.37588941204286297], [-0.4474577180118666, 0.3358171173029324], [0.23100025920610034, -0.26888956403004444], [0.46672510605110407, 0.007582372194607112], [0.3166906836350244, 0.2966148524124915], [0.49555648066666913, -0.2943238975010373], [-0.2637800340426116, -0.1620294065756363], [-0.0633252039814114, -0.383631195144433], [0.5655552166165679, 0.1848690582352089], [0.26010815249503394, -0.05200554430357712], [-0.5140528487415994, -0.2609523227773731], [-0.0015257178073729838, -0.17463461861441648], [-0.3852652143832206, -0.41918586933602464], [0.046636627991403, 0.5590204214324447], [0.026521389662960804, 0.2254268366445673], [-0.5847047096342624, 0.06682177421532015], [-0.19229185669470367, 0.1819461981959526], [-0.38042816257231804, 0.13992298506469986], [-0.20001412606265329, 0.5633093968978425], [0.3127971293172418, -0.5055533716209851]]",density,black,,,N012,visual,3,[],"['1', '2', '3', '4']",1,2023.2.3,harveyvisual,2.1,[],8,0.75,
0,pause,0.4,None,None,None,0,141,141,141,,,,,,,,,,,,,N012,visual,3,[],"['1', '2', '3', '4']",1,2023.2.3,harveyvisual,2.1,[],8,0.75,
20,dot,0.3,['dot'],['density'],black,0,142,142,142,,,52.100229024887085,51.81054711341858,52.11054015159607,dot,"[0.1, 0.1, 0.08, 0.06, 0.1, 0.08, 0.06, 0.06, 0.06, 0.08, 0.1, 0.08, 0.08, 0.1, 0.06, 0.08, 0.1, 0.1, 0.1, 0.1]","[[0.05461125554293189, -0.5682912794290149], [-0.2725663036080663, 0.1332430876274695], [-0.36859592053748036, -0.4633577586830834], [0.5845615952652595, 0.0878192761260363], [-0.34635147350488144, 0.3100722249685745], [-0.3643998543416709, -0.15351307234587552], [0.29882750926689916, -0.5034059057203868], [0.48435555753231185, -0.3007075483870003], [0.021070310805699433, 0.40675165553026005], [0.3348108025868205, 0.027168377684825717], [0.1291016977573166, 0.09487228212549037], [-0.6049231744028001, -0.018145579018280678], [0.17803973620931612, -0.20163680702657072], [0.4722022739499331, 0.24189156836875786], [-0.040095111480122125, -0.34082003716266174], [-0.16648854248022898, 0.47639442239150354], [-0.08254906383565008, -0.11098726456228081], [0.49932794956882576, -0.09324779923454321], [-0.07600734309166157, 0.208285513671029], [0.2818621953968351, 0.22695227051283107]]",density,black,,,N012,visual,3,[],"['1', '2', '3', '4']",1,2023.2.3,harveyvisual,2.1,[],8,0.75,
0,pause,0.4,None,None,None,0,143,143,143,,,,,,,,,,,,,N012,visual,3,[],"['1', '2', '3', '4']",1,2023.2.3,harveyvisual,2.1,[],8,0.75,
20,dot,0.3,['dot'],['density'],black,0,144,144,144,,,52.80023002624512,52.51047611236572,52.81050705909729,dot,"[0.1, 0.1, 0.1, 0.1, 0.08, 0.1, 0.08, 0.06, 0.06, 0.1, 0.06, 0.06, 0.06, 0.08, 0.1, 0.08, 0.06, 0.1, 0.06, 0.06]","[[-0.4437457918995652, 0.29561484397127347], [-0.37659182945174363, -0.2667391913044471], [0.5205781080656523, -0.10130171223523327], [0.49496222496339637, 0.18271728580212965], [0.4080471146918486, 0.4252841959486425], [0.10466734902246988, -0.5533653400834547], [-0.5163594777664123, -0.07642047098687749], [-0.200809374470029, 0.14592883009700441], [0.19571061027926984, -0.05535190865523498], [-0.07175632522729947, -0.33316344554749516], [-0.12304156765330387, 0.5316260037183613], [0.010450946768385427, 0.3083415782155726], [-0.1279719707737656, -0.12342988424956391], [-0.1877005171922772, -0.5005078438061591], [0.355351744628699, -0.25741858339046775], [0.21001861107255038, 0.36654630885872297], [0.16609068968320861, -0.33379139780540523], [0.2948876685217189, 0.16366707612117204], [0.09858268482001686, 0.5208511472206476], [-0.5867335818873421, 0.13660067427247594]]",density,black,,,N012,visual,3,[],"['1', '2', '3', '4']",1,2023.2.3,harveyvisual,2.1,[],8,0.75,
0,pause,0.4,None,None,None,0,145,145,145,,,,,,,,,,,,,N012,visual,3,[],"['1', '2', '3', '4']",1,2023.2.3,harveyvisual,2.1,[],8,0.75,
20,dot,0.3,['dot'],['density'],black,0,146,146,146,,,53.50021505355835,53.21054220199585,53.510682106018066,dot,"[0.06, 0.06, 0.08, 0.1, 0.08, 0.06, 0.08, 0.1, 0.06, 0.1, 0.08, 0.1, 0.1, 0.1, 0.1, 0.06, 0.1, 0.1, 0.08, 0.1]","[[0.03550795287495412, 0.01333190030488618], [0.26706832461323515, -0.21217605499298953], [0.47988183219640523, 0.3049859967055749], [-0.4451933661276938, -0.020518155072359157], [-0.18601900776395164, 0.28187468989378817], [-0.3828660323192354, -0.26738519714671927], [-0.27421301480695615, -0.5037393472874028], [-0.39289460084558325, 0.36004033172988065], [0.32461061244236145, 0.4473839938357156], [0.4543000328065284, -0.0001123611833360183], [0.48235528891838986, -0.21385616592017148], [-0.4962650371820998, 0.19220483151649564], [-0.19866146342510427, 0.5034094690409509], [-0.03986691896146399, -0.343203078738659], [0.20159100236891392, -0.4430422154564892], [-0.22051732147548875, -0.13790595857880988], [0.03206340505532834, 0.5354916714163575], [0.02645342896945846, -0.5765581936797487], [-0.3133966702701077, 0.12808528502187044], [0.1535781283252402, 0.18957084913880096]]",density,black,,,N012,visual,3,[],"['1', '2', '3', '4']",1,2023.2.3,harveyvisual,2.1,[],8,0.75,
0,pause,0.4,None,None,None,0,147,147,147,,,,,,,,,,,,,N012,visual,3,[],"['1', '2', '3', '4']",1,2023.2.3,harveyvisual,2.1,[],8,0.75,
20,dot,0.3,['dot'],['density'],black,0,148,148,148,,,54.20021915435791,53.91051411628723,54.21047306060791,dot,"[0.08, 0.1, 0.1, 0.06, 0.08, 0.06, 0.08, 0.1, 0.1, 0.08, 0.06, 0.06, 0.06, 0.08, 0.08, 0.06, 0.08, 0.06, 0.06, 0.08]","[[0.07478982957143321, -0.019407780340426117], [-0.11553204176361054, 0.2178793534573592], [-0.48473263780062503, -0.12577897437939628], [-0.4416322481989481, 0.09674637564536209], [0.30334846664513315, 0.009943855780626731], [-0.40773205852013217, 0.37742390156922484], [0.5417776146581129, -0.16487389479119], [0.14826793980898567, -0.5402823614782993], [0.3485483934730029, -0.47472502987952003], [0.4857704656277869, 0.10100550443287065], [0.12012252462736428, -0.2688007844796073], [-0.08524431697060098, -0.47041432560380936], [0.3998016855038423, 0.43767428971120215], [-0.2303712508413449, -0.0312744239837659], [-0.2787560242090389, -0.3495948311382684], [0.099193823447286, 0.5187689963902103], [0.3154643527355906, -0.1824248511894982], [-0.24870110627460001, 0.5418966926587426], [0.3081531197626849, 0.20709834065863864], [0.08638552104878683, 0.26707960383352214]]",density,black,,,N012,visual,3,[],"['1', '2', '3', '4']",1,2023.2.3,harveyvisual,2.1,[],8,0.75,
0,pause,0.4,None,None,None,0,149,149,149,,,,,,,,,,,,,N012,visual,3,[],"['1', '2', '3', '4']",1,2023.2.3,harveyvisual,2.1,[],8,0.75,
20,dot,0.3,['dot'],['density'],black,0,150,150,150,,,54.90022110939026,54.61069703102112,54.91067719459534,dot,"[0.06, 0.08, 0.1, 0.1, 0.06, 0.08, 0.1, 0.1, 0.06, 0.06, 0.06, 0.1, 0.06, 0.06, 0.08, 0.08, 0.1, 0.08, 0.1, 0.06]","[[-0.2903929642568009, 0.08608171826518374], [0.2382509979820141, -0.09723554227198672], [-0.41517892692172553, 0.41582551165988996], [0.03031334847425604, 0.036624321087846745], [-0.32418681357573265, -0.4460406912458914], [0.30168857705488494, -0.39040114704055895], [-0.5582538170102704, -0.11922641990944252], [0.511018148732662, 0.183264614877937], [-0.06720327602038167, 0.5429253544802153], [-0.1391482210433838, -0.34625468920853597], [0.4378776654400919, -0.23792146910398337], [0.41567089262721424, 0.4322522880869041], [-0.5117194942013572, 0.22241883879593105], [0.6013224303659647, -0.06880697899864269], [-0.1697988125564992, 0.31747397300123303], [0.2663456317574636, 0.22362510492657228], [-0.14273059463232046, -0.13140872534338144], [0.11281645448373734, -0.26645159659780115], [0.15799069317516745, 0.48742933158398327], [-0.16521853435110784, -0.5805511712130366]]",density,black,,,N012,visual,3,[],"['1', '2', '3', '4']",1,2023.2.3,harveyvisual,2.1,[],8,0.75,
0,pause,0.4,None,None,None,0,151,151,151,,,,,,,,,,,,,N012,visual,3,[],"['1', '2', '3', '4']",1,2023.2.3,harveyvisual,2.1,[],8,0.75,
20,dot,0.3,['dot'],['density'],black,0,152,152,152,,,55.60022020339966,55.310672998428345,55.610464096069336,dot,"[0.08, 0.1, 0.1, 0.06, 0.06, 0.1, 0.1, 0.06, 0.08, 0.06, 0.1, 0.06, 0.08, 0.08, 0.08, 0.06, 0.06, 0.1, 0.08, 0.1]","[[-0.4514345964602311, -0.3047401802080128], [0.36156932222355664, -0.15073014442485255], [-0.07256832666048496, -0.07300529946204504], [-0.5275788224653637, 0.13499772882453243], [-0.11963651494184496, -0.3708095814077328], [0.5037530334649042, 0.020538068682615207], [0.4888592387766447, 0.3110108096243758], [0.07502720494201331, 0.34544888046108735], [0.07580642588669817, -0.4856245219808841], [-0.286537840893254, 0.07422176549058246], [-0.1301320387758617, 0.27797160794637754], [0.2577415290438263, 0.4786211368489717], [-0.21539876345971964, -0.5516099529567484], [0.3567301048583421, -0.47978691234927534], [-0.5784409080125963, -0.1418232986901008], [0.2120573586010891, -0.3516466162085525], [0.22317255710321804, 0.013005314939887103], [-0.341599600292691, 0.25798122878687085], [-0.23326957058540648, 0.5233369068263737], [0.26636502569897524, 0.2562342638747307]]",density,black,,,N012,visual,3,[],"['1', '2', '3', '4']",1,2023.2.3,harveyvisual,2.1,[],8,0.75,
0,pause,0.4,None,None,None,0,153,153,153,,,,,,,,,,,,,N012,visual,3,[],"['1', '2', '3', '4']",1,2023.2.3,harveyvisual,2.1,[],8,0.75,
20,dot,0.3,['dot'],['density'],black,0,154,154,154,,,56.30021619796753,56.01056218147278,56.31055212020874,dot,"[0.08, 0.08, 0.06, 0.08, 0.1, 0.08, 0.1, 0.08, 0.06, 0.08, 0.1, 0.08, 0.1, 0.06, 0.06, 0.1, 0.1, 0.1, 0.06, 0.06]","[[-0.207609883609919, -0.27929723342564716], [-0.5086752180183103, -0.014354432847210608], [0.5942505962329544, -0.11419482078449229], [-0.27036962210172777, 0.05941870120914994], [-0.05213032476686008, 0.010558119033204916], [0.43258567419356775, -0.32255840921171103], [0.2068161542151672, -0.04385952735283649], [0.22652257754814353, 0.3554562042666596], [0.4488634997505375, 0.2253331160060918], [-0.052665524972345, -0.5576132093799789], [0.1782515189380134, -0.5020220263924908], [-0.20435698937277536, 0.5517063751627052], [-0.20658495360612572, 0.28196140417307247], [0.1621643582782667, 0.5770059351620133], [0.12402239180527641, 0.1827122692944605], [-0.4276513559846853, -0.3900276836193997], [-0.5480267949961866, 0.24075167634011801], [0.12099127897567064, -0.2506510559594464], [-0.38468664573796607, 0.46017890798967853], [0.3924462346706198, 0.022016812015880127]]",density,black,,,N012,visual,3,[],"['1', '2', '3', '4']",1,2023.2.3,harveyvisual,2.1,[],8,0.75,
0,pause,0.4,None,None,None,0,155,155,155,,,,,,,,,,,,,N012,visual,3,[],"['1', '2', '3', '4']",1,2023.2.3,harveyvisual,2.1,[],8,0.75,
9,dot,0.3,['dot'],['density'],black,0,156,156,156,,,57.000216007232666,56.71045398712158,57.010401010513306,dot,"[0.1, 0.06, 0.06, 0.1, 0.1, 0.08, 0.06, 0.08, 0.1]","[[0.23250081832313607, -0.03448075506690146], [0.3034476098774822, 0.1830296703973891], [-0.18904104685434053, 0.18833284185042862], [0.2553794676357457, 0.5314352583170906], [0.16363099535363254, 0.3461022642192175], [-0.0841935017478271, 0.3664174397160571], [-0.26748786402911323, -0.05736109653727262], [0.043842773669028334, 0.577246673499167], [0.02102957219118283, 0.0979254794926055]]",density,black,,,N012,visual,3,[],"['1', '2', '3', '4']",1,2023.2.3,harveyvisual,2.1,[],8,0.75,
0,pause,0.4,None,None,None,0,157,157,157,,,,,,,,,,,,,N012,visual,3,[],"['1', '2', '3', '4']",1,2023.2.3,harveyvisual,2.1,[],8,0.75,
9,dot,0.3,['dot'],['density'],black,0,158,158,158,,,57.700222969055176,57.410377979278564,57.71039009094238,dot,"[0.1, 0.06, 0.08, 0.1, 0.1, 0.1, 0.08, 0.06, 0.06]","[[0.31750259908069645, 0.09103062301409195], [-0.10814993995151222, -0.14883262012051235], [0.2615101699546999, -0.13245952524223892], [0.014531427323725789, 0.3887544696515085], [-0.1117096847062306, 0.09593752649312724], [0.07810272484559946, -0.019955638642360052], [-0.26173373106631487, 0.2840804484106463], [0.4370020372247476, 0.2669512546191977], [0.11115841416421544, 0.18722161068425575]]",density,black,,,N012,visual,3,[],"['1', '2', '3', '4']",1,2023.2.3,harveyvisual,2.1,[],8,0.75,
0,pause,0.4,None,None,None,0,159,159,159,,,,,,,,,,,,,N012,visual,3,[],"['1', '2', '3', '4']",1,2023.2.3,harveyvisual,2.1,[],8,0.75,
9,dot,0.3,['dot'],['density'],black,0,160,160,160,,,58.40022802352905,58.110371112823486,58.41036105155945,dot,"[0.1, 0.1, 0.1, 0.1, 0.08, 0.08, 0.06, 0.06, 0.1]","[[0.11766436913102363, -0.04327704920019282], [0.17973489876850246, -0.2957558932143311], [0.4322853556796634, 0.1292829237047714], [-0.0348924626991882, -0.2091692004054023], [0.511593351462966, -0.2715393032181878], [0.39631341359825684, -0.10388811790353111], [0.1759041025424718, 0.35783279634564974], [-0.11077337801993212, 0.08002505665429639], [0.1915495233696259, 0.15329463501335125]]",density,black,,,N012,visual,3,[],"['1', '2', '3', '4']",1,2023.2.3,harveyvisual,2.1,[],8,0.75,
0,pause,0.4,None,None,None,0,161,161,161,,,,,,,,,,,,,N012,visual,3,[],"['1', '2', '3', '4']",1,2023.2.3,harveyvisual,2.1,[],8,0.75,
9,dot,0.3,['dot'],['density'],black,0,162,162,162,,,59.1002311706543,58.810341119766235,59.11032319068909,dot,"[0.06, 0.08, 0.06, 0.1, 0.06, 0.06, 0.08, 0.06, 0.1]","[[-0.2844843713072754, 0.22325415166673976], [-0.1819235275981482, -0.2724209396165719], [-0.4663757242286994, 0.0951888680112534], [-0.002662519752874684, 0.12526046944360225], [-0.2804516333182533, -0.07461618094684651], [-0.06266188203573825, -0.10246171469469513], [0.05562179911838863, -0.3774952117829348], [-0.29777175193284133, -0.43797360937606633], [-0.44596842075831894, -0.24145786298940805]]",density,black,,,N012,visual,3,[],"['1', '2', '3', '4']",1,2023.2.3,harveyvisual,2.1,[],8,0.75,
0,pause,0.4,None,None,None,0,163,163,163,,,,,,,,,,,,,N012,visual,3,[],"['1', '2', '3', '4']",1,2023.2.3,harveyvisual,2.1,[],8,0.75,
9,dot,0.3,['dot'],['density'],black,0,164,164,164,,,59.800215005874634,59.5103600025177,59.81033706665039,dot,"[0.1, 0.06, 0.06, 0.06, 0.08, 0.08, 0.1, 0.06, 0.08]","[[0.23250081832313607, -0.03448075506690146], [0.3034476098774822, 0.1830296703973891], [-0.18904104685434053, 0.18833284185042862], [0.2553794676357457, 0.5314352583170906], [0.16363099535363254, 0.3461022642192175], [-0.0841935017478271, 0.3664174397160571], [-0.26748786402911323, -0.05736109653727262], [0.043842773669028334, 0.577246673499167], [0.02102957219118283, 0.0979254794926055]]",density,black,,,N012,visual,3,[],"['1', '2', '3', '4']",1,2023.2.3,harveyvisual,2.1,[],8,0.75,
0,pause,0.4,None,None,None,0,165,165,165,,,,,,,,,,,,,N012,visual,3,[],"['1', '2', '3', '4']",1,2023.2.3,harveyvisual,2.1,[],8,0.75,
9,dot,0.3,['dot'],['density'],black,0,166,166,166,,,60.50022506713867,60.210331201553345,60.51048016548157,dot,"[0.06, 0.06, 0.06, 0.1, 0.1, 0.08, 0.06, 0.06, 0.1]","[[-0.06218673389315922, -0.4689115343027075], [0.3660477402554353, -0.15396192139437054], [0.1401329754895462, -0.14262156541192547], [0.12293598154832706, -0.38779640022673934], [0.42645158233284447, -0.3607859009111275], [-0.06238477126329685, -0.2564764349502154], [-0.2584688277182379, -0.29964401945706215], [-0.11312192996032899, -0.05439345917292958], [0.19096873654163896, 0.1321853744035435]]",density,black,,,N012,visual,3,[],"['1', '2', '3', '4']",1,2023.2.3,harveyvisual,2.1,[],8,0.75,
0,pause,0.4,None,None,None,0,167,167,167,,,,,,,,,,,,,N012,visual,3,[],"['1', '2', '3', '4']",1,2023.2.3,harveyvisual,2.1,[],8,0.75,
8,dot,0.3,['dot'],['density'],black,0,168,168,168,,,61.20023798942566,60.910300970077515,61.21043109893799,dot,"[0.08, 0.1, 0.1, 0.06, 0.1, 0.08, 0.06, 0.1]","[[0.48529715144174124, -0.2697678579736521], [0.37309741842769656, 0.0699077870123373], [0.051182379473491794, 0.02141531407813483], [0.5234917469593858, 0.26578075419350655], [0.558201411832675, -0.037120345964853765], [0.22738215197141995, 0.24608732841731215], [0.3038957292845804, -0.12934366054116395], [0.024689158081869923, 0.25216756052328354]]",density,black,,,N012,visual,3,[],"['1', '2', '3', '4']",1,2023.2.3,harveyvisual,2.1,[],8,0.75,
0,pause,0.4,None,None,None,0,169,169,169,,,,,,,,,,,,,N012,visual,3,[],"['1', '2', '3', '4']",1,2023.2.3,harveyvisual,2.1,[],8,0.75,
8,dot,0.3,['dot'],['density'],black,0,170,170,170,,,61.90021800994873,61.61042404174805,61.910412073135376,dot,"[0.1, 0.08, 0.08, 0.06, 0.1, 0.06, 0.08, 0.06]","[[-0.19427332908310624, 0.44975086906229733], [-0.40583056883657587, 0.41268852933836647], [-0.1064323235824443, 0.09134240931295125], [0.037438273390647224, 0.2873761216870531], [-0.27580465694358225, 0.2567900319995576], [0.047234249799456944, 0.4983172858691376], [0.15563182967593078, 0.1192504703698398], [-0.32834908909536226, -0.014402300111889832]]",density,black,,,N012,visual,3,[],"['1', '2', '3', '4']",1,2023.2.3,harveyvisual,2.1,[],8,0.75,
0,pause,0.4,None,None,None,0,171,171,171,,,,,,,,,,,,,N012,visual,3,[],"['1', '2', '3', '4']",1,2023.2.3,harveyvisual,2.1,[],8,0.75,
8,dot,0.3,['dot'],['density'],black,0,172,172,172,,,62.60022807121277,62.31039905548096,62.610403060913086,dot,"[0.06, 0.08, 0.08, 0.1, 0.08, 0.08, 0.06, 0.08]","[[0.34834348934164344, -0.28812382596974456], [-0.10329597477015798, -0.5243874580500916], [0.11080732975293575, -0.39067626210733153], [-0.006800183936578442, -0.10390350920236302], [0.17453264242573352, -0.004648084789036161], [-0.11839138898177409, -0.2765800857961495], [-0.2122949223397977, -0.08354151726817095], [0.0010823045536620208, 0.09995244087301837]]",density,black,,,N012,visual,3,[],"['1', '2', '3', '4']",1,2023.2.3,harveyvisual,2.1,[],8,0.75,
0,pause,0.4,None,None,None,0,173,173,173,,,,,,,,,,,,,N012,visual,3,[],"['1', '2', '3', '4']",1,2023.2.3,harveyvisual,2.1,[],8,0.75,
8,dot,0.3,['dot'],['density'],black,0,174,174,174,,,63.30024003982544,63.01045608520508,63.310389041900635,dot,"[0.06, 0.1, 0.1, 0.1, 0.08, 0.06, 0.08, 0.1]","[[-0.503192831713878, 0.2818759502405315], [-0.1851508851951268, 0.5121570681976513], [-0.3428391331654375, 0.06336275884690255], [-0.2620893383019587, 0.2653373399092269], [-0.09201493982796581, 0.138249408295409], [-0.14188251758679749, -0.08598668861617832], [-0.5391716430792404, 0.01870596234549803], [-0.2779852747659758, -0.23950462846526258]]",density,black,,,N012,visual,3,[],"['1', '2', '3', '4']",1,2023.2.3,harveyvisual,2.1,[],8,0.75,
0,pause,0.4,None,None,None,0,175,175,175,,,,,,,,,,,,,N012,visual,3,[],"['1', '2', '3', '4']",1,2023.2.3,harveyvisual,2.1,[],8,0.75,
8,dot,0.3,['dot'],['density'],black,0,176,176,176,,,64.00023698806763,63.71038007736206,64.0102310180664,dot,"[0.06, 0.06, 0.06, 0.1, 0.1, 0.06, 0.06, 0.06]","[[0.4694715163891994, 0.13329625263481096], [0.14358160208090395, 0.35167434699812705], [0.41559735975202405, 0.3690190921299561], [-0.041805684447173724, 0.4315913723966695], [-0.04993254304034498, 0.2285123563850015], [0.25337459258073897, 0.16365346604105616], [0.18476510797087844, 0.5481483313560797], [0.14868800337579569, -0.10349430855878591]]",density,black,,,N012,visual,3,[],"['1', '2', '3', '4']",1,2023.2.3,harveyvisual,2.1,[],8,0.75,
0,pause,0.4,None,None,None,0,177,177,177,,,,,,,,,,,,,N012,visual,3,[],"['1', '2', '3', '4']",1,2023.2.3,harveyvisual,2.1,[],8,0.75,
8,dot,0.3,['dot'],['density'],black,0,178,178,178,,,64.70022511482239,64.41021704673767,64.7102119922638,dot,"[0.06, 0.1, 0.1, 0.1, 0.08, 0.08, 0.08, 0.06]","[[0.48529715144174124, -0.2697678579736521], [0.37309741842769656, 0.0699077870123373], [0.051182379473491794, 0.02141531407813483], [0.5234917469593858, 0.26578075419350655], [0.558201411832675, -0.037120345964853765], [0.22738215197141995, 0.24608732841731215], [0.3038957292845804, -0.12934366054116395], [0.024689158081869923, 0.25216756052328354]]",density,black,,,N012,visual,3,[],"['1', '2', '3', '4']",1,2023.2.3,harveyvisual,2.1,[],8,0.75,
0,pause,0.4,None,None,None,0,179,179,179,,,,,,,,,,,,,N012,visual,3,[],"['1', '2', '3', '4']",1,2023.2.3,harveyvisual,2.1,[],8,0.75,
7,dot,0.3,['dot'],['density'],black,0,180,180,180,,,65.40022802352905,65.11036515235901,65.41019606590271,dot,"[0.08, 0.06, 0.1, 0.06, 0.1, 0.06, 0.08]","[[0.3474653327129969, -0.31878285251617694], [0.04167069501601444, -0.04495125607964222], [-0.05005146056072613, -0.501422524998621], [-0.11295401278341419, -0.30095052262615135], [0.08710344590613708, -0.2932726077696002], [0.25592372840254046, -0.13825923460737455], [-0.15770825932276006, -0.07757053521742455]]",density,black,,,N012,visual,3,[],"['1', '2', '3', '4']",1,2023.2.3,harveyvisual,2.1,[],8,0.75,
0,pause,0.4,None,None,None,0,181,181,181,,,,,,,,,,,,,N012,visual,3,[],"['1', '2', '3', '4']",1,2023.2.3,harveyvisual,2.1,[],8,0.75,
7,dot,0.3,['dot'],['density'],black,0,182,182,182,,,66.1002140045166,65.81020402908325,66.11018705368042,dot,"[0.06, 0.06, 0.08, 0.1, 0.06, 0.1, 0.06]","[[-0.4260259763687212, 0.0015611622021723967], [-0.003169876971998007, 0.13415651360788267], [-0.2586764037849864, 0.4417783913692737], [-0.4397986643511286, 0.306274470342183], [-0.0069778791964768315, 0.3653924841843964], [-0.25662591460159173, 0.21046748777052526], [-0.17930648864359452, 0.007725268650954965]]",density,black,,,N012,visual,3,[],"['1', '2', '3', '4']",1,2023.2.3,harveyvisual,2.1,[],8,0.75,
0,pause,0.4,None,None,None,0,183,183,183,,,,,,,,,,,,,N012,visual,3,[],"['1', '2', '3', '4']",1,2023.2.3,harveyvisual,2.1,[],8,0.75,
7,dot,0.3,['dot'],['density'],black,0,184,184,184,,,66.800222158432,66.51014518737793,66.81012201309204,dot,"[0.06, 0.1, 0.06, 0.08, 0.1, 0.08, 0.08]","[[0.3032073476866497, 0.39528308644852606], [0.12977480624643314, 0.5338553612741447], [-0.07830532742558233, 0.5277294273979773], [0.000705909343175084, 0.04538848857330666], [-0.11442247498636825, 0.3203087976624053], [0.11424952152856681, 0.31372813630522095], [0.2743618672110132, 0.19233036806743029]]",density,black,,,N012,visual,3,[],"['1', '2', '3', '4']",1,2023.2.3,harveyvisual,2.1,[],8,0.75,
0,pause,0.4,None,None,None,0,185,185,185,,,,,,,,,,,,,N012,visual,3,[],"['1', '2', '3', '4']",1,2023.2.3,harveyvisual,2.1,[],8,0.75,
7,dot,0.3,['dot'],['density'],black,0,186,186,186,,,67.50023102760315,67.2101399898529,67.51011800765991,dot,"[0.08, 0.08, 0.06, 0.08, 0.06, 0.06, 0.1]","[[-0.08751196138777266, -0.40239331021683095], [-0.1389983634140625, -0.1821537091642013], [-0.5212097088452917, -0.15879536445288125], [-0.24197016774290594, 0.025691971861017886], [-0.324083892787021, -0.3083678109532634], [0.06465625853811506, -0.19815494036826437], [-0.2569867334647868, -0.5155038850209747]]",density,black,,,N012,visual,3,[],"['1', '2', '3', '4']",1,2023.2.3,harveyvisual,2.1,[],8,0.75,
0,pause,0.4,None,None,None,0,187,187,187,,,,,,,,,,,,,N012,visual,3,[],"['1', '2', '3', '4']",1,2023.2.3,harveyvisual,2.1,[],8,0.75,
7,dot,0.3,['dot'],['density'],black,0,188,188,188,,,68.20022201538086,67.91012811660767,68.21013307571411,dot,"[0.08, 0.08, 0.06, 0.06, 0.1, 0.06, 0.08]","[[-0.1635229753841098, 0.12186382262109141], [0.03437657187081179, 0.5178389267683822], [0.324184412335695, 0.17931743601205324], [0.08929018524031027, 0.11005745596178185], [-0.1318259817332877, 0.4026967659136047], [-0.053046683696667, -0.06058584598870606], [0.042745683665752716, 0.304616966822181]]",density,black,,,N012,visual,3,[],"['1', '2', '3', '4']",1,2023.2.3,harveyvisual,2.1,[],8,0.75,
0,pause,0.4,None,None,None,0,189,189,189,,,,,,,,,,,,,N012,visual,3,[],"['1', '2', '3', '4']",1,2023.2.3,harveyvisual,2.1,[],8,0.75,
7,dot,0.3,['dot'],['density'],black,0,190,190,190,,,68.90022206306458,68.61008906364441,68.91007804870605,dot,"[0.08, 0.06, 0.1, 0.06, 0.08, 0.06, 0.08]","[[0.3032073476866497, 0.39528308644852606], [0.12977480624643314, 0.5338553612741447], [-0.07830532742558233, 0.5277294273979773], [0.000705909343175084, 0.04538848857330666], [-0.11442247498636825, 0.3203087976624053], [0.11424952152856681, 0.31372813630522095], [0.2743618672110132, 0.19233036806743029]]",density,black,,,N012,visual,3,[],"['1', '2', '3', '4']",1,2023.2.3,harveyvisual,2.1,[],8,0.75,
0,pause,0.4,None,None,None,0,191,191,191,,,,,,,,,,,,,N012,visual,3,[],"['1', '2', '3', '4']",1,2023.2.3,harveyvisual,2.1,[],8,0.75,
6,dot,0.3,['dot'],['density'],black,0,192,192,192,,,69.60021710395813,69.31007313728333,69.61006498336792,dot,"[0.06, 0.08, 0.1, 0.08, 0.08, 0.1]","[[-0.560843418842529, -0.11752527585456686], [-0.31277608783648175, 0.04003545118838376], [-0.18207900664359264, -0.3652956678781814], [-0.41442909117718774, -0.4038021739217259], [-0.14446849917993246, -0.07035639226176245], [-0.3420415871796019, -0.1631057353810994]]",density,black,,,N012,visual,3,[],"['1', '2', '3', '4']",1,2023.2.3,harveyvisual,2.1,[],8,0.75,
0,pause,0.4,None,None,None,0,193,193,193,,,,,,,,,,,,,N012,visual,3,[],"['1', '2', '3', '4']",1,2023.2.3,harveyvisual,2.1,[],8,0.75,
6,dot,0.3,['dot'],['density'],black,0,194,194,194,,,70.30024218559265,70.01005697250366,70.31004905700684,dot,"[0.1, 0.06, 0.06, 0.06, 0.08, 0.08]","[[0.1982846419110591, -0.5292804859653952], [-0.09533153174900855, -0.5647367288422243], [-0.1659446600366624, -0.36958438178462333], [0.23572970018209544, -0.2476946313124468], [-0.023160452264027947, -0.17140847685647978], [0.035419311136148636, -0.3737635646361638]]",density,black,,,N012,visual,3,[],"['1', '2', '3', '4']",1,2023.2.3,harveyvisual,2.1,[],8,0.75,
0,pause,0.4,None,None,None,0,195,195,195,,,,,,,,,,,,,N012,visual,3,[],"['1', '2', '3', '4']",1,2023.2.3,harveyvisual,2.1,[],8,0.75,
6,dot,0.3,['dot'],['density'],black,0,196,196,196,,,71.00021815299988,70.71005415916443,71.01022410392761,dot,"[0.1, 0.08, 0.08, 0.1, 0.1, 0.06]","[[-0.5379788740814003, -0.011730333491669416], [-0.1820890739253136, -0.27973544868684425], [-0.07809457889047756, -0.09124846264896269], [-0.30616251401069866, -0.45101817852416426], [-0.44200878281119743, -0.26991620184617166], [-0.3315938551005316, -0.08696624632848979]]",density,black,,,N012,visual,3,[],"['1', '2', '3', '4']",1,2023.2.3,harveyvisual,2.1,[],8,0.75,
0,pause,0.4,None,None,None,0,197,197,197,,,,,,,,,,,,,N012,visual,3,[],"['1', '2', '3', '4']",1,2023.2.3,harveyvisual,2.1,[],8,0.75,
6,dot,0.3,['dot'],['density'],black,0,198,198,198,,,71.70022106170654,71.41001605987549,71.71000909805298,dot,"[0.08, 0.1, 0.08, 0.08, 0.1, 0.08]","[[-0.11553075830627273, 0.47698778124428043], [-0.1112787518129194, 0.10456141670764223], [-0.48855705683845824, 0.21494657582805063], [-0.2538299919008863, 0.2532006538804931], [-0.3271837865365474, 0.4662148945367939], [0.006792750312598743, 0.27345996435494924]]",density,black,,,N012,visual,3,[],"['1', '2', '3', '4']",1,2023.2.3,harveyvisual,2.1,[],8,0.75,
0,pause,0.4,None,None,None,0,199,199,199,,,,,,,,,,,,,N012,visual,3,[],"['1', '2', '3', '4']",1,2023.2.3,harveyvisual,2.1,[],8,0.75,
6,dot,0.3,['dot'],['density'],black,0,200,200,200,,,72.40022206306458,72.10999703407288,72.41000008583069,dot,"[0.1, 0.08, 0.06, 0.1, 0.08, 0.1]","[[0.1344939073868, 0.11682503965153783], [0.2622842826516073, -0.1576809643807538], [0.491422654665352, 0.2653315688189552], [0.5669231994484553, 0.0667155191364867], [0.2299276458131091, 0.29835232047215776], [0.3356420801536577, 0.10517090915368521]]",density,black,,,N012,visual,3,[],"['1', '2', '3', '4']",1,2023.2.3,harveyvisual,2.1,[],8,0.75,
0,pause,0.4,None,None,None,0,201,201,201,,,,,,,,,,,,,N012,visual,3,[],"['1', '2', '3', '4']",1,2023.2.3,harveyvisual,2.1,[],8,0.75,
6,dot,0.3,['dot'],['density'],black,0,202,202,202,,,73.10021901130676,72.80999898910522,73.10997319221497,dot,"[0.06, 0.08, 0.08, 0.1, 0.06, 0.06]","[[-0.12151555870586603, -0.4812968000001843], [0.16790488833295267, -0.2471088416996458], [0.27214716196035416, -0.49820278546509117], [-0.038147587524033764, -0.29309333197091036], [0.014949188681413147, -0.08915939926713055], [0.06798063624072649, -0.5852336971646088]]",density,black,,,N012,visual,3,[],"['1', '2', '3', '4']",1,2023.2.3,harveyvisual,2.1,[],8,0.75,
0,pause,0.4,None,None,None,0,203,203,203,,,,,,,,,,,,,N012,visual,3,[],"['1', '2', '3', '4']",1,2023.2.3,harveyvisual,2.1,[],8,0.75,
5,dot,0.3,['dot'],['density'],black,0,204,204,204,,,73.8002450466156,73.50997400283813,73.80996513366699,dot,"[0.1, 0.1, 0.1, 0.1, 0.08]","[[-0.08906257038347729, 0.3326351968500321], [0.2173987091792188, 0.026220721131276364], [0.07996259445097068, 0.4821024141609844], [0.14345365083950706, 0.2501481494916038], [-0.03323208063638199, 0.08804517681276208]]",density,black,,,N012,visual,3,[],"['1', '2', '3', '4']",1,2023.2.3,harveyvisual,2.1,[],8,0.75,
0,pause,0.4,None,None,None,0,205,205,205,,,,,,,,,,,,,N012,visual,3,[],"['1', '2', '3', '4']",1,2023.2.3,harveyvisual,2.1,[],8,0.75,
5,dot,0.3,['dot'],['density'],black,0,206,206,206,,,74.50021505355835,74.20995712280273,74.50994205474854,dot,"[0.08, 0.08, 0.1, 0.1, 0.1]","[[-0.20882687658313398, 0.05979685123170853], [0.07709165915785691, 0.33819008637117026], [0.02323578322535992, 0.12175330968231063], [0.02522363087913582, -0.08718927316059993], [-0.12152044988768049, 0.28453648995279207]]",density,black,,,N012,visual,3,[],"['1', '2', '3', '4']",1,2023.2.3,harveyvisual,2.1,[],8,0.75,
0,pause,0.4,None,None,None,0,207,207,207,,,,,,,,,,,,,N012,visual,3,[],"['1', '2', '3', '4']",1,2023.2.3,harveyvisual,2.1,[],8,0.75,
5,dot,0.3,['dot'],['density'],black,0,208,208,208,,,75.20023918151855,74.90994000434875,75.20995497703552,dot,"[0.08, 0.08, 0.06, 0.08, 0.06]","[[0.11182935554897071, 0.3084500478813638], [0.20284409002608467, 0.5199666233992849], [0.31882748915707354, 0.1252782162051447], [0.39083404861423326, 0.3494221689807338], [0.1196046891632849, 0.10173499350566408]]",density,black,,,N012,visual,3,[],"['1', '2', '3', '4']",1,2023.2.3,harveyvisual,2.1,[],8,0.75,
0,pause,0.4,None,None,None,0,209,209,209,,,,,,,,,,,,,N012,visual,3,[],"['1', '2', '3', '4']",1,2023.2.3,harveyvisual,2.1,[],8,0.75,
5,dot,0.3,['dot'],['density'],black,0,210,210,210,,,75.90024209022522,75.6099271774292,75.90992999076843,dot,"[0.1, 0.06, 0.06, 0.08, 0.08]","[[-0.11834215492801986, 0.412508379109845], [0.31881799646300274, 0.30859303438359803], [-0.06368743078099719, 0.10105058071702504], [0.1133485112468387, 0.46262203184429457], [0.11957051434631445, 0.24197418837926052]]",density,black,,,N012,visual,3,[],"['1', '2', '3', '4']",1,2023.2.3,harveyvisual,2.1,[],8,0.75,
0,pause,0.4,None,None,None,0,211,211,211,,,,,,,,,,,,,N012,visual,3,[],"['1', '2', '3', '4']",1,2023.2.3,harveyvisual,2.1,[],8,0.75,
5,dot,0.3,['dot'],['density'],black,0,212,212,212,,,76.60021710395813,76.31004500389099,76.60990500450134,dot,"[0.1, 0.1, 0.06, 0.06, 0.06]","[[0.10558973120531606, -0.20428866875977839], [-0.0893225412758366, 0.16524926947551877], [-0.05793580974794309, -0.07826743033729393], [0.11130747138107101, 0.10875249109580729], [0.28035132100960686, -0.09064984251937742]]",density,black,,,N012,visual,3,[],"['1', '2', '3', '4']",1,2023.2.3,harveyvisual,2.1,[],8,0.75,
0,pause,0.4,None,None,None,0,213,213,213,,,,,,,,,,,,,N012,visual,3,[],"['1', '2', '3', '4']",1,2023.2.3,harveyvisual,2.1,[],8,0.75,
5,dot,0.3,['dot'],['density'],black,0,214,214,214,,,77.30024218559265,77.01001000404358,77.30991506576538,dot,"[0.1, 0.06, 0.06, 0.06, 0.06]","[[0.27183890960736007, -0.2807898153303064], [0.09520185447546438, -0.14661409162522948], [0.4811798017999712, -0.08799056171856828], [0.2824926782126669, -0.029701986940959574], [0.07325476391384783, 0.10525290151012107]]",density,black,,,N012,visual,3,[],"['1', '2', '3', '4']",1,2023.2.3,harveyvisual,2.1,[],8,0.75,
0,pause,0.4,None,None,None,0,215,215,215,,,,,,,,,,,,,N012,visual,3,[],"['1', '2', '3', '4']",1,2023.2.3,harveyvisual,2.1,[],8,0.75,
4,dot,0.3,['dot'],['density'],black,0,216,216,216,,,78.00022101402283,77.70989799499512,78.00987815856934,dot,"[0.06, 0.1, 0.1, 0.1]","[[-0.5133923796685119, -0.13567638448558317], [-0.3102378593599109, -0.17790160316510653], [-0.5338837235738882, 0.07316730980410076], [-0.255286731521037, 0.022123457211080083]]",density,black,,,N012,visual,3,[],"['1', '2', '3', '4']",1,2023.2.3,harveyvisual,2.1,[],8,0.75,
0,pause,0.4,None,None,None,0,217,217,217,,,,,,,,,,,,,N012,visual,3,[],"['1', '2', '3', '4']",1,2023.2.3,harveyvisual,2.1,[],8,0.75,
4,dot,0.3,['dot'],['density'],white,0,218,218,218,,,78.7002170085907,78.40987706184387,78.70987510681152,dot,"[0.08, 0.1, 0.08, 0.1]","[[-0.3884818304242726, 0.11421243679268873], [-0.11472928134965246, -0.13141119473891247], [-0.1657593024508462, 0.13368900033666462], [-0.36655717599886073, -0.10387254737714131]]",density,white,,,N012,visual,3,[],"['1', '2', '3', '4']",1,2023.2.3,harveyvisual,2.1,[],8,0.75,
0,pause,0.4,None,None,None,0,219,219,219,,,,,,,,,,,1,78.95967292785645,N012,visual,3,[],"['1', '2', '3', '4']",1,2023.2.3,harveyvisual,2.1,[],8,0.75,
4,dot,0.3,['dot'],['density'],white,0,220,220,220,,,79.40023016929626,79.10988306999207,79.40984916687012,dot,"[0.1, 0.1, 0.06, 0.06]","[[0.041567121943163726, -0.05225384285034155], [-0.0805660347394345, -0.3501797602382367], [-0.1695568067340664, -0.0700859275369407], [0.1361950610904954, -0.2628340353233457]]",density,white,,,N012,visual,3,[],"['1', '2', '3', '4']",1,2023.2.3,harveyvisual,2.1,[],8,0.75,
0,pause,0.4,None,None,None,0,221,221,221,,,,,,,,,,,1,79.48480892181396,N012,visual,3,[],"['1', '2', '3', '4']",1,2023.2.3,harveyvisual,2.1,[],8,0.75,
4,dot,0.3,['dot'],['density'],black,0,222,222,222,,,80.10022807121277,79.80990815162659,80.10991907119751,dot,"[0.08, 0.06, 0.06, 0.08]","[[-0.22375678750486633, 0.16938766720995918], [-0.03438308412182927, 0.2632029670309489], [0.15312837370161694, 0.1265605786946886], [-0.035433382102469414, 0.014828983441921377]]",density,black,,,N012,visual,3,[],"['1', '2', '3', '4']",1,2023.2.3,harveyvisual,2.1,[],8,0.75,
0,pause,0.4,None,None,None,0,223,223,223,,,,,,,,,,,,,N012,visual,3,[],"['1', '2', '3', '4']",1,2023.2.3,harveyvisual,2.1,[],8,0.75,
4,dot,0.3,['dot'],['density'],black,0,224,224,224,,,80.80024218559265,80.50982713699341,80.8098030090332,dot,"[0.1, 0.08, 0.1, 0.06]","[[-0.24855901342904946, 0.4326179111294549], [-0.33066739519925503, 0.24314919490711104], [-0.015728317870896572, 0.5189617074191414], [-0.09686463175319387, 0.28200212383687606]]",density,black,,,N012,visual,3,[],"['1', '2', '3', '4']",1,2023.2.3,harveyvisual,2.1,[],8,0.75,
0,pause,0.4,None,None,None,0,225,225,225,,,,,,,,,,,,,N012,visual,3,[],"['1', '2', '3', '4']",1,2023.2.3,harveyvisual,2.1,[],8,0.75,
4,dot,0.3,['dot'],['density'],black,0,226,226,226,,,81.50022315979004,81.20979714393616,81.50979399681091,dot,"[0.08, 0.08, 0.08, 0.1]","[[-0.264878088602857, 0.22906395790450432], [0.07239228809704809, 0.2615492699427171], [0.10034738543262733, 0.4676118263175188], [-0.09637524959065707, 0.3769302803343899]]",density,black,,,N012,visual,3,[],"['1', '2', '3', '4']",1,2023.2.3,harveyvisual,2.1,[],8,0.75,
0,pause,0.4,None,None,None,0,227,227,227,,,,,,,,,,,,,N012,visual,3,[],"['1', '2', '3', '4']",1,2023.2.3,harveyvisual,2.1,[],8,0.75,
3,dot,0.3,['dot'],['density'],black,0,228,228,228,,,82.2002170085907,81.90978598594666,82.20976614952087,dot,"[0.08, 0.08, 0.06]","[[0.3835821938049364, -0.20766469641190155], [0.321707527308891, -0.4175939354614905], [0.1897943789354585, -0.2642367600490923]]",density,black,,,N012,visual,3,[],"['1', '2', '3', '4']",1,2023.2.3,harveyvisual,2.1,[],8,0.75,
0,pause,0.4,None,None,None,0,229,229,229,,,,,,,,,,,,,N012,visual,3,[],"['1', '2', '3', '4']",1,2023.2.3,harveyvisual,2.1,[],8,0.75,
3,dot,0.3,['dot'],['density'],black,0,230,230,230,,,82.90023708343506,82.60975408554077,82.90978813171387,dot,"[0.06, 0.06, 0.1]","[[0.2656832518280197, 0.0014864193765316018], [0.3503107158811183, -0.1826455867164705], [0.5188928509039705, -0.04177453376365527]]",density,black,,,N012,visual,3,[],"['1', '2', '3', '4']",1,2023.2.3,harveyvisual,2.1,[],8,0.75,
0,pause,0.4,None,None,None,0,231,231,231,,,,,,,,,,,,,N012,visual,3,[],"['1', '2', '3', '4']",1,2023.2.3,harveyvisual,2.1,[],8,0.75,
3,dot,0.3,['dot'],['density'],black,0,232,232,232,,,83.60022211074829,83.30978512763977,83.60974597930908,dot,"[0.1, 0.1, 0.08]","[[-0.5081709494874314, 0.1572673197774781], [-0.37009835501087307, 0.006965763417246156], [-0.5707172634768017, -0.07177594851347295]]",density,black,,,N012,visual,3,[],"['1', '2', '3', '4']",1,2023.2.3,harveyvisual,2.1,[],8,0.75,
0,pause,0.4,None,None,None,0,233,233,233,,,,,,,,,,,,,N012,visual,3,[],"['1', '2', '3', '4']",1,2023.2.3,harveyvisual,2.1,[],8,0.75,
3,dot,0.3,['dot'],['density'],black,0,234,234,234,,,84.30024409294128,84.00973200798035,84.30970406532288,dot,"[0.08, 0.08, 0.08]","[[0.48628142840140876, 0.1515230430224543], [0.28796188866220057, 0.19625725416133796], [0.3371406364253883, -0.002661880310138811]]",density,black,,,N012,visual,3,[],"['1', '2', '3', '4']",1,2023.2.3,harveyvisual,2.1,[],8,0.75,
0,pause,0.4,None,None,None,0,235,235,235,,,,,,,,,,,,,N012,visual,3,[],"['1', '2', '3', '4']",1,2023.2.3,harveyvisual,2.1,[],8,0.75,
3,dot,0.3,['dot'],['density'],white,0,236,236,236,,,85.00023317337036,84.70991015434265,85.0097291469574,dot,"[0.08, 0.1, 0.06]","[[-0.18534860244577742, 0.5145019772121514], [0.05660586421610542, 0.42456432010350276], [-0.11463700911578348, 0.31489985189225056]]",density,white,,,N012,visual,3,[],"['1', '2', '3', '4']",1,2023.2.3,harveyvisual,2.1,[],8,0.75,
0,pause,0.4,None,None,None,0,237,237,237,,,,,,,,,,,1,85.30549788475037,N012,visual,3,[],"['1', '2', '3', '4']",1,2023.2.3,harveyvisual,2.1,[],8,0.75,
3,dot,0.3,['dot'],['density'],white,0,238,238,238,,,85.70024418830872,85.40975308418274,85.70985317230225,dot,"[0.1, 0.08, 0.06]","[[0.315495050057846, 0.10724904305018564], [0.5180852452909619, 0.013799590611742229], [0.3819545826159732, -0.1334380777916547]]",density,white,,,N012,visual,3,[],"['1', '2', '3', '4']",1,2023.2.3,harveyvisual,2.1,[],8,0.75,
0,pause,0.4,None,None,None,0,239,239,239,,,,,,,,,,,1,85.8476710319519,N012,visual,3,[],"['1', '2', '3', '4']",1,2023.2.3,harveyvisual,2.1,[],8,0.75,
2,dot,0.3,['dot'],['density'],black,0,240,240,240,,,86.40022897720337,86.10984206199646,86.40983414649963,dot,"[0.06, 0.1]","[[0.1734117655345296, 0.46860731914486053], [-0.01847566562869785, 0.52581935004857]]",density,black,,,N012,visual,3,[],"['1', '2', '3', '4']",1,2023.2.3,harveyvisual,2.1,[],8,0.75,
0,pause,0.4,None,None,None,0,241,241,241,,,,,,,,,,,,,N012,visual,3,[],"['1', '2', '3', '4']",1,2023.2.3,harveyvisual,2.1,[],8,0.75,
2,dot,0.3,['dot'],['density'],white,0,242,242,242,,,87.10021710395813,86.80982899665833,87.10968112945557,dot,"[0.08, 0.1]","[[0.1652621768884792, -0.40183218801656556], [-0.03337249546828684, -0.4281924369736378]]",density,white,,,N012,visual,3,[],"['1', '2', '3', '4']",1,2023.2.3,harveyvisual,2.1,[],8,0.75,
0,pause,0.4,None,None,None,0,243,243,243,,,,,,,,,,,1,87.29470086097717,N012,visual,3,[],"['1', '2', '3', '4']",1,2023.2.3,harveyvisual,2.1,[],8,0.75,
2,dot,0.3,['dot'],['density'],black,0,244,244,244,,,87.80022406578064,87.50970697402954,87.80963802337646,dot,"[0.1, 0.06]","[[0.02987007740145294, 0.4330921892138179], [-0.1698845640653836, 0.4119973540264252]]",density,black,,,N012,visual,3,[],"['1', '2', '3', '4']",1,2023.2.3,harveyvisual,2.1,[],8,0.75,
0,pause,0.4,None,None,None,0,245,245,245,,,,,,,,,,,,,N012,visual,3,[],"['1', '2', '3', '4']",1,2023.2.3,harveyvisual,2.1,[],8,0.75,
2,dot,0.3,['dot'],['density'],black,0,246,246,246,,,88.50024700164795,88.20970702171326,88.50964117050171,dot,"[0.06, 0.1]","[[0.038501021189721846, -0.3380528513692932], [0.2360793696083702, -0.306423538752856]]",density,black,,,N012,visual,3,[],"['1', '2', '3', '4']",1,2023.2.3,harveyvisual,2.1,[],8,0.75,
0,pause,0.4,None,None,None,0,247,247,247,,,,,,,,,,,,,N012,visual,3,[],"['1', '2', '3', '4']",1,2023.2.3,harveyvisual,2.1,[],8,0.75,
2,dot,0.3,['dot'],['density'],black,0,248,248,248,,,89.20024013519287,88.9096291065216,89.20960998535156,dot,"[0.1, 0.1]","[[0.1851205616289071, -0.3624876981064337], [0.3405923022038234, -0.23608025195482504]]",density,black,,,N012,visual,3,[],"['1', '2', '3', '4']",1,2023.2.3,harveyvisual,2.1,[],8,0.75,
0,pause,0.4,None,None,None,0,249,249,249,,,,,,,,,,,,,N012,visual,3,[],"['1', '2', '3', '4']",1,2023.2.3,harveyvisual,2.1,[],8,0.75,
2,dot,0.3,['dot'],['density'],black,0,250,250,250,,,89.90021920204163,89.60961508750916,89.90960216522217,dot,"[0.06, 0.08]","[[0.24265818653156754, -0.3775895252336694], [0.4224299169789366, -0.289759305909148]]",density,black,,,N012,visual,3,[],"['1', '2', '3', '4']",1,2023.2.3,harveyvisual,2.1,[],8,0.75,
0,pause,0.4,None,None,None,0,251,251,251,,,,,,,,,,,,,N012,visual,3,[],"['1', '2', '3', '4']",1,2023.2.3,harveyvisual,2.1,[],8,0.75,
1,dot,0.3,['dot'],['density'],black,0,252,252,252,,,90.60021805763245,90.30957508087158,90.6095871925354,dot,[0.08],"[-0.3631366314731191, 0.1590646049745197]",density,black,,,N012,visual,3,[],"['1', '2', '3', '4']",1,2023.2.3,harveyvisual,2.1,[],8,0.75,
0,pause,0.4,None,None,None,0,253,253,253,,,,,,,,,,,,,N012,visual,3,[],"['1', '2', '3', '4']",1,2023.2.3,harveyvisual,2.1,[],8,0.75,
1,dot,0.3,['dot'],['density'],black,0,254,254,254,,,91.30022501945496,91.00963616371155,91.30953598022461,dot,[0.06],"[0.2287398259034258, -0.3932960849464651]",density,black,,,N012,visual,3,[],"['1', '2', '3', '4']",1,2023.2.3,harveyvisual,2.1,[],8,0.75,
0,pause,0.4,None,None,None,0,255,255,255,,,,,,,,,,,,,N012,visual,3,[],"['1', '2', '3', '4']",1,2023.2.3,harveyvisual,2.1,[],8,0.75,
1,dot,0.3,['dot'],['density'],black,0,256,256,256,,,92.00023007392883,91.7095320224762,92.00953197479248,dot,[0.06],"[-0.4519365434524677, 0.22287683068434597]",density,black,,,N012,visual,3,[],"['1', '2', '3', '4']",1,2023.2.3,harveyvisual,2.1,[],8,0.75,
0,pause,0.4,None,None,None,0,257,257,257,,,,,,,,,,,,,N012,visual,3,[],"['1', '2', '3', '4']",1,2023.2.3,harveyvisual,2.1,[],8,0.75,
1,dot,0.3,['dot'],['density'],black,0,258,258,258,,,92.70024514198303,92.4095230102539,92.70951700210571,dot,[0.08],"[0.5363314188299194, -0.14809861569100125]",density,black,,,N012,visual,3,[],"['1', '2', '3', '4']",1,2023.2.3,harveyvisual,2.1,[],8,0.75,
0,pause,0.4,None,None,None,0,259,259,259,,,,,,,,,,,,,N012,visual,3,[],"['1', '2', '3', '4']",1,2023.2.3,harveyvisual,2.1,[],8,0.75,
1,dot,0.3,['dot'],['density'],black,0,260,260,260,,,93.4002320766449,93.10954999923706,93.40948915481567,dot,[0.1],"[0.39967490259390637, -0.2576437183111264]",density,black,,,N012,visual,3,[],"['1', '2', '3', '4']",1,2023.2.3,harveyvisual,2.1,[],8,0.75,
0,pause,0.4,None,None,None,0,261,261,261,,,,,,,,,,,,,N012,visual,3,[],"['1', '2', '3', '4']",1,2023.2.3,harveyvisual,2.1,[],8,0.75,
1,dot,0.3,['dot'],['density'],black,0,262,262,262,,,94.10022306442261,93.80949902534485,94.10947108268738,dot,[0.06],"[0.14557363600905707, -0.03994760510263185]",density,black,,,N012,visual,3,[],"['1', '2', '3', '4']",1,2023.2.3,harveyvisual,2.1,[],8,0.75,
0,pause,0.4,None,None,None,0,263,263,263,,,,,,,,,,,,,N012,visual,3,[],"['1', '2', '3', '4']",1,2023.2.3,harveyvisual,2.1,[],8,0.75,
20,dot,0.3,['dot'],['density'],white,0,264,264,264,,,94.80022311210632,94.52614402770996,94.80946516990662,dot,"[0.06, 0.1, 0.1, 0.08, 0.06, 0.1, 0.1, 0.1, 0.08, 0.08, 0.06, 0.1, 0.08, 0.1, 0.06, 0.08, 0.06, 0.08, 0.06, 0.06]","[[-0.5042524347384074, -0.12759632370689958], [-0.22770850588950203, -0.32244939282810436], [-0.017051337029019842, -0.3664161997280727], [0.4218247746535132, 0.1449406003734145], [-0.24496460151371308, -0.027429043997201363], [-0.26126483866599026, -0.5224870598342484], [-0.20269306831073491, 0.35747774113999464], [0.42692597996729187, -0.32622985826634165], [0.19826950111168662, -0.48486500506199004], [0.008477196590588654, -0.011438482071040368], [-0.5823732062602117, 0.0880436086063178], [0.27999035746082046, -0.11455756304612474], [-0.10141345653420952, 0.570162029371368], [-0.5307825018353467, 0.28988440981299396], [0.22109004919847797, 0.15366991856356838], [0.06959630339663758, 0.4139820956587401], [0.2829724540259124, 0.41335927500974645], [-0.34491999181476896, 0.20808562217642435], [0.5539886687582948, -0.059781813639484316], [-0.4358250432019659, -0.3727992817755641]]",density,white,,,N012,visual,3,[],"['1', '2', '3', '4']",1,2023.2.3,harveyvisual,2.1,[],8,0.75,
0,pause,0.4,None,None,None,0,265,265,265,,,,,,,,,,,1,94.94283103942871,N012,visual,3,[],"['1', '2', '3', '4']",1,2023.2.3,harveyvisual,2.1,[],8,0.75,
20,dot,0.3,['dot'],['density'],white,0,266,266,266,,,95.5002269744873,95.22613000869751,95.509446144104,dot,"[0.1, 0.08, 0.1, 0.1, 0.08, 0.1, 0.06, 0.08, 0.08, 0.08, 0.08, 0.06, 0.1, 0.1, 0.08, 0.08, 0.1, 0.1, 0.1, 0.1]","[[-0.09836526306772642, -0.5248562922466916], [0.5709557352995899, -0.13170834070204163], [-0.08017717216482645, -0.20485785065433942], [0.29542528152871694, -0.004986081587858848], [-0.5726813598493079, -0.12451118603599554], [0.026695856592537814, 0.18080727061217883], [0.42897216286283146, 0.3781234179083633], [-0.34896387975966053, -0.18778324421254738], [0.590403497849772, 0.09089161259274386], [-0.4566517098988673, 0.14318613072518882], [0.02572791063820512, 0.39733444145285723], [-0.15610055534212142, 0.043498265467030284], [-0.2559403812160352, 0.2933877459806278], [0.17081759840655286, -0.3052635360934346], [0.1891980905975531, -0.5069989002054227], [0.39941875048490705, -0.2164013583046383], [-0.4762935145390924, 0.34191286948886046], [0.057971968619299874, 0.6018433658041159], [-0.21613523749705504, 0.4946917706291454], [0.2926314515908197, 0.24412727309571158]]",density,white,,,N012,visual,3,[],"['1', '2', '3', '4']",1,2023.2.3,harveyvisual,2.1,[],8,0.75,
0,pause,0.4,None,None,None,0,267,267,267,,,,,,,,,,,1,95.60691595077515,N012,visual,3,[],"['1', '2', '3', '4']",1,2023.2.3,harveyvisual,2.1,[],8,0.75,
