num,mod,duration,shape,ll_cond,colors,.thisRepN,.thisTrialN,.thisN,.thisIndex,thisRow.t,notes,raw_global_time,t_start,t_stop,shapes,size,pos,cond,color,button,RT,participant,session,starting_run,left button (match/odd),right button (non-match/even),samples_per_block,psychopy version,expName,offset,audio,number_runs,radius,
1,dot,0.3,['dot'],['density'],black,0,0,0,0,,,2.4002089500427246,2.101857900619507,2.418458938598633,dot,[0.1],"[0.30758596680771827, -0.21275106234766314]",density,black,,,N012,visual,6,[],"['1', '2', '3', '4']",1,2023.2.3,harveyvisual,2.1,[],8,0.75,
0,pause,0.4,None,None,None,0,1,1,1,,,,,,,,,,,,,N012,visual,6,[],"['1', '2', '3', '4']",1,2023.2.3,harveyvisual,2.1,[],8,0.75,
1,dot,0.3,['dot'],['density'],white,0,2,2,2,,,3.100221872329712,2.8017969131469727,3.1184399127960205,dot,[0.1],"[0.1600937909388646, -0.5041032805904762]",density,white,,,N012,visual,6,[],"['1', '2', '3', '4']",1,2023.2.3,harveyvisual,2.1,[],8,0.75,
0,pause,0.4,None,None,None,0,3,3,3,,,,,,,,,,,1,2.7725400924682617,N012,visual,6,[],"['1', '2', '3', '4']",1,2023.2.3,harveyvisual,2.1,[],8,0.75,
1,dot,0.3,['dot'],['density'],black,0,4,4,4,,,3.800222873687744,3.501775026321411,3.8184239864349365,dot,[0.1],"[0.5286010678554951, -0.2554598500704326]",density,black,,,N012,visual,6,[],"['1', '2', '3', '4']",1,2023.2.3,harveyvisual,2.1,[],8,0.75,
0,pause,0.4,None,None,None,0,5,5,5,,,,,,,,,,,,,N012,visual,6,[],"['1', '2', '3', '4']",1,2023.2.3,harveyvisual,2.1,[],8,0.75,
1,dot,0.3,['dot'],['density'],black,0,6,6,6,,,4.500212907791138,4.201736927032471,4.518405914306641,dot,[0.06],"[0.1049869166116724, 0.1335000464341748]",density,black,,,N012,visual,6,[],"['1', '2', '3', '4']",1,2023.2.3,harveyvisual,2.1,[],8,0.75,
0,pause,0.4,None,None,None,0,7,7,7,,,,,,,,,,,,,N012,visual,6,[],"['1', '2', '3', '4']",1,2023.2.3,harveyvisual,2.1,[],8,0.75,
1,dot,0.3,['dot'],['density'],black,0,8,8,8,,,5.200224876403809,4.901752948760986,5.218395948410034,dot,[0.1],"[0.5363314188299194, -0.14809861569100125]",density,black,,,N012,visual,6,[],"['1', '2', '3', '4']",1,2023.2.3,harveyvisual,2.1,[],8,0.75,
0,pause,0.4,None,None,None,0,9,9,9,,,,,,,,,,,,,N012,visual,6,[],"['1', '2', '3', '4']",1,2023.2.3,harveyvisual,2.1,[],8,0.75,
1,dot,0.3,['dot'],['density'],black,0,10,10,10,,,5.900206089019775,5.601722955703735,5.918416976928711,dot,[0.1],"[-0.045934412585722416, -0.12236734128406912]",density,black,,,N012,visual,6,[],"['1', '2', '3', '4']",1,2023.2.3,harveyvisual,2.1,[],8,0.75,
0,pause,0.4,None,None,None,0,11,11,11,,,,,,,,,,,,,N012,visual,6,[],"['1', '2', '3', '4']",1,2023.2.3,harveyvisual,2.1,[],8,0.75,
2,dot,0.3,['dot'],['density'],black,0,12,12,12,,,6.600205898284912,6.301743030548096,6.618356943130493,dot,"[0.06, 0.08]","[[0.45098141687762733, -0.20237638590572143], [0.5433504117931098, -0.02475258047346216]]",density,black,,,N012,visual,6,[],"['1', '2', '3', '4']",1,2023.2.3,harveyvisual,2.1,[],8,0.75,
0,pause,0.4,None,None,None,0,13,13,13,,,,,,,,,,,,,N012,visual,6,[],"['1', '2', '3', '4']",1,2023.2.3,harveyvisual,2.1,[],8,0.75,
2,dot,0.3,['dot'],['density'],black,0,14,14,14,,,7.300207853317261,7.001690864562988,7.318342924118042,dot,"[0.06, 0.06]","[[-0.2277318593301165, -0.35289300204507235], [-0.09400723608355734, -0.20388512549033708]]",density,black,,,N012,visual,6,[],"['1', '2', '3', '4']",1,2023.2.3,harveyvisual,2.1,[],8,0.75,
0,pause,0.4,None,None,None,0,15,15,15,,,,,,,,,,,,,N012,visual,6,[],"['1', '2', '3', '4']",1,2023.2.3,harveyvisual,2.1,[],8,0.75,
2,dot,0.3,['dot'],['density'],black,0,16,16,16,,,8.000205039978027,7.701669931411743,8.018408060073853,dot,"[0.06, 0.08]","[[0.45098141687762733, -0.20237638590572143], [0.5433504117931098, -0.02475258047346216]]",density,black,,,N012,visual,6,[],"['1', '2', '3', '4']",1,2023.2.3,harveyvisual,2.1,[],8,0.75,
0,pause,0.4,None,None,None,0,17,17,17,,,,,,,,,,,,,N012,visual,6,[],"['1', '2', '3', '4']",1,2023.2.3,harveyvisual,2.1,[],8,0.75,
2,dot,0.3,['dot'],['density'],black,0,18,18,18,,,8.700212001800537,8.40164303779602,8.718307971954346,dot,"[0.06, 0.06]","[[-0.020654750029313704, 0.3891656546739414], [-0.0007759068931318763, 0.19000611836641118]]",density,black,,,N012,visual,6,[],"['1', '2', '3', '4']",1,2023.2.3,harveyvisual,2.1,[],8,0.75,
0,pause,0.4,None,None,None,0,19,19,19,,,,,,,,,,,,,N012,visual,6,[],"['1', '2', '3', '4']",1,2023.2.3,harveyvisual,2.1,[],8,0.75,
2,dot,0.3,['dot'],['density'],black,0,20,20,20,,,9.400214910507202,9.101628065109253,9.4182870388031,dot,"[0.08, 0.08]","[[-0.21141336561075566, 0.4273762957479495], [-0.1407142259739198, 0.23984948612333498]]",density,black,,,N012,visual,6,[],"['1', '2', '3', '4']",1,2023.2.3,harveyvisual,2.1,[],8,0.75,
0,pause,0.4,None,None,None,0,21,21,21,,,,,,,,,,,,,N012,visual,6,[],"['1', '2', '3', '4']",1,2023.2.3,harveyvisual,2.1,[],8,0.75,
2,dot,0.3,['dot'],['density'],black,0,22,22,22,,,10.100208044052124,9.801614999771118,10.118273973464966,dot,"[0.1, 0.1]","[[0.510744558366804, -0.07965895932329134], [0.5183014925016622, -0.2796299572401246]]",density,black,,,N012,visual,6,[],"['1', '2', '3', '4']",1,2023.2.3,harveyvisual,2.1,[],8,0.75,
0,pause,0.4,None,None,None,0,23,23,23,,,,,,,,,,,,,N012,visual,6,[],"['1', '2', '3', '4']",1,2023.2.3,harveyvisual,2.1,[],8,0.75,
3,dot,0.3,['dot'],['density'],black,0,24,24,24,,,10.800225973129272,10.501597881317139,10.818253993988037,dot,"[0.08, 0.08, 0.1]","[[0.16698284004709638, 0.14340522813657522], [0.014382160343152013, -0.0120418799203457], [0.17626274868444566, -0.13037823744598942]]",density,black,,,N012,visual,6,[],"['1', '2', '3', '4']",1,2023.2.3,harveyvisual,2.1,[],8,0.75,
0,pause,0.4,None,None,None,0,25,25,25,,,,,,,,,,,,,N012,visual,6,[],"['1', '2', '3', '4']",1,2023.2.3,harveyvisual,2.1,[],8,0.75,
3,dot,0.3,['dot'],['density'],black,0,26,26,26,,,11.500221967697144,11.201580047607422,11.518234968185425,dot,"[0.08, 0.06, 0.08]","[[0.29938275938101017, 0.44415474715472736], [0.13070782598704628, 0.5557174004537693], [0.11832456902218637, 0.3273615767427578]]",density,black,,,N012,visual,6,[],"['1', '2', '3', '4']",1,2023.2.3,harveyvisual,2.1,[],8,0.75,
0,pause,0.4,None,None,None,0,27,27,27,,,,,,,,,,,,,N012,visual,6,[],"['1', '2', '3', '4']",1,2023.2.3,harveyvisual,2.1,[],8,0.75,
3,dot,0.3,['dot'],['density'],black,0,28,28,28,,,12.200217008590698,11.90156602859497,12.218224048614502,dot,"[0.06, 0.06, 0.06]","[[0.07700183490032705, -0.35627018624379625], [-0.11838355721398923, -0.41989981358322065], [0.04553884901650391, -0.5822363694770394]]",density,black,,,N012,visual,6,[],"['1', '2', '3', '4']",1,2023.2.3,harveyvisual,2.1,[],8,0.75,
0,pause,0.4,None,None,None,0,29,29,29,,,,,,,,,,,,,N012,visual,6,[],"['1', '2', '3', '4']",1,2023.2.3,harveyvisual,2.1,[],8,0.75,
3,dot,0.3,['dot'],['density'],black,0,30,30,30,,,12.900232076644897,12.601593971252441,12.91820502281189,dot,"[0.1, 0.06, 0.1]","[[0.348550694073714, -0.26372109460002424], [0.5073713069625243, -0.14206826334288786], [0.3419709386041379, 0.005891602819957491]]",density,black,,,N012,visual,6,[],"['1', '2', '3', '4']",1,2023.2.3,harveyvisual,2.1,[],8,0.75,
0,pause,0.4,None,None,None,0,31,31,31,,,,,,,,,,,,,N012,visual,6,[],"['1', '2', '3', '4']",1,2023.2.3,harveyvisual,2.1,[],8,0.75,
3,dot,0.3,['dot'],['density'],black,0,32,32,32,,,13.600207090377808,13.301522970199585,13.61818790435791,dot,"[0.06, 0.08, 0.08]","[[-0.27441186418729774, -0.31428620701652393], [-0.10438281902574013, -0.2032379983598837], [-0.31523395761825285, -0.08768035506307631]]",density,black,,,N012,visual,6,[],"['1', '2', '3', '4']",1,2023.2.3,harveyvisual,2.1,[],8,0.75,
0,pause,0.4,None,None,None,0,33,33,33,,,,,,,,,,,,,N012,visual,6,[],"['1', '2', '3', '4']",1,2023.2.3,harveyvisual,2.1,[],8,0.75,
3,dot,0.3,['dot'],['density'],black,0,34,34,34,,,14.3002290725708,14.001512050628662,14.318166971206665,dot,"[0.08, 0.08, 0.06]","[[-0.5599668940784417, -0.1503624274944763], [-0.33715825845103314, -0.1742393560729378], [-0.447658281307079, 0.035586458508876644]]",density,black,,,N012,visual,6,[],"['1', '2', '3', '4']",1,2023.2.3,harveyvisual,2.1,[],8,0.75,
0,pause,0.4,None,None,None,0,35,35,35,,,,,,,,,,,,,N012,visual,6,[],"['1', '2', '3', '4']",1,2023.2.3,harveyvisual,2.1,[],8,0.75,
4,dot,0.3,['dot'],['density'],black,0,36,36,36,,,15.000212907791138,14.701539039611816,15.018145084381104,dot,"[0.1, 0.06, 0.08, 0.1]","[[0.37520814465037905, -0.4432880181017862], [0.4692830223283075, -0.19655799526205012], [0.3063896805601884, -0.036788685454167226], [0.2471196723673293, -0.2344474043623998]]",density,black,,,N012,visual,6,[],"['1', '2', '3', '4']",1,2023.2.3,harveyvisual,2.1,[],8,0.75,
0,pause,0.4,None,None,None,0,37,37,37,,,,,,,,,,,,,N012,visual,6,[],"['1', '2', '3', '4']",1,2023.2.3,harveyvisual,2.1,[],8,0.75,
4,dot,0.3,['dot'],['density'],black,0,38,38,38,,,15.700209856033325,15.401474952697754,15.718132019042969,dot,"[0.08, 0.08, 0.06, 0.08]","[[-0.2516773625496151, -0.30151264897341506], [-0.16747001932966935, -0.11477707456203952], [0.007305472957725734, -0.4586877449884055], [0.017540980065453668, -0.20354321808263612]]",density,black,,,N012,visual,6,[],"['1', '2', '3', '4']",1,2023.2.3,harveyvisual,2.1,[],8,0.75,
0,pause,0.4,None,None,None,0,39,39,39,,,,,,,,,,,,,N012,visual,6,[],"['1', '2', '3', '4']",1,2023.2.3,harveyvisual,2.1,[],8,0.75,
4,dot,0.3,['dot'],['density'],black,0,40,40,40,,,16.400227069854736,16.10141897201538,16.418109893798828,dot,"[0.06, 0.1, 0.08, 0.06]","[[-0.2516773625496151, -0.30151264897341506], [-0.16747001932966935, -0.11477707456203952], [0.007305472957725734, -0.4586877449884055], [0.017540980065453668, -0.20354321808263612]]",density,black,,,N012,visual,6,[],"['1', '2', '3', '4']",1,2023.2.3,harveyvisual,2.1,[],8,0.75,
0,pause,0.4,None,None,None,0,41,41,41,,,,,,,,,,,,,N012,visual,6,[],"['1', '2', '3', '4']",1,2023.2.3,harveyvisual,2.1,[],8,0.75,
4,dot,0.3,['dot'],['density'],black,0,42,42,42,,,17.100215911865234,16.801485061645508,17.118566036224365,dot,"[0.1, 0.08, 0.1, 0.06]","[[-0.035956560563939345, -0.32709283091503677], [-0.2190429995428959, -0.2035699502326352], [-0.06992348234594314, -0.5664776463754845], [-0.220471277594294, -0.41208836036752056]]",density,black,,,N012,visual,6,[],"['1', '2', '3', '4']",1,2023.2.3,harveyvisual,2.1,[],8,0.75,
0,pause,0.4,None,None,None,0,43,43,43,,,,,,,,,,,,,N012,visual,6,[],"['1', '2', '3', '4']",1,2023.2.3,harveyvisual,2.1,[],8,0.75,
4,dot,0.3,['dot'],['density'],black,0,44,44,44,,,17.800215005874634,17.502554893493652,17.818636894226074,dot,"[0.1, 0.1, 0.1, 0.06]","[[-0.0389916918612136, -0.388752419995929], [-0.2709884701808293, -0.36873671266769453], [0.09349318837137091, -0.23801008290575854], [-0.09100040788429245, -0.11490803606521542]]",density,black,,,N012,visual,6,[],"['1', '2', '3', '4']",1,2023.2.3,harveyvisual,2.1,[],8,0.75,
0,pause,0.4,None,None,None,0,45,45,45,,,,,,,,,,,,,N012,visual,6,[],"['1', '2', '3', '4']",1,2023.2.3,harveyvisual,2.1,[],8,0.75,
4,dot,0.3,['dot'],['density'],black,0,46,46,46,,,18.500216960906982,18.202419996261597,18.518646955490112,dot,"[0.06, 0.06, 0.08, 0.06]","[[-0.43942495523079517, -0.22401056498097033], [-0.009260832099230759, -0.1633376679159051], [-0.21598309108097546, -0.10172603009605206], [-0.2278206133413005, -0.33154874685782076]]",density,black,,,N012,visual,6,[],"['1', '2', '3', '4']",1,2023.2.3,harveyvisual,2.1,[],8,0.75,
0,pause,0.4,None,None,None,0,47,47,47,,,,,,,,,,,,,N012,visual,6,[],"['1', '2', '3', '4']",1,2023.2.3,harveyvisual,2.1,[],8,0.75,
5,dot,0.3,['dot'],['density'],black,0,48,48,48,,,19.200221061706543,18.90265703201294,19.218958854675293,dot,"[0.06, 0.06, 0.06, 0.06, 0.06]","[[-0.24811222937808852, -0.0926462173418487], [-0.0684102839715827, 0.053707960252323945], [-0.4199359189551936, 0.028595247832400618], [-0.4311232183625476, -0.17348815390478414], [-0.08153496032007611, -0.23043043025001772]]",density,black,,,N012,visual,6,[],"['1', '2', '3', '4']",1,2023.2.3,harveyvisual,2.1,[],8,0.75,
0,pause,0.4,None,None,None,0,49,49,49,,,,,,,,,,,,,N012,visual,6,[],"['1', '2', '3', '4']",1,2023.2.3,harveyvisual,2.1,[],8,0.75,
5,dot,0.3,['dot'],['density'],black,0,50,50,50,,,19.90021300315857,19.60190987586975,19.92085289955139,dot,"[0.06, 0.1, 0.08, 0.08, 0.08]","[[-0.4004020094395207, -0.04445243948850948], [-0.17181756668418613, -0.18180129995893848], [-0.46264198425852476, 0.17889071841303528], [-0.23640824159873003, 0.08340028676903545], [-0.2824747884808712, 0.2826805534387526]]",density,black,,,N012,visual,6,[],"['1', '2', '3', '4']",1,2023.2.3,harveyvisual,2.1,[],8,0.75,
0,pause,0.4,None,None,None,0,51,51,51,,,,,,,,,,,,,N012,visual,6,[],"['1', '2', '3', '4']",1,2023.2.3,harveyvisual,2.1,[],8,0.75,
5,dot,0.3,['dot'],['density'],black,0,52,52,52,,,20.600209951400757,20.320857048034668,20.6208438873291,dot,"[0.08, 0.06, 0.08, 0.1, 0.08]","[[-0.10197385386246118, 0.24760023034087644], [-0.014646448823952617, 0.47519555304773536], [-0.21360058910662874, 0.441350445979826], [-0.3878570731713836, 0.20534708698022924], [-0.24187982362067023, 0.06730525069120082]]",density,black,,,N012,visual,6,[],"['1', '2', '3', '4']",1,2023.2.3,harveyvisual,2.1,[],8,0.75,
0,pause,0.4,None,None,None,0,53,53,53,,,,,,,,,,,,,N012,visual,6,[],"['1', '2', '3', '4']",1,2023.2.3,harveyvisual,2.1,[],8,0.75,
5,dot,0.3,['dot'],['density'],black,0,54,54,54,,,21.300230026245117,21.020833015441895,21.32083296775818,dot,"[0.06, 0.08, 0.08, 0.08, 0.08]","[[0.34746533592570195, 0.16118282603596082], [0.14457128296481445, 0.28865621170929245], [0.4549189851861922, 0.34228556952890804], [0.008483415068308318, 0.44103246018778014], [0.27150044131742485, 0.4621652121832405]]",density,black,,,N012,visual,6,[],"['1', '2', '3', '4']",1,2023.2.3,harveyvisual,2.1,[],8,0.75,
0,pause,0.4,None,None,None,0,55,55,55,,,,,,,,,,,,,N012,visual,6,[],"['1', '2', '3', '4']",1,2023.2.3,harveyvisual,2.1,[],8,0.75,
5,dot,0.3,['dot'],['density'],black,0,56,56,56,,,22.000230073928833,21.72081995010376,22.02079701423645,dot,"[0.08, 0.08, 0.1, 0.1, 0.1]","[[-0.4702494158317004, 0.19352793081356498], [-0.36864189631283095, -0.2113573127283173], [-0.3573601989406874, -0.007363185939446715], [-0.15559938224235453, -0.02548680069503583], [-0.25069196230576396, 0.1747846118010945]]",density,black,,,N012,visual,6,[],"['1', '2', '3', '4']",1,2023.2.3,harveyvisual,2.1,[],8,0.75,
0,pause,0.4,None,None,None,0,57,57,57,,,,,,,,,,,,,N012,visual,6,[],"['1', '2', '3', '4']",1,2023.2.3,harveyvisual,2.1,[],8,0.75,
5,dot,0.3,['dot'],['density'],black,0,58,58,58,,,22.700207948684692,22.420768976211548,22.72079586982727,dot,"[0.1, 0.1, 0.06, 0.06, 0.1]","[[-0.082153098152829, -0.06894165798345762], [0.016766770742065788, -0.42680196676869325], [0.2961099764235258, -0.14925166127785872], [-0.1456021726000032, -0.26669195071034546], [0.10213220283607832, -0.23321095001989858]]",density,black,,,N012,visual,6,[],"['1', '2', '3', '4']",1,2023.2.3,harveyvisual,2.1,[],8,0.75,
0,pause,0.4,None,None,None,0,59,59,59,,,,,,,,,,,,,N012,visual,6,[],"['1', '2', '3', '4']",1,2023.2.3,harveyvisual,2.1,[],8,0.75,
6,dot,0.3,['dot'],['density'],black,0,60,60,60,,,23.400224924087524,23.120754957199097,23.420768976211548,dot,"[0.08, 0.08, 0.06, 0.08, 0.1, 0.08]","[[-0.2094991805307552, 0.08302354111181451], [0.09557258300728075, 0.3458622669714129], [0.22056408800171526, -0.017094369341425636], [0.026601936584830878, 0.1297564650757722], [-0.11681768564656844, 0.2726391152528644], [-0.03570146891163527, -0.09222923444939024]]",density,black,,,N012,visual,6,[],"['1', '2', '3', '4']",1,2023.2.3,harveyvisual,2.1,[],8,0.75,
0,pause,0.4,None,None,None,0,61,61,61,,,,,,,,,,,,,N012,visual,6,[],"['1', '2', '3', '4']",1,2023.2.3,harveyvisual,2.1,[],8,0.75,
6,dot,0.3,['dot'],['density'],black,0,62,62,62,,,24.100234985351562,23.820762872695923,24.120718002319336,dot,"[0.1, 0.06, 0.08, 0.08, 0.06, 0.06]","[[-0.560843418842529, -0.11752527585456686], [-0.31277608783648175, 0.04003545118838376], [-0.18207900664359264, -0.3652956678781814], [-0.41442909117718774, -0.4038021739217259], [-0.14446849917993246, -0.07035639226176245], [-0.3420415871796019, -0.1631057353810994]]",density,black,,,N012,visual,6,[],"['1', '2', '3', '4']",1,2023.2.3,harveyvisual,2.1,[],8,0.75,
0,pause,0.4,None,None,None,0,63,63,63,,,,,,,,,,,,,N012,visual,6,[],"['1', '2', '3', '4']",1,2023.2.3,harveyvisual,2.1,[],8,0.75,
6,dot,0.3,['dot'],['density'],black,0,64,64,64,,,24.800217866897583,24.52074885368347,24.820734977722168,dot,"[0.06, 0.06, 0.1, 0.08, 0.08, 0.1]","[[0.2333794889108542, 0.5108688068097712], [0.17720399199515413, 0.06488002481085814], [0.3526024925964592, 0.16961020277143707], [0.1596713132306006, 0.321837067503818], [0.0007438407140586783, 0.18344495120876914], [0.42757463853404776, 0.37786691715169374]]",density,black,,,N012,visual,6,[],"['1', '2', '3', '4']",1,2023.2.3,harveyvisual,2.1,[],8,0.75,
0,pause,0.4,None,None,None,0,65,65,65,,,,,,,,,,,,,N012,visual,6,[],"['1', '2', '3', '4']",1,2023.2.3,harveyvisual,2.1,[],8,0.75,
6,dot,0.3,['dot'],['density'],white,0,66,66,66,,,25.50022602081299,25.220741033554077,25.5207359790802,dot,"[0.08, 0.06, 0.06, 0.1, 0.06, 0.08]","[[-0.31609589870198396, -0.31007670116123803], [-0.4478311917512715, 0.10082722748193511], [-0.2864981571692688, -0.05140390439239721], [-0.09675803094031296, -0.12021517342888931], [-0.4941273593136662, -0.13098935533792763], [-0.1300426850498692, 0.1160403058404222]]",density,white,,,N012,visual,6,[],"['1', '2', '3', '4']",1,2023.2.3,harveyvisual,2.1,[],8,0.75,
0,pause,0.4,None,None,None,0,67,67,67,,,,,,,,,,,1,25.287081003189087,N012,visual,6,[],"['1', '2', '3', '4']",1,2023.2.3,harveyvisual,2.1,[],8,0.75,
6,dot,0.3,['dot'],['density'],black,0,68,68,68,,,26.20022702217102,25.92071008682251,26.22161293029785,dot,"[0.08, 0.1, 0.06, 0.1, 0.06, 0.08]","[[-0.3622751979984162, 0.41275935807220604], [-0.5464806003183257, 0.06358334875023645], [-0.15518785678585886, 0.34969079698534317], [-0.3231370338359737, -0.02193421190541931], [-0.3473470749510941, 0.19885557425221048], [-0.12382976466594668, 0.04156566071734393]]",density,black,,,N012,visual,6,[],"['1', '2', '3', '4']",1,2023.2.3,harveyvisual,2.1,[],8,0.75,
0,pause,0.4,None,None,None,0,69,69,69,,,,,,,,,,,,,N012,visual,6,[],"['1', '2', '3', '4']",1,2023.2.3,harveyvisual,2.1,[],8,0.75,
6,dot,0.3,['dot'],['density'],black,0,70,70,70,,,26.900230884552002,26.620698928833008,26.920692920684814,dot,"[0.06, 0.1, 0.08, 0.1, 0.06, 0.06]","[[-0.3495133471434448, -0.27378397825191725], [-0.13100446626766318, 0.13866361521721876], [-0.5155090776439144, 0.11776884681908774], [-0.4780287848267884, -0.11588239978167382], [-0.11897161770401087, -0.0933943475842369], [-0.303431097341306, -0.010759678588622423]]",density,black,,,N012,visual,6,[],"['1', '2', '3', '4']",1,2023.2.3,harveyvisual,2.1,[],8,0.75,
0,pause,0.4,None,None,None,0,71,71,71,,,,,,,,,,,,,N012,visual,6,[],"['1', '2', '3', '4']",1,2023.2.3,harveyvisual,2.1,[],8,0.75,
7,dot,0.3,['dot'],['density'],black,0,72,72,72,,,27.60023593902588,27.32068705558777,27.620681047439575,dot,"[0.1, 0.06, 0.1, 0.1, 0.1, 0.1, 0.08]","[[-0.2822174821233986, 0.002117056236134186], [-0.10673242512413421, 0.4781556216085482], [-0.18432519539246728, 0.19072201575640843], [-0.4524596318479574, 0.13966285650530724], [0.06907010423411483, 0.2912708813513049], [-0.07412436007020941, -0.021022205933558278], [-0.3208835015251209, 0.3986768431743725]]",density,black,,,N012,visual,6,[],"['1', '2', '3', '4']",1,2023.2.3,harveyvisual,2.1,[],8,0.75,
0,pause,0.4,None,None,None,0,73,73,73,,,,,,,,,,,,,N012,visual,6,[],"['1', '2', '3', '4']",1,2023.2.3,harveyvisual,2.1,[],8,0.75,
7,dot,0.3,['dot'],['density'],black,0,74,74,74,,,28.300232887268066,28.020668029785156,28.320651054382324,dot,"[0.08, 0.06, 0.08, 0.06, 0.1, 0.06, 0.1]","[[0.3302081014073935, 0.19448071361351732], [-0.22286629369238187, 0.3450023392305547], [-0.11533339293480348, 0.13926201039730488], [0.12023407780451623, 0.21240672508650668], [0.2659789407074307, 0.3894086603790018], [0.026604934602130894, 0.39133200849180605], [0.212400253920387, 0.027377351413115796]]",density,black,,,N012,visual,6,[],"['1', '2', '3', '4']",1,2023.2.3,harveyvisual,2.1,[],8,0.75,
0,pause,0.4,None,None,None,0,75,75,75,,,,,,,,,,,,,N012,visual,6,[],"['1', '2', '3', '4']",1,2023.2.3,harveyvisual,2.1,[],8,0.75,
7,dot,0.3,['dot'],['density'],black,0,76,76,76,,,29.000232934951782,28.720646858215332,29.02063798904419,dot,"[0.08, 0.06, 0.1, 0.06, 0.06, 0.1, 0.1]","[[0.19245168201499255, -0.1876960705048169], [-0.3381443552002159, -0.23329338142126996], [-0.10497405195571721, -0.20200038512761503], [-0.19215049966389516, -0.01485034356210763], [-0.14804808022624072, 0.20187381879058183], [0.049390412829639754, -0.0077734514623590935], [0.08212821656350888, 0.19234027401595055]]",density,black,,,N012,visual,6,[],"['1', '2', '3', '4']",1,2023.2.3,harveyvisual,2.1,[],8,0.75,
0,pause,0.4,None,None,None,0,77,77,77,,,,,,,,,,,,,N012,visual,6,[],"['1', '2', '3', '4']",1,2023.2.3,harveyvisual,2.1,[],8,0.75,
7,dot,0.3,['dot'],['density'],black,0,78,78,78,,,29.70022702217102,29.420630931854248,29.720603942871094,dot,"[0.06, 0.1, 0.1, 0.06, 0.06, 0.08, 0.06]","[[0.13823229125104186, -0.11287424625882309], [-0.082914425993103, 0.43156227464827385], [0.30107400633957315, 0.2583336012722512], [-0.1103107855725706, 0.20298726112520996], [0.37862923877470095, 0.05664428164281185], [0.10057609128089995, 0.3089177590539603], [0.1009283971288976, 0.1061295027106774]]",density,black,,,N012,visual,6,[],"['1', '2', '3', '4']",1,2023.2.3,harveyvisual,2.1,[],8,0.75,
0,pause,0.4,None,None,None,0,79,79,79,,,,,,,,,,,,,N012,visual,6,[],"['1', '2', '3', '4']",1,2023.2.3,harveyvisual,2.1,[],8,0.75,
7,dot,0.3,['dot'],['density'],black,0,80,80,80,,,30.400208950042725,30.121526956558228,30.420723915100098,dot,"[0.1, 0.08, 0.06, 0.06, 0.08, 0.06, 0.06]","[[-0.08751196138777266, -0.40239331021683095], [-0.1389983634140625, -0.1821537091642013], [-0.5212097088452917, -0.15879536445288125], [-0.24197016774290594, 0.025691971861017886], [-0.324083892787021, -0.3083678109532634], [0.06465625853811506, -0.19815494036826437], [-0.2569867334647868, -0.5155038850209747]]",density,black,,,N012,visual,6,[],"['1', '2', '3', '4']",1,2023.2.3,harveyvisual,2.1,[],8,0.75,
0,pause,0.4,None,None,None,0,81,81,81,,,,,,,,,,,,,N012,visual,6,[],"['1', '2', '3', '4']",1,2023.2.3,harveyvisual,2.1,[],8,0.75,
7,dot,0.3,['dot'],['density'],black,0,82,82,82,,,31.100215911865234,30.82058596611023,31.121646881103516,dot,"[0.06, 0.1, 0.06, 0.06, 0.1, 0.08, 0.1]","[[-0.27819289690075527, 0.2483046813246476], [-0.5592260237138849, -0.07980801324287977], [-0.026637344717372308, -0.10521889364121585], [-0.16909952645659185, 0.05101222878256789], [-0.21868546305501066, -0.16482274839932262], [-0.3689572500107929, 0.03738969849335829], [-0.49227831811218986, 0.2063327632277477]]",density,black,,,N012,visual,6,[],"['1', '2', '3', '4']",1,2023.2.3,harveyvisual,2.1,[],8,0.75,
0,pause,0.4,None,None,None,0,83,83,83,,,,,,,,,,,,,N012,visual,6,[],"['1', '2', '3', '4']",1,2023.2.3,harveyvisual,2.1,[],8,0.75,
8,dot,0.3,['dot'],['density'],black,0,84,84,84,,,31.800230979919434,31.520570993423462,31.82056188583374,dot,"[0.1, 0.1, 0.08, 0.06, 0.06, 0.1, 0.08, 0.1]","[[-0.13470540342303577, 0.06408260861786476], [-0.32633744656496655, 0.15045505181492372], [-0.2908673593763413, -0.0762007135190446], [-0.5368971138264618, 0.18470905249118252], [0.055331558945424124, 0.1732254888039505], [-0.30909967543404826, 0.3845911877556102], [-0.0777863596696305, 0.41921053595603236], [0.03181857584637903, -0.08967320215721851]]",density,black,,,N012,visual,6,[],"['1', '2', '3', '4']",1,2023.2.3,harveyvisual,2.1,[],8,0.75,
0,pause,0.4,None,None,None,0,85,85,85,,,,,,,,,,,,,N012,visual,6,[],"['1', '2', '3', '4']",1,2023.2.3,harveyvisual,2.1,[],8,0.75,
8,dot,0.3,['dot'],['density'],black,0,86,86,86,,,32.50022101402283,32.22052502632141,32.5214409828186,dot,"[0.1, 0.06, 0.08, 0.1, 0.08, 0.06, 0.1, 0.08]","[[0.29210958841889567, 0.026991922891258572], [0.03093533645276146, 0.3258936230244337], [-0.13014708308220477, 0.20110385145229231], [0.463805327987396, 0.2670013362689149], [0.17887675575806267, 0.48912385903522404], [0.2495142025194702, 0.28253247413027655], [0.03200252102949923, -0.1932501096446728], [0.04457092617056691, 0.07668709382136672]]",density,black,,,N012,visual,6,[],"['1', '2', '3', '4']",1,2023.2.3,harveyvisual,2.1,[],8,0.75,
0,pause,0.4,None,None,None,0,87,87,87,,,,,,,,,,,,,N012,visual,6,[],"['1', '2', '3', '4']",1,2023.2.3,harveyvisual,2.1,[],8,0.75,
8,dot,0.3,['dot'],['density'],white,0,88,88,88,,,33.20021605491638,32.92054295539856,33.22050094604492,dot,"[0.08, 0.1, 0.08, 0.06, 0.06, 0.1, 0.06, 0.08]","[[-0.3869743371455666, 0.15388434217336297], [0.11424038932868294, 0.18734519769139274], [-0.06602262913525138, -0.20199883598953133], [-0.13221522482970946, 0.16661696891490863], [-0.2408224703751142, -0.03724946932993881], [-0.01219752370661542, -0.004327099574405561], [-0.20345141844285677, 0.44978546357431476], [0.2450906497331586, -0.012808503174003826]]",density,white,,,N012,visual,6,[],"['1', '2', '3', '4']",1,2023.2.3,harveyvisual,2.1,[],8,0.75,
0,pause,0.4,None,None,None,0,89,89,89,,,,,,,,,,,1,32.91396403312683,N012,visual,6,[],"['1', '2', '3', '4']",1,2023.2.3,harveyvisual,2.1,[],8,0.75,
8,dot,0.3,['dot'],['density'],black,0,90,90,90,,,33.90021085739136,33.620513916015625,33.92252206802368,dot,"[0.06, 0.1, 0.1, 0.06, 0.06, 0.1, 0.06, 0.08]","[[-0.3290570048964025, 0.45712517183014534], [-0.12351728740192595, 0.19722326774196852], [-0.44617383739254307, -0.0315435053038489], [0.05824565693526591, 0.08769012542188236], [-0.4904255353169048, 0.31423420558286136], [-0.32491150822629034, 0.16696319418744587], [-0.12614658653380179, 0.4043789036591275], [0.10044097339982726, 0.3130264767685494]]",density,black,,,N012,visual,6,[],"['1', '2', '3', '4']",1,2023.2.3,harveyvisual,2.1,[],8,0.75,
0,pause,0.4,None,None,None,0,91,91,91,,,,,,,,,,,,,N012,visual,6,[],"['1', '2', '3', '4']",1,2023.2.3,harveyvisual,2.1,[],8,0.75,
8,dot,0.3,['dot'],['density'],black,0,92,92,92,,,34.60021495819092,34.32051205635071,34.62049198150635,dot,"[0.1, 0.06, 0.08, 0.1, 0.06, 0.1, 0.1, 0.06]","[[-0.4462313073918426, 0.10595449025715867], [0.022923871415176152, 0.06290918987699953], [-0.12461589820496316, 0.4830175517012745], [-0.29730306390741434, 0.2752084497958106], [-0.2195410516364439, 0.056871795648565045], [0.008916049516666445, 0.2907399105306955], [-0.08256048209355603, -0.11638226771844133], [-0.4106304257826301, -0.09222594144079917]]",density,black,,,N012,visual,6,[],"['1', '2', '3', '4']",1,2023.2.3,harveyvisual,2.1,[],8,0.75,
0,pause,0.4,None,None,None,0,93,93,93,,,,,,,,,,,,,N012,visual,6,[],"['1', '2', '3', '4']",1,2023.2.3,harveyvisual,2.1,[],8,0.75,
8,dot,0.3,['dot'],['density'],black,0,94,94,94,,,35.30021286010742,35.020467042922974,35.320456981658936,dot,"[0.1, 0.08, 0.08, 0.08, 0.08, 0.08, 0.1, 0.08]","[[-0.3167478768396544, -0.2124469325344782], [0.11150510454677101, -0.25361932254341324], [0.17657050060311263, -0.496926349220185], [0.20833757931744315, -0.0002320808252021913], [-0.0015234955214533466, 0.034722119540356526], [-0.10690598217119997, -0.19846612199298916], [0.32498422138424443, -0.23444872628509345], [-0.054741640541526956, -0.4230750989992696]]",density,black,,,N012,visual,6,[],"['1', '2', '3', '4']",1,2023.2.3,harveyvisual,2.1,[],8,0.75,
0,pause,0.4,None,None,None,0,95,95,95,,,,,,,,,,,,,N012,visual,6,[],"['1', '2', '3', '4']",1,2023.2.3,harveyvisual,2.1,[],8,0.75,
9,dot,0.3,['dot'],['density'],black,0,96,96,96,,,36.00021696090698,35.720433950424194,36.020427942276,dot,"[0.1, 0.08, 0.08, 0.1, 0.08, 0.1, 0.06, 0.06, 0.1]","[[0.5176022259896301, 0.07013652950073157], [0.29073914382076843, 0.49095716113391286], [0.25755010907869064, 0.10321661572421419], [0.11549350267606502, 0.37871636325142816], [-0.040248060121338324, 0.07603447111469516], [0.35733910828644905, -0.07238149579930037], [0.09184169877402729, -0.10424630849328012], [-0.10934901156313583, -0.14911132891814113], [0.4158094160330474, 0.26019999263529187]]",density,black,,,N012,visual,6,[],"['1', '2', '3', '4']",1,2023.2.3,harveyvisual,2.1,[],8,0.75,
0,pause,0.4,None,None,None,0,97,97,97,,,,,,,,,,,,,N012,visual,6,[],"['1', '2', '3', '4']",1,2023.2.3,harveyvisual,2.1,[],8,0.75,
9,dot,0.3,['dot'],['density'],black,0,98,98,98,,,36.7002170085907,36.42041802406311,36.720417976379395,dot,"[0.08, 0.1, 0.08, 0.08, 0.1, 0.06, 0.06, 0.08, 0.06]","[[0.16751238249231654, 0.5577961240465925], [-0.27296145406993233, 0.4862198967380745], [-0.029185467938656964, 0.15062746822878756], [-0.0646201772689005, 0.5687739076077192], [0.1739328392933146, 0.3418730943321047], [-0.141244529573345, 0.32572795328380527], [-0.5161698704605421, 0.1834233825743511], [0.21727962056556488, 0.12903401361548372], [-0.23724269532595021, 0.10991409904419316]]",density,black,,,N012,visual,6,[],"['1', '2', '3', '4']",1,2023.2.3,harveyvisual,2.1,[],8,0.75,
0,pause,0.4,None,None,None,0,99,99,99,,,,,,,,,,,,,N012,visual,6,[],"['1', '2', '3', '4']",1,2023.2.3,harveyvisual,2.1,[],8,0.75,
9,dot,0.3,['dot'],['density'],black,0,100,100,100,,,37.40022397041321,37.12042498588562,37.42040395736694,dot,"[0.06, 0.06, 0.06, 0.08, 0.06, 0.08, 0.08, 0.06, 0.1]","[[0.11766436913102363, -0.04327704920019282], [0.17973489876850246, -0.2957558932143311], [0.4322853556796634, 0.1292829237047714], [-0.0348924626991882, -0.2091692004054023], [0.511593351462966, -0.2715393032181878], [0.39631341359825684, -0.10388811790353111], [0.1759041025424718, 0.35783279634564974], [-0.11077337801993212, 0.08002505665429639], [0.1915495233696259, 0.15329463501335125]]",density,black,,,N012,visual,6,[],"['1', '2', '3', '4']",1,2023.2.3,harveyvisual,2.1,[],8,0.75,
0,pause,0.4,None,None,None,0,101,101,101,,,,,,,,,,,,,N012,visual,6,[],"['1', '2', '3', '4']",1,2023.2.3,harveyvisual,2.1,[],8,0.75,
9,dot,0.3,['dot'],['density'],black,0,102,102,102,,,38.10020995140076,37.82041001319885,38.12037396430969,dot,"[0.08, 0.08, 0.08, 0.1, 0.1, 0.08, 0.08, 0.1, 0.08]","[[0.5571797577834091, 0.07732674165650813], [0.16332656704353227, -0.09331314560094064], [0.4138178119161903, 0.3925230053806507], [0.28711316854655766, 0.07147022394212545], [0.052100496024031176, 0.3810199549023822], [0.2172039135420496, 0.26337040755706287], [-0.2646845915772586, 0.12849707234668142], [0.21844181080216274, 0.4926952285236599], [0.0761275456309072, 0.11718001140956479]]",density,black,,,N012,visual,6,[],"['1', '2', '3', '4']",1,2023.2.3,harveyvisual,2.1,[],8,0.75,
0,pause,0.4,None,None,None,0,103,103,103,,,,,,,,,,,,,N012,visual,6,[],"['1', '2', '3', '4']",1,2023.2.3,harveyvisual,2.1,[],8,0.75,
9,dot,0.3,['dot'],['density'],black,0,104,104,104,,,38.800227880477905,38.52037501335144,38.82126307487488,dot,"[0.08, 0.1, 0.1, 0.06, 0.08, 0.08, 0.06, 0.08, 0.06]","[[0.27429149071172837, 0.34251676390746333], [0.46797507249945486, 0.005491811463162166], [0.21235580877939833, 0.08757146436558581], [0.046223583492975936, 0.2932249054251131], [0.07051592556679111, -0.0704922843318231], [0.30438918969270623, -0.13028831600800136], [0.11534598117609637, 0.5236829685630697], [-0.06673610159464062, 0.12515255452502297], [-0.14439101605953233, -0.1332028051536465]]",density,black,,,N012,visual,6,[],"['1', '2', '3', '4']",1,2023.2.3,harveyvisual,2.1,[],8,0.75,
0,pause,0.4,None,None,None,0,105,105,105,,,,,,,,,,,,,N012,visual,6,[],"['1', '2', '3', '4']",1,2023.2.3,harveyvisual,2.1,[],8,0.75,
9,dot,0.3,['dot'],['density'],black,0,106,106,106,,,39.500226974487305,39.22038388252258,39.52035093307495,dot,"[0.06, 0.08, 0.1, 0.08, 0.08, 0.1, 0.1, 0.1, 0.06]","[[0.050129075631511706, -0.29659829200500587], [0.1522424042566208, -0.02012498145544232], [-0.31773020450764894, 0.09756431981266957], [-0.25388767024787284, -0.20865833148222632], [-0.06549152868915667, -0.10253084504872755], [-0.047012852932693645, 0.11741599898337682], [0.26526013051082903, -0.18996189821299347], [0.2442588296558726, 0.17404051307925203], [0.053323608967773835, 0.34462047536600726]]",density,black,,,N012,visual,6,[],"['1', '2', '3', '4']",1,2023.2.3,harveyvisual,2.1,[],8,0.75,
0,pause,0.4,None,None,None,0,107,107,107,,,,,,,,,,,,,N012,visual,6,[],"['1', '2', '3', '4']",1,2023.2.3,harveyvisual,2.1,[],8,0.75,
20,dot,0.3,['dot'],['density'],black,0,108,108,108,,,40.20021295547485,39.92036199569702,40.220359086990356,dot,"[0.1, 0.08, 0.1, 0.06, 0.1, 0.1, 0.06, 0.08, 0.1, 0.1, 0.1, 0.08, 0.08, 0.1, 0.06, 0.1, 0.06, 0.1, 0.08, 0.06]","[[-0.09156663386651542, -0.39230435295107396], [0.36263132985531965, -0.28785239484840575], [0.0012793535651109966, 0.2336282984635395], [-0.5905051719837159, 0.07782786866914199], [-0.1162105270329955, 0.5256713599455589], [-0.3842209646777832, 0.0593427035578481], [0.24182854447035573, 0.5217561198173455], [0.308938488091306, 0.2620622245349046], [-0.5639291654579925, -0.18469776275715338], [-0.39292298428554906, 0.3856665315345534], [-0.35459374842082586, -0.43270622302914896], [-0.23202210207093243, -0.2483020395697958], [0.20501621818614824, -0.47343590481117304], [-0.08065337772797398, -0.05365176466635069], [0.1777639678808044, -0.015974978229993386], [0.4197523434124494, 0.08818436213294734], [0.5763645072017681, -0.07064644008577312], [0.14339892310065105, -0.24807343242057056], [-0.18734476695150865, 0.13880440332276156], [0.5088761672880923, 0.2717621079966554]]",density,black,,,N012,visual,6,[],"['1', '2', '3', '4']",1,2023.2.3,harveyvisual,2.1,[],8,0.75,
0,pause,0.4,None,None,None,0,109,109,109,,,,,,,,,,,,,N012,visual,6,[],"['1', '2', '3', '4']",1,2023.2.3,harveyvisual,2.1,[],8,0.75,
20,dot,0.3,['dot'],['density'],black,0,110,110,110,,,40.9002320766449,40.620322942733765,40.92030692100525,dot,"[0.08, 0.06, 0.06, 0.08, 0.08, 0.1, 0.06, 0.1, 0.06, 0.08, 0.1, 0.06, 0.06, 0.08, 0.1, 0.08, 0.08, 0.1, 0.1, 0.06]","[[0.27752148271163757, -0.3468232289886989], [0.30005477757213983, 0.1573794386278169], [0.5578137070331116, -0.08290001724051196], [-0.26738696194900485, -0.14670319193100406], [-0.5163231088411921, 0.18596647290884516], [0.0493299878892991, -0.06816082814455804], [-0.05948054787768686, -0.5310525207970817], [-0.27049061838780314, 0.4113087175829603], [0.48308036875443416, -0.30449250100125314], [-0.0549020671155962, 0.40845192550729115], [0.4791016475494053, 0.2933955030470288], [0.2791445537188212, 0.3845126411491485], [-0.2863669102913541, 0.10310179742798542], [0.025640653668114743, -0.2592511523215097], [0.03753123417573667, 0.1734985931266564], [-0.4113951184597409, -0.42238357190092024], [-0.49282873946017813, -0.13883996619311298], [0.356200115031863, -0.06710816510592793], [0.12318579348277825, 0.5378641812413812], [0.16184920370917055, -0.517272906870113]]",density,black,,,N012,visual,6,[],"['1', '2', '3', '4']",1,2023.2.3,harveyvisual,2.1,[],8,0.75,
0,pause,0.4,None,None,None,0,111,111,111,,,,,,,,,,,,,N012,visual,6,[],"['1', '2', '3', '4']",1,2023.2.3,harveyvisual,2.1,[],8,0.75,
20,dot,0.3,['dot'],['density'],black,0,112,112,112,,,41.60022807121277,41.32030892372131,41.6202929019928,dot,"[0.1, 0.08, 0.06, 0.08, 0.06, 0.06, 0.06, 0.08, 0.1, 0.1, 0.06, 0.06, 0.08, 0.08, 0.06, 0.08, 0.06, 0.1, 0.06, 0.1]","[[-0.4232316086691946, 0.2576896991695566], [0.2324889956028835, 0.5468469284984228], [0.2856260285318303, 0.23814982485752667], [-0.27492435532522513, -0.19702391622796128], [0.1724632906822361, -0.0703277812777483], [-0.4426230119928661, 0.010427199958771949], [-0.2257512040001261, 0.064945783300553], [-0.29419207009855713, 0.4994460998398045], [0.06592029439212532, -0.30493057767602555], [-0.026069191463543917, 0.5817104018008649], [0.355330479560096, -0.4202389341998461], [0.40620456715650854, 0.441573447824729], [0.10685901979419254, 0.34498143454945374], [0.5862240072678132, -0.13447179625443356], [-0.45968235732066287, -0.27402737865384214], [0.3877603653741707, -0.18124402017488783], [-0.026090514228688355, -0.598936334519867], [0.18767857875936256, -0.5219035932551778], [0.5504922153900814, 0.1719078556515865], [-0.21830480193770607, -0.4331538570637905]]",density,black,,,N012,visual,6,[],"['1', '2', '3', '4']",1,2023.2.3,harveyvisual,2.1,[],8,0.75,
0,pause,0.4,None,None,None,0,113,113,113,,,,,,,,,,,,,N012,visual,6,[],"['1', '2', '3', '4']",1,2023.2.3,harveyvisual,2.1,[],8,0.75,
20,dot,0.3,['dot'],['density'],black,0,114,114,114,,,42.30021405220032,42.020320892333984,42.32029986381531,dot,"[0.1, 0.08, 0.06, 0.1, 0.06, 0.06, 0.06, 0.08, 0.06, 0.08, 0.06, 0.1, 0.06, 0.06, 0.08, 0.06, 0.08, 0.08, 0.06, 0.06]","[[0.11439072878245327, -0.12848331962556553], [0.46046651248352266, 0.36947450249239094], [-0.5593940190627001, -0.007033928062176648], [0.020905638326650156, -0.5166410238502288], [0.09557223991207242, 0.35829595769609335], [0.5856255992231482, -0.058682562845392555], [-0.3038611687561718, 0.30915164650879934], [-0.4946676487931744, -0.295899653806546], [0.29507008272611746, -0.31175302674834504], [0.314006033479299, -0.03739211099164408], [-0.018146753870220578, 0.2026753737689757], [0.4890476358200694, 0.14193079966600997], [-0.5171771258027484, 0.22687342743188632], [-0.12435195350817585, 9.724972714908464e-05], [-0.02159568010270141, -0.3267147646385483], [-0.2706157665077567, -0.3900125594441134], [0.2528704213123455, -0.5051143459965769], [0.14085865226929106, 0.5813652611485232], [0.164305235896975, 0.13214333627059127], [0.3127499546530158, 0.4995053723726386]]",density,black,,,N012,visual,6,[],"['1', '2', '3', '4']",1,2023.2.3,harveyvisual,2.1,[],8,0.75,
0,pause,0.4,None,None,None,0,115,115,115,,,,,,,,,,,,,N012,visual,6,[],"['1', '2', '3', '4']",1,2023.2.3,harveyvisual,2.1,[],8,0.75,
20,dot,0.3,['dot'],['density'],black,0,116,116,116,,,43.0002179145813,42.72029089927673,43.02026605606079,dot,"[0.1, 0.08, 0.06, 0.1, 0.06, 0.08, 0.08, 0.1, 0.08, 0.1, 0.08, 0.06, 0.08, 0.08, 0.06, 0.08, 0.1, 0.1, 0.1, 0.06]","[[0.2248258059569349, 0.19168356975595768], [-0.18815904404700567, 0.12871627982285505], [-0.11451397986227713, -0.4678523260592855], [0.43787813697791933, -0.339216201840342], [0.052304457619504086, 0.07671216743323994], [-0.17497794527482985, -0.16040694938136096], [-0.17347446470876154, 0.45079090001425515], [-0.39047746231283176, 0.15485481108942895], [0.46447348016689183, -0.14898164453278714], [0.2042654438967454, 0.4458823769860909], [-0.5269113457953416, -0.22011293807691495], [0.424306266419496, 0.32163371232490706], [0.5751012503175242, 0.012842935572599107], [-0.3571382542557673, -0.4641130120229036], [0.13576683558294667, -0.23588034018368748], [0.35550996297953363, 0.02111142255708459], [0.04068746778059351, 0.5435317140611496], [-0.598214679584224, -0.003898484300799976], [-0.3984284150085028, 0.3918595773696155], [0.19797305652510855, -0.4404170890685487]]",density,black,,,N012,visual,6,[],"['1', '2', '3', '4']",1,2023.2.3,harveyvisual,2.1,[],8,0.75,
0,pause,0.4,None,None,None,0,117,117,117,,,,,,,,,,,,,N012,visual,6,[],"['1', '2', '3', '4']",1,2023.2.3,harveyvisual,2.1,[],8,0.75,
20,dot,0.3,['dot'],['density'],black,0,118,118,118,,,43.70022201538086,43.42024087905884,43.72024202346802,dot,"[0.06, 0.1, 0.08, 0.08, 0.1, 0.08, 0.08, 0.08, 0.06, 0.06, 0.06, 0.08, 0.06, 0.06, 0.1, 0.08, 0.08, 0.1, 0.08, 0.08]","[[-0.08609505969299491, -0.169948644505591], [-0.5561107872927001, -0.15578825818813113], [-0.017438065055171315, 0.5172219780694075], [0.4850039219539738, -0.24671914379639037], [0.3305913561891338, 0.4967598296041975], [0.22920172202860833, -0.5022851155789184], [0.4837409839592536, 0.1085371038731145], [-0.3501707622408926, 0.47409081028051453], [-0.23273382770166112, -0.4919418158849747], [0.05818951123801952, 0.25946082824326955], [-0.24217999936488738, 0.1341424419495565], [-0.48186340565873664, -0.36356474913231146], [0.2939724112639066, 0.08475147061081256], [0.15197515390517802, -0.2603220235214671], [0.0972378260049035, 0.022291573432216105], [-0.4223218741313437, 0.2341502084480318], [-0.2726917501255628, -0.2579750839071676], [0.3174316394931378, -0.14757685967594436], [-0.5931872339036707, 0.07274299884664351], [-0.35596974500719347, -0.03427617065060029]]",density,black,,,N012,visual,6,[],"['1', '2', '3', '4']",1,2023.2.3,harveyvisual,2.1,[],8,0.75,
0,pause,0.4,None,None,None,0,119,119,119,,,,,,,,,,,,,N012,visual,6,[],"['1', '2', '3', '4']",1,2023.2.3,harveyvisual,2.1,[],8,0.75,
20,dot,0.3,['dot'],['density'],black,0,120,120,120,,,44.400222063064575,44.120224952697754,44.42025399208069,dot,"[0.08, 0.08, 0.06, 0.06, 0.06, 0.1, 0.1, 0.06, 0.1, 0.1, 0.06, 0.06, 0.1, 0.08, 0.06, 0.06, 0.1, 0.1, 0.08, 0.08]","[[-0.3404705970125891, 0.36346405837394546], [0.5801025991835577, 0.15555315473493556], [-0.5925984557089813, 0.11670618321910245], [-0.021363198906146463, -0.010950855584977548], [0.4180230880051904, -0.3923554934600795], [-0.31431199327661674, 0.1529886322607119], [0.11144975724866646, -0.4674137570727066], [0.5720192426615694, -0.19700645072789885], [0.4321976278954397, 0.37552198272055237], [-0.29131966260518366, -0.23985823898536363], [0.13856983012160884, 0.2948844091379903], [-0.587784599898726, -0.11723140832661219], [-0.06077281114433275, 0.24047898789086886], [0.2604729606585191, -0.1241098266641763], [-0.5090696127896925, -0.3184507253741989], [-0.006171721710729328, 0.4249313591148628], [-0.19245794119661713, -0.5154503533184617], [0.2098326814445367, 0.5337881484780588], [0.39651995678000984, 0.08344898175091142], [-0.08125142069737556, -0.2377970814053782]]",density,black,,,N012,visual,6,[],"['1', '2', '3', '4']",1,2023.2.3,harveyvisual,2.1,[],8,0.75,
0,pause,0.4,None,None,None,0,121,121,121,,,,,,,,,,,,,N012,visual,6,[],"['1', '2', '3', '4']",1,2023.2.3,harveyvisual,2.1,[],8,0.75,
20,dot,0.3,['dot'],['density'],black,0,122,122,122,,,45.10023498535156,44.82022500038147,45.12021207809448,dot,"[0.06, 0.1, 0.06, 0.1, 0.08, 0.1, 0.08, 0.06, 0.08, 0.1, 0.08, 0.1, 0.08, 0.1, 0.1, 0.06, 0.06, 0.08, 0.06, 0.08]","[[-0.5766084541117527, -0.13784776153144748], [0.6016007909974098, 0.04972392480902932], [0.331885948265651, -0.1723921139464944], [0.10441892634573358, -0.017584287382003683], [-0.17904242149024224, -0.1409855059513645], [0.019820164560896525, 0.43159970445330875], [-0.10044116645615808, 0.0872620897548233], [0.4252090936297418, 0.2330639252066649], [0.23917177603982898, 0.37055480462933454], [0.15782326087949483, -0.4861427472964152], [-0.18105914105297555, 0.4690071869991953], [-0.5173257881651925, 0.06584602884412699], [0.23408743541848342, 0.15534388509429786], [-0.21516043387955747, -0.4953745673565302], [-0.38842946474697165, 0.32233330617920203], [-0.03152672971179393, -0.5978197613209114], [0.517470307221178, -0.23774158873551438], [-0.4147342952538894, -0.23674656101541403], [-0.0999100785407745, -0.33899512567426954], [0.03288083481535109, 0.22552183698588668]]",density,black,,,N012,visual,6,[],"['1', '2', '3', '4']",1,2023.2.3,harveyvisual,2.1,[],8,0.75,
0,pause,0.4,None,None,None,0,123,123,123,,,,,,,,,,,,,N012,visual,6,[],"['1', '2', '3', '4']",1,2023.2.3,harveyvisual,2.1,[],8,0.75,
20,dot,0.3,['dot'],['density'],black,0,124,124,124,,,45.80022192001343,45.52020502090454,45.82018494606018,dot,"[0.06, 0.08, 0.08, 0.08, 0.08, 0.06, 0.08, 0.06, 0.08, 0.08, 0.06, 0.06, 0.06, 0.06, 0.06, 0.1, 0.1, 0.08, 0.1, 0.1]","[[0.1755802576326868, -0.331008890299584], [-0.05962174997187997, 0.08186960740384996], [-0.3055586199671673, -0.4094845632998744], [-0.061137529997286943, -0.21687211166421916], [-0.42567620440720677, -0.09802312387238676], [0.4241906601247837, 0.3726461873134485], [0.3186718424172068, 0.053862109596254704], [-0.2207939225923956, 0.24577842220426072], [-0.47945610248924386, 0.2799795430365141], [0.45853536625873337, -0.22340624848544705], [0.5520343315818731, 0.05550067489297053], [-0.5977193828036027, 0.06620116807528889], [0.08574887545176535, 0.33721972847369963], [0.226047070112254, 0.496204365976877], [-0.2450981756484676, 0.032694267427661794], [0.21027120234762398, -0.11755971908955337], [0.3484358458146495, -0.46084724329074356], [-0.07274609956243505, 0.5224346318284087], [-0.4826487852583971, -0.34092586800712943], [-0.26286779016355066, 0.5070145645014034]]",density,black,,,N012,visual,6,[],"['1', '2', '3', '4']",1,2023.2.3,harveyvisual,2.1,[],8,0.75,
0,pause,0.4,None,None,None,0,125,125,125,,,,,,,,,,,,,N012,visual,6,[],"['1', '2', '3', '4']",1,2023.2.3,harveyvisual,2.1,[],8,0.75,
20,dot,0.3,['dot'],['density'],black,0,126,126,126,,,46.50022792816162,46.22022294998169,46.5202100276947,dot,"[0.08, 0.08, 0.08, 0.08, 0.06, 0.08, 0.08, 0.08, 0.06, 0.06, 0.1, 0.08, 0.1, 0.08, 0.08, 0.08, 0.08, 0.1, 0.1, 0.06]","[[0.5159314421076048, 0.008852120289058518], [-0.36917030034911474, -0.4156564345759994], [0.20722100863822146, -0.1135620314861635], [0.023973587239617733, -0.23863203724284326], [0.29429683835024356, 0.3355946892118872], [-0.5996762994258377, -0.006795170543473422], [-0.3307588641313818, 0.301306481648149], [0.06785151018269897, -0.5978423672442392], [-0.21873931623597048, 0.5411163173942362], [-0.188994012226182, -0.3246840051201251], [-0.28113650466273965, -0.03276021621586167], [0.19091750884381808, -0.39467823363592913], [-0.016187959684704434, 0.13341860746029832], [0.5208795509042031, -0.2664061262932199], [0.4579747839170575, 0.19830215103744286], [-0.5463836551604502, -0.25188133705387433], [-0.057223921823601476, 0.3444583483109447], [0.06339281574036071, 0.5630013569037359], [-0.43992311778058696, 0.13168342702810526], [0.2936745870523293, 0.5256056316387275]]",density,black,,,N012,visual,6,[],"['1', '2', '3', '4']",1,2023.2.3,harveyvisual,2.1,[],8,0.75,
0,pause,0.4,None,None,None,0,127,127,127,,,,,,,,,,,,,N012,visual,6,[],"['1', '2', '3', '4']",1,2023.2.3,harveyvisual,2.1,[],8,0.75,
20,dot,0.3,['dot'],['density'],black,0,128,128,128,,,47.200226068496704,46.92017388343811,47.22015190124512,dot,"[0.06, 0.06, 0.08, 0.06, 0.06, 0.1, 0.1, 0.06, 0.1, 0.08, 0.08, 0.06, 0.06, 0.08, 0.08, 0.08, 0.06, 0.1, 0.08, 0.1]","[[0.4675302557657689, 0.18049238508140492], [0.3146332206693012, -0.19981532077898523], [-0.4276420158245533, 0.08282889346099487], [0.19230011975525596, -0.5505408775941781], [-0.44158375328989197, -0.17058802706543794], [0.04803902629196133, -0.3418826621324835], [0.2830782921494456, 0.39290783819107544], [0.5079783719330454, -0.17492771316432443], [0.24657351334865307, -0.011324204980565522], [-0.33879041106936275, 0.4485123276963793], [0.12758409424464212, 0.2441884761774158], [-0.03294048746376288, 0.08899648927472414], [-0.3730279973194932, -0.4233666454983675], [-0.12446764951694672, -0.17109004430141544], [-0.08775995339194764, -0.571314929968289], [0.5871877603596524, 0.013157429156534894], [-0.022152220201402617, 0.5751571543847088], [0.30762449783703694, -0.39755156332981273], [-0.22154118609476042, 0.2974625794023996], [-0.2538523548979961, 0.006844052515461163]]",density,black,,,N012,visual,6,[],"['1', '2', '3', '4']",1,2023.2.3,harveyvisual,2.1,[],8,0.75,
0,pause,0.4,None,None,None,0,129,129,129,,,,,,,,,,,,,N012,visual,6,[],"['1', '2', '3', '4']",1,2023.2.3,harveyvisual,2.1,[],8,0.75,
20,dot,0.3,['dot'],['density'],black,0,130,130,130,,,47.9002149105072,47.62019491195679,47.92017698287964,dot,"[0.06, 0.08, 0.1, 0.1, 0.1, 0.1, 0.06, 0.06, 0.1, 0.06, 0.08, 0.06, 0.08, 0.08, 0.06, 0.08, 0.06, 0.08, 0.1, 0.06]","[[0.03315581643338872, -0.5884567845268757], [-0.37381742685810465, 0.14433060465761183], [0.48738877622523236, 0.17562942932766407], [0.19562665115555666, 0.48204496943755304], [-0.4965130392865701, 0.3008900290363353], [-0.15692042876648626, 0.03249003788380278], [0.3910799244416251, -0.24375622455201265], [-0.5998901970300329, 0.013406181585562088], [0.058652256513464396, -0.00661582093655555], [0.5663685611813495, -0.12917292233162164], [-0.3601118092179887, 0.44506870572025653], [-0.4625487493474988, -0.17593252264605477], [-0.42420150231486636, -0.37542167673680993], [-0.17233122757696046, -0.18758815856648092], [0.19261809582050293, -0.17238415876533342], [0.005941143176776964, 0.44210180625264894], [0.3864010104129231, 0.0110261707426339], [0.26185666554101494, 0.24412592487797768], [0.32609864590229865, -0.4581071190260911], [-0.049448497431496485, 0.24417852510556526]]",density,black,,,N012,visual,6,[],"['1', '2', '3', '4']",1,2023.2.3,harveyvisual,2.1,[],8,0.75,
0,pause,0.4,None,None,None,0,131,131,131,,,,,,,,,,,,,N012,visual,6,[],"['1', '2', '3', '4']",1,2023.2.3,harveyvisual,2.1,[],8,0.75,
20,dot,0.3,['dot'],['density'],black,0,132,132,132,,,48.600224018096924,48.320138931274414,48.62011194229126,dot,"[0.1, 0.06, 0.08, 0.1, 0.1, 0.1, 0.1, 0.08, 0.06, 0.08, 0.08, 0.06, 0.1, 0.1, 0.06, 0.1, 0.08, 0.08, 0.06, 0.1]","[[-0.0942416887366323, -0.21462761226181942], [0.4253104320734572, 0.12262878442264696], [-0.4337746995648588, 0.2025181469369332], [0.048570618869859805, -0.4140366218965891], [-0.5759327480897785, -0.0028067193707750904], [-0.4668929154709558, -0.20690877973417435], [0.12337937889182293, -0.1493267996633425], [-0.2802124734288541, 0.389838068559205], [0.2164029545679197, 0.38845034977547044], [-0.2844446939303289, -0.05695693641349059], [0.07410361933848619, 0.5740641775096863], [0.0021690861691421315, 0.2508576871485835], [-0.1667884781439704, -0.5559104419933082], [0.2604476275148603, -0.4469785945487907], [0.5661041310557587, -0.11662943055661175], [0.23920329195759082, 0.0473294692085946], [-0.31729577999075137, -0.3697817490004658], [0.36527718327982717, -0.19954536077250024], [-0.0660052021401305, 0.048388789999980086], [0.4553288316922154, 0.39028539465885004]]",density,black,,,N012,visual,6,[],"['1', '2', '3', '4']",1,2023.2.3,harveyvisual,2.1,[],8,0.75,
0,pause,0.4,None,None,None,0,133,133,133,,,,,,,,,,,,,N012,visual,6,[],"['1', '2', '3', '4']",1,2023.2.3,harveyvisual,2.1,[],8,0.75,
20,dot,0.3,['dot'],['density'],black,0,134,134,134,,,49.300215005874634,49.02011299133301,49.32010006904602,dot,"[0.06, 0.1, 0.08, 0.06, 0.06, 0.06, 0.08, 0.06, 0.08, 0.06, 0.1, 0.06, 0.08, 0.08, 0.1, 0.08, 0.08, 0.08, 0.1, 0.06]","[[-0.03571311302274427, -0.32086548339607146], [-0.5424842269961991, -0.023651156009917212], [0.04205322551573565, -0.500599888322964], [0.47134317188891195, 0.04999504455963705], [0.11765664602899994, -0.04124472427737391], [-0.3436430086510513, 0.42287308961229925], [-0.05495410220595054, 0.09366197434076518], [0.21002444919844343, -0.3011914243733646], [-0.23330573070056587, -0.47156645211340614], [-0.32954985596293807, -0.24717277785898084], [-0.3633835187658726, 0.1045202576544722], [0.2921945199938266, 0.42589995568039407], [0.42333386267864415, -0.3231629567713157], [-0.5244428084686987, 0.23642220319680857], [0.13847818095385223, 0.2872366694991584], [-0.533660447983624, -0.2729508961948229], [0.5135555103463002, 0.3103273427005132], [-0.23266334239535957, 0.25953853481929445], [0.5597643730653966, -0.17846969529957266], [-0.10811037894905817, 0.48527685515032304]]",density,black,,,N012,visual,6,[],"['1', '2', '3', '4']",1,2023.2.3,harveyvisual,2.1,[],8,0.75,
0,pause,0.4,None,None,None,0,135,135,135,,,,,,,,,,,,,N012,visual,6,[],"['1', '2', '3', '4']",1,2023.2.3,harveyvisual,2.1,[],8,0.75,
20,dot,0.3,['dot'],['density'],black,0,136,136,136,,,50.00023698806763,49.7201189994812,50.02012085914612,dot,"[0.08, 0.06, 0.08, 0.06, 0.1, 0.08, 0.06, 0.06, 0.1, 0.1, 0.1, 0.08, 0.06, 0.1, 0.08, 0.06, 0.08, 0.1, 0.06, 0.06]","[[0.36833338744351196, 0.3203040266569415], [0.5707895351664135, 0.1405558095308335], [-0.40633421494939453, 0.24760821686098494], [-0.5158720143090668, -0.29859200842296335], [0.007203984407159414, -0.11518549381446413], [0.10753245832250913, 0.3590507930179119], [0.3604286893839993, 0.030433415651379248], [0.13299355557620962, -0.5424722438661194], [-0.5913550413195082, 0.05729846048251944], [-0.15712799817803075, -0.0002525971640292557], [0.2501958471447906, 0.5467083945972562], [0.37717985659813813, -0.4579407589889355], [-0.37241619347846056, -0.4490804560281122], [0.1170978827778959, 0.1182829688199134], [-0.17707123104182676, 0.5401771793797172], [-0.16280697439263236, -0.4054278380626949], [-0.354490577615611, -0.164376093994758], [0.414988017656707, -0.2079405480169945], [0.04512280343655306, 0.5910229094731605], [0.5893100540142527, -0.10010973807951959]]",density,black,,,N012,visual,6,[],"['1', '2', '3', '4']",1,2023.2.3,harveyvisual,2.1,[],8,0.75,
0,pause,0.4,None,None,None,0,137,137,137,,,,,,,,,,,,,N012,visual,6,[],"['1', '2', '3', '4']",1,2023.2.3,harveyvisual,2.1,[],8,0.75,
20,dot,0.3,['dot'],['density'],white,0,138,138,138,,,50.70022392272949,50.4200758934021,50.72007989883423,dot,"[0.1, 0.06, 0.06, 0.06, 0.06, 0.08, 0.1, 0.08, 0.06, 0.1, 0.06, 0.08, 0.06, 0.1, 0.1, 0.08, 0.08, 0.1, 0.08, 0.1]","[[-0.043349932307102934, -0.5674204118861832], [-0.37221106807137505, 0.007437542047420476], [-0.5865019263615256, 0.08413867695745642], [0.3882456706326265, -0.45744194684972517], [0.5187783887766707, -0.22938046065363796], [0.4142293043916131, 0.09023259199915062], [-0.4868456881479083, -0.34607390436600016], [-0.16820663363007105, -0.34928671146935675], [-0.3791446184341224, 0.21238802344520075], [-0.0943282811295113, -0.08110627621569622], [0.14095581437872362, 0.3835067766988476], [0.30059611224935867, -0.2055334543584041], [-0.020973603424418452, 0.5233553370525813], [-0.18310526247088044, 0.1211640796181459], [-0.5778597600122714, -0.12123969627929362], [0.4565045423745474, 0.31290918719182886], [-0.23971153178215399, 0.43534997945693077], [-0.0806899216695054, 0.28334441806478594], [0.5808341364782531, -0.026582581334587407], [0.03561385552349161, 0.061559119856071876]]",density,white,,,N012,visual,6,[],"['1', '2', '3', '4']",1,2023.2.3,harveyvisual,2.1,[],8,0.75,
0,pause,0.4,None,None,None,0,139,139,139,,,,,,,,,,,1,50.537161111831665,N012,visual,6,[],"['1', '2', '3', '4']",1,2023.2.3,harveyvisual,2.1,[],8,0.75,
20,dot,0.3,['dot'],['density'],black,0,140,140,140,,,51.400240898132324,51.12006688117981,51.420997858047485,dot,"[0.06, 0.06, 0.08, 0.06, 0.06, 0.08, 0.06, 0.1, 0.08, 0.1, 0.06, 0.1, 0.06, 0.06, 0.06, 0.06, 0.06, 0.08, 0.1, 0.08]","[[0.3802669742136944, 0.11647760503299137], [-0.002940198854325393, 0.49577788358735975], [-0.5257484421205756, 0.11789198894069819], [-0.19707677764004655, -0.23793301925702104], [-0.3369365906655224, 0.32324233974944205], [-0.03781865571152532, -0.5168885230215564], [0.43774960499673277, -0.1939935826458917], [-0.04177345992034642, -0.04763505413637681], [0.43380932022103236, -0.4060060896480466], [-0.2924446716596888, -0.06440023318579219], [0.21480223793088915, 0.452412061726733], [-0.583129768082051, -0.15990744925174077], [0.42467963536812026, 0.3904701798706592], [0.5587797032034963, 0.22280680596907776], [-0.38798565929311934, -0.3782688284749177], [-0.1207067277985171, 0.16686259943384152], [0.1681997789676244, -0.4525836077544283], [0.0205640431141616, -0.31971229147764707], [0.16898374813910855, 0.1301959422017548], [-0.15298457674913468, 0.3685538159933548]]",density,black,,,N012,visual,6,[],"['1', '2', '3', '4']",1,2023.2.3,harveyvisual,2.1,[],8,0.75,
0,pause,0.4,None,None,None,0,141,141,141,,,,,,,,,,,,,N012,visual,6,[],"['1', '2', '3', '4']",1,2023.2.3,harveyvisual,2.1,[],8,0.75,
20,dot,0.3,['dot'],['density'],black,0,142,142,142,,,52.10022306442261,51.82010293006897,52.12008786201477,dot,"[0.1, 0.06, 0.08, 0.08, 0.06, 0.06, 0.08, 0.06, 0.06, 0.06, 0.06, 0.06, 0.06, 0.08, 0.06, 0.08, 0.08, 0.1, 0.08, 0.06]","[[-0.046229216423747554, -0.589024474007696], [-0.46422167054610386, 0.2653287416371537], [-0.3206171005836887, -0.4459570345162739], [0.11043695191240543, 0.3128789744054382], [-0.12921428415451341, 0.5119020511257707], [0.19636267351855408, -0.41208609759241344], [0.6024346690102013, -0.0259297242322378], [0.542177648713397, 0.22063873818973795], [-0.3087638126720932, -0.1476888353416615], [0.10446138088466306, -0.15515139409664153], [-0.13770661857933802, -0.361681977171296], [0.2960732103835869, 0.43798689408613567], [-0.21340106882554993, 0.11134631448793597], [-0.5324032740026946, -0.15780511125538582], [0.40071195229930645, -0.3172654163955064], [0.1634479883760246, 0.09189539853816742], [-0.09147015243974632, -0.05350021654921333], [-0.3826049240044802, 0.4374653559336758], [-0.42254269911450754, 0.0554289633526136], [0.3877477868454149, -0.12707984614987794]]",density,black,,,N012,visual,6,[],"['1', '2', '3', '4']",1,2023.2.3,harveyvisual,2.1,[],8,0.75,
0,pause,0.4,None,None,None,0,143,143,143,,,,,,,,,,,,,N012,visual,6,[],"['1', '2', '3', '4']",1,2023.2.3,harveyvisual,2.1,[],8,0.75,
20,dot,0.3,['dot'],['density'],black,0,144,144,144,,,52.800215005874634,52.52009606361389,52.82007098197937,dot,"[0.06, 0.06, 0.1, 0.1, 0.08, 0.1, 0.1, 0.06, 0.08, 0.1, 0.1, 0.08, 0.1, 0.08, 0.1, 0.08, 0.1, 0.1, 0.06, 0.1]","[[-0.26982009769085336, 0.2210389813593413], [0.5705365296485291, -0.008958512487976883], [-0.5994713418281987, -0.07232123709834015], [0.008443314594375861, -0.47723108102756595], [-0.44265260018017305, -0.4123775304988711], [0.15446925035336811, -0.35602066868313575], [0.2369342089916131, 0.2292012790339727], [-0.2963877072174209, -0.1198085679816917], [-0.388038201662143, 0.4228043743090151], [-0.05518334595481278, 0.11480978530726005], [-0.025677487202115157, -0.08743947202709168], [-0.021983040705755075, 0.3296908042358252], [-0.5637118295371446, 0.17789984145993326], [0.2896733787018052, -0.09467227949806112], [-0.2463610885249259, -0.46183299744620093], [0.1044319564629771, 0.4802750064626372], [0.5610878173304111, 0.21596779846439373], [-0.1350266573520606, -0.282415879508114], [0.4305163578409307, -0.22305486610193354], [-0.14697203377313878, 0.505606721643694]]",density,black,,,N012,visual,6,[],"['1', '2', '3', '4']",1,2023.2.3,harveyvisual,2.1,[],8,0.75,
0,pause,0.4,None,None,None,0,145,145,145,,,,,,,,,,,,,N012,visual,6,[],"['1', '2', '3', '4']",1,2023.2.3,harveyvisual,2.1,[],8,0.75,
20,dot,0.3,['dot'],['density'],black,0,146,146,146,,,53.500216007232666,53.22004699707031,53.520041942596436,dot,"[0.06, 0.06, 0.1, 0.1, 0.08, 0.1, 0.06, 0.06, 0.1, 0.08, 0.1, 0.1, 0.08, 0.06, 0.06, 0.1, 0.06, 0.06, 0.08, 0.08]","[[-0.4655851327669576, 0.2163991620380612], [-0.017924938104019295, 0.08038208600635754], [0.4488909408562297, -0.31267874627360875], [0.21204820434269678, -0.12881734842914377], [0.46707455450525404, 0.06306345331747581], [0.33300571430694426, 0.2857189763506254], [-0.5357137736097055, -0.009184318251337198], [0.2891527662928983, -0.520174194051531], [0.2555773262252736, 0.5179975014938987], [-0.021028918396966634, 0.46923258614648045], [-0.31348458749153085, -0.45804787888554865], [-0.03444863898127448, -0.2542345723191749], [-0.092842686852325, -0.5778868947633342], [-0.24795577719423406, 0.5241838322149022], [0.15121660415739224, 0.22983423364598465], [-0.2779766850708308, -0.2337524932454928], [0.5288571969305477, 0.2512811606102782], [0.16627385221531354, -0.35697472902782984], [-0.2864891769940567, -0.020353987430065557], [0.5796761455740144, -0.14744628226672218]]",density,black,,,N012,visual,6,[],"['1', '2', '3', '4']",1,2023.2.3,harveyvisual,2.1,[],8,0.75,
0,pause,0.4,None,None,None,0,147,147,147,,,,,,,,,,,,,N012,visual,6,[],"['1', '2', '3', '4']",1,2023.2.3,harveyvisual,2.1,[],8,0.75,
20,dot,0.3,['dot'],['density'],black,0,148,148,148,,,54.200236082077026,53.92002892494202,54.22001099586487,dot,"[0.1, 0.08, 0.1, 0.06, 0.06, 0.06, 0.1, 0.08, 0.06, 0.1, 0.06, 0.1, 0.08, 0.1, 0.06, 0.1, 0.08, 0.06, 0.06, 0.08]","[[-0.06421130228721539, 0.24911173021615252], [0.11507437229811168, -0.20542710983553797], [-0.5169770975632958, -0.007689331936200028], [0.3200347828315987, 0.38951436572364095], [-0.40260172554960527, -0.41255838593094096], [-0.3782625304827578, 0.38379179967443633], [0.01996289542221863, 0.5857657412255965], [0.3176655054666917, -0.5114664026125033], [-0.051193149467216204, -0.0779894253461817], [0.4620808655990395, -0.25352716200142944], [-0.2031131514097807, 0.1038913302165494], [-0.08421280960144817, -0.4307662462961381], [-0.3989442270412838, 0.14650713023319628], [0.6037965197193712, -0.026112046667565482], [-0.5566885648403894, -0.21809834868980663], [-0.3427165496825544, -0.09701145712112552], [0.5495881345830517, 0.1675229790123286], [0.13282563570646044, 0.32133710930563497], [0.20260127639061387, 0.11878417383051454], [0.2976098974430298, -0.07459322094967646]]",density,black,,,N012,visual,6,[],"['1', '2', '3', '4']",1,2023.2.3,harveyvisual,2.1,[],8,0.75,
0,pause,0.4,None,None,None,0,149,149,149,,,,,,,,,,,,,N012,visual,6,[],"['1', '2', '3', '4']",1,2023.2.3,harveyvisual,2.1,[],8,0.75,
20,dot,0.3,['dot'],['density'],black,0,150,150,150,,,54.90023589134216,54.62000799179077,54.92000102996826,dot,"[0.08, 0.1, 0.06, 0.08, 0.08, 0.06, 0.1, 0.08, 0.1, 0.06, 0.1, 0.06, 0.08, 0.1, 0.1, 0.1, 0.08, 0.06, 0.08, 0.06]","[[-0.4751755405672653, 0.32167195165713847], [-0.1624203087522293, -0.327148030844698], [-0.22377889285215824, 0.3970467519708276], [0.2793475634208743, 0.24713828078920053], [-0.4196173502541598, -0.12419131055686994], [0.5878474338685672, 0.0476557402593667], [-0.14687566186274942, -0.5400743117990693], [-0.03729031376782921, -0.08575988007277646], [-0.2386183923191718, 0.1924843868939885], [-0.6034653240578686, -0.03848652345370686], [0.3205076943586499, -0.05604439331935973], [0.37818455308117904, -0.40865721429728635], [-0.352925457432631, -0.35037514977952383], [-0.03642777302305744, 0.1906437603065484], [0.40911840179657266, 0.395063211543877], [0.07577797912112005, 0.42223866668728116], [0.56579360414215, -0.19601268966484858], [0.20278548818159892, -0.20465228981119277], [0.466313650646888, 0.21210024636126046], [0.14649757695069598, -0.5357164092210391]]",density,black,,,N012,visual,6,[],"['1', '2', '3', '4']",1,2023.2.3,harveyvisual,2.1,[],8,0.75,
0,pause,0.4,None,None,None,0,151,151,151,,,,,,,,,,,,,N012,visual,6,[],"['1', '2', '3', '4']",1,2023.2.3,harveyvisual,2.1,[],8,0.75,
20,dot,0.3,['dot'],['density'],black,0,152,152,152,,,55.60022807121277,55.319989919662476,55.61996006965637,dot,"[0.08, 0.06, 0.08, 0.1, 0.1, 0.06, 0.08, 0.06, 0.06, 0.08, 0.08, 0.06, 0.08, 0.08, 0.08, 0.08, 0.06, 0.1, 0.06, 0.1]","[[-0.17308215638574176, 0.026338534603519537], [0.11080692857078078, -0.0003929367608639378], [-0.5929775116808905, -0.01416710184936576], [0.5254995944545598, -0.28568442475931866], [-0.4346590383054277, 0.39237034434000034], [-0.13573438678636945, 0.5511363516560454], [-0.13903728387809472, 0.2894611507621584], [0.22764591515450983, -0.22960046703667714], [0.3939678767235114, 0.1940181554410923], [-0.3999376234599199, -0.1289211219556261], [-0.17461523343278862, -0.48735227824438654], [0.03612790738650373, -0.3098524207781013], [0.10393082579249635, 0.23756034133895787], [0.384233958981693, 0.3842526196460724], [0.5955414648654217, -0.10194928931984291], [-0.38221448661262913, -0.3992944703851029], [0.05407816175111291, 0.5165977602241534], [-0.19002080282831985, -0.1848757122920327], [-0.4519920616987144, 0.11247428716042607], [0.1006864656221379, -0.5581700176792352]]",density,black,,,N012,visual,6,[],"['1', '2', '3', '4']",1,2023.2.3,harveyvisual,2.1,[],8,0.75,
0,pause,0.4,None,None,None,0,153,153,153,,,,,,,,,,,,,N012,visual,6,[],"['1', '2', '3', '4']",1,2023.2.3,harveyvisual,2.1,[],8,0.75,
20,dot,0.3,['dot'],['density'],white,0,154,154,154,,,56.30022192001343,56.019968032836914,56.31996202468872,dot,"[0.08, 0.06, 0.08, 0.08, 0.06, 0.06, 0.08, 0.08, 0.08, 0.08, 0.08, 0.06, 0.06, 0.1, 0.08, 0.1, 0.06, 0.06, 0.06, 0.1]","[[0.07063463918255286, 0.2670957529297241], [-0.1663990478150545, 0.5624424010376781], [0.490815137217253, 0.2684293036166943], [0.011598255988046757, -0.2772551777465489], [0.0321861298568038, -0.48128360356813227], [0.2663802488099065, 0.0672355450015556], [-0.32604847110652757, 0.23937346586508235], [-0.14721468116091224, -0.5668898609842049], [-0.31079744582251956, 0.049665979768668156], [0.0709578941827933, 0.008783939366510118], [-0.5507890489190164, -0.1540149624634532], [0.20922112325923803, 0.5543182303326103], [-0.3550044104296823, -0.449043426391422], [0.4418949305400427, -0.14684104993399089], [-0.1318269508810898, 0.1865450259358179], [-0.29682513404573535, -0.23994786402588236], [0.23185459144180653, -0.15430070132598744], [0.6028286449203543, -0.03845047227300635], [-0.4985685295490456, 0.11668977847044115], [-0.14082692262535706, -0.0865050818180152]]",density,white,,,N012,visual,6,[],"['1', '2', '3', '4']",1,2023.2.3,harveyvisual,2.1,[],8,0.75,
0,pause,0.4,None,None,None,0,155,155,155,,,,,,,,,,,1,56.15186905860901,N012,visual,6,[],"['1', '2', '3', '4']",1,2023.2.3,harveyvisual,2.1,[],8,0.75,
9,dot,0.3,['dot'],['density'],black,0,156,156,156,,,57.00023102760315,56.71995687484741,57.0199499130249,dot,"[0.08, 0.06, 0.1, 0.06, 0.06, 0.08, 0.08, 0.1, 0.1]","[[0.38655548767220327, 0.3303110468779764], [-0.15062718332117264, 0.3263612679497012], [0.12850016508903517, 0.5435449351404695], [0.04975739233973968, 0.11256198773833849], [0.05418506391445401, 0.3174451450657875], [0.282644584802279, 0.13382110200906677], [0.4968372747528943, 0.11977440893831985], [-0.17748280977865974, 0.12733825933579754], [-0.16508880216336755, 0.5437291489982663]]",density,black,,,N012,visual,6,[],"['1', '2', '3', '4']",1,2023.2.3,harveyvisual,2.1,[],8,0.75,
0,pause,0.4,None,None,None,0,157,157,157,,,,,,,,,,,,,N012,visual,6,[],"['1', '2', '3', '4']",1,2023.2.3,harveyvisual,2.1,[],8,0.75,
9,dot,0.3,['dot'],['density'],black,0,158,158,158,,,57.70023989677429,57.41993188858032,57.71992588043213,dot,"[0.06, 0.08, 0.08, 0.06, 0.08, 0.1, 0.1, 0.08, 0.06]","[[-0.3143165991636532, -0.4594448536910345], [-0.2552048841139852, -0.06866208597721758], [-0.4539914907372049, -0.019462523532982], [-0.0016330512078212595, -0.20036737320767878], [-0.1856154264835833, -0.2915493351998931], [-0.41369389823818076, -0.2734186166626005], [0.2388286227728169, -0.07063581723838416], [0.0412368179136257, 0.05808754956878123], [-0.37802967984412894, 0.19285536194211775]]",density,black,,,N012,visual,6,[],"['1', '2', '3', '4']",1,2023.2.3,harveyvisual,2.1,[],8,0.75,
0,pause,0.4,None,None,None,0,159,159,159,,,,,,,,,,,,,N012,visual,6,[],"['1', '2', '3', '4']",1,2023.2.3,harveyvisual,2.1,[],8,0.75,
9,dot,0.3,['dot'],['density'],black,0,160,160,160,,,58.400224924087524,58.11991906166077,58.4208550453186,dot,"[0.1, 0.08, 0.1, 0.1, 0.08, 0.08, 0.06, 0.08, 0.1]","[[0.5633060189111645, -0.020447411670609934], [0.24486306384976717, 0.44476630120442473], [0.18428866344346043, -0.051083701103786204], [0.30165572131442664, 0.2239114093385097], [-0.0017431279865323516, 0.11759053127645673], [0.36864926730470376, 0.029118730319846676], [0.08307425003498874, 0.31712463906399285], [0.26393370779995823, -0.24286541122091637], [0.5109425385251136, 0.2557989077594731]]",density,black,,,N012,visual,6,[],"['1', '2', '3', '4']",1,2023.2.3,harveyvisual,2.1,[],8,0.75,
0,pause,0.4,None,None,None,0,161,161,161,,,,,,,,,,,,,N012,visual,6,[],"['1', '2', '3', '4']",1,2023.2.3,harveyvisual,2.1,[],8,0.75,
9,dot,0.3,['dot'],['density'],black,0,162,162,162,,,59.10021686553955,58.81991100311279,59.121986865997314,dot,"[0.06, 0.08, 0.06, 0.08, 0.08, 0.1, 0.08, 0.06, 0.06]","[[0.27429149071172837, 0.34251676390746333], [0.46797507249945486, 0.005491811463162166], [0.21235580877939833, 0.08757146436558581], [0.046223583492975936, 0.2932249054251131], [0.07051592556679111, -0.0704922843318231], [0.30438918969270623, -0.13028831600800136], [0.11534598117609637, 0.5236829685630697], [-0.06673610159464062, 0.12515255452502297], [-0.14439101605953233, -0.1332028051536465]]",density,black,,,N012,visual,6,[],"['1', '2', '3', '4']",1,2023.2.3,harveyvisual,2.1,[],8,0.75,
0,pause,0.4,None,None,None,0,163,163,163,,,,,,,,,,,,,N012,visual,6,[],"['1', '2', '3', '4']",1,2023.2.3,harveyvisual,2.1,[],8,0.75,
9,dot,0.3,['dot'],['density'],black,0,164,164,164,,,59.80023002624512,59.520992040634155,59.81986594200134,dot,"[0.06, 0.06, 0.1, 0.08, 0.06, 0.1, 0.08, 0.1, 0.1]","[[-0.13146557112902973, 0.14116723461389186], [0.2951467361821443, -0.02824752732805288], [0.19428532799116477, -0.23589609671221848], [-0.28731157875063357, -0.1506919145754202], [-0.013954936164563217, -0.2914313940092583], [0.05437169614590384, 0.05057158482376688], [-0.11710547218270359, -0.5628603002908775], [-0.3181416531292253, -0.36750682532956547], [-0.10064922490671671, -0.07835054634105423]]",density,black,,,N012,visual,6,[],"['1', '2', '3', '4']",1,2023.2.3,harveyvisual,2.1,[],8,0.75,
0,pause,0.4,None,None,None,0,165,165,165,,,,,,,,,,,,,N012,visual,6,[],"['1', '2', '3', '4']",1,2023.2.3,harveyvisual,2.1,[],8,0.75,
9,dot,0.3,['dot'],['density'],black,0,166,166,166,,,60.5002179145813,60.219834089279175,60.51985287666321,dot,"[0.06, 0.06, 0.1, 0.06, 0.08, 0.08, 0.08, 0.06, 0.1]","[[-0.2844843713072754, 0.22325415166673976], [-0.1819235275981482, -0.2724209396165719], [-0.4663757242286994, 0.0951888680112534], [-0.002662519752874684, 0.12526046944360225], [-0.2804516333182533, -0.07461618094684651], [-0.06266188203573825, -0.10246171469469513], [0.05562179911838863, -0.3774952117829348], [-0.29777175193284133, -0.43797360937606633], [-0.44596842075831894, -0.24145786298940805]]",density,black,,,N012,visual,6,[],"['1', '2', '3', '4']",1,2023.2.3,harveyvisual,2.1,[],8,0.75,
0,pause,0.4,None,None,None,0,167,167,167,,,,,,,,,,,,,N012,visual,6,[],"['1', '2', '3', '4']",1,2023.2.3,harveyvisual,2.1,[],8,0.75,
8,dot,0.3,['dot'],['density'],black,0,168,168,168,,,61.200231075286865,60.919853925704956,61.219805002212524,dot,"[0.08, 0.1, 0.1, 0.1, 0.06, 0.1, 0.06, 0.08]","[[-0.3306282708070712, -0.09459634407206743], [0.17708038186302957, -0.36794437316098305], [-0.34368294577136044, -0.39688855169369486], [-0.16397220561896333, 0.03033928826277653], [-0.08476975953586025, -0.41834960305423746], [-0.16765121495786453, -0.2265743681515788], [0.0449590487082352, -0.10546915507075137], [-0.5574709661459258, -0.15664368712912546]]",density,black,,,N012,visual,6,[],"['1', '2', '3', '4']",1,2023.2.3,harveyvisual,2.1,[],8,0.75,
0,pause,0.4,None,None,None,0,169,169,169,,,,,,,,,,,,,N012,visual,6,[],"['1', '2', '3', '4']",1,2023.2.3,harveyvisual,2.1,[],8,0.75,
8,dot,0.3,['dot'],['density'],black,0,170,170,170,,,61.900224924087524,61.619811058044434,61.9198100566864,dot,"[0.08, 0.1, 0.08, 0.06, 0.06, 0.06, 0.08, 0.1]","[[-0.2875956673588428, -0.37608972473646446], [0.1738442798715151, -0.5418380206356169], [-0.005791994605287101, -0.36400925298789194], [0.15381919852689818, -0.2106776783026027], [-0.02243369038452208, -0.11017027562433494], [-0.1375601387891928, -0.5383184991665005], [0.3481619806761259, -0.4256719133417836], [-0.2437856683810358, -0.16373273019932677]]",density,black,,,N012,visual,6,[],"['1', '2', '3', '4']",1,2023.2.3,harveyvisual,2.1,[],8,0.75,
0,pause,0.4,None,None,None,0,171,171,171,,,,,,,,,,,,,N012,visual,6,[],"['1', '2', '3', '4']",1,2023.2.3,harveyvisual,2.1,[],8,0.75,
8,dot,0.3,['dot'],['density'],black,0,172,172,172,,,62.60022187232971,62.321945905685425,62.61977505683899,dot,"[0.1, 0.08, 0.08, 0.06, 0.1, 0.06, 0.06, 0.08]","[[0.1740819983727909, -0.16863019829442621], [0.14644114519141543, -0.4524198896657212], [0.0024885361438939093, 0.023531574910491997], [-0.23717340943857948, -0.31112918658627675], [-0.11311749148073028, -0.46867866316561874], [-0.17928248077090506, -0.060241557052319365], [-0.03957999532622772, -0.24759906754331504], [-0.4644327601918011, -0.3627803331480915]]",density,black,,,N012,visual,6,[],"['1', '2', '3', '4']",1,2023.2.3,harveyvisual,2.1,[],8,0.75,
0,pause,0.4,None,None,None,0,173,173,173,,,,,,,,,,,,,N012,visual,6,[],"['1', '2', '3', '4']",1,2023.2.3,harveyvisual,2.1,[],8,0.75,
8,dot,0.3,['dot'],['density'],black,0,174,174,174,,,63.30022192001343,63.019789934158325,63.31979990005493,dot,"[0.1, 0.06, 0.1, 0.06, 0.06, 0.1, 0.08, 0.1]","[[-0.4462313073918426, 0.10595449025715867], [0.022923871415176152, 0.06290918987699953], [-0.12461589820496316, 0.4830175517012745], [-0.29730306390741434, 0.2752084497958106], [-0.2195410516364439, 0.056871795648565045], [0.008916049516666445, 0.2907399105306955], [-0.08256048209355603, -0.11638226771844133], [-0.4106304257826301, -0.09222594144079917]]",density,black,,,N012,visual,6,[],"['1', '2', '3', '4']",1,2023.2.3,harveyvisual,2.1,[],8,0.75,
0,pause,0.4,None,None,None,0,175,175,175,,,,,,,,,,,,,N012,visual,6,[],"['1', '2', '3', '4']",1,2023.2.3,harveyvisual,2.1,[],8,0.75,
8,dot,0.3,['dot'],['density'],black,0,176,176,176,,,64.00022387504578,63.71979308128357,64.01977396011353,dot,"[0.1, 0.06, 0.1, 0.1, 0.08, 0.1, 0.08, 0.08]","[[-0.16499387414028463, -0.418455346753131], [0.031011941373623824, -0.006148034068666969], [-0.4150712424924157, -0.28668557629476243], [-0.199054958380199, -0.21375968732837633], [-0.4870789535587041, 0.00515905815181239], [-0.198479811208303, 0.006815000109153054], [-0.3273741662815474, 0.19008037141614484], [0.04340096687518584, -0.25044408321713213]]",density,black,,,N012,visual,6,[],"['1', '2', '3', '4']",1,2023.2.3,harveyvisual,2.1,[],8,0.75,
0,pause,0.4,None,None,None,0,177,177,177,,,,,,,,,,,,,N012,visual,6,[],"['1', '2', '3', '4']",1,2023.2.3,harveyvisual,2.1,[],8,0.75,
8,dot,0.3,['dot'],['density'],black,0,178,178,178,,,64.70024299621582,64.41977596282959,64.71976089477539,dot,"[0.08, 0.06, 0.08, 0.06, 0.08, 0.06, 0.1, 0.06]","[[0.3129921899656287, 0.2226642157048143], [0.41298599633021416, -0.001766323215076977], [0.013785601627645026, 0.39275307090924344], [-0.009407606244017683, 0.02333367620517349], [0.20163499737495916, -0.08731087547331118], [0.31235423233837933, 0.42762820752661124], [0.10705959187470679, 0.21318577255187057], [-0.13233007013452783, 0.20605257250075132]]",density,black,,,N012,visual,6,[],"['1', '2', '3', '4']",1,2023.2.3,harveyvisual,2.1,[],8,0.75,
0,pause,0.4,None,None,None,0,179,179,179,,,,,,,,,,,,,N012,visual,6,[],"['1', '2', '3', '4']",1,2023.2.3,harveyvisual,2.1,[],8,0.75,
7,dot,0.3,['dot'],['density'],black,0,180,180,180,,,65.40023589134216,65.11977291107178,65.41975688934326,dot,"[0.08, 0.1, 0.06, 0.06, 0.08, 0.08, 0.06]","[[-0.08751196138777266, -0.40239331021683095], [-0.1389983634140625, -0.1821537091642013], [-0.5212097088452917, -0.15879536445288125], [-0.24197016774290594, 0.025691971861017886], [-0.324083892787021, -0.3083678109532634], [0.06465625853811506, -0.19815494036826437], [-0.2569867334647868, -0.5155038850209747]]",density,black,,,N012,visual,6,[],"['1', '2', '3', '4']",1,2023.2.3,harveyvisual,2.1,[],8,0.75,
0,pause,0.4,None,None,None,0,181,181,181,,,,,,,,,,,,,N012,visual,6,[],"['1', '2', '3', '4']",1,2023.2.3,harveyvisual,2.1,[],8,0.75,
7,dot,0.3,['dot'],['density'],black,0,182,182,182,,,66.10022902488708,65.81973195075989,66.1197190284729,dot,"[0.1, 0.06, 0.1, 0.06, 0.06, 0.08, 0.08]","[[-0.1635229753841098, 0.12186382262109141], [0.03437657187081179, 0.5178389267683822], [0.324184412335695, 0.17931743601205324], [0.08929018524031027, 0.11005745596178185], [-0.1318259817332877, 0.4026967659136047], [-0.053046683696667, -0.06058584598870606], [0.042745683665752716, 0.304616966822181]]",density,black,,,N012,visual,6,[],"['1', '2', '3', '4']",1,2023.2.3,harveyvisual,2.1,[],8,0.75,
0,pause,0.4,None,None,None,0,183,183,183,,,,,,,,,,,,,N012,visual,6,[],"['1', '2', '3', '4']",1,2023.2.3,harveyvisual,2.1,[],8,0.75,
7,dot,0.3,['dot'],['density'],black,0,184,184,184,,,66.80024290084839,66.51969599723816,66.81968808174133,dot,"[0.06, 0.08, 0.1, 0.1, 0.06, 0.08, 0.1]","[[0.12902113605384963, -0.35167066519854956], [0.3838909825822851, -0.05572740120406059], [-0.02857767273637445, 0.1549795872955612], [0.19333287999408408, 0.10698923431715611], [-0.08146847087507005, -0.06064403559207536], [0.18020694687254563, -0.15550905334431223], [-0.07225335190945896, -0.28606481362007624]]",density,black,,,N012,visual,6,[],"['1', '2', '3', '4']",1,2023.2.3,harveyvisual,2.1,[],8,0.75,
0,pause,0.4,None,None,None,0,185,185,185,,,,,,,,,,,,,N012,visual,6,[],"['1', '2', '3', '4']",1,2023.2.3,harveyvisual,2.1,[],8,0.75,
7,dot,0.3,['dot'],['density'],black,0,186,186,186,,,67.5002179145813,67.21967792510986,67.51966500282288,dot,"[0.06, 0.1, 0.08, 0.1, 0.08, 0.08, 0.06]","[[0.19245168201499255, -0.1876960705048169], [-0.3381443552002159, -0.23329338142126996], [-0.10497405195571721, -0.20200038512761503], [-0.19215049966389516, -0.01485034356210763], [-0.14804808022624072, 0.20187381879058183], [0.049390412829639754, -0.0077734514623590935], [0.08212821656350888, 0.19234027401595055]]",density,black,,,N012,visual,6,[],"['1', '2', '3', '4']",1,2023.2.3,harveyvisual,2.1,[],8,0.75,
0,pause,0.4,None,None,None,0,187,187,187,,,,,,,,,,,,,N012,visual,6,[],"['1', '2', '3', '4']",1,2023.2.3,harveyvisual,2.1,[],8,0.75,
7,dot,0.3,['dot'],['density'],black,0,188,188,188,,,68.20023703575134,67.91963505744934,68.2205650806427,dot,"[0.1, 0.08, 0.1, 0.06, 0.08, 0.1, 0.08]","[[-0.27819289690075527, 0.2483046813246476], [-0.5592260237138849, -0.07980801324287977], [-0.026637344717372308, -0.10521889364121585], [-0.16909952645659185, 0.05101222878256789], [-0.21868546305501066, -0.16482274839932262], [-0.3689572500107929, 0.03738969849335829], [-0.49227831811218986, 0.2063327632277477]]",density,black,,,N012,visual,6,[],"['1', '2', '3', '4']",1,2023.2.3,harveyvisual,2.1,[],8,0.75,
0,pause,0.4,None,None,None,0,189,189,189,,,,,,,,,,,,,N012,visual,6,[],"['1', '2', '3', '4']",1,2023.2.3,harveyvisual,2.1,[],8,0.75,
7,dot,0.3,['dot'],['density'],black,0,190,190,190,,,68.90023803710938,68.61967706680298,68.91965198516846,dot,"[0.06, 0.1, 0.1, 0.08, 0.06, 0.1, 0.1]","[[0.3899189512010899, -0.40728696153528776], [0.20392863561369634, -0.3305625840210526], [0.31626985815109576, 0.13567824844623666], [0.5017338684339655, -0.028549680114735937], [0.11648855723187378, -0.1078833072829627], [0.07041138378868489, 0.08730219371944997], [0.32910598476010167, -0.13660711058181768]]",density,black,,,N012,visual,6,[],"['1', '2', '3', '4']",1,2023.2.3,harveyvisual,2.1,[],8,0.75,
0,pause,0.4,None,None,None,0,191,191,191,,,,,,,,,,,,,N012,visual,6,[],"['1', '2', '3', '4']",1,2023.2.3,harveyvisual,2.1,[],8,0.75,
6,dot,0.3,['dot'],['density'],black,0,192,192,192,,,69.60021495819092,69.31960892677307,69.6196060180664,dot,"[0.08, 0.06, 0.1, 0.1, 0.08, 0.06]","[[-0.5379788740814003, -0.011730333491669416], [-0.1820890739253136, -0.27973544868684425], [-0.07809457889047756, -0.09124846264896269], [-0.30616251401069866, -0.45101817852416426], [-0.44200878281119743, -0.26991620184617166], [-0.3315938551005316, -0.08696624632848979]]",density,black,,,N012,visual,6,[],"['1', '2', '3', '4']",1,2023.2.3,harveyvisual,2.1,[],8,0.75,
0,pause,0.4,None,None,None,0,193,193,193,,,,,,,,,,,,,N012,visual,6,[],"['1', '2', '3', '4']",1,2023.2.3,harveyvisual,2.1,[],8,0.75,
6,dot,0.3,['dot'],['density'],black,0,194,194,194,,,70.30022096633911,70.01959705352783,70.31961297988892,dot,"[0.1, 0.06, 0.08, 0.08, 0.1, 0.06]","[[0.26568550625605564, -0.48823100126060537], [0.030589778490880962, -0.34307155488476027], [0.2920158589989485, -0.005481777194348812], [0.4969139129819881, -0.3034402107212153], [0.2924968692334099, -0.2393606426967254], [0.09404279540557291, -0.1505005030192783]]",density,black,,,N012,visual,6,[],"['1', '2', '3', '4']",1,2023.2.3,harveyvisual,2.1,[],8,0.75,
0,pause,0.4,None,None,None,0,195,195,195,,,,,,,,,,,,,N012,visual,6,[],"['1', '2', '3', '4']",1,2023.2.3,harveyvisual,2.1,[],8,0.75,
6,dot,0.3,['dot'],['density'],black,0,196,196,196,,,71.00022387504578,70.71962094306946,71.0195779800415,dot,"[0.06, 0.1, 0.06, 0.08, 0.1, 0.08]","[[0.1643264729387965, -0.2471077239796436], [-0.22534804549937193, -0.4918728234310363], [-0.026166131246113146, -0.09278119687647148], [-0.24451989516519138, -0.21339523607155425], [0.11868454116144263, -0.4574197693624388], [-0.058907778787058426, -0.30919141315076737]]",density,black,,,N012,visual,6,[],"['1', '2', '3', '4']",1,2023.2.3,harveyvisual,2.1,[],8,0.75,
0,pause,0.4,None,None,None,0,197,197,197,,,,,,,,,,,,,N012,visual,6,[],"['1', '2', '3', '4']",1,2023.2.3,harveyvisual,2.1,[],8,0.75,
6,dot,0.3,['dot'],['density'],black,0,198,198,198,,,71.70022988319397,71.41961193084717,71.71956086158752,dot,"[0.06, 0.06, 0.06, 0.08, 0.1, 0.06]","[[0.1982846419110591, -0.5292804859653952], [-0.09533153174900855, -0.5647367288422243], [-0.1659446600366624, -0.36958438178462333], [0.23572970018209544, -0.2476946313124468], [-0.023160452264027947, -0.17140847685647978], [0.035419311136148636, -0.3737635646361638]]",density,black,,,N012,visual,6,[],"['1', '2', '3', '4']",1,2023.2.3,harveyvisual,2.1,[],8,0.75,
0,pause,0.4,None,None,None,0,199,199,199,,,,,,,,,,,,,N012,visual,6,[],"['1', '2', '3', '4']",1,2023.2.3,harveyvisual,2.1,[],8,0.75,
6,dot,0.3,['dot'],['density'],white,0,200,200,200,,,72.40022993087769,72.11955499649048,72.41956496238708,dot,"[0.08, 0.08, 0.06, 0.08, 0.1, 0.06]","[[0.0015484977009578463, -0.37153509484940705], [-0.24631791352898516, -0.16063896847060222], [-0.21037316856202723, -0.37491302730087106], [-0.14520134419833938, 0.05228402714841561], [-0.41979900021501537, -0.27073368115662844], [-0.020720382871846178, -0.14076137757070492]]",density,white,,,N012,visual,6,[],"['1', '2', '3', '4']",1,2023.2.3,harveyvisual,2.1,[],8,0.75,
0,pause,0.4,None,None,None,0,201,201,201,,,,,,,,,,,1,72.0948121547699,N012,visual,6,[],"['1', '2', '3', '4']",1,2023.2.3,harveyvisual,2.1,[],8,0.75,
6,dot,0.3,['dot'],['density'],white,0,202,202,202,,,73.10022592544556,72.8195469379425,73.11951899528503,dot,"[0.08, 0.1, 0.08, 0.06, 0.06, 0.06]","[[-0.36954580940820725, 0.05815165478813925], [-0.28534481837461456, -0.12375618373579561], [-0.26428406214372846, 0.28010711109252995], [-0.5657182147315603, -0.11096589427743007], [-0.1492704575467133, 0.06899119969773035], [-0.5584105255039638, 0.13196562846102936]]",density,white,,,N012,visual,6,[],"['1', '2', '3', '4']",1,2023.2.3,harveyvisual,2.1,[],8,0.75,
0,pause,0.4,None,None,None,0,203,203,203,,,,,,,,,,,1,72.76489400863647,N012,visual,6,[],"['1', '2', '3', '4']",1,2023.2.3,harveyvisual,2.1,[],8,0.75,
5,dot,0.3,['dot'],['density'],black,0,204,204,204,,,73.8002278804779,73.51954102516174,73.8195378780365,dot,"[0.08, 0.06, 0.08, 0.06, 0.08]","[[-0.3632963637400461, -0.33792544526642676], [-0.48189922448633543, -0.036156829306921726], [-0.2958020468624338, 0.07292024124872273], [-0.10639492237515816, -0.0008972940205680791], [-0.20818262001932955, -0.17666930306052683]]",density,black,,,N012,visual,6,[],"['1', '2', '3', '4']",1,2023.2.3,harveyvisual,2.1,[],8,0.75,
0,pause,0.4,None,None,None,0,205,205,205,,,,,,,,,,,,,N012,visual,6,[],"['1', '2', '3', '4']",1,2023.2.3,harveyvisual,2.1,[],8,0.75,
5,dot,0.3,['dot'],['density'],black,0,206,206,206,,,74.50024104118347,74.22040891647339,74.51949286460876,dot,"[0.1, 0.08, 0.08, 0.1, 0.08]","[[-0.11834215492801986, 0.412508379109845], [0.31881799646300274, 0.30859303438359803], [-0.06368743078099719, 0.10105058071702504], [0.1133485112468387, 0.46262203184429457], [0.11957051434631445, 0.24197418837926052]]",density,black,,,N012,visual,6,[],"['1', '2', '3', '4']",1,2023.2.3,harveyvisual,2.1,[],8,0.75,
0,pause,0.4,None,None,None,0,207,207,207,,,,,,,,,,,,,N012,visual,6,[],"['1', '2', '3', '4']",1,2023.2.3,harveyvisual,2.1,[],8,0.75,
5,dot,0.3,['dot'],['density'],black,0,208,208,208,,,75.20022892951965,74.91947102546692,75.2194550037384,dot,"[0.06, 0.1, 0.08, 0.06, 0.1]","[[-0.15120343604734773, 0.13880483605515373], [-0.27543704003083597, 0.3074941448909677], [-0.47853302670601033, 0.30949922786165307], [-0.3682774975032249, -0.13900280599659498], [-0.34692227301900613, 0.0889564565184539]]",density,black,,,N012,visual,6,[],"['1', '2', '3', '4']",1,2023.2.3,harveyvisual,2.1,[],8,0.75,
0,pause,0.4,None,None,None,0,209,209,209,,,,,,,,,,,,,N012,visual,6,[],"['1', '2', '3', '4']",1,2023.2.3,harveyvisual,2.1,[],8,0.75,
5,dot,0.3,['dot'],['density'],black,0,210,210,210,,,75.90022802352905,75.61952304840088,75.91947889328003,dot,"[0.08, 0.1, 0.1, 0.1, 0.1]","[[0.26736814946294957, 0.039639821311179], [0.3007085492035367, 0.3262250213434343], [0.4353907115448318, -0.11778011175670104], [0.4521497692138949, 0.1289853794543976], [0.1485908728023605, -0.12275462689891227]]",density,black,,,N012,visual,6,[],"['1', '2', '3', '4']",1,2023.2.3,harveyvisual,2.1,[],8,0.75,
0,pause,0.4,None,None,None,0,211,211,211,,,,,,,,,,,,,N012,visual,6,[],"['1', '2', '3', '4']",1,2023.2.3,harveyvisual,2.1,[],8,0.75,
5,dot,0.3,['dot'],['density'],black,0,212,212,212,,,76.60023593902588,76.31947708129883,76.62126898765564,dot,"[0.06, 0.08, 0.08, 0.08, 0.06]","[[-0.15120343604734773, 0.13880483605515373], [-0.27543704003083597, 0.3074941448909677], [-0.47853302670601033, 0.30949922786165307], [-0.3682774975032249, -0.13900280599659498], [-0.34692227301900613, 0.0889564565184539]]",density,black,,,N012,visual,6,[],"['1', '2', '3', '4']",1,2023.2.3,harveyvisual,2.1,[],8,0.75,
0,pause,0.4,None,None,None,0,213,213,213,,,,,,,,,,,,,N012,visual,6,[],"['1', '2', '3', '4']",1,2023.2.3,harveyvisual,2.1,[],8,0.75,
5,dot,0.3,['dot'],['density'],black,0,214,214,214,,,77.30023002624512,77.01945090293884,77.31944608688354,dot,"[0.1, 0.08, 0.1, 0.08, 0.08]","[[0.2947939438731228, -0.23060267152592065], [-0.16069394766121817, -0.3416383267983795], [0.17571447256805817, -0.04795497140357211], [-0.06398416024856234, -0.043165972544212804], [0.046845399773749824, -0.2436216536023896]]",density,black,,,N012,visual,6,[],"['1', '2', '3', '4']",1,2023.2.3,harveyvisual,2.1,[],8,0.75,
0,pause,0.4,None,None,None,0,215,215,215,,,,,,,,,,,,,N012,visual,6,[],"['1', '2', '3', '4']",1,2023.2.3,harveyvisual,2.1,[],8,0.75,
4,dot,0.3,['dot'],['density'],black,0,216,216,216,,,78.00023198127747,77.7194230556488,78.02047204971313,dot,"[0.06, 0.06, 0.1, 0.06]","[[-0.42715721775789556, -0.3806885655784049], [-0.5104054706627589, -0.18016651458941194], [-0.409412055521987, 0.008153849732111747], [-0.2456709064377862, -0.21492281530681134]]",density,black,,,N012,visual,6,[],"['1', '2', '3', '4']",1,2023.2.3,harveyvisual,2.1,[],8,0.75,
0,pause,0.4,None,None,None,0,217,217,217,,,,,,,,,,,,,N012,visual,6,[],"['1', '2', '3', '4']",1,2023.2.3,harveyvisual,2.1,[],8,0.75,
4,dot,0.3,['dot'],['density'],black,0,218,218,218,,,78.70022296905518,78.41939306259155,78.71937203407288,dot,"[0.06, 0.06, 0.06, 0.1]","[[-0.03907102058372138, -0.1723346686752248], [0.13255167928633116, -0.03782047714335622], [0.2720101467217329, -0.23443565690461937], [0.07080951743106016, -0.35239766365090747]]",density,black,,,N012,visual,6,[],"['1', '2', '3', '4']",1,2023.2.3,harveyvisual,2.1,[],8,0.75,
0,pause,0.4,None,None,None,0,219,219,219,,,,,,,,,,,,,N012,visual,6,[],"['1', '2', '3', '4']",1,2023.2.3,harveyvisual,2.1,[],8,0.75,
4,dot,0.3,['dot'],['density'],black,0,220,220,220,,,79.40023994445801,79.11937189102173,79.4193639755249,dot,"[0.06, 0.08, 0.08, 0.1]","[[0.0015408600658227804, 0.35051751062746694], [-0.20674122870780898, 0.3211588031025307], [-0.08430622538187964, 0.13383917563087117], [0.1780252705082131, 0.19175915241248492]]",density,black,,,N012,visual,6,[],"['1', '2', '3', '4']",1,2023.2.3,harveyvisual,2.1,[],8,0.75,
0,pause,0.4,None,None,None,0,221,221,221,,,,,,,,,,,,,N012,visual,6,[],"['1', '2', '3', '4']",1,2023.2.3,harveyvisual,2.1,[],8,0.75,
4,dot,0.3,['dot'],['density'],black,0,222,222,222,,,80.10023498535156,79.81937003135681,80.11933898925781,dot,"[0.08, 0.06, 0.08, 0.06]","[[-0.24231220575667195, -0.22966258239168486], [-0.5136420973432148, -0.13696856920477488], [-0.4300726721285167, 0.13088957628356482], [-0.3148289313469241, -0.03851715211982174]]",density,black,,,N012,visual,6,[],"['1', '2', '3', '4']",1,2023.2.3,harveyvisual,2.1,[],8,0.75,
0,pause,0.4,None,None,None,0,223,223,223,,,,,,,,,,,,,N012,visual,6,[],"['1', '2', '3', '4']",1,2023.2.3,harveyvisual,2.1,[],8,0.75,
4,dot,0.3,['dot'],['density'],black,0,224,224,224,,,80.80023097991943,80.52023506164551,80.81932997703552,dot,"[0.1, 0.08, 0.06, 0.08]","[[-0.22375678750486633, 0.16938766720995918], [-0.03438308412182927, 0.2632029670309489], [0.15312837370161694, 0.1265605786946886], [-0.035433382102469414, 0.014828983441921377]]",density,black,,,N012,visual,6,[],"['1', '2', '3', '4']",1,2023.2.3,harveyvisual,2.1,[],8,0.75,
0,pause,0.4,None,None,None,0,225,225,225,,,,,,,,,,,,,N012,visual,6,[],"['1', '2', '3', '4']",1,2023.2.3,harveyvisual,2.1,[],8,0.75,
4,dot,0.3,['dot'],['density'],black,0,226,226,226,,,81.50023007392883,81.2193250656128,81.51931190490723,dot,"[0.1, 0.08, 0.06, 0.1]","[[-0.264878088602857, 0.22906395790450432], [0.07239228809704809, 0.2615492699427171], [0.10034738543262733, 0.4676118263175188], [-0.09637524959065707, 0.3769302803343899]]",density,black,,,N012,visual,6,[],"['1', '2', '3', '4']",1,2023.2.3,harveyvisual,2.1,[],8,0.75,
0,pause,0.4,None,None,None,0,227,227,227,,,,,,,,,,,,,N012,visual,6,[],"['1', '2', '3', '4']",1,2023.2.3,harveyvisual,2.1,[],8,0.75,
3,dot,0.3,['dot'],['density'],black,0,228,228,228,,,82.20021986961365,81.9193000793457,82.21928191184998,dot,"[0.08, 0.1, 0.08]","[[-0.31319101668702665, 0.019781348947723338], [-0.5473895760332308, 0.024991247927059115], [-0.4494119348059314, -0.1602141851013313]]",density,black,,,N012,visual,6,[],"['1', '2', '3', '4']",1,2023.2.3,harveyvisual,2.1,[],8,0.75,
0,pause,0.4,None,None,None,0,229,229,229,,,,,,,,,,,,,N012,visual,6,[],"['1', '2', '3', '4']",1,2023.2.3,harveyvisual,2.1,[],8,0.75,
3,dot,0.3,['dot'],['density'],black,0,230,230,230,,,82.90022087097168,82.6201810836792,82.91927003860474,dot,"[0.08, 0.06, 0.08]","[[0.3835821938049364, -0.20766469641190155], [0.321707527308891, -0.4175939354614905], [0.1897943789354585, -0.2642367600490923]]",density,black,,,N012,visual,6,[],"['1', '2', '3', '4']",1,2023.2.3,harveyvisual,2.1,[],8,0.75,
0,pause,0.4,None,None,None,0,231,231,231,,,,,,,,,,,,,N012,visual,6,[],"['1', '2', '3', '4']",1,2023.2.3,harveyvisual,2.1,[],8,0.75,
3,dot,0.3,['dot'],['density'],black,0,232,232,232,,,83.60022187232971,83.3192880153656,83.61927103996277,dot,"[0.08, 0.08, 0.1]","[[0.48628142840140876, 0.1515230430224543], [0.28796188866220057, 0.19625725416133796], [0.3371406364253883, -0.002661880310138811]]",density,black,,,N012,visual,6,[],"['1', '2', '3', '4']",1,2023.2.3,harveyvisual,2.1,[],8,0.75,
0,pause,0.4,None,None,None,0,233,233,233,,,,,,,,,,,,,N012,visual,6,[],"['1', '2', '3', '4']",1,2023.2.3,harveyvisual,2.1,[],8,0.75,
3,dot,0.3,['dot'],['density'],black,0,234,234,234,,,84.30022096633911,84.01929187774658,84.32033896446228,dot,"[0.08, 0.1, 0.08]","[[-0.42255820389626353, 0.35871945956833473], [-0.19896656331745483, 0.3032224324013186], [-0.25553590712368324, 0.5056038804507684]]",density,black,,,N012,visual,6,[],"['1', '2', '3', '4']",1,2023.2.3,harveyvisual,2.1,[],8,0.75,
0,pause,0.4,None,None,None,0,235,235,235,,,,,,,,,,,,,N012,visual,6,[],"['1', '2', '3', '4']",1,2023.2.3,harveyvisual,2.1,[],8,0.75,
3,dot,0.3,['dot'],['density'],black,0,236,236,236,,,85.00024700164795,84.72014904022217,85.0192198753357,dot,"[0.06, 0.08, 0.1]","[[-0.1599523582230929, -0.020289166781496174], [-0.3458010015304564, -0.14250622038001895], [-0.3538668896253721, 0.08903610231223419]]",density,black,,,N012,visual,6,[],"['1', '2', '3', '4']",1,2023.2.3,harveyvisual,2.1,[],8,0.75,
0,pause,0.4,None,None,None,0,237,237,237,,,,,,,,,,,,,N012,visual,6,[],"['1', '2', '3', '4']",1,2023.2.3,harveyvisual,2.1,[],8,0.75,
3,dot,0.3,['dot'],['density'],black,0,238,238,238,,,85.70021891593933,85.41921496391296,85.71918797492981,dot,"[0.08, 0.06, 0.1]","[[-0.05604225559701161, -0.5082314702914299], [0.10137377066920354, -0.3837858820064252], [-0.12802807887251882, -0.3142638921214105]]",density,black,,,N012,visual,6,[],"['1', '2', '3', '4']",1,2023.2.3,harveyvisual,2.1,[],8,0.75,
0,pause,0.4,None,None,None,0,239,239,239,,,,,,,,,,,,,N012,visual,6,[],"['1', '2', '3', '4']",1,2023.2.3,harveyvisual,2.1,[],8,0.75,
2,dot,0.3,['dot'],['density'],white,0,240,240,240,,,86.40023398399353,86.1191918849945,86.41918897628784,dot,"[0.1, 0.08]","[[-0.19482721327365293, -0.5079820576301489], [-0.36119809377872014, -0.396546877814361]]",density,white,,,N012,visual,6,[],"['1', '2', '3', '4']",1,2023.2.3,harveyvisual,2.1,[],8,0.75,
0,pause,0.4,None,None,None,0,241,241,241,,,,,,,,,,,1,86.23052310943604,N012,visual,6,[],"['1', '2', '3', '4']",1,2023.2.3,harveyvisual,2.1,[],8,0.75,
2,dot,0.3,['dot'],['density'],black,0,242,242,242,,,87.10022807121277,86.81919002532959,87.11917495727539,dot,"[0.06, 0.08]","[[0.45098141687762733, -0.20237638590572143], [0.5433504117931098, -0.02475258047346216]]",density,black,,,N012,visual,6,[],"['1', '2', '3', '4']",1,2023.2.3,harveyvisual,2.1,[],8,0.75,
0,pause,0.4,None,None,None,0,243,243,243,,,,,,,,,,,,,N012,visual,6,[],"['1', '2', '3', '4']",1,2023.2.3,harveyvisual,2.1,[],8,0.75,
2,dot,0.3,['dot'],['density'],black,0,244,244,244,,,87.80021786689758,87.51916790008545,87.8191750049591,dot,"[0.06, 0.08]","[[-0.22897676209827808, 0.468650264003531], [-0.0598036877009514, 0.5760211786176329]]",density,black,,,N012,visual,6,[],"['1', '2', '3', '4']",1,2023.2.3,harveyvisual,2.1,[],8,0.75,
0,pause,0.4,None,None,None,0,245,245,245,,,,,,,,,,,,,N012,visual,6,[],"['1', '2', '3', '4']",1,2023.2.3,harveyvisual,2.1,[],8,0.75,
2,dot,0.3,['dot'],['density'],black,0,246,246,246,,,88.50022506713867,88.21915602684021,88.5191330909729,dot,"[0.1, 0.08]","[[0.28379985726396956, 0.19228106150028407], [0.10160376615595414, 0.2763535177041957]]",density,black,,,N012,visual,6,[],"['1', '2', '3', '4']",1,2023.2.3,harveyvisual,2.1,[],8,0.75,
0,pause,0.4,None,None,None,0,247,247,247,,,,,,,,,,,,,N012,visual,6,[],"['1', '2', '3', '4']",1,2023.2.3,harveyvisual,2.1,[],8,0.75,
2,dot,0.3,['dot'],['density'],black,0,248,248,248,,,89.20023989677429,88.9191300868988,89.21912407875061,dot,"[0.08, 0.06]","[[0.11825467712572878, -0.39617910972508336], [0.05459236086910312, -0.5860717982025758]]",density,black,,,N012,visual,6,[],"['1', '2', '3', '4']",1,2023.2.3,harveyvisual,2.1,[],8,0.75,
0,pause,0.4,None,None,None,0,249,249,249,,,,,,,,,,,,,N012,visual,6,[],"['1', '2', '3', '4']",1,2023.2.3,harveyvisual,2.1,[],8,0.75,
2,dot,0.3,['dot'],['density'],black,0,250,250,250,,,89.90022397041321,89.62019491195679,89.91909599304199,dot,"[0.06, 0.08]","[[0.3054529246123127, 0.4455278178545299], [0.3548458028228903, 0.2510588499170468]]",density,black,,,N012,visual,6,[],"['1', '2', '3', '4']",1,2023.2.3,harveyvisual,2.1,[],8,0.75,
0,pause,0.4,None,None,None,0,251,251,251,,,,,,,,,,,,,N012,visual,6,[],"['1', '2', '3', '4']",1,2023.2.3,harveyvisual,2.1,[],8,0.75,
1,dot,0.3,['dot'],['density'],black,0,252,252,252,,,90.60022306442261,90.3190929889679,90.6190869808197,dot,[0.1],"[0.01430498756481247, 0.36429701967127975]",density,black,,,N012,visual,6,[],"['1', '2', '3', '4']",1,2023.2.3,harveyvisual,2.1,[],8,0.75,
0,pause,0.4,None,None,None,0,253,253,253,,,,,,,,,,,,,N012,visual,6,[],"['1', '2', '3', '4']",1,2023.2.3,harveyvisual,2.1,[],8,0.75,
1,dot,0.3,['dot'],['density'],black,0,254,254,254,,,91.3002290725708,91.01907205581665,91.3190529346466,dot,[0.1],"[0.19623115665255414, 0.1676894875529279]",density,black,,,N012,visual,6,[],"['1', '2', '3', '4']",1,2023.2.3,harveyvisual,2.1,[],8,0.75,
0,pause,0.4,None,None,None,0,255,255,255,,,,,,,,,,,,,N012,visual,6,[],"['1', '2', '3', '4']",1,2023.2.3,harveyvisual,2.1,[],8,0.75,
1,dot,0.3,['dot'],['density'],white,0,256,256,256,,,92.0002429485321,91.71908187866211,92.01999092102051,dot,[0.1],"[0.2287398259034258, -0.3932960849464651]",density,white,,,N012,visual,6,[],"['1', '2', '3', '4']",1,2023.2.3,harveyvisual,2.1,[],8,0.75,
0,pause,0.4,None,None,None,0,257,257,257,,,,,,,,,,,1,91.74522805213928,N012,visual,6,[],"['1', '2', '3', '4']",1,2023.2.3,harveyvisual,2.1,[],8,0.75,
1,dot,0.3,['dot'],['density'],black,0,258,258,258,,,92.70021891593933,92.41908192634583,92.71904301643372,dot,[0.06],"[0.14557363600905707, -0.03994760510263185]",density,black,,,N012,visual,6,[],"['1', '2', '3', '4']",1,2023.2.3,harveyvisual,2.1,[],8,0.75,
0,pause,0.4,None,None,None,0,259,259,259,,,,,,,,,,,,,N012,visual,6,[],"['1', '2', '3', '4']",1,2023.2.3,harveyvisual,2.1,[],8,0.75,
1,dot,0.3,['dot'],['density'],black,0,260,260,260,,,93.40022706985474,93.11900901794434,93.41903805732727,dot,[0.06],"[0.2443568370277045, -0.23874091154858243]",density,black,,,N012,visual,6,[],"['1', '2', '3', '4']",1,2023.2.3,harveyvisual,2.1,[],8,0.75,
0,pause,0.4,None,None,None,0,261,261,261,,,,,,,,,,,,,N012,visual,6,[],"['1', '2', '3', '4']",1,2023.2.3,harveyvisual,2.1,[],8,0.75,
1,dot,0.3,['dot'],['density'],black,0,262,262,262,,,94.10025095939636,93.81991386413574,94.11898708343506,dot,[0.1],"[0.19623115665255414, 0.1676894875529279]",density,black,,,N012,visual,6,[],"['1', '2', '3', '4']",1,2023.2.3,harveyvisual,2.1,[],8,0.75,
0,pause,0.4,None,None,None,0,263,263,263,,,,,,,,,,,,,N012,visual,6,[],"['1', '2', '3', '4']",1,2023.2.3,harveyvisual,2.1,[],8,0.75,
20,dot,0.3,['dot'],['density'],black,0,264,264,264,,,94.80022406578064,94.51898694038391,94.81897902488708,dot,"[0.08, 0.06, 0.1, 0.1, 0.06, 0.08, 0.06, 0.1, 0.08, 0.06, 0.08, 0.1, 0.06, 0.1, 0.1, 0.1, 0.08, 0.1, 0.1, 0.08]","[[-0.32053585249249444, -0.2541306596558395], [0.432126920449568, 0.30405892773212684], [0.4726498932681399, -0.2114769828627954], [-0.02788084860346285, 0.5086551233323349], [0.19014999707847724, 0.49205831114961873], [0.2526870533938278, -0.5302203309534189], [-0.1519001949481683, 0.014075432011602107], [-0.3891908298458142, 0.37095421937853174], [0.07910383123852227, -0.0836927498786354], [-0.22450317960894162, 0.5398516496232506], [-0.49553531238269943, 0.037502604529123185], [0.16867254571323365, -0.2688247430198474], [0.011042076592151728, 0.2123969709797432], [-0.018135853392410306, -0.3322885823631355], [-0.2683804775964388, -0.4398426141609817], [0.44572863778773086, -0.008966957840350898], [0.2516298061284399, 0.05895285548454132], [-0.5562255707502683, -0.19455262675071522], [-0.18560337777394476, 0.30945157804408086], [-0.13206888850888843, -0.5859320084382668]]",density,black,,,N012,visual,6,[],"['1', '2', '3', '4']",1,2023.2.3,harveyvisual,2.1,[],8,0.75,
0,pause,0.4,None,None,None,0,265,265,265,,,,,,,,,,,,,N012,visual,6,[],"['1', '2', '3', '4']",1,2023.2.3,harveyvisual,2.1,[],8,0.75,
20,dot,0.3,['dot'],['density'],black,0,266,266,266,,,95.50023889541626,95.2189998626709,95.51896595954895,dot,"[0.1, 0.08, 0.06, 0.06, 0.08, 0.1, 0.08, 0.1, 0.08, 0.08, 0.08, 0.08, 0.06, 0.08, 0.1, 0.08, 0.06, 0.1, 0.1, 0.1]","[[-0.4669140311112775, 0.16617517601933984], [0.2998283714586585, 0.514927624291295], [0.3198002500799413, -0.37768018397041286], [-0.2020851950848106, -0.5092784357226983], [0.15287314443825617, 0.23746435040165048], [-0.02020519347337335, 0.10021768306582424], [0.05439120601251135, -0.4080832789325982], [0.06652180511094163, -0.1721802973399988], [0.519853092234751, 0.202586636503652], [-0.18356850378818823, 0.4189243206800437], [-0.5408937204302194, -0.1652689321235758], [-0.3851317348765525, 0.3960493868219088], [-0.2863864672650962, -0.24796421953990183], [0.037073489767451395, 0.5521835364565655], [0.40268894161859203, -0.1538773359529711], [0.5986747734713452, -0.043197681961522336], [0.1846097246723618, 0.030600823209692374], [-0.19779511512507508, 0.18141136832351257], [-0.44238970887682794, -0.40039365310127384], [-0.32590073555831284, 0.00448528479034882]]",density,black,,,N012,visual,6,[],"['1', '2', '3', '4']",1,2023.2.3,harveyvisual,2.1,[],8,0.75,
0,pause,0.4,None,None,None,0,267,267,267,,,,,,,,,,,,,N012,visual,6,[],"['1', '2', '3', '4']",1,2023.2.3,harveyvisual,2.1,[],8,0.75,
